"rt","response_timestamp","stimulus","response","trial_type","trial_index","time_elapsed","internal_node_id","run_id","condition","recorded_at","source_code_version","ip","user_agent","device","browser","browser_version","platform","platform_version","referer","accept_language","PROLIFIC_PID","STUDY_ID","SESSION_ID","BATCH","prolific_id","batch","realtime","success","question_order","question_id","eventType","responses","item_order","radio_event_ids","radio_event_times","key_event_times","mouse_event_times","straightlining","zigzagging","honeypot","view_history","slider_start","which_type","canvas_config","goals_layout","control_level","trial_number","tutorial_trial_number","trial_start_time","phase1_start_time","phase2_start_time","phase3_start_time","goal_1_value","goal_1_distance","goal_2_value","goal_2_distance","goal_selected","outcome","outcome_total","participant_final_score","participant_initial_score","participant_final_score_prop","goal_choice_rt","allocated_time","allocated_time_remaining","goal_direction","counts","mouse_movements","key_presses"
"41831","1754472324106","<p style='font-size:40px;line-height:1.25'><strong>Welcome to the experiment!</strong></p><p style='font-size:1.1em;line-height:1.25'>Thank you for participanting in our experiment again! You will be asked to play the Dysfunctional Ball Game again. We will briefly recap the rules before we start.</p><p style='font-size:1.1em;line-height:1.25'>Press <strong>Next</strong> to continue.</p>","0","custom-html-button-response","0","41878","0.0-0.0","163","1","2025-08-06 09:24:37","36c45c0696341be0efffe67d72a12abb","105.245.126.225","Mozilla/5.0 (X11; Linux x86_64) AppleWebKit/537.36 (KHTML, like Gecko) Chrome/138.0.0.0 Safari/537.36","WebKit","Chrome","138.0.0.0","Linux","","https://app.prolific.com/","en-ZA,en-GB;q=0.9,en-US;q=0.8,en;q=0.7","666316060a19030e10987142","687a1a965b9f5b85a264363e","68931f15d9d0e65fc8a0dbb2","1","666316060a19030e10987142","1","2025-08-06T09:25:24.124Z","","","","","","","","","","","","","","","","","","","","","","","","","","","","","","","","","","","","","","","","","",""
"9350","","","","fullscreen","1","52266","0.0-1.0","163","1","2025-08-06 09:24:37","36c45c0696341be0efffe67d72a12abb","105.245.126.225","Mozilla/5.0 (X11; Linux x86_64) AppleWebKit/537.36 (KHTML, like Gecko) Chrome/138.0.0.0 Safari/537.36","WebKit","Chrome","138.0.0.0","Linux","","https://app.prolific.com/","en-ZA,en-GB;q=0.9,en-US;q=0.8,en;q=0.7","666316060a19030e10987142","687a1a965b9f5b85a264363e","68931f15d9d0e65fc8a0dbb2","1","666316060a19030e10987142","1","","true","","","","","","","","","","","","","","","","","","","","","","","","","","","","","","","","","","","","","","","","",""
"15863","1754472350397"," <p style='font-size:1.1em;line-height:1.25'>Thank you for closing all other tabs.</p><p style='font-size:1.1em;line-height:1.25'>We will now invite you to fill in some questionnaires, before starting the game.<br>This will take about 5 minutes.<br></p><p style='font-size:1.1em;line-height:1.25'>Press the <strong>Next</strong> button to continue.</p>","0","custom-html-button-response","2","68154","0.0-2.0","163","1","2025-08-06 09:24:37","36c45c0696341be0efffe67d72a12abb","105.245.126.225","Mozilla/5.0 (X11; Linux x86_64) AppleWebKit/537.36 (KHTML, like Gecko) Chrome/138.0.0.0 Safari/537.36","WebKit","Chrome","138.0.0.0","Linux","","https://app.prolific.com/","en-ZA,en-GB;q=0.9,en-US;q=0.8,en;q=0.7","666316060a19030e10987142","687a1a965b9f5b85a264363e","68931f15d9d0e65fc8a0dbb2","1","666316060a19030e10987142","1","2025-08-06T09:25:50.400Z","","","","","","","","","","","","","","","","","","","","","","","","","","","","","","","","","","","","","","","","","",""
"2735","","","{""assigned_sex"":""female""}","survey-multi-choice","3","70903","0.0-3.0-0.0","163","1","2025-08-06 09:24:37","36c45c0696341be0efffe67d72a12abb","105.245.126.225","Mozilla/5.0 (X11; Linux x86_64) AppleWebKit/537.36 (KHTML, like Gecko) Chrome/138.0.0.0 Safari/537.36","WebKit","Chrome","138.0.0.0","Linux","","https://app.prolific.com/","en-ZA,en-GB;q=0.9,en-US;q=0.8,en;q=0.7","666316060a19030e10987142","687a1a965b9f5b85a264363e","68931f15d9d0e65fc8a0dbb2","1","666316060a19030e10987142","1","","","[0]","0","demographics","","","","","","","","","","","","","","","","","","","","","","","","","","","","","","","","","","","","","",""
"15648","1754472368799","<p style='font-size:1.1em;line-height:1.25'>In the following, we will perform a baseline assessment. This means that we will ask you a few questions relating to your experiences over the past month.<br></p><p style='font-size:1.1em;line-height:1.25'>Press the <strong>Next</strong> button to continue.</p>","0","custom-html-button-response","4","86562","0.0-4.0-0.0","163","1","2025-08-06 09:24:37","36c45c0696341be0efffe67d72a12abb","105.245.126.225","Mozilla/5.0 (X11; Linux x86_64) AppleWebKit/537.36 (KHTML, like Gecko) Chrome/138.0.0.0 Safari/537.36","WebKit","Chrome","138.0.0.0","Linux","","https://app.prolific.com/","en-ZA,en-GB;q=0.9,en-US;q=0.8,en;q=0.7","666316060a19030e10987142","687a1a965b9f5b85a264363e","68931f15d9d0e65fc8a0dbb2","1","666316060a19030e10987142","1","2025-08-06T09:26:08.808Z","","","","","","","","","","","","","","","","","","","","","","","","","","","","","","","","","","","","","","","","","",""
"225216.5","","","","survey-template","5","311807","0.0-4.0-1.0","163","1","2025-08-06 09:24:37","36c45c0696341be0efffe67d72a12abb","105.245.126.225","Mozilla/5.0 (X11; Linux x86_64) AppleWebKit/537.36 (KHTML, like Gecko) Chrome/138.0.0.0 Safari/537.36","WebKit","Chrome","138.0.0.0","Linux","","https://app.prolific.com/","en-ZA,en-GB;q=0.9,en-US;q=0.8,en;q=0.7","666316060a19030e10987142","687a1a965b9f5b85a264363e","68931f15d9d0e65fc8a0dbb2","1","666316060a19030e10987142","1","2025-08-06T09:29:54.053Z","","","","pss","{""Q01"":""0"",""Q02"":""0"",""Q03"":""2"",""Q04"":""1"",""Q05"":""1"",""Q06"":""0"",""Q07"":""0"",""Q08"":""1"",""Q09"":""1"",""Q10"":""0""}","[0,1,2,3,4,5,6,7,8,9]","[""Q01"",""Q02"",""Q03"",""Q04"",""Q04"",""Q05"",""Q06"",""Q07"",""Q08"",""Q09"",""Q10""]","[45174.5,54045,84102.3999999999,101146.1000000001,102466.8999999999,127504.3999999999,137926.5,147900.7000000002,198642.6000000001,212506,222851.8999999999]","[]","[0.39999999990686774,45174.5,54045,84102.3999999999,101146.1000000001,102466.8999999999,127504.3999999999,137926.5,147148.8999999999,147900.7000000002,198642.6000000001,212506,222851.8999999999,225191.5]","0.4","0.4444444444444444","0","","","","","","","","","","","","","","","","","","","","","","","","","","","","",""
"4574","1754472598633","<p style='font-size:1.1em;line-height:1.25'>Thank you for your answers! Now we will ask you a few more questions relating to your feelings in the last 24 hours.<br></p><p style='font-size:1.1em;line-height:1.25'>Press the <strong>Next</strong> button to continue.</p>","0","custom-html-button-response","6","316390","0.0-4.0-2.0","163","1","2025-08-06 09:24:37","36c45c0696341be0efffe67d72a12abb","105.245.126.225","Mozilla/5.0 (X11; Linux x86_64) AppleWebKit/537.36 (KHTML, like Gecko) Chrome/138.0.0.0 Safari/537.36","WebKit","Chrome","138.0.0.0","Linux","","https://app.prolific.com/","en-ZA,en-GB;q=0.9,en-US;q=0.8,en;q=0.7","666316060a19030e10987142","687a1a965b9f5b85a264363e","68931f15d9d0e65fc8a0dbb2","1","666316060a19030e10987142","1","2025-08-06T09:29:58.635Z","","","","","","","","","","","","","","","","","","","","","","","","","","","","","","","","","","","","","","","","","",""
"259340.1000000001","","","","survey-template","7","575759","0.0-4.0-3.0","163","1","2025-08-06 09:24:37","36c45c0696341be0efffe67d72a12abb","105.245.126.225","Mozilla/5.0 (X11; Linux x86_64) AppleWebKit/537.36 (KHTML, like Gecko) Chrome/138.0.0.0 Safari/537.36","WebKit","Chrome","138.0.0.0","Linux","","https://app.prolific.com/","en-ZA,en-GB;q=0.9,en-US;q=0.8,en;q=0.7","666316060a19030e10987142","687a1a965b9f5b85a264363e","68931f15d9d0e65fc8a0dbb2","1","666316060a19030e10987142","1","2025-08-06T09:34:18.004Z","","","","drsp","{""Q01"":""0"",""Q02"":""0"",""Q03"":""0"",""Q04"":""0"",""Q05"":""0"",""Q06"":""0"",""Q07"":""0"",""Q08"":""0"",""Q09"":""0"",""Q10"":""0"",""Q11"":""0"",""Q12"":""5"",""Q13"":""5"",""Q14"":""5"",""Q15"":""0"",""Q16"":""0"",""Q17"":""0"",""Q18"":""0"",""Q19"":""0"",""Q20"":""0"",""Q21"":""0"",""Q22"":""0""}","[0,1,2,3,4,5,6,7,8,9,10,11,12,13,14,15,16,17,18,19,20,21]","[""Q01"",""Q02"",""Q03"",""Q04"",""Q05"",""Q06"",""Q07"",""Q08"",""Q09"",""Q10"",""Q11"",""Q12"",""Q13"",""Q14"",""Q15"",""Q16"",""Q17"",""Q18"",""Q19"",""Q20"",""Q21"",""Q22""]","[37214.89999999991,38756.10000000009,40408.5,45696.89999999991,47166,49248.39999999991,50919.10000000009,52855.39999999991,54676.60000000009,56899.10000000009,58510.299999999814,64461.10000000009,72585.79999999981,89755.1000000001,93453.79999999981,136966.2999999998,138286.1000000001,139965.19999999972,142854.3999999999,248878.80000000028,251197.69999999972,255887.80000000028]","[]","[0.10000000009313226,37214.89999999991,38756.10000000009,40408.5,45696.89999999991,47166,49248.39999999991,50919.10000000009,52855.39999999991,54676.60000000009,56899.10000000009,58510.299999999814,64461.10000000009,72585.79999999981,89755.1000000001,93453.79999999981,136966.2999999998,138286.1000000001,139965.19999999972,142854.3999999999,248878.80000000028,251197.69999999972,255887.80000000028,259294.19999999972]","0.8636363636363636","0.09523809523809523","0","","","","","","","","","","","","","","","","","","","","","","","","","","","","",""
"73210.90000000037","","","","survey-template","8","648983","0.0-4.0-4.0","163","1","2025-08-06 09:24:37","36c45c0696341be0efffe67d72a12abb","105.245.126.225","Mozilla/5.0 (X11; Linux x86_64) AppleWebKit/537.36 (KHTML, like Gecko) Chrome/138.0.0.0 Safari/537.36","WebKit","Chrome","138.0.0.0","Linux","","https://app.prolific.com/","en-ZA,en-GB;q=0.9,en-US;q=0.8,en;q=0.7","666316060a19030e10987142","687a1a965b9f5b85a264363e","68931f15d9d0e65fc8a0dbb2","1","666316060a19030e10987142","1","2025-08-06T09:35:31.228Z","","","","stress","{""Q01"":""0"",""Q02"":""1"",""Q03"":""0""}","[0,1,2]","[""Q01"",""Q02"",""Q02"",""Q03""]","[58295,61134,65618.10000000056,71084.79999999981]","[]","[58295,61134,65618.10000000056,71084.79999999981,73203]","0.6666666666666666","0","0","","","","","","","","","","","","","","","","","","","","","","","","","","","","",""
"352162","","","","instructions","9","1001150","0.0-5.0-0.0","163","1","2025-08-06 09:24:37","36c45c0696341be0efffe67d72a12abb","105.245.126.225","Mozilla/5.0 (X11; Linux x86_64) AppleWebKit/537.36 (KHTML, like Gecko) Chrome/138.0.0.0 Safari/537.36","WebKit","Chrome","138.0.0.0","Linux","","https://app.prolific.com/","en-ZA,en-GB;q=0.9,en-US;q=0.8,en;q=0.7","666316060a19030e10987142","687a1a965b9f5b85a264363e","68931f15d9d0e65fc8a0dbb2","1","666316060a19030e10987142","1","","","","","","","","","","","","","","","[{""page_index"":0,""viewing_time"":352160}]","","","","","","","","","","","","","","","","","","","","","","","","","","","",""
"85348","","<p>Before you start with this game please answer the following three questions yourself. </p>
  <p>Through this game, we measure several aspects of your cognitive performance, such as reaction times, multi-tasking capabilities </p>
  <p>and the ability to assess the situation you are in.</p>
  <p></p>
  <p><b>How good do you usually are in such tasks?</b></p>","100","html-slider-response","10","1086512","0.0-6.0-0.0","163","1","2025-08-06 09:24:37","36c45c0696341be0efffe67d72a12abb","105.245.126.225","Mozilla/5.0 (X11; Linux x86_64) AppleWebKit/537.36 (KHTML, like Gecko) Chrome/138.0.0.0 Safari/537.36","WebKit","Chrome","138.0.0.0","Linux","","https://app.prolific.com/","en-ZA,en-GB;q=0.9,en-US;q=0.8,en;q=0.7","666316060a19030e10987142","687a1a965b9f5b85a264363e","68931f15d9d0e65fc8a0dbb2","1","666316060a19030e10987142","1","2025-08-06T09:42:48.757Z","","","","PreSkillQ","","","","","","","","","","","50","","","","","","","","","","","","","","","","","","","","","","","","","","",""
"10062","","<div style=""width:500px;"">
  <p>How well do you think you will perform in this task compared to other participants?</p>
  </div>","84","html-slider-response","11","1096580","0.0-6.0-1.0","163","1","2025-08-06 09:24:37","36c45c0696341be0efffe67d72a12abb","105.245.126.225","Mozilla/5.0 (X11; Linux x86_64) AppleWebKit/537.36 (KHTML, like Gecko) Chrome/138.0.0.0 Safari/537.36","WebKit","Chrome","138.0.0.0","Linux","","https://app.prolific.com/","en-ZA,en-GB;q=0.9,en-US;q=0.8,en;q=0.7","666316060a19030e10987142","687a1a965b9f5b85a264363e","68931f15d9d0e65fc8a0dbb2","1","666316060a19030e10987142","1","2025-08-06T09:42:58.825Z","","","","PrePerfQ","","","","","","","","","","","50","","","","","","","","","","","","","","","","","","","","","","","","","","",""
"7460","","<div style=""width:500px;"">
  <p>What best describes how you currently feel?</p>
  </div>","100","html-slider-response","12","1104046","0.0-6.0-2.0","163","1","2025-08-06 09:24:37","36c45c0696341be0efffe67d72a12abb","105.245.126.225","Mozilla/5.0 (X11; Linux x86_64) AppleWebKit/537.36 (KHTML, like Gecko) Chrome/138.0.0.0 Safari/537.36","WebKit","Chrome","138.0.0.0","Linux","","https://app.prolific.com/","en-ZA,en-GB;q=0.9,en-US;q=0.8,en;q=0.7","666316060a19030e10987142","687a1a965b9f5b85a264363e","68931f15d9d0e65fc8a0dbb2","1","666316060a19030e10987142","1","2025-08-06T09:43:06.292Z","","","","PreMotivationQ","","","","","","","","","","","50","","","","","","","","","","","","","","","","","","","","","","","","","","",""
"","","","","ctl-task-cpt","13","1139199","0.0-7.0-0.0","163","1","2025-08-06 09:24:37","36c45c0696341be0efffe67d72a12abb","105.245.126.225","Mozilla/5.0 (X11; Linux x86_64) AppleWebKit/537.36 (KHTML, like Gecko) Chrome/138.0.0.0 Safari/537.36","WebKit","Chrome","138.0.0.0","Linux","","https://app.prolific.com/","en-ZA,en-GB;q=0.9,en-US;q=0.8,en;q=0.7","666316060a19030e10987142","687a1a965b9f5b85a264363e","68931f15d9d0e65fc8a0dbb2","1","666316060a19030e10987142","1","2025-08-06T09:43:41.445Z","","","","","","","","","","","","","","","","win-only","0","g1:NW,g2:SE","1","1","0","1108456.3","5864.3","10871.8","32101.2","1","4","4","6","1","-1","-2","0","0","0","5007.4","3000","-1620","[""left"",""up""]","{""num_key_presses"":3,""num_perfect"":2,""num_errors"":1,""num_randdir"":0,""num_randdir_good_moves"":0,""num_whilered"":0,""num_whileblue"":0,""num_blue"":1,""num_good_moves"":2}","[281.7142857142857,275.5111607142857,1.9,281.7142857142857,275.5111607142857,101.9,281.7142857142857,275.5111607142857,216,281.7142857142857,275.5111607142857,341.2,281.7142857142857,275.5111607142857,457.6,281.7142857142857,275.5111607142857,589.4,281.7142857142857,275.5111607142857,694.6,281.7142857142857,275.5111607142857,806.7,281.7142857142857,275.5111607142857,922.5,281.7142857142857,275.5111607142857,1042.7,281.7142857142857,275.5111607142857,1143.5,281.7142857142857,275.5111607142857,1253.6,281.7142857142857,275.5111607142857,1353.7,281.7142857142857,275.5111607142857,1455.6,281.7142857142857,275.5111607142857,1590.1,281.7142857142857,275.5111607142857,1704.8,281.7142857142857,275.5111607142857,1808.3,281.7142857142857,275.5111607142857,1946.7,281.7142857142857,275.5111607142857,2063.8,281.7142857142857,275.5111607142857,2172.5,281.7142857142857,275.5111607142857,2277.8,281.7142857142857,275.5111607142857,2411.6,281.7142857142857,275.5111607142857,2513.6,281.7142857142857,275.5111607142857,2630.8,281.7142857142857,275.5111607142857,2753.9,281.7142857142857,275.5111607142857,2882.5,281.7142857142857,275.5111607142857,2987.8,281.7142857142857,275.5111607142857,3088.2,281.7142857142857,275.5111607142857,3194.2,281.7142857142857,275.5111607142857,3329.8,281.7142857142857,275.5111607142857,3445.3,281.7142857142857,275.5111607142857,3548.8,281.7142857142857,275.5111607142857,3651.8,281.7142857142857,275.5111607142857,3769.6,281.7142857142857,275.5111607142857,3869.8,281.7142857142857,275.5111607142857,3993.7,281.7142857142857,275.5111607142857,4120,281.7142857142857,275.5111607142857,4223.9,281.7142857142857,275.5111607142857,4325.6,281.7142857142857,275.5111607142857,4461,281.7142857142857,275.5111607142857,4561.9,281.7142857142857,275.5111607142857,4667.6,281.7142857142857,275.5111607142857,4769.7,281.7142857142857,275.5111607142857,4874.6,281.7142857142857,275.5111607142857,4999.7]","[656.9,656.9,1000,0.1,-343.1,""error"",""-"",""-"",""no_move"",4376,3717,2274.2,1661.9,439.9,""smooth"",""up"",""up"",""good_move"",10822.8,6445,2993.3,7305.1,524.5,""smooth"",""up"",""up"",""good_move""]"
"25802","","<div style=""width:500px;"">
  <p>What determined the result of this run?</p>
  </div>","100","html-slider-response","14","1165012","0.0-7.0-1.0","163","1","2025-08-06 09:24:37","36c45c0696341be0efffe67d72a12abb","105.245.126.225","Mozilla/5.0 (X11; Linux x86_64) AppleWebKit/537.36 (KHTML, like Gecko) Chrome/138.0.0.0 Safari/537.36","WebKit","Chrome","138.0.0.0","Linux","","https://app.prolific.com/","en-ZA,en-GB;q=0.9,en-US;q=0.8,en;q=0.7","666316060a19030e10987142","687a1a965b9f5b85a264363e","68931f15d9d0e65fc8a0dbb2","1","666316060a19030e10987142","1","2025-08-06T09:44:07.258Z","","","","AttribQ","","","","","","","","","","","50","","","","","","","","","","","","","","","","","","","","","","","","","","",""
"24836","","<div style=""width:500px;"">
  <p>How much control did you have over the ball?</p>
  </div>","100","html-slider-response","15","1189859","0.0-7.0-2.0","163","1","2025-08-06 09:24:37","36c45c0696341be0efffe67d72a12abb","105.245.126.225","Mozilla/5.0 (X11; Linux x86_64) AppleWebKit/537.36 (KHTML, like Gecko) Chrome/138.0.0.0 Safari/537.36","WebKit","Chrome","138.0.0.0","Linux","","https://app.prolific.com/","en-ZA,en-GB;q=0.9,en-US;q=0.8,en;q=0.7","666316060a19030e10987142","687a1a965b9f5b85a264363e","68931f15d9d0e65fc8a0dbb2","1","666316060a19030e10987142","1","2025-08-06T09:44:32.104Z","","","","ControlQ","","","","","","","","","","","50","","","","","","","","","","","","","","","","","","","","","","","","","","",""
"26106","","<div style=""width:500px;"">
  <p>How would you describe your current emotional state?</p>
  </div>","0","html-slider-response","16","1215974","0.0-7.0-3.0","163","1","2025-08-06 09:24:37","36c45c0696341be0efffe67d72a12abb","105.245.126.225","Mozilla/5.0 (X11; Linux x86_64) AppleWebKit/537.36 (KHTML, like Gecko) Chrome/138.0.0.0 Safari/537.36","WebKit","Chrome","138.0.0.0","Linux","","https://app.prolific.com/","en-ZA,en-GB;q=0.9,en-US;q=0.8,en;q=0.7","666316060a19030e10987142","687a1a965b9f5b85a264363e","68931f15d9d0e65fc8a0dbb2","1","666316060a19030e10987142","1","2025-08-06T09:44:58.220Z","","","","StressQ","","","","","","","","","","","50","","","","","","","","","","","","","","","","","","","","","","","","","","",""
"13052","","<div style=""width:500px;"">
  <p>What best describes how you currently feel?</p>
  </div>","100","html-slider-response","17","1229040","0.0-7.0-4.0","163","1","2025-08-06 09:24:37","36c45c0696341be0efffe67d72a12abb","105.245.126.225","Mozilla/5.0 (X11; Linux x86_64) AppleWebKit/537.36 (KHTML, like Gecko) Chrome/138.0.0.0 Safari/537.36","WebKit","Chrome","138.0.0.0","Linux","","https://app.prolific.com/","en-ZA,en-GB;q=0.9,en-US;q=0.8,en;q=0.7","666316060a19030e10987142","687a1a965b9f5b85a264363e","68931f15d9d0e65fc8a0dbb2","1","666316060a19030e10987142","1","2025-08-06T09:45:11.285Z","","","","MotivationQ","","","","","","","","","","","50","","","","","","","","","","","","","","","","","","","","","","","","","","",""
"","","","","ctl-task-cpt","18","1291261","0.0-7.0-0.1","163","1","2025-08-06 09:24:37","36c45c0696341be0efffe67d72a12abb","105.245.126.225","Mozilla/5.0 (X11; Linux x86_64) AppleWebKit/537.36 (KHTML, like Gecko) Chrome/138.0.0.0 Safari/537.36","WebKit","Chrome","138.0.0.0","Linux","","https://app.prolific.com/","en-ZA,en-GB;q=0.9,en-US;q=0.8,en;q=0.7","666316060a19030e10987142","687a1a965b9f5b85a264363e","68931f15d9d0e65fc8a0dbb2","1","666316060a19030e10987142","1","2025-08-06T09:46:13.507Z","","","","","","","","","","","","","","","","win-only","0","g1:NW,g2:SE","0.9","2","0","1233432.9","29485.8","34489.2","59184.1","1","4","8","6","1","1","1","1","0","0.007575757575757576","5003.2","3000","1785","[""left"",""up""]","{""num_key_presses"":6,""num_perfect"":5,""num_errors"":0,""num_randdir"":1,""num_randdir_good_moves"":0,""num_whilered"":0,""num_whileblue"":0,""num_blue"":2,""num_good_moves"":5}","[281.7142857142857,275.5111607142857,1.8,281.7142857142857,275.5111607142857,121.6,281.7142857142857,275.5111607142857,226.9,277.7142857142857,275.5111607142857,329,277.7142857142857,275.5111607142857,431.9,277.7142857142857,275.5111607142857,534.4,277.7142857142857,275.5111607142857,635.9,277.7142857142857,275.5111607142857,753.3,277.7142857142857,275.5111607142857,887.5,277.7142857142857,275.5111607142857,1021.7,277.7142857142857,275.5111607142857,1154.6,277.7142857142857,275.5111607142857,1255.2,277.7142857142857,275.5111607142857,1358.3,277.7142857142857,275.5111607142857,1458.9,277.7142857142857,275.5111607142857,1563.2,277.7142857142857,275.5111607142857,1670.6,277.7142857142857,275.5111607142857,1771.5,277.7142857142857,275.5111607142857,1872.3,277.7142857142857,275.5111607142857,1981.6,277.7142857142857,275.5111607142857,2084.6,277.7142857142857,275.5111607142857,2195.6,277.7142857142857,275.5111607142857,2305.1,277.7142857142857,275.5111607142857,2410.2,277.7142857142857,275.5111607142857,2520.8,277.7142857142857,275.5111607142857,2623.4,277.7142857142857,275.5111607142857,2725,277.7142857142857,275.5111607142857,2827.5,277.7142857142857,275.5111607142857,2971.6,277.7142857142857,275.5111607142857,3078.9,277.7142857142857,275.5111607142857,3209.6,277.7142857142857,275.5111607142857,3345.8,277.7142857142857,275.5111607142857,3447.8,277.7142857142857,275.5111607142857,3551.9,277.7142857142857,275.5111607142857,3659,277.7142857142857,275.5111607142857,3761.1,277.7142857142857,275.5111607142857,3863.1,277.7142857142857,275.5111607142857,3963.6,277.7142857142857,275.5111607142857,4065.1,277.7142857142857,275.5111607142857,4167.5,277.7142857142857,275.5111607142857,4269.5,277.7142857142857,275.5111607142857,4374.1,277.7142857142857,275.5111607142857,4476.1,277.7142857142857,275.5111607142857,4581.1,277.7142857142857,275.5111607142857,4711.4,277.7142857142857,275.5111607142857,4821.8,277.7142857142857,275.5111607142857,4923.5]","[1510.6,1510.6,1000,0.1,510.6,""smooth"",""left"",""left"",""good_move"",4232.2,2717.5,2120,1514.9,597.4,""oops"",""left"",""right"",""bad_move"",11394,7159.4,2435.4,8319.6,639,""smooth"",""left"",""left"",""good_move"",17720.6,6324.4,2289.6,14842.3,588.7,""smooth"",""left"",""left"",""good_move"",20897.8,3173.6,2629.2,17724.4,544.2,""smooth"",""up"",""up"",""good_move"",24463.2,3561.4,3044.1,20902,517.2,""smooth"",""up"",""up"",""good_move""]"
"33933","","<div style=""width:500px;"">
  <p>What determined the result of this run?</p>
  </div>","100","html-slider-response","19","1325206","0.0-7.0-1.1","163","1","2025-08-06 09:24:37","36c45c0696341be0efffe67d72a12abb","105.245.126.225","Mozilla/5.0 (X11; Linux x86_64) AppleWebKit/537.36 (KHTML, like Gecko) Chrome/138.0.0.0 Safari/537.36","WebKit","Chrome","138.0.0.0","Linux","","https://app.prolific.com/","en-ZA,en-GB;q=0.9,en-US;q=0.8,en;q=0.7","666316060a19030e10987142","687a1a965b9f5b85a264363e","68931f15d9d0e65fc8a0dbb2","1","666316060a19030e10987142","1","2025-08-06T09:46:47.452Z","","","","AttribQ","","","","","","","","","","","50","","","","","","","","","","","","","","","","","","","","","","","","","","",""
"19007","","<div style=""width:500px;"">
  <p>How much control did you have over the ball?</p>
  </div>","87","html-slider-response","20","1344223","0.0-7.0-2.1","163","1","2025-08-06 09:24:37","36c45c0696341be0efffe67d72a12abb","105.245.126.225","Mozilla/5.0 (X11; Linux x86_64) AppleWebKit/537.36 (KHTML, like Gecko) Chrome/138.0.0.0 Safari/537.36","WebKit","Chrome","138.0.0.0","Linux","","https://app.prolific.com/","en-ZA,en-GB;q=0.9,en-US;q=0.8,en;q=0.7","666316060a19030e10987142","687a1a965b9f5b85a264363e","68931f15d9d0e65fc8a0dbb2","1","666316060a19030e10987142","1","2025-08-06T09:47:06.469Z","","","","ControlQ","","","","","","","","","","","50","","","","","","","","","","","","","","","","","","","","","","","","","","",""
"19363","","<div style=""width:500px;"">
  <p>How would you describe your current emotional state?</p>
  </div>","66","html-slider-response","21","1363592","0.0-7.0-3.1","163","1","2025-08-06 09:24:37","36c45c0696341be0efffe67d72a12abb","105.245.126.225","Mozilla/5.0 (X11; Linux x86_64) AppleWebKit/537.36 (KHTML, like Gecko) Chrome/138.0.0.0 Safari/537.36","WebKit","Chrome","138.0.0.0","Linux","","https://app.prolific.com/","en-ZA,en-GB;q=0.9,en-US;q=0.8,en;q=0.7","666316060a19030e10987142","687a1a965b9f5b85a264363e","68931f15d9d0e65fc8a0dbb2","1","666316060a19030e10987142","1","2025-08-06T09:47:25.838Z","","","","StressQ","","","","","","","","","","","50","","","","","","","","","","","","","","","","","","","","","","","","","","",""
"53353","","<div style=""width:500px;"">
  <p>What best describes how you currently feel?</p>
  </div>","78","html-slider-response","22","1416956","0.0-7.0-4.1","163","1","2025-08-06 09:24:37","36c45c0696341be0efffe67d72a12abb","105.245.126.225","Mozilla/5.0 (X11; Linux x86_64) AppleWebKit/537.36 (KHTML, like Gecko) Chrome/138.0.0.0 Safari/537.36","WebKit","Chrome","138.0.0.0","Linux","","https://app.prolific.com/","en-ZA,en-GB;q=0.9,en-US;q=0.8,en;q=0.7","666316060a19030e10987142","687a1a965b9f5b85a264363e","68931f15d9d0e65fc8a0dbb2","1","666316060a19030e10987142","1","2025-08-06T09:48:19.201Z","","","","MotivationQ","","","","","","","","","","","50","","","","","","","","","","","","","","","","","","","","","","","","","","",""
"","","","","ctl-task-cpt","23","1511117","0.0-7.0-0.2","163","1","2025-08-06 09:24:37","36c45c0696341be0efffe67d72a12abb","105.245.126.225","Mozilla/5.0 (X11; Linux x86_64) AppleWebKit/537.36 (KHTML, like Gecko) Chrome/138.0.0.0 Safari/537.36","WebKit","Chrome","138.0.0.0","Linux","","https://app.prolific.com/","en-ZA,en-GB;q=0.9,en-US;q=0.8,en;q=0.7","666316060a19030e10987142","687a1a965b9f5b85a264363e","68931f15d9d0e65fc8a0dbb2","1","666316060a19030e10987142","1","2025-08-06T09:49:53.363Z","","","","","","","","","","","","","","","","win-only","1","g1:NE,g2:SW","0.8","3","0","1421347.9","55441.7","60450.1","91128.3","1","4","8","6","2","8","7","8","1","0.06060606060606061","5008.2","3000","1570","[""down"",""left""]","{""num_key_presses"":9,""num_perfect"":6,""num_errors"":1,""num_randdir"":2,""num_randdir_good_moves"":1,""num_whilered"":0,""num_whileblue"":0,""num_blue"":1,""num_good_moves"":7}","[285.7142857142857,275.5111607142857,1.6,285.7142857142857,275.5111607142857,107.5,285.7142857142857,275.5111607142857,240.6,297.7142857142857,257.5111607142857,355,297.7142857142857,257.5111607142857,455.3,297.7142857142857,257.5111607142857,569.1,297.7142857142857,257.5111607142857,673.9,297.7142857142857,257.5111607142857,798.3,297.7142857142857,257.5111607142857,904.8,297.7142857142857,257.5111607142857,1007.8,297.7142857142857,257.5111607142857,1113.2,297.7142857142857,257.5111607142857,1226.1,297.7142857142857,257.5111607142857,1333.9,297.7142857142857,257.5111607142857,1435,297.7142857142857,257.5111607142857,1558.4,297.7142857142857,257.5111607142857,1665.3,297.7142857142857,257.5111607142857,1765.6,297.7142857142857,257.5111607142857,1870.2,297.7142857142857,257.5111607142857,1975.4,297.7142857142857,257.5111607142857,2086.8,297.7142857142857,257.5111607142857,2198.6,297.7142857142857,257.5111607142857,2298.6,297.7142857142857,257.5111607142857,2401.3,297.7142857142857,257.5111607142857,2511.9,297.7142857142857,257.5111607142857,2621.7,297.7142857142857,257.5111607142857,2726.6,297.7142857142857,257.5111607142857,2828.9,297.7142857142857,257.5111607142857,2933.7,297.7142857142857,257.5111607142857,3035.2,297.7142857142857,257.5111607142857,3140.8,297.7142857142857,257.5111607142857,3288.1,297.7142857142857,257.5111607142857,3393.5,297.7142857142857,257.5111607142857,3494.8,297.7142857142857,257.5111607142857,3613.2,297.7142857142857,257.5111607142857,3726.7,297.7142857142857,257.5111607142857,3844.4,297.7142857142857,257.5111607142857,3967.6,297.7142857142857,257.5111607142857,4074.1,297.7142857142857,257.5111607142857,4214,297.7142857142857,257.5111607142857,4314.6,297.7142857142857,257.5111607142857,4466.9,297.7142857142857,257.5111607142857,4595.6,297.7142857142857,257.5111607142857,4704.6,297.7142857142857,257.5111607142857,4880.3,297.7142857142857,257.5111607142857,4991]","[899.5,899.5,1000,0,-100.4,""error"",""-"",""-"",""no_move"",5249.3,4347.9,2648.6,1912.9,687.8,""smooth"",""down"",""down"",""good_move"",8657.9,3406.7,2807.4,5251.3,599.3,""smooth"",""down"",""down"",""good_move"",11493,2833.4,2102.5,8659.8,730.8,""smooth"",""down"",""down"",""good_move"",13845.5,2351,1824.5,11494.5,526.6,""oops"",""left"",""right"",""bad_move"",16670.1,2822.1,2330.1,13848,492.1,""oops"",""left"",""left"",""good_move"",23833.6,7161.1,3169.1,20190,474.6,""smooth"",""left"",""left"",""good_move"",27411.5,3576.1,3002.6,23835.4,573.5,""smooth"",""left"",""left"",""good_move"",30403.9,2991.1,1987.2,27412.9,1003.9,""smooth"",""left"",""left"",""good_move""]"
"3047","","<div style=""width:500px;"">
  <p>What determined the result of this run?</p>
  </div>","100","html-slider-response","24","1514174","0.0-7.0-1.2","163","1","2025-08-06 09:24:37","36c45c0696341be0efffe67d72a12abb","105.245.126.225","Mozilla/5.0 (X11; Linux x86_64) AppleWebKit/537.36 (KHTML, like Gecko) Chrome/138.0.0.0 Safari/537.36","WebKit","Chrome","138.0.0.0","Linux","","https://app.prolific.com/","en-ZA,en-GB;q=0.9,en-US;q=0.8,en;q=0.7","666316060a19030e10987142","687a1a965b9f5b85a264363e","68931f15d9d0e65fc8a0dbb2","1","666316060a19030e10987142","1","2025-08-06T09:49:56.420Z","","","","AttribQ","","","","","","","","","","","50","","","","","","","","","","","","","","","","","","","","","","","","","","",""
"2079","","<div style=""width:500px;"">
  <p>How much control did you have over the ball?</p>
  </div>","100","html-slider-response","25","1516265","0.0-7.0-2.2","163","1","2025-08-06 09:24:37","36c45c0696341be0efffe67d72a12abb","105.245.126.225","Mozilla/5.0 (X11; Linux x86_64) AppleWebKit/537.36 (KHTML, like Gecko) Chrome/138.0.0.0 Safari/537.36","WebKit","Chrome","138.0.0.0","Linux","","https://app.prolific.com/","en-ZA,en-GB;q=0.9,en-US;q=0.8,en;q=0.7","666316060a19030e10987142","687a1a965b9f5b85a264363e","68931f15d9d0e65fc8a0dbb2","1","666316060a19030e10987142","1","2025-08-06T09:49:58.510Z","","","","ControlQ","","","","","","","","","","","50","","","","","","","","","","","","","","","","","","","","","","","","","","",""
"2970","","<div style=""width:500px;"">
  <p>How would you describe your current emotional state?</p>
  </div>","0","html-slider-response","26","1519242","0.0-7.0-3.2","163","1","2025-08-06 09:24:37","36c45c0696341be0efffe67d72a12abb","105.245.126.225","Mozilla/5.0 (X11; Linux x86_64) AppleWebKit/537.36 (KHTML, like Gecko) Chrome/138.0.0.0 Safari/537.36","WebKit","Chrome","138.0.0.0","Linux","","https://app.prolific.com/","en-ZA,en-GB;q=0.9,en-US;q=0.8,en;q=0.7","666316060a19030e10987142","687a1a965b9f5b85a264363e","68931f15d9d0e65fc8a0dbb2","1","666316060a19030e10987142","1","2025-08-06T09:50:01.487Z","","","","StressQ","","","","","","","","","","","50","","","","","","","","","","","","","","","","","","","","","","","","","","",""
"2658","","<div style=""width:500px;"">
  <p>What best describes how you currently feel?</p>
  </div>","100","html-slider-response","27","1521908","0.0-7.0-4.2","163","1","2025-08-06 09:24:37","36c45c0696341be0efffe67d72a12abb","105.245.126.225","Mozilla/5.0 (X11; Linux x86_64) AppleWebKit/537.36 (KHTML, like Gecko) Chrome/138.0.0.0 Safari/537.36","WebKit","Chrome","138.0.0.0","Linux","","https://app.prolific.com/","en-ZA,en-GB;q=0.9,en-US;q=0.8,en;q=0.7","666316060a19030e10987142","687a1a965b9f5b85a264363e","68931f15d9d0e65fc8a0dbb2","1","666316060a19030e10987142","1","2025-08-06T09:50:04.153Z","","","","MotivationQ","","","","","","","","","","","50","","","","","","","","","","","","","","","","","","","","","","","","","","",""
"","","","","ctl-task-cpt","28","1565655","0.0-7.0-0.3","163","1","2025-08-06 09:24:37","36c45c0696341be0efffe67d72a12abb","105.245.126.225","Mozilla/5.0 (X11; Linux x86_64) AppleWebKit/537.36 (KHTML, like Gecko) Chrome/138.0.0.0 Safari/537.36","WebKit","Chrome","138.0.0.0","Linux","","https://app.prolific.com/","en-ZA,en-GB;q=0.9,en-US;q=0.8,en;q=0.7","666316060a19030e10987142","687a1a965b9f5b85a264363e","68931f15d9d0e65fc8a0dbb2","1","666316060a19030e10987142","1","2025-08-06T09:50:47.901Z","","","","","","","","","","","","","","","","win-only","2","g1:SE,g2:NW","0.7","4","0","1526303.2","13715.1","18719.2","40703.3","1","4","4","6","1","1","-1","7","8","0.05303030303030303","5004.1","3000","2605","[""down"",""right""]","{""num_key_presses"":5,""num_perfect"":2,""num_errors"":2,""num_randdir"":1,""num_randdir_good_moves"":1,""num_whilered"":0,""num_whileblue"":1,""num_blue"":3,""num_good_moves"":4}","[275.7142857142857,269.5111607142857,1.3,275.7142857142857,269.5111607142857,106.4,275.7142857142857,269.5111607142857,236.5,287.7142857142857,269.5111607142857,338.1,287.7142857142857,269.5111607142857,454.1,287.7142857142857,269.5111607142857,561,287.7142857142857,269.5111607142857,665.2,287.7142857142857,269.5111607142857,766.5,287.7142857142857,269.5111607142857,879.2,287.7142857142857,269.5111607142857,994.5,287.7142857142857,269.5111607142857,1094.8,287.7142857142857,269.5111607142857,1210.1,287.7142857142857,269.5111607142857,1324.8,287.7142857142857,269.5111607142857,1433.8,287.7142857142857,269.5111607142857,1542.3,287.7142857142857,269.5111607142857,1657.3,287.7142857142857,269.5111607142857,1768.6,287.7142857142857,269.5111607142857,1873.4,287.7142857142857,269.5111607142857,1988.2,287.7142857142857,269.5111607142857,2099.6,287.7142857142857,269.5111607142857,2205.8,287.7142857142857,269.5111607142857,2314.3,287.7142857142857,269.5111607142857,2424,287.7142857142857,269.5111607142857,2531.2,287.7142857142857,269.5111607142857,2638.1,287.7142857142857,269.5111607142857,2745.6,287.7142857142857,269.5111607142857,2860.1,287.7142857142857,269.5111607142857,2967.8,287.7142857142857,269.5111607142857,3085.9,287.7142857142857,269.5111607142857,3188.8,287.7142857142857,269.5111607142857,3302.6,287.7142857142857,269.5111607142857,3417.4,287.7142857142857,269.5111607142857,3517.7,287.7142857142857,269.5111607142857,3637.6,287.7142857142857,269.5111607142857,3758.1,287.7142857142857,269.5111607142857,3870.6,287.7142857142857,269.5111607142857,3973.2,287.7142857142857,269.5111607142857,4077.5,287.7142857142857,269.5111607142857,4189.9,287.7142857142857,269.5111607142857,4297.6,287.7142857142857,269.5111607142857,4412.7,287.7142857142857,269.5111607142857,4519.5,287.7142857142857,269.5111607142857,4625.2,287.7142857142857,269.5111607142857,4739.6,287.7142857142857,269.5111607142857,4856.3,287.7142857142857,269.5111607142857,4961.5]","[744,744,1000,0,-256,""error"",""-"",""-"",""no_move"",4921.5,4176.3,2714,1761.5,446.1,""while_blue"",""down"",""down"",""good_move"",7851.8,2928.5,2347.3,4923.4,581.2,""smooth"",""down"",""down"",""good_move"",14360.9,6507,2885.4,11005.7,469.9,""smooth"",""right"",""right"",""good_move"",21643.9,7280.3,3555.6,17607,481.3,""oops"",""right"",""right"",""good_move""]"
"3344","","<div style=""width:500px;"">
  <p>What determined the result of this run?</p>
  </div>","64","html-slider-response","29","1569007","0.0-7.0-1.3","163","1","2025-08-06 09:24:37","36c45c0696341be0efffe67d72a12abb","105.245.126.225","Mozilla/5.0 (X11; Linux x86_64) AppleWebKit/537.36 (KHTML, like Gecko) Chrome/138.0.0.0 Safari/537.36","WebKit","Chrome","138.0.0.0","Linux","","https://app.prolific.com/","en-ZA,en-GB;q=0.9,en-US;q=0.8,en;q=0.7","666316060a19030e10987142","687a1a965b9f5b85a264363e","68931f15d9d0e65fc8a0dbb2","1","666316060a19030e10987142","1","2025-08-06T09:50:51.253Z","","","","AttribQ","","","","","","","","","","","50","","","","","","","","","","","","","","","","","","","","","","","","","","",""
"2161","","<div style=""width:500px;"">
  <p>How much control did you have over the ball?</p>
  </div>","16","html-slider-response","30","1571175","0.0-7.0-2.3","163","1","2025-08-06 09:24:37","36c45c0696341be0efffe67d72a12abb","105.245.126.225","Mozilla/5.0 (X11; Linux x86_64) AppleWebKit/537.36 (KHTML, like Gecko) Chrome/138.0.0.0 Safari/537.36","WebKit","Chrome","138.0.0.0","Linux","","https://app.prolific.com/","en-ZA,en-GB;q=0.9,en-US;q=0.8,en;q=0.7","666316060a19030e10987142","687a1a965b9f5b85a264363e","68931f15d9d0e65fc8a0dbb2","1","666316060a19030e10987142","1","2025-08-06T09:50:53.421Z","","","","ControlQ","","","","","","","","","","","50","","","","","","","","","","","","","","","","","","","","","","","","","","",""
"2459","","<div style=""width:500px;"">
  <p>How would you describe your current emotional state?</p>
  </div>","59","html-slider-response","31","1573641","0.0-7.0-3.3","163","1","2025-08-06 09:24:37","36c45c0696341be0efffe67d72a12abb","105.245.126.225","Mozilla/5.0 (X11; Linux x86_64) AppleWebKit/537.36 (KHTML, like Gecko) Chrome/138.0.0.0 Safari/537.36","WebKit","Chrome","138.0.0.0","Linux","","https://app.prolific.com/","en-ZA,en-GB;q=0.9,en-US;q=0.8,en;q=0.7","666316060a19030e10987142","687a1a965b9f5b85a264363e","68931f15d9d0e65fc8a0dbb2","1","666316060a19030e10987142","1","2025-08-06T09:50:55.887Z","","","","StressQ","","","","","","","","","","","50","","","","","","","","","","","","","","","","","","","","","","","","","","",""
"4058","","<div style=""width:500px;"">
  <p>What best describes how you currently feel?</p>
  </div>","74","html-slider-response","32","1577706","0.0-7.0-4.3","163","1","2025-08-06 09:24:37","36c45c0696341be0efffe67d72a12abb","105.245.126.225","Mozilla/5.0 (X11; Linux x86_64) AppleWebKit/537.36 (KHTML, like Gecko) Chrome/138.0.0.0 Safari/537.36","WebKit","Chrome","138.0.0.0","Linux","","https://app.prolific.com/","en-ZA,en-GB;q=0.9,en-US;q=0.8,en;q=0.7","666316060a19030e10987142","687a1a965b9f5b85a264363e","68931f15d9d0e65fc8a0dbb2","1","666316060a19030e10987142","1","2025-08-06T09:50:59.951Z","","","","MotivationQ","","","","","","","","","","","50","","","","","","","","","","","","","","","","","","","","","","","","","","",""
"","","","","ctl-task-cpt","33","1672664","0.0-7.0-0.4","163","1","2025-08-06 09:24:37","36c45c0696341be0efffe67d72a12abb","105.245.126.225","Mozilla/5.0 (X11; Linux x86_64) AppleWebKit/537.36 (KHTML, like Gecko) Chrome/138.0.0.0 Safari/537.36","WebKit","Chrome","138.0.0.0","Linux","","https://app.prolific.com/","en-ZA,en-GB;q=0.9,en-US;q=0.8,en;q=0.7","666316060a19030e10987142","687a1a965b9f5b85a264363e","68931f15d9d0e65fc8a0dbb2","1","666316060a19030e10987142","1","2025-08-06T09:52:34.910Z","","","","","","","","","","","","","","","","win-only","1","g1:NE,g2:SW","0.6","5","0","1582096.7","41250.6","46258.8","91910.5","1","4","4","6","1","1","0","7","7","0.05303030303030303","5008.2","3000","1940","[""up"",""right""]","{""num_key_presses"":10,""num_perfect"":5,""num_errors"":1,""num_randdir"":4,""num_randdir_good_moves"":2,""num_whilered"":0,""num_whileblue"":1,""num_blue"":3,""num_good_moves"":7}","[285.7142857142857,277.5111607142857,3.9,285.7142857142857,277.5111607142857,123.1,285.7142857142857,277.5111607142857,228.7,285.7142857142857,277.5111607142857,335.1,285.7142857142857,277.5111607142857,449.5,285.7142857142857,277.5111607142857,566.3,285.7142857142857,277.5111607142857,680.8,285.7142857142857,277.5111607142857,793.4,285.7142857142857,277.5111607142857,909.6,285.7142857142857,277.5111607142857,1021.2,285.7142857142857,277.5111607142857,1132.9,285.7142857142857,277.5111607142857,1248.4,285.7142857142857,277.5111607142857,1358.6,285.7142857142857,277.5111607142857,1471.8,285.7142857142857,277.5111607142857,1578.8,285.7142857142857,277.5111607142857,1689.3,285.7142857142857,277.5111607142857,1831.9,285.7142857142857,277.5111607142857,1974.9,285.7142857142857,277.5111607142857,2085.2,285.7142857142857,277.5111607142857,2197.3,285.7142857142857,277.5111607142857,2304,285.7142857142857,277.5111607142857,2419.5,285.7142857142857,277.5111607142857,2522.9,285.7142857142857,277.5111607142857,2634.5,285.7142857142857,277.5111607142857,2735.1,285.7142857142857,277.5111607142857,2837.2,285.7142857142857,277.5111607142857,2939.6,285.7142857142857,277.5111607142857,3054.2,285.7142857142857,277.5111607142857,3158.9,285.7142857142857,277.5111607142857,3259.2,285.7142857142857,277.5111607142857,3369.4,285.7142857142857,277.5111607142857,3469.8,285.7142857142857,277.5111607142857,3603.4,285.7142857142857,277.5111607142857,3708.2,285.7142857142857,277.5111607142857,3818.5,285.7142857142857,277.5111607142857,3923,285.7142857142857,277.5111607142857,4025.1,285.7142857142857,277.5111607142857,4126.4,285.7142857142857,277.5111607142857,4239.1,285.7142857142857,277.5111607142857,4351,285.7142857142857,277.5111607142857,4457.9,285.7142857142857,277.5111607142857,4562.8,285.7142857142857,277.5111607142857,4669.4,285.7142857142857,277.5111607142857,4785.9,285.7142857142857,277.5111607142857,4896.4]","[1550.3,1550.4,1000,0.1,550.3,""oops"",""up"",""down"",""bad_move"",4141.1,2588.5,2091.6,1552.7,496.9,""oops"",""up"",""up"",""good_move"",8171.8,4028.6,3531.4,4143.4,497,""while_blue"",""up"",""left"",""bad_move"",12772.4,4598,2713.8,8174.4,1884.2,""oops"",""up"",""down"",""bad_move"",16155.9,3381.7,2432.3,12774.4,949.2,""oops"",""up"",""right"",""good_move"",20005.9,3847.6,3081.6,16158.3,766.1,""smooth"",""right"",""right"",""good_move"",26609.2,6601.7,2436,23430.2,743,""smooth"",""right"",""right"",""good_move"",32220.4,5609.8,1493.3,29996.5,730.6,""smooth"",""up"",""up"",""good_move"",38473.4,6252.1,3025.9,32221.4,3226.2,""smooth"",""up"",""up"",""good_move"",44992.2,6517.8,2390.6,38474.5,4127.1,""smooth"",""up"",""up"",""good_move""]"
"2156","","<div style=""width:500px;"">
  <p>What determined the result of this run?</p>
  </div>","44","html-slider-response","34","1674828","0.0-7.0-1.4","163","1","2025-08-06 09:24:37","36c45c0696341be0efffe67d72a12abb","105.245.126.225","Mozilla/5.0 (X11; Linux x86_64) AppleWebKit/537.36 (KHTML, like Gecko) Chrome/138.0.0.0 Safari/537.36","WebKit","Chrome","138.0.0.0","Linux","","https://app.prolific.com/","en-ZA,en-GB;q=0.9,en-US;q=0.8,en;q=0.7","666316060a19030e10987142","687a1a965b9f5b85a264363e","68931f15d9d0e65fc8a0dbb2","1","666316060a19030e10987142","1","2025-08-06T09:52:37.074Z","","","","AttribQ","","","","","","","","","","","50","","","","","","","","","","","","","","","","","","","","","","","","","","",""
"3077","","<div style=""width:500px;"">
  <p>How much control did you have over the ball?</p>
  </div>","38","html-slider-response","35","1677911","0.0-7.0-2.4","163","1","2025-08-06 09:24:37","36c45c0696341be0efffe67d72a12abb","105.245.126.225","Mozilla/5.0 (X11; Linux x86_64) AppleWebKit/537.36 (KHTML, like Gecko) Chrome/138.0.0.0 Safari/537.36","WebKit","Chrome","138.0.0.0","Linux","","https://app.prolific.com/","en-ZA,en-GB;q=0.9,en-US;q=0.8,en;q=0.7","666316060a19030e10987142","687a1a965b9f5b85a264363e","68931f15d9d0e65fc8a0dbb2","1","666316060a19030e10987142","1","2025-08-06T09:52:40.156Z","","","","ControlQ","","","","","","","","","","","50","","","","","","","","","","","","","","","","","","","","","","","","","","",""
"2518","","<div style=""width:500px;"">
  <p>How would you describe your current emotional state?</p>
  </div>","62","html-slider-response","36","1680434","0.0-7.0-3.4","163","1","2025-08-06 09:24:37","36c45c0696341be0efffe67d72a12abb","105.245.126.225","Mozilla/5.0 (X11; Linux x86_64) AppleWebKit/537.36 (KHTML, like Gecko) Chrome/138.0.0.0 Safari/537.36","WebKit","Chrome","138.0.0.0","Linux","","https://app.prolific.com/","en-ZA,en-GB;q=0.9,en-US;q=0.8,en;q=0.7","666316060a19030e10987142","687a1a965b9f5b85a264363e","68931f15d9d0e65fc8a0dbb2","1","666316060a19030e10987142","1","2025-08-06T09:52:42.680Z","","","","StressQ","","","","","","","","","","","50","","","","","","","","","","","","","","","","","","","","","","","","","","",""
"2315","","<div style=""width:500px;"">
  <p>What best describes how you currently feel?</p>
  </div>","47","html-slider-response","37","1682756","0.0-7.0-4.4","163","1","2025-08-06 09:24:37","36c45c0696341be0efffe67d72a12abb","105.245.126.225","Mozilla/5.0 (X11; Linux x86_64) AppleWebKit/537.36 (KHTML, like Gecko) Chrome/138.0.0.0 Safari/537.36","WebKit","Chrome","138.0.0.0","Linux","","https://app.prolific.com/","en-ZA,en-GB;q=0.9,en-US;q=0.8,en;q=0.7","666316060a19030e10987142","687a1a965b9f5b85a264363e","68931f15d9d0e65fc8a0dbb2","1","666316060a19030e10987142","1","2025-08-06T09:52:45.002Z","","","","MotivationQ","","","","","","","","","","","50","","","","","","","","","","","","","","","","","","","","","","","","","","",""
"","","","","ctl-task-cpt","38","1787510","0.0-7.0-0.5","163","1","2025-08-06 09:24:37","36c45c0696341be0efffe67d72a12abb","105.245.126.225","Mozilla/5.0 (X11; Linux x86_64) AppleWebKit/537.36 (KHTML, like Gecko) Chrome/138.0.0.0 Safari/537.36","WebKit","Chrome","138.0.0.0","Linux","","https://app.prolific.com/","en-ZA,en-GB;q=0.9,en-US;q=0.8,en;q=0.7","666316060a19030e10987142","687a1a965b9f5b85a264363e","68931f15d9d0e65fc8a0dbb2","1","666316060a19030e10987142","1","2025-08-06T09:54:29.756Z","","","","","","","","","","","","","","","","win-only","3","g1:SW,g2:NE","0.5","6","0","1687146.2","25456.1","30478.1","101690","1","4","8","6","2","8","8","15","7","0.11363636363636363","5022","3000","645","[""up"",""right""]","{""num_key_presses"":14,""num_perfect"":7,""num_errors"":0,""num_randdir"":7,""num_randdir_good_moves"":3,""num_whilered"":0,""num_whileblue"":0,""num_blue"":3,""num_good_moves"":10}","[279.7142857142857,273.5111607142857,1.2,279.7142857142857,273.5111607142857,123.1,269.7142857142857,261.5111607142857,226.4,279.7142857142857,267.5111607142857,351.8,279.7142857142857,267.5111607142857,463.1,279.7142857142857,267.5111607142857,572.7,279.7142857142857,267.5111607142857,679.9,279.7142857142857,267.5111607142857,781.2,279.7142857142857,267.5111607142857,889.1,279.7142857142857,267.5111607142857,1005.4,279.7142857142857,267.5111607142857,1112,279.7142857142857,267.5111607142857,1216.5,279.7142857142857,267.5111607142857,1318.7,279.7142857142857,267.5111607142857,1431.5,279.7142857142857,267.5111607142857,1538.1,279.7142857142857,267.5111607142857,1642.5,279.7142857142857,267.5111607142857,1754.2,279.7142857142857,267.5111607142857,1866.7,279.7142857142857,267.5111607142857,1968.3,279.7142857142857,267.5111607142857,2085.7,279.7142857142857,267.5111607142857,2203.3,279.7142857142857,267.5111607142857,2325.9,279.7142857142857,267.5111607142857,2443.7,279.7142857142857,267.5111607142857,2569.4,279.7142857142857,267.5111607142857,2686.6,279.7142857142857,267.5111607142857,2832.2,279.7142857142857,267.5111607142857,2947.3,279.7142857142857,267.5111607142857,3077.7,279.7142857142857,267.5111607142857,3182.1,279.7142857142857,267.5111607142857,3288.1,279.7142857142857,267.5111607142857,3398,279.7142857142857,267.5111607142857,3505.1,279.7142857142857,267.5111607142857,3615.2,279.7142857142857,267.5111607142857,3725.4,279.7142857142857,267.5111607142857,3835.7,279.7142857142857,267.5111607142857,3957.6,279.7142857142857,267.5111607142857,4076.7,279.7142857142857,267.5111607142857,4177.6,279.7142857142857,267.5111607142857,4279.8,279.7142857142857,267.5111607142857,4406.9,279.7142857142857,267.5111607142857,4511.2,279.7142857142857,267.5111607142857,4625.8,279.7142857142857,267.5111607142857,4728.4,279.7142857142857,267.5111607142857,4854.5,279.7142857142857,267.5111607142857,4967.6]","[4772.9,4772.9,2175,2020.5,577.5,""oops"",""right"",""up"",""good_move"",13306.8,8531.6,2021.4,10698,587.4,""oops"",""up"",""down"",""bad_move"",20143.1,6834.3,2673.8,16875.8,593.5,""smooth"",""right"",""right"",""good_move"",25092.4,4947.4,3133.2,20145,1814.2,""oops"",""right"",""down"",""bad_move"",29039.3,3945.5,2576,25093.9,1369.4,""smooth"",""right"",""right"",""good_move"",32487.8,3447.3,2722.2,29040.6,725.1,""smooth"",""right"",""right"",""good_move"",37493.6,5004,2598.4,32489.6,2405.6,""smooth"",""up"",""up"",""good_move"",42338.2,4843.2,2314.3,37495.2,2528.8,""smooth"",""up"",""up"",""good_move"",46792.1,4452.4,2123,42339.8,2329.4,""oops"",""up"",""left"",""bad_move"",51474.7,4680.5,2803,46794.3,1877.4,""oops"",""up"",""left"",""bad_move"",57282.7,5806.4,2397.2,51476.4,3409.2,""oops"",""up"",""right"",""good_move"",61396.6,4111.4,2660.4,57285.3,1450.9,""smooth"",""up"",""up"",""good_move"",67627.6,6230,2441.9,61397.7,3788.1,""oops"",""right"",""right"",""good_move"",70527,2898.5,1971.7,67628.6,926.8,""smooth"",""up"",""up"",""good_move""]"
"2321","","<div style=""width:500px;"">
  <p>What determined the result of this run?</p>
  </div>","100","html-slider-response","39","1789843","0.0-7.0-1.5","163","1","2025-08-06 09:24:37","36c45c0696341be0efffe67d72a12abb","105.245.126.225","Mozilla/5.0 (X11; Linux x86_64) AppleWebKit/537.36 (KHTML, like Gecko) Chrome/138.0.0.0 Safari/537.36","WebKit","Chrome","138.0.0.0","Linux","","https://app.prolific.com/","en-ZA,en-GB;q=0.9,en-US;q=0.8,en;q=0.7","666316060a19030e10987142","687a1a965b9f5b85a264363e","68931f15d9d0e65fc8a0dbb2","1","666316060a19030e10987142","1","2025-08-06T09:54:32.089Z","","","","AttribQ","","","","","","","","","","","50","","","","","","","","","","","","","","","","","","","","","","","","","","",""
"1853","","<div style=""width:500px;"">
  <p>How much control did you have over the ball?</p>
  </div>","100","html-slider-response","40","1791705","0.0-7.0-2.5","163","1","2025-08-06 09:24:37","36c45c0696341be0efffe67d72a12abb","105.245.126.225","Mozilla/5.0 (X11; Linux x86_64) AppleWebKit/537.36 (KHTML, like Gecko) Chrome/138.0.0.0 Safari/537.36","WebKit","Chrome","138.0.0.0","Linux","","https://app.prolific.com/","en-ZA,en-GB;q=0.9,en-US;q=0.8,en;q=0.7","666316060a19030e10987142","687a1a965b9f5b85a264363e","68931f15d9d0e65fc8a0dbb2","1","666316060a19030e10987142","1","2025-08-06T09:54:33.950Z","","","","ControlQ","","","","","","","","","","","50","","","","","","","","","","","","","","","","","","","","","","","","","","",""
"2315","","<div style=""width:500px;"">
  <p>How would you describe your current emotional state?</p>
  </div>","0","html-slider-response","41","1794028","0.0-7.0-3.5","163","1","2025-08-06 09:24:37","36c45c0696341be0efffe67d72a12abb","105.245.126.225","Mozilla/5.0 (X11; Linux x86_64) AppleWebKit/537.36 (KHTML, like Gecko) Chrome/138.0.0.0 Safari/537.36","WebKit","Chrome","138.0.0.0","Linux","","https://app.prolific.com/","en-ZA,en-GB;q=0.9,en-US;q=0.8,en;q=0.7","666316060a19030e10987142","687a1a965b9f5b85a264363e","68931f15d9d0e65fc8a0dbb2","1","666316060a19030e10987142","1","2025-08-06T09:54:36.274Z","","","","StressQ","","","","","","","","","","","50","","","","","","","","","","","","","","","","","","","","","","","","","","",""
"1683","","<div style=""width:500px;"">
  <p>What best describes how you currently feel?</p>
  </div>","100","html-slider-response","42","1795720","0.0-7.0-4.5","163","1","2025-08-06 09:24:37","36c45c0696341be0efffe67d72a12abb","105.245.126.225","Mozilla/5.0 (X11; Linux x86_64) AppleWebKit/537.36 (KHTML, like Gecko) Chrome/138.0.0.0 Safari/537.36","WebKit","Chrome","138.0.0.0","Linux","","https://app.prolific.com/","en-ZA,en-GB;q=0.9,en-US;q=0.8,en;q=0.7","666316060a19030e10987142","687a1a965b9f5b85a264363e","68931f15d9d0e65fc8a0dbb2","1","666316060a19030e10987142","1","2025-08-06T09:54:37.966Z","","","","MotivationQ","","","","","","","","","","","50","","","","","","","","","","","","","","","","","","","","","","","","","","",""
"","","","","ctl-task-cpt","43","2017367","0.0-7.0-0.6","163","1","2025-08-06 09:24:37","36c45c0696341be0efffe67d72a12abb","105.245.126.225","Mozilla/5.0 (X11; Linux x86_64) AppleWebKit/537.36 (KHTML, like Gecko) Chrome/138.0.0.0 Safari/537.36","WebKit","Chrome","138.0.0.0","Linux","","https://app.prolific.com/","en-ZA,en-GB;q=0.9,en-US;q=0.8,en;q=0.7","666316060a19030e10987142","687a1a965b9f5b85a264363e","68931f15d9d0e65fc8a0dbb2","1","666316060a19030e10987142","1","2025-08-06T09:58:19.613Z","","","","","","","","","","","","","","","","win-only","2","g1:SE,g2:NW","0.4","7","0","1800111.9","7225.4","12253.7","218593.4","1","4","4","6","2","-4","-10","5","15","0.03787878787878788","5028.3","3000","-515","[""left"",""up""]","{""num_key_presses"":47,""num_perfect"":14,""num_errors"":6,""num_randdir"":21,""num_randdir_good_moves"":5,""num_whilered"":6,""num_whileblue"":0,""num_blue"":5,""num_good_moves"":18}","[283.7142857142857,279.5111607142857,1.4,283.7142857142857,279.5111607142857,112.4,283.7142857142857,275.5111607142857,227.3,283.7142857142857,275.5111607142857,345,283.7142857142857,275.5111607142857,470.8,283.7142857142857,275.5111607142857,579.2,283.7142857142857,275.5111607142857,689.1,283.7142857142857,275.5111607142857,792.5,283.7142857142857,275.5111607142857,911.6,283.7142857142857,275.5111607142857,1037.2,283.7142857142857,275.5111607142857,1149.2,283.7142857142857,275.5111607142857,1264.7,283.7142857142857,275.5111607142857,1365,283.7142857142857,275.5111607142857,1492,283.7142857142857,275.5111607142857,1599.4,283.7142857142857,275.5111607142857,1713.1,283.7142857142857,275.5111607142857,1822.4,283.7142857142857,275.5111607142857,1935.5,283.7142857142857,275.5111607142857,2049.6,283.7142857142857,275.5111607142857,2167.7,283.7142857142857,275.5111607142857,2273.7,283.7142857142857,275.5111607142857,2389.1,283.7142857142857,275.5111607142857,2508.6,283.7142857142857,275.5111607142857,2614,283.7142857142857,275.5111607142857,2722.5,283.7142857142857,275.5111607142857,2832.7,283.7142857142857,275.5111607142857,2936.3,283.7142857142857,275.5111607142857,3059.8,283.7142857142857,275.5111607142857,3167.1,283.7142857142857,275.5111607142857,3278.8,283.7142857142857,275.5111607142857,3393.5,283.7142857142857,275.5111607142857,3501.4,283.7142857142857,275.5111607142857,3619.3,283.7142857142857,275.5111607142857,3731.8,283.7142857142857,275.5111607142857,3844.7,283.7142857142857,275.5111607142857,3956.8,283.7142857142857,275.5111607142857,4073.2,283.7142857142857,275.5111607142857,4187.3,283.7142857142857,275.5111607142857,4301.1,283.7142857142857,275.5111607142857,4408.3,283.7142857142857,275.5111607142857,4520.8,283.7142857142857,275.5111607142857,4633.8,283.7142857142857,275.5111607142857,4742.3,283.7142857142857,275.5111607142857,4853.6,283.7142857142857,275.5111607142857,4968.9]","[1517.2,1517.3,1000,0,517.3,""oops"",""left"",""up"",""good_move"",7640.2,6122,2803.4,1518.3,3318.6,""smooth"",""left"",""left"",""good_move"",13022.7,5381.3,1940.9,7641.5,3440.3,""oops"",""left"",""left"",""good_move"",18073.2,5049,2530.2,13024.3,2518.8,""oops"",""left"",""right"",""bad_move"",22139.4,4064.4,3186.3,18075,878.1,""oops"",""left"",""right"",""bad_move"",25520.3,3379.7,2713.1,22140.8,666.5,""oops"",""up"",""down"",""bad_move"",28450.6,2928.3,2345.7,25522.4,582.6,""smooth"",""left"",""left"",""good_move"",33424.9,4972.8,2399.8,28452.1,2573,""smooth"",""left"",""left"",""good_move"",38513.6,5087.4,2965.6,33426.2,2121.8,""smooth"",""left"",""left"",""good_move"",46930.9,8415.9,2432.3,43964.5,534.1,""oops"",""up"",""down"",""bad_move"",53412.8,6480.7,1983.6,50853.9,575.4,""smooth"",""up"",""up"",""good_move"",61007.2,7592.3,2308.8,53415,5283.5,""oops"",""up"",""down"",""bad_move"",64246.1,3237.7,2657.8,61008.5,579.9,""smooth"",""up"",""up"",""good_move"",72897.2,8649.7,2450.7,64247.5,6199,""oops"",""up"",""down"",""bad_move"",76920,4022,2865.1,72898.2,1156.9,""smooth"",""up"",""up"",""good_move"",84480.9,7559.5,2904.9,76921.4,4654.6,""smooth"",""up"",""up"",""good_move"",89431.4,4949.2,2331.7,84482.2,2617.6,""oops"",""up"",""down"",""bad_move"",92841.2,3408.2,2804.6,89433.1,603.6,""oops"",""up"",""up"",""good_move"",101792.6,8949.9,2289.7,98982.6,520.3,""oops"",""up"",""down"",""bad_move"",104698.3,2904.6,2374,101793.7,530.6,""oops"",""up"",""down"",""bad_move"",107638.2,2938.7,2405,104699.6,533.7,""oops"",""up"",""up"",""good_move"",115756.9,8116.7,1828.6,107640.4,6288,""smooth"",""up"",""up"",""good_move"",124291.7,8533.5,2385.4,115758.2,6148.1,""smooth"",""up"",""up"",""good_move"",133150.9,8857.1,2509.7,124293.9,6347.3,""oops"",""up"",""right"",""bad_move"",137357.9,4205.2,3416.8,133152.8,788.4,""smooth"",""up"",""up"",""good_move"",147158.8,9798.2,2651.4,143813.4,694.1,""oops"",""left"",""right"",""bad_move"",152217.6,5057.5,1843.2,149648.6,725.8,""oops"",""left"",""right"",""bad_move"",156011.3,3792.4,2989.6,152218.9,802.8,""oops"",""left"",""right"",""bad_move"",158470.4,2457.8,2227.3,156012.8,230.4,""smooth"",""right"",""right"",""bad_move"",162059.1,3587.5,2915.6,158471.7,671.9,""oops"",""left"",""down"",""bad_move"",165937.7,3877.2,3040.8,162060.5,836.5,""oops"",""left"",""down"",""bad_move"",167371.6,1432.4,2258.8,165939.3,-826.4,""error"",""-"",""-"",""no_move"",167687.3,314,2258.8,165939.3,-510.7,""while_red"",""-"",""-"",""no_move"",168054.4,681.1,2258.8,165939.3,-143.6,""while_red"",""-"",""-"",""no_move"",168282.7,909.3,2258.8,165939.3,84.7,""while_red"",""-"",""-"",""no_move"",168594.8,1221.5,1958.8,168408.1,-1772,""error"",""-"",""-"",""no_move"",168881.6,286.6,1958.8,168408.1,-1485.2,""while_red"",""-"",""-"",""no_move"",169142.3,547.2,1958.8,168408.1,-1224.6,""while_red"",""-"",""-"",""no_move"",169472,876.9,1958.8,168408.1,-894.8,""while_red"",""-"",""-"",""no_move"",170315.2,1720.1,2233.6,169595.9,-1514.3,""error"",""-"",""-"",""no_move"",173826.4,3509.4,2405.5,171349.9,71.1,""smooth"",""left"",""left"",""good_move"",182380.7,8553.1,2395.9,173827.8,6157.1,""smooth"",""left"",""left"",""good_move"",190340.9,7959.3,3147.4,182381.6,4811.9,""oops"",""left"",""down"",""bad_move"",191706.4,1364.4,2848,190342.1,-1483.6,""error"",""-"",""-"",""no_move"",193467.3,1758.2,2258.5,192728,-1519.2,""error"",""-"",""-"",""no_move"",195713.8,2245.4,2568.7,194481.8,-1336.7,""error"",""-"",""-"",""no_move"",200263.7,4548.9,2816.3,196718.7,728.8,""oops"",""right"",""up"",""good_move""]"
"4271","","<div style=""width:500px;"">
  <p>What determined the result of this run?</p>
  </div>","0","html-slider-response","44","2021645","0.0-7.0-1.6","163","1","2025-08-06 09:24:37","36c45c0696341be0efffe67d72a12abb","105.245.126.225","Mozilla/5.0 (X11; Linux x86_64) AppleWebKit/537.36 (KHTML, like Gecko) Chrome/138.0.0.0 Safari/537.36","WebKit","Chrome","138.0.0.0","Linux","","https://app.prolific.com/","en-ZA,en-GB;q=0.9,en-US;q=0.8,en;q=0.7","666316060a19030e10987142","687a1a965b9f5b85a264363e","68931f15d9d0e65fc8a0dbb2","1","666316060a19030e10987142","1","2025-08-06T09:58:23.891Z","","","","AttribQ","","","","","","","","","","","50","","","","","","","","","","","","","","","","","","","","","","","","","","",""
"3641","","<div style=""width:500px;"">
  <p>How much control did you have over the ball?</p>
  </div>","0","html-slider-response","45","2025294","0.0-7.0-2.6","163","1","2025-08-06 09:24:37","36c45c0696341be0efffe67d72a12abb","105.245.126.225","Mozilla/5.0 (X11; Linux x86_64) AppleWebKit/537.36 (KHTML, like Gecko) Chrome/138.0.0.0 Safari/537.36","WebKit","Chrome","138.0.0.0","Linux","","https://app.prolific.com/","en-ZA,en-GB;q=0.9,en-US;q=0.8,en;q=0.7","666316060a19030e10987142","687a1a965b9f5b85a264363e","68931f15d9d0e65fc8a0dbb2","1","666316060a19030e10987142","1","2025-08-06T09:58:27.539Z","","","","ControlQ","","","","","","","","","","","50","","","","","","","","","","","","","","","","","","","","","","","","","","",""
"2615","","<div style=""width:500px;"">
  <p>How would you describe your current emotional state?</p>
  </div>","100","html-slider-response","46","2027915","0.0-7.0-3.6","163","1","2025-08-06 09:24:37","36c45c0696341be0efffe67d72a12abb","105.245.126.225","Mozilla/5.0 (X11; Linux x86_64) AppleWebKit/537.36 (KHTML, like Gecko) Chrome/138.0.0.0 Safari/537.36","WebKit","Chrome","138.0.0.0","Linux","","https://app.prolific.com/","en-ZA,en-GB;q=0.9,en-US;q=0.8,en;q=0.7","666316060a19030e10987142","687a1a965b9f5b85a264363e","68931f15d9d0e65fc8a0dbb2","1","666316060a19030e10987142","1","2025-08-06T09:58:30.161Z","","","","StressQ","","","","","","","","","","","50","","","","","","","","","","","","","","","","","","","","","","","","","","",""
"2431","","<div style=""width:500px;"">
  <p>What best describes how you currently feel?</p>
  </div>","0","html-slider-response","47","2030352","0.0-7.0-4.6","163","1","2025-08-06 09:24:37","36c45c0696341be0efffe67d72a12abb","105.245.126.225","Mozilla/5.0 (X11; Linux x86_64) AppleWebKit/537.36 (KHTML, like Gecko) Chrome/138.0.0.0 Safari/537.36","WebKit","Chrome","138.0.0.0","Linux","","https://app.prolific.com/","en-ZA,en-GB;q=0.9,en-US;q=0.8,en;q=0.7","666316060a19030e10987142","687a1a965b9f5b85a264363e","68931f15d9d0e65fc8a0dbb2","1","666316060a19030e10987142","1","2025-08-06T09:58:32.598Z","","","","MotivationQ","","","","","","","","","","","50","","","","","","","","","","","","","","","","","","","","","","","","","","",""
"","","","","ctl-task-cpt","48","2245685","0.0-7.0-0.7","163","1","2025-08-06 09:24:37","36c45c0696341be0efffe67d72a12abb","105.245.126.225","Mozilla/5.0 (X11; Linux x86_64) AppleWebKit/537.36 (KHTML, like Gecko) Chrome/138.0.0.0 Safari/537.36","WebKit","Chrome","138.0.0.0","Linux","","https://app.prolific.com/","en-ZA,en-GB;q=0.9,en-US;q=0.8,en;q=0.7","666316060a19030e10987142","687a1a965b9f5b85a264363e","68931f15d9d0e65fc8a0dbb2","1","666316060a19030e10987142","1","2025-08-06T10:02:07.931Z","","","","","","","","","","","","","","","","win-only","1","g1:NE,g2:SW","0.3","8","0","2034740.7","29901.4","34922.7","212287.7","1","4","8","6","1","-1","-3","2","5","0.015151515151515152","5021.3","3000","-550","[""up"",""right""]","{""num_key_presses"":28,""num_perfect"":8,""num_errors"":2,""num_randdir"":18,""num_randdir_good_moves"":8,""num_whilered"":0,""num_whileblue"":1,""num_blue"":7,""num_good_moves"":14}","[283.7142857142857,271.5111607142857,2.4,283.7142857142857,271.5111607142857,104,283.7142857142857,271.5111607142857,218.6,283.7142857142857,271.5111607142857,344.8,283.7142857142857,271.5111607142857,468,283.7142857142857,271.5111607142857,568.6,283.7142857142857,271.5111607142857,681.4,283.7142857142857,271.5111607142857,793.8,283.7142857142857,271.5111607142857,913.6,283.7142857142857,271.5111607142857,1122.6,283.7142857142857,271.5111607142857,1251.4,283.7142857142857,271.5111607142857,1362.7,283.7142857142857,271.5111607142857,1483.7,283.7142857142857,271.5111607142857,1595.1,283.7142857142857,271.5111607142857,1715.9,283.7142857142857,271.5111607142857,1890.2,283.7142857142857,271.5111607142857,2017.6,283.7142857142857,271.5111607142857,2140.8,283.7142857142857,271.5111607142857,2257.3,283.7142857142857,271.5111607142857,2380.2,283.7142857142857,271.5111607142857,2499.7,283.7142857142857,271.5111607142857,2636.4,283.7142857142857,271.5111607142857,2759.5,283.7142857142857,271.5111607142857,2878.1,283.7142857142857,271.5111607142857,2984.1,283.7142857142857,271.5111607142857,3111.3,283.7142857142857,271.5111607142857,3242,283.7142857142857,271.5111607142857,3371.1,283.7142857142857,271.5111607142857,3483.8,283.7142857142857,271.5111607142857,3605.9,283.7142857142857,271.5111607142857,3732.4,283.7142857142857,271.5111607142857,3994.2,283.7142857142857,271.5111607142857,4112.6,283.7142857142857,271.5111607142857,4243.4,283.7142857142857,271.5111607142857,4372.1,283.7142857142857,271.5111607142857,4488.5,283.7142857142857,271.5111607142857,4612.9,283.7142857142857,271.5111607142857,4733,283.7142857142857,271.5111607142857,4858.1,283.7142857142857,271.5111607142857,4988.9]","[1633.4,1633.4,1000,0,633.5,""smooth"",""up"",""up"",""good_move"",8351,6716.2,2439.5,1634.8,4276.7,""oops"",""up"",""up"",""good_move"",15255.7,6903.7,3188.9,8352.1,3714.7,""oops"",""right"",""right"",""good_move"",18739.9,3482.6,2697.5,15257.4,785.1,""oops"",""right"",""down"",""bad_move"",21374.1,2632,2035,18742.3,596.9,""smooth"",""right"",""right"",""good_move"",27982.4,6606.4,2719.2,24781,482.4,""while_blue"",""up"",""left"",""bad_move"",36474.5,8490.3,1850.8,27984.2,6639.5,""oops"",""up"",""right"",""good_move"",39516.6,3040.8,2274.4,36475.8,766.4,""oops"",""up"",""left"",""bad_move"",52933.7,13415.7,1933.2,49807.6,1192.9,""smooth"",""up"",""up"",""good_move"",61592.4,8657.7,2270.8,52934.8,6386.9,""oops"",""right"",""down"",""bad_move"",64373.9,2780.3,1936.9,61593.8,843.3,""oops"",""up"",""up"",""good_move"",70956.3,6580.9,2211,64375.6,4369.8,""oops"",""right"",""left"",""bad_move"",80618.4,9660.8,1889.9,78119.7,608.9,""oops"",""right"",""left"",""bad_move"",88769.6,8149.4,2780.9,80620.2,5368.5,""smooth"",""right"",""right"",""good_move"",91528,2757.4,2010.7,88770.6,746.8,""oops"",""right"",""down"",""bad_move"",93844.2,2314.6,1669.4,91529.7,645.1,""oops"",""right"",""left"",""bad_move"",97015.1,3169.6,2966.4,93845.6,203.3,""error"",""-"",""-"",""no_move"",101779.1,4762.8,2960.7,98028.2,790.3,""oops"",""right"",""up"",""good_move"",108432.5,6652.2,2567.8,101780.4,4084.4,""oops"",""right"",""down"",""bad_move"",117530.1,9096.4,2759.6,108433.7,6336.8,""oops"",""right"",""down"",""bad_move"",124792.7,7261.6,2880,121077.5,835.4,""smooth"",""left"",""left"",""bad_move"",131403.5,6609.5,3457.5,124794,3152.1,""smooth"",""left"",""left"",""bad_move"",138080.9,6676.2,2932.2,131404.7,3744,""oops"",""up"",""right"",""good_move"",144840.3,6757.6,2858.3,141450.4,531.7,""oops"",""up"",""right"",""good_move"",151414.4,6572.9,2320.2,148334.7,759.6,""smooth"",""up"",""up"",""good_move"",160765.7,9350.2,1870.1,151415.5,7480.1,""smooth"",""up"",""up"",""good_move"",170452.1,9685.3,2525.7,160766.9,7159.6,""oops"",""right"",""right"",""good_move"",174263.6,3809.7,3089.1,170453.9,720.6,""oops"",""right"",""down"",""bad_move""]"
"4875","","<div style=""width:500px;"">
  <p>What determined the result of this run?</p>
  </div>","0","html-slider-response","49","2250568","0.0-7.0-1.7","163","1","2025-08-06 09:24:37","36c45c0696341be0efffe67d72a12abb","105.245.126.225","Mozilla/5.0 (X11; Linux x86_64) AppleWebKit/537.36 (KHTML, like Gecko) Chrome/138.0.0.0 Safari/537.36","WebKit","Chrome","138.0.0.0","Linux","","https://app.prolific.com/","en-ZA,en-GB;q=0.9,en-US;q=0.8,en;q=0.7","666316060a19030e10987142","687a1a965b9f5b85a264363e","68931f15d9d0e65fc8a0dbb2","1","666316060a19030e10987142","1","2025-08-06T10:02:12.814Z","","","","AttribQ","","","","","","","","","","","50","","","","","","","","","","","","","","","","","","","","","","","","","","",""
"4614","","<div style=""width:500px;"">
  <p>How much control did you have over the ball?</p>
  </div>","0","html-slider-response","50","2255188","0.0-7.0-2.7","163","1","2025-08-06 09:24:37","36c45c0696341be0efffe67d72a12abb","105.245.126.225","Mozilla/5.0 (X11; Linux x86_64) AppleWebKit/537.36 (KHTML, like Gecko) Chrome/138.0.0.0 Safari/537.36","WebKit","Chrome","138.0.0.0","Linux","","https://app.prolific.com/","en-ZA,en-GB;q=0.9,en-US;q=0.8,en;q=0.7","666316060a19030e10987142","687a1a965b9f5b85a264363e","68931f15d9d0e65fc8a0dbb2","1","666316060a19030e10987142","1","2025-08-06T10:02:17.434Z","","","","ControlQ","","","","","","","","","","","50","","","","","","","","","","","","","","","","","","","","","","","","","","",""
"16740","","<div style=""width:500px;"">
  <p>How would you describe your current emotional state?</p>
  </div>","95","html-slider-response","51","2271935","0.0-7.0-3.7","163","1","2025-08-06 09:24:37","36c45c0696341be0efffe67d72a12abb","105.245.126.225","Mozilla/5.0 (X11; Linux x86_64) AppleWebKit/537.36 (KHTML, like Gecko) Chrome/138.0.0.0 Safari/537.36","WebKit","Chrome","138.0.0.0","Linux","","https://app.prolific.com/","en-ZA,en-GB;q=0.9,en-US;q=0.8,en;q=0.7","666316060a19030e10987142","687a1a965b9f5b85a264363e","68931f15d9d0e65fc8a0dbb2","1","666316060a19030e10987142","1","2025-08-06T10:02:34.181Z","","","","StressQ","","","","","","","","","","","50","","","","","","","","","","","","","","","","","","","","","","","","","","",""
"2056","","<div style=""width:500px;"">
  <p>What best describes how you currently feel?</p>
  </div>","34","html-slider-response","52","2273999","0.0-7.0-4.7","163","1","2025-08-06 09:24:37","36c45c0696341be0efffe67d72a12abb","105.245.126.225","Mozilla/5.0 (X11; Linux x86_64) AppleWebKit/537.36 (KHTML, like Gecko) Chrome/138.0.0.0 Safari/537.36","WebKit","Chrome","138.0.0.0","Linux","","https://app.prolific.com/","en-ZA,en-GB;q=0.9,en-US;q=0.8,en;q=0.7","666316060a19030e10987142","687a1a965b9f5b85a264363e","68931f15d9d0e65fc8a0dbb2","1","666316060a19030e10987142","1","2025-08-06T10:02:36.245Z","","","","MotivationQ","","","","","","","","","","","50","","","","","","","","","","","","","","","","","","","","","","","","","","",""
"","","","","ctl-task-cpt","53","2388792","0.0-7.0-0.8","163","1","2025-08-06 09:24:37","36c45c0696341be0efffe67d72a12abb","105.245.126.225","Mozilla/5.0 (X11; Linux x86_64) AppleWebKit/537.36 (KHTML, like Gecko) Chrome/138.0.0.0 Safari/537.36","WebKit","Chrome","138.0.0.0","Linux","","https://app.prolific.com/","en-ZA,en-GB;q=0.9,en-US;q=0.8,en;q=0.7","666316060a19030e10987142","687a1a965b9f5b85a264363e","68931f15d9d0e65fc8a0dbb2","1","666316060a19030e10987142","1","2025-08-06T10:04:31.038Z","","","","","","","","","","","","","","","","win-only","0","g1:NW,g2:SE","0.4","9","0","2278391.7","21676.2","26694.2","111734.7","1","4","4","6","1","1","1","3","2","0.022727272727272728","5018","3000","1925","[""left"",""up""]","{""num_key_presses"":12,""num_perfect"":6,""num_errors"":0,""num_randdir"":6,""num_randdir_good_moves"":2,""num_whilered"":0,""num_whileblue"":0,""num_blue"":3,""num_good_moves"":8}","[277.7142857142857,281.5111607142857,1.7,277.7142857142857,281.5111607142857,101.7,277.7142857142857,281.5111607142857,209.6,287.7142857142857,271.5111607142857,424.4,287.7142857142857,271.5111607142857,529.5,287.7142857142857,271.5111607142857,640.3,287.7142857142857,271.5111607142857,759.1,287.7142857142857,271.5111607142857,889.2,287.7142857142857,271.5111607142857,1003,287.7142857142857,271.5111607142857,1123.5,287.7142857142857,271.5111607142857,1424.8,287.7142857142857,271.5111607142857,1539.2,287.7142857142857,271.5111607142857,1661.2,287.7142857142857,271.5111607142857,1778.2,287.7142857142857,271.5111607142857,1999.3,287.7142857142857,271.5111607142857,2114.3,287.7142857142857,271.5111607142857,2241,287.7142857142857,271.5111607142857,2364.5,287.7142857142857,271.5111607142857,2475.3,287.7142857142857,271.5111607142857,2595,287.7142857142857,271.5111607142857,2781.6,287.7142857142857,271.5111607142857,2912.7,287.7142857142857,271.5111607142857,3031,287.7142857142857,271.5111607142857,3148.5,287.7142857142857,271.5111607142857,3273.9,287.7142857142857,271.5111607142857,3401.3,287.7142857142857,271.5111607142857,3659.7,287.7142857142857,271.5111607142857,3796.7,287.7142857142857,271.5111607142857,3901.1,287.7142857142857,271.5111607142857,4022.6,287.7142857142857,271.5111607142857,4130,287.7142857142857,271.5111607142857,4231.5,287.7142857142857,271.5111607142857,4355.8,287.7142857142857,271.5111607142857,4457.5,287.7142857142857,271.5111607142857,4557.7,287.7142857142857,271.5111607142857,4683.6,287.7142857142857,271.5111607142857,4949]","[1584.5,1584.5,1000,0,584.5,""oops"",""left"",""up"",""good_move"",11813.8,10228,2159,9078.1,576.7,""smooth"",""left"",""left"",""good_move"",20082.3,8266.4,3457,11816,4809.5,""oops"",""left"",""right"",""bad_move"",24100.3,4016,2153.5,20084.4,1862.5,""smooth"",""left"",""left"",""good_move"",34414.7,10312.9,1833.4,24101.8,8479.6,""smooth"",""up"",""up"",""good_move"",45407.8,10991.6,3103.3,34416.3,7888.3,""oops"",""left"",""down"",""bad_move"",48150.5,2740.2,1662.5,45410.3,1077.7,""oops"",""up"",""right"",""bad_move"",54791.5,6638.2,2299.1,51897.1,595.3,""oops"",""up"",""right"",""bad_move"",57935.4,3142.6,2086.8,54792.8,1055.8,""smooth"",""up"",""up"",""good_move"",65223.4,7286.4,3068.5,57937,4217.9,""oops"",""left"",""left"",""good_move"",73197.6,7972.9,2208.7,65224.7,5764.2,""smooth"",""left"",""left"",""good_move"",84611,11412.1,2745.3,81139.2,726.5,""smooth"",""left"",""left"",""good_move""]"
"2674","","<div style=""width:500px;"">
  <p>What determined the result of this run?</p>
  </div>","100","html-slider-response","54","2391474","0.0-7.0-1.8","163","1","2025-08-06 09:24:37","36c45c0696341be0efffe67d72a12abb","105.245.126.225","Mozilla/5.0 (X11; Linux x86_64) AppleWebKit/537.36 (KHTML, like Gecko) Chrome/138.0.0.0 Safari/537.36","WebKit","Chrome","138.0.0.0","Linux","","https://app.prolific.com/","en-ZA,en-GB;q=0.9,en-US;q=0.8,en;q=0.7","666316060a19030e10987142","687a1a965b9f5b85a264363e","68931f15d9d0e65fc8a0dbb2","1","666316060a19030e10987142","1","2025-08-06T10:04:33.719Z","","","","AttribQ","","","","","","","","","","","50","","","","","","","","","","","","","","","","","","","","","","","","","","",""
"1922","","<div style=""width:500px;"">
  <p>How much control did you have over the ball?</p>
  </div>","100","html-slider-response","55","2393402","0.0-7.0-2.8","163","1","2025-08-06 09:24:37","36c45c0696341be0efffe67d72a12abb","105.245.126.225","Mozilla/5.0 (X11; Linux x86_64) AppleWebKit/537.36 (KHTML, like Gecko) Chrome/138.0.0.0 Safari/537.36","WebKit","Chrome","138.0.0.0","Linux","","https://app.prolific.com/","en-ZA,en-GB;q=0.9,en-US;q=0.8,en;q=0.7","666316060a19030e10987142","687a1a965b9f5b85a264363e","68931f15d9d0e65fc8a0dbb2","1","666316060a19030e10987142","1","2025-08-06T10:04:35.648Z","","","","ControlQ","","","","","","","","","","","50","","","","","","","","","","","","","","","","","","","","","","","","","","",""
"2603","","<div style=""width:500px;"">
  <p>How would you describe your current emotional state?</p>
  </div>","0","html-slider-response","56","2396015","0.0-7.0-3.8","163","1","2025-08-06 09:24:37","36c45c0696341be0efffe67d72a12abb","105.245.126.225","Mozilla/5.0 (X11; Linux x86_64) AppleWebKit/537.36 (KHTML, like Gecko) Chrome/138.0.0.0 Safari/537.36","WebKit","Chrome","138.0.0.0","Linux","","https://app.prolific.com/","en-ZA,en-GB;q=0.9,en-US;q=0.8,en;q=0.7","666316060a19030e10987142","687a1a965b9f5b85a264363e","68931f15d9d0e65fc8a0dbb2","1","666316060a19030e10987142","1","2025-08-06T10:04:38.260Z","","","","StressQ","","","","","","","","","","","50","","","","","","","","","","","","","","","","","","","","","","","","","","",""
"4044","","<div style=""width:500px;"">
  <p>What best describes how you currently feel?</p>
  </div>","100","html-slider-response","57","2400066","0.0-7.0-4.8","163","1","2025-08-06 09:24:37","36c45c0696341be0efffe67d72a12abb","105.245.126.225","Mozilla/5.0 (X11; Linux x86_64) AppleWebKit/537.36 (KHTML, like Gecko) Chrome/138.0.0.0 Safari/537.36","WebKit","Chrome","138.0.0.0","Linux","","https://app.prolific.com/","en-ZA,en-GB;q=0.9,en-US;q=0.8,en;q=0.7","666316060a19030e10987142","687a1a965b9f5b85a264363e","68931f15d9d0e65fc8a0dbb2","1","666316060a19030e10987142","1","2025-08-06T10:04:42.311Z","","","","MotivationQ","","","","","","","","","","","50","","","","","","","","","","","","","","","","","","","","","","","","","","",""
"","","","","ctl-task-cpt","58","2437193","0.0-7.0-0.9","163","1","2025-08-06 09:24:37","36c45c0696341be0efffe67d72a12abb","105.245.126.225","Mozilla/5.0 (X11; Linux x86_64) AppleWebKit/537.36 (KHTML, like Gecko) Chrome/138.0.0.0 Safari/537.36","WebKit","Chrome","138.0.0.0","Linux","","https://app.prolific.com/","en-ZA,en-GB;q=0.9,en-US;q=0.8,en;q=0.7","666316060a19030e10987142","687a1a965b9f5b85a264363e","68931f15d9d0e65fc8a0dbb2","1","666316060a19030e10987142","1","2025-08-06T10:05:19.439Z","","","","","","","","","","","","","","","","win-only","2","g1:SE,g2:NW","0.5","10","0","2404455.2","15260.9","20263.7","34072.4","1","4","8","6","1","1","1","4","3","0.030303030303030304","5002.8","3000","2795","[""down"",""right""]","{""num_key_presses"":4,""num_perfect"":2,""num_errors"":0,""num_randdir"":2,""num_randdir_good_moves"":2,""num_whilered"":0,""num_whileblue"":0,""num_blue"":0,""num_good_moves"":4}","[277.7142857142857,277.5111607142857,1.2,277.7142857142857,277.5111607142857,140.6,277.7142857142857,277.5111607142857,279,253.71428571428572,275.5111607142857,413.4,253.71428571428572,275.5111607142857,545.6,253.71428571428572,275.5111607142857,665.9,253.71428571428572,275.5111607142857,792.9,253.71428571428572,275.5111607142857,916.6,253.71428571428572,275.5111607142857,1048.9,253.71428571428572,275.5111607142857,1187.3,253.71428571428572,275.5111607142857,1311.8,253.71428571428572,275.5111607142857,1440.4,253.71428571428572,275.5111607142857,1569.8,253.71428571428572,275.5111607142857,1701.1,253.71428571428572,275.5111607142857,1828.5,253.71428571428572,275.5111607142857,1961.6,253.71428571428572,275.5111607142857,2088.8,253.71428571428572,275.5111607142857,2221.8,253.71428571428572,275.5111607142857,2349.3,253.71428571428572,275.5111607142857,2472.3,253.71428571428572,275.5111607142857,2598.4,253.71428571428572,275.5111607142857,2734.4,253.71428571428572,275.5111607142857,2856.9,253.71428571428572,275.5111607142857,2987.5,253.71428571428572,275.5111607142857,3123.9,253.71428571428572,275.5111607142857,3264.2,253.71428571428572,275.5111607142857,3397,253.71428571428572,275.5111607142857,3525.9,253.71428571428572,275.5111607142857,3660.7,253.71428571428572,275.5111607142857,3789.8,253.71428571428572,275.5111607142857,3931.2,253.71428571428572,275.5111607142857,4060.5,253.71428571428572,275.5111607142857,4199.6,253.71428571428572,275.5111607142857,4350.5,253.71428571428572,275.5111607142857,4476.9,253.71428571428572,275.5111607142857,4613.7,253.71428571428572,275.5111607142857,4741.6,253.71428571428572,275.5111607142857,4875.4]","[1658.7,1658.8,1000,0,658.8,""oops"",""down"",""right"",""good_move"",5491.8,3831.5,3014.6,1660.3,816.9,""smooth"",""down"",""down"",""good_move"",8840.2,3346.9,2441.8,5493.5,905,""smooth"",""down"",""down"",""good_move"",12706.7,3865.3,3182.6,8841.4,682.8,""oops"",""right"",""right"",""good_move""]"
"1554","","<div style=""width:500px;"">
  <p>What determined the result of this run?</p>
  </div>","100","html-slider-response","59","2438752","0.0-7.0-1.9","163","1","2025-08-06 09:24:37","36c45c0696341be0efffe67d72a12abb","105.245.126.225","Mozilla/5.0 (X11; Linux x86_64) AppleWebKit/537.36 (KHTML, like Gecko) Chrome/138.0.0.0 Safari/537.36","WebKit","Chrome","138.0.0.0","Linux","","https://app.prolific.com/","en-ZA,en-GB;q=0.9,en-US;q=0.8,en;q=0.7","666316060a19030e10987142","687a1a965b9f5b85a264363e","68931f15d9d0e65fc8a0dbb2","1","666316060a19030e10987142","1","2025-08-06T10:05:20.997Z","","","","AttribQ","","","","","","","","","","","50","","","","","","","","","","","","","","","","","","","","","","","","","","",""
"1506","","<div style=""width:500px;"">
  <p>How much control did you have over the ball?</p>
  </div>","100","html-slider-response","60","2440263","0.0-7.0-2.9","163","1","2025-08-06 09:24:37","36c45c0696341be0efffe67d72a12abb","105.245.126.225","Mozilla/5.0 (X11; Linux x86_64) AppleWebKit/537.36 (KHTML, like Gecko) Chrome/138.0.0.0 Safari/537.36","WebKit","Chrome","138.0.0.0","Linux","","https://app.prolific.com/","en-ZA,en-GB;q=0.9,en-US;q=0.8,en;q=0.7","666316060a19030e10987142","687a1a965b9f5b85a264363e","68931f15d9d0e65fc8a0dbb2","1","666316060a19030e10987142","1","2025-08-06T10:05:22.509Z","","","","ControlQ","","","","","","","","","","","50","","","","","","","","","","","","","","","","","","","","","","","","","","",""
"1926","","<div style=""width:500px;"">
  <p>How would you describe your current emotional state?</p>
  </div>","0","html-slider-response","61","2442195","0.0-7.0-3.9","163","1","2025-08-06 09:24:37","36c45c0696341be0efffe67d72a12abb","105.245.126.225","Mozilla/5.0 (X11; Linux x86_64) AppleWebKit/537.36 (KHTML, like Gecko) Chrome/138.0.0.0 Safari/537.36","WebKit","Chrome","138.0.0.0","Linux","","https://app.prolific.com/","en-ZA,en-GB;q=0.9,en-US;q=0.8,en;q=0.7","666316060a19030e10987142","687a1a965b9f5b85a264363e","68931f15d9d0e65fc8a0dbb2","1","666316060a19030e10987142","1","2025-08-06T10:05:24.441Z","","","","StressQ","","","","","","","","","","","50","","","","","","","","","","","","","","","","","","","","","","","","","","",""
"1538","","<div style=""width:500px;"">
  <p>What best describes how you currently feel?</p>
  </div>","100","html-slider-response","62","2443740","0.0-7.0-4.9","163","1","2025-08-06 09:24:37","36c45c0696341be0efffe67d72a12abb","105.245.126.225","Mozilla/5.0 (X11; Linux x86_64) AppleWebKit/537.36 (KHTML, like Gecko) Chrome/138.0.0.0 Safari/537.36","WebKit","Chrome","138.0.0.0","Linux","","https://app.prolific.com/","en-ZA,en-GB;q=0.9,en-US;q=0.8,en;q=0.7","666316060a19030e10987142","687a1a965b9f5b85a264363e","68931f15d9d0e65fc8a0dbb2","1","666316060a19030e10987142","1","2025-08-06T10:05:25.985Z","","","","MotivationQ","","","","","","","","","","","50","","","","","","","","","","","","","","","","","","","","","","","","","","",""
"","","","","ctl-task-cpt","63","2497478","0.0-7.0-0.10","163","1","2025-08-06 09:24:37","36c45c0696341be0efffe67d72a12abb","105.245.126.225","Mozilla/5.0 (X11; Linux x86_64) AppleWebKit/537.36 (KHTML, like Gecko) Chrome/138.0.0.0 Safari/537.36","WebKit","Chrome","138.0.0.0","Linux","","https://app.prolific.com/","en-ZA,en-GB;q=0.9,en-US;q=0.8,en;q=0.7","666316060a19030e10987142","687a1a965b9f5b85a264363e","68931f15d9d0e65fc8a0dbb2","1","666316060a19030e10987142","1","2025-08-06T10:06:19.723Z","","","","","","","","","","","","","","","","win-only","0","g1:NW,g2:SE","0.6","11","0","2448121.6","8055.6","13074.4","50649.7","1","4","8","6","2","8","8","12","4","0.09090909090909091","5018.8","3000","2430","[""down"",""right""]","{""num_key_presses"":9,""num_perfect"":5,""num_errors"":0,""num_randdir"":4,""num_randdir_good_moves"":3,""num_whilered"":0,""num_whileblue"":0,""num_blue"":0,""num_good_moves"":8}","[281.7142857142857,277.5111607142857,1,281.7142857142857,277.5111607142857,130.1,281.7142857142857,277.5111607142857,247.8,281.7142857142857,277.5111607142857,363.9,275.7142857142857,273.5111607142857,481.9,267.7142857142857,249.51116071428572,648.5,267.7142857142857,249.51116071428572,762.1,267.7142857142857,249.51116071428572,867.5,267.7142857142857,249.51116071428572,969.6,267.7142857142857,249.51116071428572,1085,267.7142857142857,249.51116071428572,1190.2,267.7142857142857,249.51116071428572,1295.3,267.7142857142857,249.51116071428572,1410.1,267.7142857142857,249.51116071428572,1524.3,267.7142857142857,249.51116071428572,1631.6,267.7142857142857,249.51116071428572,1749.9,267.7142857142857,249.51116071428572,1853.7,267.7142857142857,249.51116071428572,1968.8,267.7142857142857,249.51116071428572,2079.9,267.7142857142857,249.51116071428572,2192.7,267.7142857142857,249.51116071428572,2308.2,267.7142857142857,249.51116071428572,2410.9,267.7142857142857,249.51116071428572,2517.9,267.7142857142857,249.51116071428572,2633.2,267.7142857142857,249.51116071428572,2750.9,267.7142857142857,249.51116071428572,2859.1,267.7142857142857,249.51116071428572,2969.4,267.7142857142857,249.51116071428572,3075,267.7142857142857,249.51116071428572,3190.3,267.7142857142857,249.51116071428572,3317.7,267.7142857142857,249.51116071428572,3430.8,267.7142857142857,249.51116071428572,3549.6,267.7142857142857,249.51116071428572,3666.9,267.7142857142857,249.51116071428572,3774.6,267.7142857142857,249.51116071428572,3889.5,267.7142857142857,249.51116071428572,4004.3,267.7142857142857,249.51116071428572,4115.1,267.7142857142857,249.51116071428572,4229.3,267.7142857142857,249.51116071428572,4346.9,267.7142857142857,249.51116071428572,4460.3,267.7142857142857,249.51116071428572,4574.2,267.7142857142857,249.51116071428572,4678.2,267.7142857142857,249.51116071428572,4793.2,267.7142857142857,249.51116071428572,4907.9]","[1675.6,1675.6,1000,0,675.6,""oops"",""down"",""left"",""bad_move"",14349,12671.7,1677.9,1677.3,10993.8,""smooth"",""right"",""right"",""good_move"",17922.8,3572.6,2832,14350.4,740.4,""oops"",""right"",""right"",""good_move"",21325.9,3401.3,2676.3,17924.7,725,""smooth"",""right"",""right"",""good_move"",24540,3212.8,2590.6,21327.2,622.3,""smooth"",""right"",""right"",""good_move"",28464.3,3921.7,2783.7,24542.7,1138,""oops"",""down"",""down"",""good_move"",31550.2,3084.4,2374.9,28465.9,709.5,""smooth"",""down"",""down"",""good_move"",34410,2858.5,2081.4,31551.5,777.2,""smooth"",""down"",""down"",""good_move"",37480.1,3067.1,2177.2,34413.2,889.9,""oops"",""right"",""right"",""good_move""]"
"2319","","<div style=""width:500px;"">
  <p>What determined the result of this run?</p>
  </div>","100","html-slider-response","64","2499805","0.0-7.0-1.10","163","1","2025-08-06 09:24:37","36c45c0696341be0efffe67d72a12abb","105.245.126.225","Mozilla/5.0 (X11; Linux x86_64) AppleWebKit/537.36 (KHTML, like Gecko) Chrome/138.0.0.0 Safari/537.36","WebKit","Chrome","138.0.0.0","Linux","","https://app.prolific.com/","en-ZA,en-GB;q=0.9,en-US;q=0.8,en;q=0.7","666316060a19030e10987142","687a1a965b9f5b85a264363e","68931f15d9d0e65fc8a0dbb2","1","666316060a19030e10987142","1","2025-08-06T10:06:22.050Z","","","","AttribQ","","","","","","","","","","","50","","","","","","","","","","","","","","","","","","","","","","","","","","",""
"2871","","<div style=""width:500px;"">
  <p>How much control did you have over the ball?</p>
  </div>","100","html-slider-response","65","2502682","0.0-7.0-2.10","163","1","2025-08-06 09:24:37","36c45c0696341be0efffe67d72a12abb","105.245.126.225","Mozilla/5.0 (X11; Linux x86_64) AppleWebKit/537.36 (KHTML, like Gecko) Chrome/138.0.0.0 Safari/537.36","WebKit","Chrome","138.0.0.0","Linux","","https://app.prolific.com/","en-ZA,en-GB;q=0.9,en-US;q=0.8,en;q=0.7","666316060a19030e10987142","687a1a965b9f5b85a264363e","68931f15d9d0e65fc8a0dbb2","1","666316060a19030e10987142","1","2025-08-06T10:06:24.927Z","","","","ControlQ","","","","","","","","","","","50","","","","","","","","","","","","","","","","","","","","","","","","","","",""
"2069","","<div style=""width:500px;"">
  <p>How would you describe your current emotional state?</p>
  </div>","0","html-slider-response","66","2504758","0.0-7.0-3.10","163","1","2025-08-06 09:24:37","36c45c0696341be0efffe67d72a12abb","105.245.126.225","Mozilla/5.0 (X11; Linux x86_64) AppleWebKit/537.36 (KHTML, like Gecko) Chrome/138.0.0.0 Safari/537.36","WebKit","Chrome","138.0.0.0","Linux","","https://app.prolific.com/","en-ZA,en-GB;q=0.9,en-US;q=0.8,en;q=0.7","666316060a19030e10987142","687a1a965b9f5b85a264363e","68931f15d9d0e65fc8a0dbb2","1","666316060a19030e10987142","1","2025-08-06T10:06:27.003Z","","","","StressQ","","","","","","","","","","","50","","","","","","","","","","","","","","","","","","","","","","","","","","",""
"6591","","<div style=""width:500px;"">
  <p>What best describes how you currently feel?</p>
  </div>","100","html-slider-response","67","2511356","0.0-7.0-4.10","163","1","2025-08-06 09:24:37","36c45c0696341be0efffe67d72a12abb","105.245.126.225","Mozilla/5.0 (X11; Linux x86_64) AppleWebKit/537.36 (KHTML, like Gecko) Chrome/138.0.0.0 Safari/537.36","WebKit","Chrome","138.0.0.0","Linux","","https://app.prolific.com/","en-ZA,en-GB;q=0.9,en-US;q=0.8,en;q=0.7","666316060a19030e10987142","687a1a965b9f5b85a264363e","68931f15d9d0e65fc8a0dbb2","1","666316060a19030e10987142","1","2025-08-06T10:06:33.601Z","","","","MotivationQ","","","","","","","","","","","50","","","","","","","","","","","","","","","","","","","","","","","","","","",""
"","","","","ctl-task-cpt","68","2568848","0.0-7.0-0.11","163","1","2025-08-06 09:24:37","36c45c0696341be0efffe67d72a12abb","105.245.126.225","Mozilla/5.0 (X11; Linux x86_64) AppleWebKit/537.36 (KHTML, like Gecko) Chrome/138.0.0.0 Safari/537.36","WebKit","Chrome","138.0.0.0","Linux","","https://app.prolific.com/","en-ZA,en-GB;q=0.9,en-US;q=0.8,en;q=0.7","666316060a19030e10987142","687a1a965b9f5b85a264363e","68931f15d9d0e65fc8a0dbb2","1","666316060a19030e10987142","1","2025-08-06T10:07:31.095Z","","","","","","","","","","","","","","","","win-only","0","g1:NW,g2:SE","0.7","12","0","2515737.1","8160.7","13211.3","54414.3","1","4","4","6","1","1","1","13","12","0.09848484848484848","5050.5","3000","2740","[""left"",""up""]","{""num_key_presses"":4,""num_perfect"":4,""num_errors"":0,""num_randdir"":0,""num_randdir_good_moves"":0,""num_whilered"":0,""num_whileblue"":0,""num_blue"":1,""num_good_moves"":4}","[275.7142857142857,271.5111607142857,1.3,275.7142857142857,271.5111607142857,140,275.7142857142857,271.5111607142857,256.7,281.7142857142857,279.5111607142857,408.7,281.7142857142857,279.5111607142857,530.8,281.7142857142857,279.5111607142857,650.3,281.7142857142857,279.5111607142857,752.5,281.7142857142857,279.5111607142857,880.1,281.7142857142857,279.5111607142857,1000.5,281.7142857142857,279.5111607142857,1129.9,281.7142857142857,279.5111607142857,1257.1,281.7142857142857,279.5111607142857,1373,281.7142857142857,279.5111607142857,1506.1,281.7142857142857,279.5111607142857,1629.8,281.7142857142857,279.5111607142857,1743.2,281.7142857142857,279.5111607142857,1870.2,281.7142857142857,279.5111607142857,1990.1,281.7142857142857,279.5111607142857,2118,281.7142857142857,279.5111607142857,2245.8,281.7142857142857,279.5111607142857,2355.8,281.7142857142857,279.5111607142857,2480.4,281.7142857142857,279.5111607142857,2590.1,281.7142857142857,279.5111607142857,2718.3,281.7142857142857,279.5111607142857,2838.6,281.7142857142857,279.5111607142857,2956.8,281.7142857142857,279.5111607142857,3081.2,281.7142857142857,279.5111607142857,3192.8,281.7142857142857,279.5111607142857,3314.4,281.7142857142857,279.5111607142857,3434.7,281.7142857142857,279.5111607142857,3549.9,281.7142857142857,279.5111607142857,3667.5,281.7142857142857,279.5111607142857,3790.7,281.7142857142857,279.5111607142857,3905.6,281.7142857142857,279.5111607142857,4025.3,281.7142857142857,279.5111607142857,4139.9,281.7142857142857,279.5111607142857,4257.8,281.7142857142857,279.5111607142857,4386.6,281.7142857142857,279.5111607142857,4503.9,281.7142857142857,279.5111607142857,4620.3,281.7142857142857,279.5111607142857,4740.7,281.7142857142857,279.5111607142857,4863.6,281.7142857142857,279.5111607142857,4986.7]","[1662.8,1662.8,1000,0,662.8,""smooth"",""left"",""left"",""good_move"",18006.9,16342.1,2334.3,14935.4,737.3,""smooth"",""left"",""left"",""good_move"",31601.7,13593.1,2978.7,18008.7,10614.4,""smooth"",""up"",""up"",""good_move"",40222.5,8619.7,2506.2,31603,6113.4,""smooth"",""up"",""up"",""good_move""]"
"2233","","<div style=""width:500px;"">
  <p>What determined the result of this run?</p>
  </div>","100","html-slider-response","69","2571091","0.0-7.0-1.11","163","1","2025-08-06 09:24:37","36c45c0696341be0efffe67d72a12abb","105.245.126.225","Mozilla/5.0 (X11; Linux x86_64) AppleWebKit/537.36 (KHTML, like Gecko) Chrome/138.0.0.0 Safari/537.36","WebKit","Chrome","138.0.0.0","Linux","","https://app.prolific.com/","en-ZA,en-GB;q=0.9,en-US;q=0.8,en;q=0.7","666316060a19030e10987142","687a1a965b9f5b85a264363e","68931f15d9d0e65fc8a0dbb2","1","666316060a19030e10987142","1","2025-08-06T10:07:33.337Z","","","","AttribQ","","","","","","","","","","","50","","","","","","","","","","","","","","","","","","","","","","","","","","",""
"4245","","<div style=""width:500px;"">
  <p>How much control did you have over the ball?</p>
  </div>","100","html-slider-response","70","2575343","0.0-7.0-2.11","163","1","2025-08-06 09:24:37","36c45c0696341be0efffe67d72a12abb","105.245.126.225","Mozilla/5.0 (X11; Linux x86_64) AppleWebKit/537.36 (KHTML, like Gecko) Chrome/138.0.0.0 Safari/537.36","WebKit","Chrome","138.0.0.0","Linux","","https://app.prolific.com/","en-ZA,en-GB;q=0.9,en-US;q=0.8,en;q=0.7","666316060a19030e10987142","687a1a965b9f5b85a264363e","68931f15d9d0e65fc8a0dbb2","1","666316060a19030e10987142","1","2025-08-06T10:07:37.589Z","","","","ControlQ","","","","","","","","","","","50","","","","","","","","","","","","","","","","","","","","","","","","","","",""
"2091","","<div style=""width:500px;"">
  <p>How would you describe your current emotional state?</p>
  </div>","0","html-slider-response","71","2577442","0.0-7.0-3.11","163","1","2025-08-06 09:24:37","36c45c0696341be0efffe67d72a12abb","105.245.126.225","Mozilla/5.0 (X11; Linux x86_64) AppleWebKit/537.36 (KHTML, like Gecko) Chrome/138.0.0.0 Safari/537.36","WebKit","Chrome","138.0.0.0","Linux","","https://app.prolific.com/","en-ZA,en-GB;q=0.9,en-US;q=0.8,en;q=0.7","666316060a19030e10987142","687a1a965b9f5b85a264363e","68931f15d9d0e65fc8a0dbb2","1","666316060a19030e10987142","1","2025-08-06T10:07:39.688Z","","","","StressQ","","","","","","","","","","","50","","","","","","","","","","","","","","","","","","","","","","","","","","",""
"7135","","<div style=""width:500px;"">
  <p>What best describes how you currently feel?</p>
  </div>","100","html-slider-response","72","2584587","0.0-7.0-4.11","163","1","2025-08-06 09:24:37","36c45c0696341be0efffe67d72a12abb","105.245.126.225","Mozilla/5.0 (X11; Linux x86_64) AppleWebKit/537.36 (KHTML, like Gecko) Chrome/138.0.0.0 Safari/537.36","WebKit","Chrome","138.0.0.0","Linux","","https://app.prolific.com/","en-ZA,en-GB;q=0.9,en-US;q=0.8,en;q=0.7","666316060a19030e10987142","687a1a965b9f5b85a264363e","68931f15d9d0e65fc8a0dbb2","1","666316060a19030e10987142","1","2025-08-06T10:07:46.832Z","","","","MotivationQ","","","","","","","","","","","50","","","","","","","","","","","","","","","","","","","","","","","","","","",""
"","","","","ctl-task-cpt","73","2634498","0.0-7.0-0.12","163","1","2025-08-06 09:24:37","36c45c0696341be0efffe67d72a12abb","105.245.126.225","Mozilla/5.0 (X11; Linux x86_64) AppleWebKit/537.36 (KHTML, like Gecko) Chrome/138.0.0.0 Safari/537.36","WebKit","Chrome","138.0.0.0","Linux","","https://app.prolific.com/","en-ZA,en-GB;q=0.9,en-US;q=0.8,en;q=0.7","666316060a19030e10987142","687a1a965b9f5b85a264363e","68931f15d9d0e65fc8a0dbb2","1","666316060a19030e10987142","1","2025-08-06T10:08:36.744Z","","","","","","","","","","","","","","","","win-only","1","g1:NE,g2:SW","0.8","13","0","2588979.7","8814.4","13898.5","46836.6","1","4","8","6","1","1","1","14","13","0.10606060606060606","5084","3000","2745","[""up"",""right""]","{""num_key_presses"":4,""num_perfect"":4,""num_errors"":0,""num_randdir"":0,""num_randdir_good_moves"":0,""num_whilered"":0,""num_whileblue"":0,""num_blue"":2,""num_good_moves"":4}","[281.7142857142857,283.5111607142857,1.3,281.7142857142857,283.5111607142857,257.3,283.7142857142857,271.5111607142857,474.7,283.7142857142857,271.5111607142857,653,283.7142857142857,271.5111607142857,836.8,283.7142857142857,271.5111607142857,1014,283.7142857142857,271.5111607142857,1118,283.7142857142857,271.5111607142857,1292.9,283.7142857142857,271.5111607142857,1477.6,283.7142857142857,271.5111607142857,1658.8,283.7142857142857,271.5111607142857,1837.2,283.7142857142857,271.5111607142857,2015.9,283.7142857142857,271.5111607142857,2190,283.7142857142857,271.5111607142857,2376.8,283.7142857142857,271.5111607142857,2552.5,283.7142857142857,271.5111607142857,2746.5,283.7142857142857,271.5111607142857,2922.4,283.7142857142857,271.5111607142857,3111,283.7142857142857,271.5111607142857,3284.1,283.7142857142857,271.5111607142857,3471.5,283.7142857142857,271.5111607142857,3648.9,283.7142857142857,271.5111607142857,3830.8,283.7142857142857,271.5111607142857,4006.8,283.7142857142857,271.5111607142857,4188.5,283.7142857142857,271.5111607142857,4367,283.7142857142857,271.5111607142857,4542.6,283.7142857142857,271.5111607142857,4723.7,283.7142857142857,271.5111607142857,4912.4]","[1648.1,1648.1,1000,0,648.1,""smooth"",""up"",""up"",""good_move"",14567.2,12918.2,2176.1,11612.5,778.7,""smooth"",""up"",""up"",""good_move"",28392.4,13824.1,1747.2,25698.5,946.8,""smooth"",""right"",""right"",""good_move"",31814.4,3420.3,2296.6,28394.2,1123.6,""smooth"",""right"",""right"",""good_move""]"
"1549","","<div style=""width:500px;"">
  <p>What determined the result of this run?</p>
  </div>","100","html-slider-response","74","2636054","0.0-7.0-1.12","163","1","2025-08-06 09:24:37","36c45c0696341be0efffe67d72a12abb","105.245.126.225","Mozilla/5.0 (X11; Linux x86_64) AppleWebKit/537.36 (KHTML, like Gecko) Chrome/138.0.0.0 Safari/537.36","WebKit","Chrome","138.0.0.0","Linux","","https://app.prolific.com/","en-ZA,en-GB;q=0.9,en-US;q=0.8,en;q=0.7","666316060a19030e10987142","687a1a965b9f5b85a264363e","68931f15d9d0e65fc8a0dbb2","1","666316060a19030e10987142","1","2025-08-06T10:08:38.299Z","","","","AttribQ","","","","","","","","","","","50","","","","","","","","","","","","","","","","","","","","","","","","","","",""
"3704","","<div style=""width:500px;"">
  <p>How much control did you have over the ball?</p>
  </div>","100","html-slider-response","75","2639764","0.0-7.0-2.12","163","1","2025-08-06 09:24:37","36c45c0696341be0efffe67d72a12abb","105.245.126.225","Mozilla/5.0 (X11; Linux x86_64) AppleWebKit/537.36 (KHTML, like Gecko) Chrome/138.0.0.0 Safari/537.36","WebKit","Chrome","138.0.0.0","Linux","","https://app.prolific.com/","en-ZA,en-GB;q=0.9,en-US;q=0.8,en;q=0.7","666316060a19030e10987142","687a1a965b9f5b85a264363e","68931f15d9d0e65fc8a0dbb2","1","666316060a19030e10987142","1","2025-08-06T10:08:42.010Z","","","","ControlQ","","","","","","","","","","","50","","","","","","","","","","","","","","","","","","","","","","","","","","",""
"38168","","<div style=""width:500px;"">
  <p>How would you describe your current emotional state?</p>
  </div>","100","html-slider-response","76","2677941","0.0-7.0-3.12","163","1","2025-08-06 09:24:37","36c45c0696341be0efffe67d72a12abb","105.245.126.225","Mozilla/5.0 (X11; Linux x86_64) AppleWebKit/537.36 (KHTML, like Gecko) Chrome/138.0.0.0 Safari/537.36","WebKit","Chrome","138.0.0.0","Linux","","https://app.prolific.com/","en-ZA,en-GB;q=0.9,en-US;q=0.8,en;q=0.7","666316060a19030e10987142","687a1a965b9f5b85a264363e","68931f15d9d0e65fc8a0dbb2","1","666316060a19030e10987142","1","2025-08-06T10:09:20.187Z","","","","StressQ","","","","","","","","","","","50","","","","","","","","","","","","","","","","","","","","","","","","","","",""
"22046","","<div style=""width:500px;"">
  <p>What best describes how you currently feel?</p>
  </div>","100","html-slider-response","77","2699997","0.0-7.0-4.12","163","1","2025-08-06 09:24:37","36c45c0696341be0efffe67d72a12abb","105.245.126.225","Mozilla/5.0 (X11; Linux x86_64) AppleWebKit/537.36 (KHTML, like Gecko) Chrome/138.0.0.0 Safari/537.36","WebKit","Chrome","138.0.0.0","Linux","","https://app.prolific.com/","en-ZA,en-GB;q=0.9,en-US;q=0.8,en;q=0.7","666316060a19030e10987142","687a1a965b9f5b85a264363e","68931f15d9d0e65fc8a0dbb2","1","666316060a19030e10987142","1","2025-08-06T10:09:42.243Z","","","","MotivationQ","","","","","","","","","","","50","","","","","","","","","","","","","","","","","","","","","","","","","","",""
