"rt","response_timestamp","stimulus","response","trial_type","trial_index","time_elapsed","internal_node_id","run_id","condition","recorded_at","source_code_version","ip","user_agent","device","browser","browser_version","platform","platform_version","referer","accept_language","PROLIFIC_PID","STUDY_ID","SESSION_ID","BATCH","prolific_id","batch","realtime","success","question_order","question_id","eventType","responses","item_order","radio_event_ids","radio_event_times","key_event_times","mouse_event_times","straightlining","zigzagging","honeypot","view_history","slider_start","which_type","canvas_config","goals_layout","control_level","trial_number","tutorial_trial_number","trial_start_time","phase1_start_time","phase2_start_time","phase3_start_time","goal_1_value","goal_1_distance","goal_2_value","goal_2_distance","goal_selected","outcome","outcome_total","participant_final_score","participant_initial_score","participant_final_score_prop","goal_choice_rt","allocated_time","allocated_time_remaining","goal_direction","counts","mouse_movements","key_presses"
"4987","1754488759365","<p style='font-size:40px;line-height:1.25'><strong>Welcome to the experiment!</strong></p><p style='font-size:1.1em;line-height:1.25'>Thank you for participanting in our experiment again! You will be asked to play the Dysfunctional Ball Game again. We will briefly recap the rules before we start.</p><p style='font-size:1.1em;line-height:1.25'>Press <strong>Next</strong> to continue.</p>","0","custom-html-button-response","0","4991","0.0-0.0","206","1","2025-08-06 13:59:10","36c45c0696341be0efffe67d72a12abb","154.66.155.77","Mozilla/5.0 (Windows NT 10.0; Win64; x64) AppleWebKit/537.36 (KHTML, like Gecko) Chrome/138.0.0.0 Safari/537.36","WebKit","Chrome","138.0.0.0","Windows","10.0","https://app.prolific.com/","en-ZA,en-GB;q=0.9,en-US;q=0.8,en;q=0.7","666408427db5e38fe0ea1736","6877649eabb845cf142cd221","68935f3c0e70b3b74c66214e","1","666408427db5e38fe0ea1736","1","2025-08-06T13:59:19.368Z","","","","","","","","","","","","","","","","","","","","","","","","","","","","","","","","","","","","","","","","","",""
"3308","","","","fullscreen","1","9321","0.0-1.0","206","1","2025-08-06 13:59:10","36c45c0696341be0efffe67d72a12abb","154.66.155.77","Mozilla/5.0 (Windows NT 10.0; Win64; x64) AppleWebKit/537.36 (KHTML, like Gecko) Chrome/138.0.0.0 Safari/537.36","WebKit","Chrome","138.0.0.0","Windows","10.0","https://app.prolific.com/","en-ZA,en-GB;q=0.9,en-US;q=0.8,en;q=0.7","666408427db5e38fe0ea1736","6877649eabb845cf142cd221","68935f3c0e70b3b74c66214e","1","666408427db5e38fe0ea1736","1","","true","","","","","","","","","","","","","","","","","","","","","","","","","","","","","","","","","","","","","","","","",""
"13933","1754488777632"," <p style='font-size:1.1em;line-height:1.25'>Thank you for closing all other tabs.</p><p style='font-size:1.1em;line-height:1.25'>We will now invite you to fill in some questionnaires, before starting the game.<br>This will take about 5 minutes.<br></p><p style='font-size:1.1em;line-height:1.25'>Press the <strong>Next</strong> button to continue.</p>","0","custom-html-button-response","2","23256","0.0-2.0","206","1","2025-08-06 13:59:10","36c45c0696341be0efffe67d72a12abb","154.66.155.77","Mozilla/5.0 (Windows NT 10.0; Win64; x64) AppleWebKit/537.36 (KHTML, like Gecko) Chrome/138.0.0.0 Safari/537.36","WebKit","Chrome","138.0.0.0","Windows","10.0","https://app.prolific.com/","en-ZA,en-GB;q=0.9,en-US;q=0.8,en;q=0.7","666408427db5e38fe0ea1736","6877649eabb845cf142cd221","68935f3c0e70b3b74c66214e","1","666408427db5e38fe0ea1736","1","2025-08-06T13:59:37.633Z","","","","","","","","","","","","","","","","","","","","","","","","","","","","","","","","","","","","","","","","","",""
"3286","","","{""assigned_sex"":""female""}","survey-multi-choice","3","26546","0.0-3.0-0.0","206","1","2025-08-06 13:59:10","36c45c0696341be0efffe67d72a12abb","154.66.155.77","Mozilla/5.0 (Windows NT 10.0; Win64; x64) AppleWebKit/537.36 (KHTML, like Gecko) Chrome/138.0.0.0 Safari/537.36","WebKit","Chrome","138.0.0.0","Windows","10.0","https://app.prolific.com/","en-ZA,en-GB;q=0.9,en-US;q=0.8,en;q=0.7","666408427db5e38fe0ea1736","6877649eabb845cf142cd221","68935f3c0e70b3b74c66214e","1","666408427db5e38fe0ea1736","1","","","[0]","0","demographics","","","","","","","","","","","","","","","","","","","","","","","","","","","","","","","","","","","","","",""
"6162","1754488787085","<p style='font-size:1.1em;line-height:1.25'>In the following, we will perform a baseline assessment. This means that we will ask you a few questions relating to your experiences over the past month.<br></p><p style='font-size:1.1em;line-height:1.25'>Press the <strong>Next</strong> button to continue.</p>","0","custom-html-button-response","4","32709","0.0-4.0-0.0","206","1","2025-08-06 13:59:10","36c45c0696341be0efffe67d72a12abb","154.66.155.77","Mozilla/5.0 (Windows NT 10.0; Win64; x64) AppleWebKit/537.36 (KHTML, like Gecko) Chrome/138.0.0.0 Safari/537.36","WebKit","Chrome","138.0.0.0","Windows","10.0","https://app.prolific.com/","en-ZA,en-GB;q=0.9,en-US;q=0.8,en;q=0.7","666408427db5e38fe0ea1736","6877649eabb845cf142cd221","68935f3c0e70b3b74c66214e","1","666408427db5e38fe0ea1736","1","2025-08-06T13:59:47.085Z","","","","","","","","","","","","","","","","","","","","","","","","","","","","","","","","","","","","","","","","","",""
"179979.79999995232","","","","survey-template","5","212695","0.0-4.0-1.0","206","1","2025-08-06 13:59:10","36c45c0696341be0efffe67d72a12abb","154.66.155.77","Mozilla/5.0 (Windows NT 10.0; Win64; x64) AppleWebKit/537.36 (KHTML, like Gecko) Chrome/138.0.0.0 Safari/537.36","WebKit","Chrome","138.0.0.0","Windows","10.0","https://app.prolific.com/","en-ZA,en-GB;q=0.9,en-US;q=0.8,en;q=0.7","666408427db5e38fe0ea1736","6877649eabb845cf142cd221","68935f3c0e70b3b74c66214e","1","666408427db5e38fe0ea1736","1","2025-08-06T14:02:47.071Z","","","","pss","{""Q01"":""2"",""Q02"":""1"",""Q03"":""2"",""Q04"":""1"",""Q05"":""2"",""Q06"":""2"",""Q07"":""2"",""Q08"":""1"",""Q09"":""2"",""Q10"":""3""}","[0,1,2,3,4,5,6,7,8,9]","[""Q01"",""Q02"",""Q03"",""Q04"",""Q05"",""Q07"",""Q08"",""Q09"",""Q10"",""Q06"",""Q06""]","[12275.400000095367,46945.299999952316,113100,122603.40000009537,131515.40000009537,145470.29999995232,150843.70000004768,162946.90000009537,166089.60000014305,175575.20000004768,177592.70000004768]","[]","[0.20000004768371582,8952.600000143051,10480.900000095367,12275.400000095367,35797.700000047684,45231.10000014305,46945.299999952316,113100,122603.40000009537,131515.40000009537,145470.29999995232,150843.70000004768,158580,160220.5,161147.60000014305,162007.90000009537,162946.90000009537,166089.60000014305,167608.5,175575.20000004768,177592.70000004768,179971.40000009537]","0.6","0.7777777777777778","0","","","","","","","","","","","","","","","","","","","","","","","","","","","","",""
"3942","1754488971015","<p style='font-size:1.1em;line-height:1.25'>Thank you for your answers! Now we will ask you a few more questions relating to your feelings in the last 24 hours.<br></p><p style='font-size:1.1em;line-height:1.25'>Press the <strong>Next</strong> button to continue.</p>","0","custom-html-button-response","6","216640","0.0-4.0-2.0","206","1","2025-08-06 13:59:10","36c45c0696341be0efffe67d72a12abb","154.66.155.77","Mozilla/5.0 (Windows NT 10.0; Win64; x64) AppleWebKit/537.36 (KHTML, like Gecko) Chrome/138.0.0.0 Safari/537.36","WebKit","Chrome","138.0.0.0","Windows","10.0","https://app.prolific.com/","en-ZA,en-GB;q=0.9,en-US;q=0.8,en;q=0.7","666408427db5e38fe0ea1736","6877649eabb845cf142cd221","68935f3c0e70b3b74c66214e","1","666408427db5e38fe0ea1736","1","2025-08-06T14:02:51.016Z","","","","","","","","","","","","","","","","","","","","","","","","","","","","","","","","","","","","","","","","","",""
"104470.20000004768","","","","survey-template","7","321116","0.0-4.0-3.0","206","1","2025-08-06 13:59:10","36c45c0696341be0efffe67d72a12abb","154.66.155.77","Mozilla/5.0 (Windows NT 10.0; Win64; x64) AppleWebKit/537.36 (KHTML, like Gecko) Chrome/138.0.0.0 Safari/537.36","WebKit","Chrome","138.0.0.0","Windows","10.0","https://app.prolific.com/","en-ZA,en-GB;q=0.9,en-US;q=0.8,en;q=0.7","666408427db5e38fe0ea1736","6877649eabb845cf142cd221","68935f3c0e70b3b74c66214e","1","666408427db5e38fe0ea1736","1","2025-08-06T14:04:35.492Z","","","","drsp","{""Q01"":""1"",""Q02"":""2"",""Q03"":""1"",""Q04"":""3"",""Q05"":""3"",""Q06"":""3"",""Q07"":""2"",""Q08"":""1"",""Q09"":""2"",""Q10"":""1"",""Q11"":""1"",""Q12"":""3"",""Q13"":""5"",""Q14"":""3"",""Q15"":""4"",""Q16"":""3"",""Q17"":""3"",""Q18"":""4"",""Q19"":""3"",""Q20"":""3"",""Q21"":""2"",""Q22"":""2""}","[0,1,2,3,4,5,6,7,8,9,10,11,12,13,14,15,16,17,18,19,20,21]","[""Q01"",""Q02"",""Q03"",""Q04"",""Q05"",""Q06"",""Q07"",""Q08"",""Q09"",""Q10"",""Q11"",""Q12"",""Q13"",""Q13"",""Q14"",""Q15"",""Q16"",""Q17"",""Q18"",""Q19"",""Q20"",""Q21"",""Q22""]","[4502.5,13453.799999952316,20128.299999952316,23270.200000047684,27266.599999904633,30614.200000047684,34680.299999952316,37789.5,41275.700000047684,44976.89999985695,48638.799999952316,52067.5,55561.5,57933.799999952316,70440.29999995232,74168.79999995232,81285.89999985695,84574.39999985695,88300,93807.59999990463,96706.59999990463,101343.29999995232,103224.09999990463]","[]","[0,4502.5,11674.299999952316,13453.799999952316,20128.299999952316,23270.200000047684,26233.39999985695,27266.599999904633,30614.200000047684,34680.299999952316,36673.39999985695,37789.5,41275.700000047684,44976.89999985695,48638.799999952316,52067.5,55561.5,57933.799999952316,70440.29999995232,74168.79999995232,80220.89999985695,81285.89999985695,84574.39999985695,87351.89999985695,88300,92880.39999985695,93807.59999990463,96706.59999990463,98675.39999985695,101343.29999995232,103224.09999990463,104463.79999995232]","0.4090909090909091","0.5238095238095238","0","","","","","","","","","","","","","","","","","","","","","","","","","","","","",""
"40620","","","","survey-template","8","361738","0.0-4.0-4.0","206","1","2025-08-06 13:59:10","36c45c0696341be0efffe67d72a12abb","154.66.155.77","Mozilla/5.0 (Windows NT 10.0; Win64; x64) AppleWebKit/537.36 (KHTML, like Gecko) Chrome/138.0.0.0 Safari/537.36","WebKit","Chrome","138.0.0.0","Windows","10.0","https://app.prolific.com/","en-ZA,en-GB;q=0.9,en-US;q=0.8,en;q=0.7","666408427db5e38fe0ea1736","6877649eabb845cf142cd221","68935f3c0e70b3b74c66214e","1","666408427db5e38fe0ea1736","1","2025-08-06T14:05:16.114Z","","","","stress","{""Q01"":""2"",""Q02"":""2"",""Q03"":""2""}","[0,1,2]","[""Q01"",""Q02"",""Q03""]","[4589.099999904633,6032.199999809265,10193.299999952316]","[]","[3407.699999809265,4589.099999904633,6032.199999809265,8480.399999856949,10193.299999952316,40617.299999952316]","0.6666666666666666","1","0","","","","","","","","","","","","","","","","","","","","","","","","","","","","",""
"2996","","","","instructions","9","364735","0.0-5.0-0.0","206","1","2025-08-06 13:59:10","36c45c0696341be0efffe67d72a12abb","154.66.155.77","Mozilla/5.0 (Windows NT 10.0; Win64; x64) AppleWebKit/537.36 (KHTML, like Gecko) Chrome/138.0.0.0 Safari/537.36","WebKit","Chrome","138.0.0.0","Windows","10.0","https://app.prolific.com/","en-ZA,en-GB;q=0.9,en-US;q=0.8,en;q=0.7","666408427db5e38fe0ea1736","6877649eabb845cf142cd221","68935f3c0e70b3b74c66214e","1","666408427db5e38fe0ea1736","1","","","","","","","","","","","","","","","[{""page_index"":0,""viewing_time"":2995}]","","","","","","","","","","","","","","","","","","","","","","","","","","","",""
"4021","","<p>Before you start with this game please answer the following three questions yourself. </p>
  <p>Through this game, we measure several aspects of your cognitive performance, such as reaction times, multi-tasking capabilities </p>
  <p>and the ability to assess the situation you are in.</p>
  <p></p>
  <p><b>How good do you usually are in such tasks?</b></p>","72","html-slider-response","10","368759","0.0-6.0-0.0","206","1","2025-08-06 13:59:10","36c45c0696341be0efffe67d72a12abb","154.66.155.77","Mozilla/5.0 (Windows NT 10.0; Win64; x64) AppleWebKit/537.36 (KHTML, like Gecko) Chrome/138.0.0.0 Safari/537.36","WebKit","Chrome","138.0.0.0","Windows","10.0","https://app.prolific.com/","en-ZA,en-GB;q=0.9,en-US;q=0.8,en;q=0.7","666408427db5e38fe0ea1736","6877649eabb845cf142cd221","68935f3c0e70b3b74c66214e","1","666408427db5e38fe0ea1736","1","2025-08-06T14:05:23.135Z","","","","PreSkillQ","","","","","","","","","","","50","","","","","","","","","","","","","","","","","","","","","","","","","","",""
"4682","","<div style=""width:500px;"">
  <p>How well do you think you will perform in this task compared to other participants?</p>
  </div>","79","html-slider-response","11","373443","0.0-6.0-1.0","206","1","2025-08-06 13:59:10","36c45c0696341be0efffe67d72a12abb","154.66.155.77","Mozilla/5.0 (Windows NT 10.0; Win64; x64) AppleWebKit/537.36 (KHTML, like Gecko) Chrome/138.0.0.0 Safari/537.36","WebKit","Chrome","138.0.0.0","Windows","10.0","https://app.prolific.com/","en-ZA,en-GB;q=0.9,en-US;q=0.8,en;q=0.7","666408427db5e38fe0ea1736","6877649eabb845cf142cd221","68935f3c0e70b3b74c66214e","1","666408427db5e38fe0ea1736","1","2025-08-06T14:05:27.820Z","","","","PrePerfQ","","","","","","","","","","","50","","","","","","","","","","","","","","","","","","","","","","","","","","",""
"3644","","<div style=""width:500px;"">
  <p>What best describes how you currently feel?</p>
  </div>","71","html-slider-response","12","377089","0.0-6.0-2.0","206","1","2025-08-06 13:59:10","36c45c0696341be0efffe67d72a12abb","154.66.155.77","Mozilla/5.0 (Windows NT 10.0; Win64; x64) AppleWebKit/537.36 (KHTML, like Gecko) Chrome/138.0.0.0 Safari/537.36","WebKit","Chrome","138.0.0.0","Windows","10.0","https://app.prolific.com/","en-ZA,en-GB;q=0.9,en-US;q=0.8,en;q=0.7","666408427db5e38fe0ea1736","6877649eabb845cf142cd221","68935f3c0e70b3b74c66214e","1","666408427db5e38fe0ea1736","1","2025-08-06T14:05:31.465Z","","","","PreMotivationQ","","","","","","","","","","","50","","","","","","","","","","","","","","","","","","","","","","","","","","",""
"","","","","ctl-task-cpt","13","412145","0.0-7.0-0.0","206","1","2025-08-06 13:59:10","36c45c0696341be0efffe67d72a12abb","154.66.155.77","Mozilla/5.0 (Windows NT 10.0; Win64; x64) AppleWebKit/537.36 (KHTML, like Gecko) Chrome/138.0.0.0 Safari/537.36","WebKit","Chrome","138.0.0.0","Windows","10.0","https://app.prolific.com/","en-ZA,en-GB;q=0.9,en-US;q=0.8,en;q=0.7","666408427db5e38fe0ea1736","6877649eabb845cf142cd221","68935f3c0e70b3b74c66214e","1","666408427db5e38fe0ea1736","1","2025-08-06T14:06:06.521Z","","","","","","","","","","","","","","","","win-only","0","g1:NW,g2:SE","1","1","0","380253.1","1904.7","6908.5","32045.2","1","4","4","6","2","4","3","3","0","0.022727272727272728","1359","3000","945","[""down"",""right""]","{""num_key_presses"":8,""num_perfect"":7,""num_errors"":1,""num_randdir"":0,""num_randdir_good_moves"":0,""num_whilered"":0,""num_whileblue"":1,""num_blue"":2,""num_good_moves"":7}","[293.0178342546736,292.01785666602,0.6,293.0178342546736,292.01785666602,103.7,293.0178342546736,292.01785666602,211.8,293.0178342546736,292.01785666602,311.8,293.0178342546736,292.01785666602,418.2,293.0178342546736,292.01785666602,528.2,293.0178342546736,292.01785666602,636.7,293.0178342546736,292.01785666602,736.8,318.0178342546736,323.26785666602,844.7,475.5178342546736,480.76785666602,945,543.0178342546735,524.51785666602,1048.6,545.5178342546735,529.51785666602,1153.3,539.2678342546735,537.01785666602,1257,539.2678342546735,537.01785666602,1357.9,539.2678342546735,537.01785666602,1462.7,539.2678342546735,537.01785666602,1570.6,539.2678342546735,537.01785666602,1671.1,539.2678342546735,537.01785666602,1771.3,539.2678342546735,537.01785666602,1873.4,539.2678342546735,537.01785666602,1976.4,539.2678342546735,537.01785666602,2079,539.2678342546735,537.01785666602,2181.8,539.2678342546735,537.01785666602,2283,539.2678342546735,537.01785666602,2386.7,539.2678342546735,537.01785666602,2496.6,539.2678342546735,537.01785666602,2597.5,539.2678342546735,537.01785666602,2704.5,539.2678342546735,537.01785666602,2812.8,539.2678342546735,537.01785666602,2913,539.2678342546735,537.01785666602,3021.1,539.2678342546735,537.01785666602,3122,539.2678342546735,537.01785666602,3223.4,539.2678342546735,537.01785666602,3329.7,539.2678342546735,537.01785666602,3432.5,539.2678342546735,537.01785666602,3546.5,539.2678342546735,537.01785666602,3646.6,539.2678342546735,537.01785666602,3747.6,539.2678342546735,537.01785666602,3847.8,539.2678342546735,537.01785666602,3952.7,539.2678342546735,537.01785666602,4060.9,539.2678342546735,537.01785666602,4163.6,539.2678342546735,537.01785666602,4264.5,539.2678342546735,537.01785666602,4373.1,539.2678342546735,537.01785666602,4474.5,539.2678342546735,537.01785666602,4577.9,539.2678342546735,537.01785666602,4681.4,539.2678342546735,537.01785666602,4782,539.2678342546735,537.01785666602,4889.4,539.2678342546735,537.01785666602,4997.1]","[1368.3,1368.3,1000,0,368.3,""smooth"",""right"",""right"",""good_move"",4195.8,2826.6,2496.5,1369.3,330,""while_blue"",""down"",""up"",""bad_move"",6584.9,2387.8,1955.5,4197.1,432.3,""smooth"",""down"",""down"",""good_move"",12039.8,5454,2096.6,9556.2,387,""smooth"",""down"",""down"",""good_move"",15255.1,3214.8,2732.4,12040.5,482.3,""smooth"",""down"",""down"",""good_move"",18674.3,3418.7,2994.8,15255.7,423.8,""smooth"",""down"",""down"",""good_move"",21704.5,3029.8,2552.4,18674.8,477.3,""smooth"",""right"",""right"",""good_move"",24991.2,3286.3,2920.3,21704.9,366,""smooth"",""right"",""right"",""good_move""]"
"4725","","<div style=""width:500px;"">
  <p>What determined the result of this run?</p>
  </div>","99","html-slider-response","14","416874","0.0-7.0-1.0","206","1","2025-08-06 13:59:10","36c45c0696341be0efffe67d72a12abb","154.66.155.77","Mozilla/5.0 (Windows NT 10.0; Win64; x64) AppleWebKit/537.36 (KHTML, like Gecko) Chrome/138.0.0.0 Safari/537.36","WebKit","Chrome","138.0.0.0","Windows","10.0","https://app.prolific.com/","en-ZA,en-GB;q=0.9,en-US;q=0.8,en;q=0.7","666408427db5e38fe0ea1736","6877649eabb845cf142cd221","68935f3c0e70b3b74c66214e","1","666408427db5e38fe0ea1736","1","2025-08-06T14:06:11.250Z","","","","AttribQ","","","","","","","","","","","50","","","","","","","","","","","","","","","","","","","","","","","","","","",""
"4852","","<div style=""width:500px;"">
  <p>How much control did you have over the ball?</p>
  </div>","98","html-slider-response","15","421729","0.0-7.0-2.0","206","1","2025-08-06 13:59:10","36c45c0696341be0efffe67d72a12abb","154.66.155.77","Mozilla/5.0 (Windows NT 10.0; Win64; x64) AppleWebKit/537.36 (KHTML, like Gecko) Chrome/138.0.0.0 Safari/537.36","WebKit","Chrome","138.0.0.0","Windows","10.0","https://app.prolific.com/","en-ZA,en-GB;q=0.9,en-US;q=0.8,en;q=0.7","666408427db5e38fe0ea1736","6877649eabb845cf142cd221","68935f3c0e70b3b74c66214e","1","666408427db5e38fe0ea1736","1","2025-08-06T14:06:16.105Z","","","","ControlQ","","","","","","","","","","","50","","","","","","","","","","","","","","","","","","","","","","","","","","",""
"3751","","<div style=""width:500px;"">
  <p>How would you describe your current emotional state?</p>
  </div>","34","html-slider-response","16","425483","0.0-7.0-3.0","206","1","2025-08-06 13:59:10","36c45c0696341be0efffe67d72a12abb","154.66.155.77","Mozilla/5.0 (Windows NT 10.0; Win64; x64) AppleWebKit/537.36 (KHTML, like Gecko) Chrome/138.0.0.0 Safari/537.36","WebKit","Chrome","138.0.0.0","Windows","10.0","https://app.prolific.com/","en-ZA,en-GB;q=0.9,en-US;q=0.8,en;q=0.7","666408427db5e38fe0ea1736","6877649eabb845cf142cd221","68935f3c0e70b3b74c66214e","1","666408427db5e38fe0ea1736","1","2025-08-06T14:06:19.859Z","","","","StressQ","","","","","","","","","","","50","","","","","","","","","","","","","","","","","","","","","","","","","","",""
"3770","","<div style=""width:500px;"">
  <p>What best describes how you currently feel?</p>
  </div>","73","html-slider-response","17","429256","0.0-7.0-4.0","206","1","2025-08-06 13:59:10","36c45c0696341be0efffe67d72a12abb","154.66.155.77","Mozilla/5.0 (Windows NT 10.0; Win64; x64) AppleWebKit/537.36 (KHTML, like Gecko) Chrome/138.0.0.0 Safari/537.36","WebKit","Chrome","138.0.0.0","Windows","10.0","https://app.prolific.com/","en-ZA,en-GB;q=0.9,en-US;q=0.8,en;q=0.7","666408427db5e38fe0ea1736","6877649eabb845cf142cd221","68935f3c0e70b3b74c66214e","1","666408427db5e38fe0ea1736","1","2025-08-06T14:06:23.632Z","","","","MotivationQ","","","","","","","","","","","50","","","","","","","","","","","","","","","","","","","","","","","","","","",""
"","","","","ctl-task-cpt","18","463616","0.0-7.0-0.1","206","1","2025-08-06 13:59:10","36c45c0696341be0efffe67d72a12abb","154.66.155.77","Mozilla/5.0 (Windows NT 10.0; Win64; x64) AppleWebKit/537.36 (KHTML, like Gecko) Chrome/138.0.0.0 Safari/537.36","WebKit","Chrome","138.0.0.0","Windows","10.0","https://app.prolific.com/","en-ZA,en-GB;q=0.9,en-US;q=0.8,en;q=0.7","666408427db5e38fe0ea1736","6877649eabb845cf142cd221","68935f3c0e70b3b74c66214e","1","666408427db5e38fe0ea1736","1","2025-08-06T14:06:57.992Z","","","","","","","","","","","","","","","","win-only","3","g1:SW,g2:NE","0.9","2","0","432417.2","2716","7716.8","31341.6","1","4","8","6","2","8","8","11","3","0.08333333333333333","1968.1","3000","1085","[""up"",""right""]","{""num_key_presses"":6,""num_perfect"":6,""num_errors"":0,""num_randdir"":0,""num_randdir_good_moves"":0,""num_whilered"":0,""num_whileblue"":0,""num_blue"":2,""num_good_moves"":6}","[291.7678342546736,294.51785666602,0.6,291.7678342546736,294.51785666602,106.9,291.7678342546736,294.51785666602,209.8,291.7678342546736,294.51785666602,314.1,291.7678342546736,294.51785666602,415.8,291.7678342546736,294.51785666602,516.1,291.7678342546736,294.51785666602,618.9,343.0178342546736,188.26785666601998,720.4,478.0178342546736,22.017856666019988,824.8,538.0178342546735,-17.982143333980012,928.7,573.0178342546735,-17.982143333980012,1030,563.0178342546735,-1.7321433339800123,1130.6,551.7678342546735,3.2678566660199877,1230.7,543.0178342546735,9.517856666019988,1331.6,540.5178342546735,12.017856666019988,1432.2,540.5178342546735,12.017856666019988,1532.7,540.5178342546735,12.017856666019988,1638.8,538.0178342546735,12.017856666019988,1745.7,538.0178342546735,12.017856666019988,1850.8,538.0178342546735,12.017856666019988,1956.9,538.0178342546735,12.017856666019988,2060.5,538.0178342546735,12.017856666019988,2164.2,538.0178342546735,12.017856666019988,2264.4,538.0178342546735,12.017856666019988,2369.1,538.0178342546735,12.017856666019988,2474,538.0178342546735,12.017856666019988,2584.5,538.0178342546735,12.017856666019988,2693.8,538.0178342546735,12.017856666019988,2800.4,538.0178342546735,12.017856666019988,2902.8,538.0178342546735,12.017856666019988,3006.6,538.0178342546735,12.017856666019988,3110.6,538.0178342546735,12.017856666019988,3210.8,538.0178342546735,12.017856666019988,3311.3,538.0178342546735,12.017856666019988,3411.7,538.0178342546735,12.017856666019988,3523.8,538.0178342546735,12.017856666019988,3628.3,538.0178342546735,12.017856666019988,3730.3,538.0178342546735,12.017856666019988,3830.2,538.0178342546735,12.017856666019988,3932.2,538.0178342546735,12.017856666019988,4039.1,538.0178342546735,12.017856666019988,4139.3,538.0178342546735,12.017856666019988,4243.6,538.0178342546735,12.017856666019988,4349.1,538.0178342546735,12.017856666019988,4449.2,538.0178342546735,12.017856666019988,4550.3,538.0178342546735,12.017856666019988,4650.3,538.0178342546735,12.017856666019988,4751,538.0178342546735,12.017856666019988,4857.8,538.0178342546735,12.017856666019988,4957.8]","[5062.9,5062.9,2655.9,2008.4,398.6,""smooth"",""right"",""right"",""good_move"",9230.3,4166.9,3643.4,5063.4,523.5,""smooth"",""up"",""up"",""good_move"",14317.6,5086.9,2088.2,11862,367.4,""smooth"",""right"",""right"",""good_move"",17152.3,2834.1,2378.9,14318.2,455.2,""smooth"",""up"",""up"",""good_move"",20384,3230.6,2773.7,17153.4,456.9,""smooth"",""up"",""up"",""good_move"",23502,3117.6,2759.4,20384.5,358.2,""smooth"",""right"",""right"",""good_move""]"
"5426","","<div style=""width:500px;"">
  <p>What determined the result of this run?</p>
  </div>","99","html-slider-response","19","469045","0.0-7.0-1.1","206","1","2025-08-06 13:59:10","36c45c0696341be0efffe67d72a12abb","154.66.155.77","Mozilla/5.0 (Windows NT 10.0; Win64; x64) AppleWebKit/537.36 (KHTML, like Gecko) Chrome/138.0.0.0 Safari/537.36","WebKit","Chrome","138.0.0.0","Windows","10.0","https://app.prolific.com/","en-ZA,en-GB;q=0.9,en-US;q=0.8,en;q=0.7","666408427db5e38fe0ea1736","6877649eabb845cf142cd221","68935f3c0e70b3b74c66214e","1","666408427db5e38fe0ea1736","1","2025-08-06T14:07:03.421Z","","","","AttribQ","","","","","","","","","","","50","","","","","","","","","","","","","","","","","","","","","","","","","","",""
"3685","","<div style=""width:500px;"">
  <p>How much control did you have over the ball?</p>
  </div>","100","html-slider-response","20","472733","0.0-7.0-2.1","206","1","2025-08-06 13:59:10","36c45c0696341be0efffe67d72a12abb","154.66.155.77","Mozilla/5.0 (Windows NT 10.0; Win64; x64) AppleWebKit/537.36 (KHTML, like Gecko) Chrome/138.0.0.0 Safari/537.36","WebKit","Chrome","138.0.0.0","Windows","10.0","https://app.prolific.com/","en-ZA,en-GB;q=0.9,en-US;q=0.8,en;q=0.7","666408427db5e38fe0ea1736","6877649eabb845cf142cd221","68935f3c0e70b3b74c66214e","1","666408427db5e38fe0ea1736","1","2025-08-06T14:07:07.109Z","","","","ControlQ","","","","","","","","","","","50","","","","","","","","","","","","","","","","","","","","","","","","","","",""
"3917","","<div style=""width:500px;"">
  <p>How would you describe your current emotional state?</p>
  </div>","19","html-slider-response","21","476652","0.0-7.0-3.1","206","1","2025-08-06 13:59:10","36c45c0696341be0efffe67d72a12abb","154.66.155.77","Mozilla/5.0 (Windows NT 10.0; Win64; x64) AppleWebKit/537.36 (KHTML, like Gecko) Chrome/138.0.0.0 Safari/537.36","WebKit","Chrome","138.0.0.0","Windows","10.0","https://app.prolific.com/","en-ZA,en-GB;q=0.9,en-US;q=0.8,en;q=0.7","666408427db5e38fe0ea1736","6877649eabb845cf142cd221","68935f3c0e70b3b74c66214e","1","666408427db5e38fe0ea1736","1","2025-08-06T14:07:11.028Z","","","","StressQ","","","","","","","","","","","50","","","","","","","","","","","","","","","","","","","","","","","","","","",""
"3374","","<div style=""width:500px;"">
  <p>What best describes how you currently feel?</p>
  </div>","82","html-slider-response","22","480030","0.0-7.0-4.1","206","1","2025-08-06 13:59:10","36c45c0696341be0efffe67d72a12abb","154.66.155.77","Mozilla/5.0 (Windows NT 10.0; Win64; x64) AppleWebKit/537.36 (KHTML, like Gecko) Chrome/138.0.0.0 Safari/537.36","WebKit","Chrome","138.0.0.0","Windows","10.0","https://app.prolific.com/","en-ZA,en-GB;q=0.9,en-US;q=0.8,en;q=0.7","666408427db5e38fe0ea1736","6877649eabb845cf142cd221","68935f3c0e70b3b74c66214e","1","666408427db5e38fe0ea1736","1","2025-08-06T14:07:14.406Z","","","","MotivationQ","","","","","","","","","","","50","","","","","","","","","","","","","","","","","","","","","","","","","","",""
"","","","","ctl-task-cpt","23","506778","0.0-7.0-0.2","206","1","2025-08-06 13:59:10","36c45c0696341be0efffe67d72a12abb","154.66.155.77","Mozilla/5.0 (Windows NT 10.0; Win64; x64) AppleWebKit/537.36 (KHTML, like Gecko) Chrome/138.0.0.0 Safari/537.36","WebKit","Chrome","138.0.0.0","Windows","10.0","https://app.prolific.com/","en-ZA,en-GB;q=0.9,en-US;q=0.8,en;q=0.7","666408427db5e38fe0ea1736","6877649eabb845cf142cd221","68935f3c0e70b3b74c66214e","1","666408427db5e38fe0ea1736","1","2025-08-06T14:07:41.154Z","","","","","","","","","","","","","","","","win-only","0","g1:NW,g2:SE","0.8","3","0","483195.6","1645.1","6648","23737","1","4","4","6","2","4","4","15","11","0.11363636363636363","1308.3","3000","1355","[""down"",""right""]","{""num_key_presses"":6,""num_perfect"":5,""num_errors"":0,""num_randdir"":1,""num_randdir_good_moves"":1,""num_whilered"":0,""num_whileblue"":0,""num_blue"":0,""num_good_moves"":6}","[293.0178342546736,299.51785666602,0.5,293.0178342546736,299.51785666602,101.3,293.0178342546736,299.51785666602,203,293.0178342546736,299.51785666602,307.9,293.0178342546736,299.51785666602,411.5,293.0178342546736,299.51785666602,517.7,289.2678342546736,294.51785666602,623,264.2678342546736,268.26785666602,727.5,380.5178342546736,387.01785666602,834.4,498.0178342546736,495.76785666602,935.1,530.5178342546735,522.01785666602,1040.5,533.0178342546735,524.51785666602,1143.4,533.0178342546735,524.51785666602,1251,533.0178342546735,524.51785666602,1352,533.0178342546735,524.51785666602,1457.8,533.0178342546735,524.51785666602,1558.7,533.0178342546735,524.51785666602,1668.8,533.0178342546735,524.51785666602,1768.9,533.0178342546735,524.51785666602,1874,533.0178342546735,524.51785666602,1974.4,533.0178342546735,524.51785666602,2079.2,533.0178342546735,524.51785666602,2184.1,533.0178342546735,524.51785666602,2285.2,533.0178342546735,524.51785666602,2385.8,533.0178342546735,524.51785666602,2495.1,533.0178342546735,524.51785666602,2595.4,533.0178342546735,524.51785666602,2700.1,533.0178342546735,524.51785666602,2803.7,533.0178342546735,524.51785666602,2909.3,533.0178342546735,524.51785666602,3009.4,533.0178342546735,524.51785666602,3118.5,533.0178342546735,524.51785666602,3223.1,533.0178342546735,524.51785666602,3326.8,533.0178342546735,524.51785666602,3427.6,533.0178342546735,524.51785666602,3534.6,533.0178342546735,524.51785666602,3635.8,533.0178342546735,524.51785666602,3741.6,533.0178342546735,524.51785666602,3847.8,533.0178342546735,524.51785666602,3955.1,533.0178342546735,524.51785666602,4060.4,533.0178342546735,524.51785666602,4166.4,533.0178342546735,524.51785666602,4273,533.0178342546735,524.51785666602,4381,533.0178342546735,524.51785666602,4481.3,533.0178342546735,524.51785666602,4585.8,533.0178342546735,524.51785666602,4686.2,533.0178342546735,524.51785666602,4786.6,533.0178342546735,524.51785666602,4887,533.0178342546735,524.51785666602,4987.6]","[1428,1428,1000,0,428,""oops"",""down"",""down"",""good_move"",4027.2,2597.9,2195,1429.3,402.9,""smooth"",""right"",""right"",""good_move"",7687.8,3659.9,3289.4,4027.9,370.5,""smooth"",""down"",""down"",""good_move"",11268.7,3580.5,3177.8,7688.3,402.7,""smooth"",""right"",""right"",""good_move"",14352.9,3083.8,2700.1,11269.1,383.7,""smooth"",""down"",""down"",""good_move"",16974,2620.5,2269.5,14353.5,351,""smooth"",""right"",""right"",""good_move""]"
"4083","","<div style=""width:500px;"">
  <p>What determined the result of this run?</p>
  </div>","99","html-slider-response","24","510864","0.0-7.0-1.2","206","1","2025-08-06 13:59:10","36c45c0696341be0efffe67d72a12abb","154.66.155.77","Mozilla/5.0 (Windows NT 10.0; Win64; x64) AppleWebKit/537.36 (KHTML, like Gecko) Chrome/138.0.0.0 Safari/537.36","WebKit","Chrome","138.0.0.0","Windows","10.0","https://app.prolific.com/","en-ZA,en-GB;q=0.9,en-US;q=0.8,en;q=0.7","666408427db5e38fe0ea1736","6877649eabb845cf142cd221","68935f3c0e70b3b74c66214e","1","666408427db5e38fe0ea1736","1","2025-08-06T14:07:45.240Z","","","","AttribQ","","","","","","","","","","","50","","","","","","","","","","","","","","","","","","","","","","","","","","",""
"3823","","<div style=""width:500px;"">
  <p>How much control did you have over the ball?</p>
  </div>","100","html-slider-response","25","514689","0.0-7.0-2.2","206","1","2025-08-06 13:59:10","36c45c0696341be0efffe67d72a12abb","154.66.155.77","Mozilla/5.0 (Windows NT 10.0; Win64; x64) AppleWebKit/537.36 (KHTML, like Gecko) Chrome/138.0.0.0 Safari/537.36","WebKit","Chrome","138.0.0.0","Windows","10.0","https://app.prolific.com/","en-ZA,en-GB;q=0.9,en-US;q=0.8,en;q=0.7","666408427db5e38fe0ea1736","6877649eabb845cf142cd221","68935f3c0e70b3b74c66214e","1","666408427db5e38fe0ea1736","1","2025-08-06T14:07:49.065Z","","","","ControlQ","","","","","","","","","","","50","","","","","","","","","","","","","","","","","","","","","","","","","","",""
"4699","","<div style=""width:500px;"">
  <p>How would you describe your current emotional state?</p>
  </div>","3","html-slider-response","26","519391","0.0-7.0-3.2","206","1","2025-08-06 13:59:10","36c45c0696341be0efffe67d72a12abb","154.66.155.77","Mozilla/5.0 (Windows NT 10.0; Win64; x64) AppleWebKit/537.36 (KHTML, like Gecko) Chrome/138.0.0.0 Safari/537.36","WebKit","Chrome","138.0.0.0","Windows","10.0","https://app.prolific.com/","en-ZA,en-GB;q=0.9,en-US;q=0.8,en;q=0.7","666408427db5e38fe0ea1736","6877649eabb845cf142cd221","68935f3c0e70b3b74c66214e","1","666408427db5e38fe0ea1736","1","2025-08-06T14:07:53.767Z","","","","StressQ","","","","","","","","","","","50","","","","","","","","","","","","","","","","","","","","","","","","","","",""
"3110","","<div style=""width:500px;"">
  <p>What best describes how you currently feel?</p>
  </div>","96","html-slider-response","27","522504","0.0-7.0-4.2","206","1","2025-08-06 13:59:10","36c45c0696341be0efffe67d72a12abb","154.66.155.77","Mozilla/5.0 (Windows NT 10.0; Win64; x64) AppleWebKit/537.36 (KHTML, like Gecko) Chrome/138.0.0.0 Safari/537.36","WebKit","Chrome","138.0.0.0","Windows","10.0","https://app.prolific.com/","en-ZA,en-GB;q=0.9,en-US;q=0.8,en;q=0.7","666408427db5e38fe0ea1736","6877649eabb845cf142cd221","68935f3c0e70b3b74c66214e","1","666408427db5e38fe0ea1736","1","2025-08-06T14:07:56.880Z","","","","MotivationQ","","","","","","","","","","","50","","","","","","","","","","","","","","","","","","","","","","","","","","",""
"","","","","ctl-task-cpt","28","555547","0.0-7.0-0.3","206","1","2025-08-06 13:59:10","36c45c0696341be0efffe67d72a12abb","154.66.155.77","Mozilla/5.0 (Windows NT 10.0; Win64; x64) AppleWebKit/537.36 (KHTML, like Gecko) Chrome/138.0.0.0 Safari/537.36","WebKit","Chrome","138.0.0.0","Windows","10.0","https://app.prolific.com/","en-ZA,en-GB;q=0.9,en-US;q=0.8,en;q=0.7","666408427db5e38fe0ea1736","6877649eabb845cf142cd221","68935f3c0e70b3b74c66214e","1","666408427db5e38fe0ea1736","1","2025-08-06T14:08:29.923Z","","","","","","","","","","","","","","","","win-only","2","g1:SE,g2:NW","0.7","4","0","525668.7","1537","6545","30029.8","1","4","8","6","2","8","8","23","15","0.17424242424242425","2009.4","3000","1200","[""left"",""up""]","{""num_key_presses"":6,""num_perfect"":4,""num_errors"":0,""num_randdir"":2,""num_randdir_good_moves"":2,""num_whilered"":0,""num_whileblue"":0,""num_blue"":2,""num_good_moves"":6}","[294.2678342546736,293.26785666602,0.4,294.2678342546736,293.26785666602,102,294.2678342546736,293.26785666602,202,294.2678342546736,293.26785666602,303.2,294.2678342546736,293.26785666602,405.5,294.2678342546736,293.26785666602,506,294.2678342546736,293.26785666602,611.4,294.2678342546736,293.26785666602,713.1,294.2678342546736,293.26785666602,813.6,294.2678342546736,293.26785666602,919.1,294.2678342546736,293.26785666602,1019.1,294.2678342546736,293.26785666602,1119.2,294.2678342546736,293.26785666602,1219.2,294.2678342546736,293.26785666602,1319.5,241.76783425467355,253.26785666601998,1421.2,133.01783425467355,115.76785666601998,1525.4,108.01783425467355,68.26785666601998,1630.1,86.76783425467355,48.26785666601999,1731.2,65.51783425467355,57.01785666601999,1836.3,65.51783425467355,57.01785666601999,1938,65.51783425467355,57.01785666601999,2039.7,65.51783425467355,57.01785666601999,2140.3,65.51783425467355,57.01785666601999,2245.7,65.51783425467355,57.01785666601999,2348.8,65.51783425467355,57.01785666601999,2453.5,65.51783425467355,57.01785666601999,2561.9,65.51783425467355,57.01785666601999,2662.3,65.51783425467355,57.01785666601999,2763.2,65.51783425467355,57.01785666601999,2865.8,65.51783425467355,57.01785666601999,2970,65.51783425467355,57.01785666601999,3077.5,65.51783425467355,57.01785666601999,3179.3,65.51783425467355,57.01785666601999,3287.9,65.51783425467355,57.01785666601999,3388.8,65.51783425467355,57.01785666601999,3489.6,65.51783425467355,57.01785666601999,3591.1,65.51783425467355,57.01785666601999,3693.4,65.51783425467355,57.01785666601999,3796.1,65.51783425467355,57.01785666601999,3904.2,65.51783425467355,57.01785666601999,4011.8,65.51783425467355,57.01785666601999,4114.4,65.51783425467355,57.01785666601999,4217.3,65.51783425467355,57.01785666601999,4321.1,65.51783425467355,57.01785666601999,4425.1,65.51783425467355,57.01785666601999,4527.8,65.51783425467355,57.01785666601999,4628.8,65.51783425467355,57.01785666601999,4729,65.51783425467355,57.01785666601999,4829.3,65.51783425467355,57.01785666601999,4930.6]","[5110.1,5110.1,2674.9,2012,423.2,""oops"",""up"",""up"",""good_move"",11425.6,6314.8,2025.1,9057.9,342.6,""smooth"",""left"",""left"",""good_move"",14303.5,2877.3,2401.3,11426.2,476,""smooth"",""up"",""up"",""good_move"",17753.5,3449.6,2971.4,14303.9,478.2,""smooth"",""left"",""left"",""good_move"",20367.1,2613.4,2167.6,17753.7,445.8,""oops"",""up"",""left"",""good_move"",23370.3,3003,2674,20367.4,329,""smooth"",""up"",""up"",""good_move""]"
"3657","","<div style=""width:500px;"">
  <p>What determined the result of this run?</p>
  </div>","100","html-slider-response","29","559207","0.0-7.0-1.3","206","1","2025-08-06 13:59:10","36c45c0696341be0efffe67d72a12abb","154.66.155.77","Mozilla/5.0 (Windows NT 10.0; Win64; x64) AppleWebKit/537.36 (KHTML, like Gecko) Chrome/138.0.0.0 Safari/537.36","WebKit","Chrome","138.0.0.0","Windows","10.0","https://app.prolific.com/","en-ZA,en-GB;q=0.9,en-US;q=0.8,en;q=0.7","666408427db5e38fe0ea1736","6877649eabb845cf142cd221","68935f3c0e70b3b74c66214e","1","666408427db5e38fe0ea1736","1","2025-08-06T14:08:33.583Z","","","","AttribQ","","","","","","","","","","","50","","","","","","","","","","","","","","","","","","","","","","","","","","",""
"4351","","<div style=""width:500px;"">
  <p>How much control did you have over the ball?</p>
  </div>","99","html-slider-response","30","563561","0.0-7.0-2.3","206","1","2025-08-06 13:59:10","36c45c0696341be0efffe67d72a12abb","154.66.155.77","Mozilla/5.0 (Windows NT 10.0; Win64; x64) AppleWebKit/537.36 (KHTML, like Gecko) Chrome/138.0.0.0 Safari/537.36","WebKit","Chrome","138.0.0.0","Windows","10.0","https://app.prolific.com/","en-ZA,en-GB;q=0.9,en-US;q=0.8,en;q=0.7","666408427db5e38fe0ea1736","6877649eabb845cf142cd221","68935f3c0e70b3b74c66214e","1","666408427db5e38fe0ea1736","1","2025-08-06T14:08:37.937Z","","","","ControlQ","","","","","","","","","","","50","","","","","","","","","","","","","","","","","","","","","","","","","","",""
"4305","","<div style=""width:500px;"">
  <p>How would you describe your current emotional state?</p>
  </div>","17","html-slider-response","31","567869","0.0-7.0-3.3","206","1","2025-08-06 13:59:10","36c45c0696341be0efffe67d72a12abb","154.66.155.77","Mozilla/5.0 (Windows NT 10.0; Win64; x64) AppleWebKit/537.36 (KHTML, like Gecko) Chrome/138.0.0.0 Safari/537.36","WebKit","Chrome","138.0.0.0","Windows","10.0","https://app.prolific.com/","en-ZA,en-GB;q=0.9,en-US;q=0.8,en;q=0.7","666408427db5e38fe0ea1736","6877649eabb845cf142cd221","68935f3c0e70b3b74c66214e","1","666408427db5e38fe0ea1736","1","2025-08-06T14:08:42.245Z","","","","StressQ","","","","","","","","","","","50","","","","","","","","","","","","","","","","","","","","","","","","","","",""
"4362","","<div style=""width:500px;"">
  <p>What best describes how you currently feel?</p>
  </div>","88","html-slider-response","32","572234","0.0-7.0-4.3","206","1","2025-08-06 13:59:10","36c45c0696341be0efffe67d72a12abb","154.66.155.77","Mozilla/5.0 (Windows NT 10.0; Win64; x64) AppleWebKit/537.36 (KHTML, like Gecko) Chrome/138.0.0.0 Safari/537.36","WebKit","Chrome","138.0.0.0","Windows","10.0","https://app.prolific.com/","en-ZA,en-GB;q=0.9,en-US;q=0.8,en;q=0.7","666408427db5e38fe0ea1736","6877649eabb845cf142cd221","68935f3c0e70b3b74c66214e","1","666408427db5e38fe0ea1736","1","2025-08-06T14:08:46.610Z","","","","MotivationQ","","","","","","","","","","","50","","","","","","","","","","","","","","","","","","","","","","","","","","",""
"","","","","ctl-task-cpt","33","615510","0.0-7.0-0.4","206","1","2025-08-06 13:59:10","36c45c0696341be0efffe67d72a12abb","154.66.155.77","Mozilla/5.0 (Windows NT 10.0; Win64; x64) AppleWebKit/537.36 (KHTML, like Gecko) Chrome/138.0.0.0 Safari/537.36","WebKit","Chrome","138.0.0.0","Windows","10.0","https://app.prolific.com/","en-ZA,en-GB;q=0.9,en-US;q=0.8,en;q=0.7","666408427db5e38fe0ea1736","6877649eabb845cf142cd221","68935f3c0e70b3b74c66214e","1","666408427db5e38fe0ea1736","1","2025-08-06T14:09:29.887Z","","","","","","","","","","","","","","","","win-only","0","g1:NW,g2:SE","0.6","5","0","575398.8","1649.3","6653.1","40251.3","1","4","8","6","2","-8","-8","15","23","0.11363636363636363","1605.1","3000","-2195","[""down"",""right""]","{""num_key_presses"":9,""num_perfect"":6,""num_errors"":0,""num_randdir"":3,""num_randdir_good_moves"":0,""num_whilered"":0,""num_whileblue"":0,""num_blue"":1,""num_good_moves"":6}","[299.2678342546736,293.26785666602,0.5,299.2678342546736,293.26785666602,101.9,299.2678342546736,293.26785666602,208.3,299.2678342546736,293.26785666602,313.4,299.2678342546736,293.26785666602,413.4,299.2678342546736,293.26785666602,519.1,299.2678342546736,293.26785666602,627.9,299.2678342546736,293.26785666602,728.1,415.5178342546736,370.76785666602,830.4,510.5178342546736,455.76785666602,930.5,543.0178342546735,480.76785666602,1036.4,543.0178342546735,482.01785666602,1136.6,523.0178342546735,519.51785666602,1236.8,518.0178342546735,537.01785666602,1343.1,516.7678342546735,538.26785666602,1446.8,516.7678342546735,538.26785666602,1551.8,516.7678342546735,538.26785666602,1651.9,516.7678342546735,538.26785666602,1752.5,516.7678342546735,538.26785666602,1858.6,516.7678342546735,538.26785666602,1961.5,516.7678342546735,538.26785666602,2065.1,516.7678342546735,538.26785666602,2168.6,516.7678342546735,538.26785666602,2269.1,516.7678342546735,538.26785666602,2371.2,516.7678342546735,538.26785666602,2472.3,516.7678342546735,538.26785666602,2572.6,516.7678342546735,538.26785666602,2674.1,516.7678342546735,538.26785666602,2777.4,516.7678342546735,538.26785666602,2877.4,516.7678342546735,538.26785666602,2980.3,516.7678342546735,538.26785666602,3081,516.7678342546735,538.26785666602,3183.2,516.7678342546735,538.26785666602,3285.1,516.7678342546735,538.26785666602,3386.3,516.7678342546735,538.26785666602,3487.4,516.7678342546735,538.26785666602,3590,516.7678342546735,538.26785666602,3696.4,516.7678342546735,538.26785666602,3806.3,516.7678342546735,538.26785666602,3914.2,516.7678342546735,538.26785666602,4019.8,515.5178342546735,534.51785666602,4123.2,515.5178342546735,532.01785666602,4227.5,515.5178342546735,532.01785666602,4331,515.5178342546735,532.01785666602,4437,515.5178342546735,532.01785666602,4538.3,515.5178342546735,532.01785666602,4645.2,515.5178342546735,532.01785666602,4752.8,515.5178342546735,529.51785666602,4859.8,515.5178342546735,529.51785666602,4962.2]","[1432.3,1432.3,1000,0,432.4,""smooth"",""down"",""down"",""good_move"",4155.7,2722.8,2271.5,1432.9,451.3,""smooth"",""right"",""right"",""good_move"",12116.9,7960.7,3318.6,8360.2,438.1,""smooth"",""down"",""down"",""good_move"",15626.6,3509.3,3103.8,12117.3,405.5,""oops"",""right"",""left"",""bad_move"",18624.4,2997.2,2567.7,15627.2,429.5,""smooth"",""down"",""down"",""good_move"",21422.4,2797.7,2313.7,18624.7,484,""smooth"",""right"",""right"",""good_move"",24452.8,3029.7,2626,21423.2,403.7,""oops"",""right"",""left"",""bad_move"",27381.4,2928.1,2152.1,24453.3,776,""smooth"",""right"",""right"",""good_move"",30979.8,3598,3243,27381.8,355,""oops"",""right"",""left"",""bad_move""]"
"7351","","<div style=""width:500px;"">
  <p>What determined the result of this run?</p>
  </div>","26","html-slider-response","34","622864","0.0-7.0-1.4","206","1","2025-08-06 13:59:10","36c45c0696341be0efffe67d72a12abb","154.66.155.77","Mozilla/5.0 (Windows NT 10.0; Win64; x64) AppleWebKit/537.36 (KHTML, like Gecko) Chrome/138.0.0.0 Safari/537.36","WebKit","Chrome","138.0.0.0","Windows","10.0","https://app.prolific.com/","en-ZA,en-GB;q=0.9,en-US;q=0.8,en;q=0.7","666408427db5e38fe0ea1736","6877649eabb845cf142cd221","68935f3c0e70b3b74c66214e","1","666408427db5e38fe0ea1736","1","2025-08-06T14:09:37.240Z","","","","AttribQ","","","","","","","","","","","50","","","","","","","","","","","","","","","","","","","","","","","","","","",""
"14198","","<div style=""width:500px;"">
  <p>How much control did you have over the ball?</p>
  </div>","96","html-slider-response","35","637064","0.0-7.0-2.4","206","1","2025-08-06 13:59:10","36c45c0696341be0efffe67d72a12abb","154.66.155.77","Mozilla/5.0 (Windows NT 10.0; Win64; x64) AppleWebKit/537.36 (KHTML, like Gecko) Chrome/138.0.0.0 Safari/537.36","WebKit","Chrome","138.0.0.0","Windows","10.0","https://app.prolific.com/","en-ZA,en-GB;q=0.9,en-US;q=0.8,en;q=0.7","666408427db5e38fe0ea1736","6877649eabb845cf142cd221","68935f3c0e70b3b74c66214e","1","666408427db5e38fe0ea1736","1","2025-08-06T14:09:51.440Z","","","","ControlQ","","","","","","","","","","","50","","","","","","","","","","","","","","","","","","","","","","","","","","",""
"7474","","<div style=""width:500px;"">
  <p>How would you describe your current emotional state?</p>
  </div>","99","html-slider-response","36","644539","0.0-7.0-3.4","206","1","2025-08-06 13:59:10","36c45c0696341be0efffe67d72a12abb","154.66.155.77","Mozilla/5.0 (Windows NT 10.0; Win64; x64) AppleWebKit/537.36 (KHTML, like Gecko) Chrome/138.0.0.0 Safari/537.36","WebKit","Chrome","138.0.0.0","Windows","10.0","https://app.prolific.com/","en-ZA,en-GB;q=0.9,en-US;q=0.8,en;q=0.7","666408427db5e38fe0ea1736","6877649eabb845cf142cd221","68935f3c0e70b3b74c66214e","1","666408427db5e38fe0ea1736","1","2025-08-06T14:09:58.915Z","","","","StressQ","","","","","","","","","","","50","","","","","","","","","","","","","","","","","","","","","","","","","","",""
"3363","","<div style=""width:500px;"">
  <p>What best describes how you currently feel?</p>
  </div>","95","html-slider-response","37","647904","0.0-7.0-4.4","206","1","2025-08-06 13:59:10","36c45c0696341be0efffe67d72a12abb","154.66.155.77","Mozilla/5.0 (Windows NT 10.0; Win64; x64) AppleWebKit/537.36 (KHTML, like Gecko) Chrome/138.0.0.0 Safari/537.36","WebKit","Chrome","138.0.0.0","Windows","10.0","https://app.prolific.com/","en-ZA,en-GB;q=0.9,en-US;q=0.8,en;q=0.7","666408427db5e38fe0ea1736","6877649eabb845cf142cd221","68935f3c0e70b3b74c66214e","1","666408427db5e38fe0ea1736","1","2025-08-06T14:10:02.280Z","","","","MotivationQ","","","","","","","","","","","50","","","","","","","","","","","","","","","","","","","","","","","","","","",""
"","","","","ctl-task-cpt","38","684431","0.0-7.0-0.5","206","1","2025-08-06 13:59:10","36c45c0696341be0efffe67d72a12abb","154.66.155.77","Mozilla/5.0 (Windows NT 10.0; Win64; x64) AppleWebKit/537.36 (KHTML, like Gecko) Chrome/138.0.0.0 Safari/537.36","WebKit","Chrome","138.0.0.0","Windows","10.0","https://app.prolific.com/","en-ZA,en-GB;q=0.9,en-US;q=0.8,en;q=0.7","666408427db5e38fe0ea1736","6877649eabb845cf142cd221","68935f3c0e70b3b74c66214e","1","666408427db5e38fe0ea1736","1","2025-08-06T14:10:38.807Z","","","","","","","","","","","","","","","","win-only","1","g1:NE,g2:SW","0.5","6","0","651065.1","2637.7","7644.9","33506.2","1","4","4","6","2","4","4","19","15","0.14393939393939395","1410.9","3000","1175","[""down"",""left""]","{""num_key_presses"":6,""num_perfect"":5,""num_errors"":0,""num_randdir"":1,""num_randdir_good_moves"":1,""num_whilered"":0,""num_whileblue"":0,""num_blue"":3,""num_good_moves"":6}","[298.0178342546736,293.26785666602,0.2,298.0178342546736,293.26785666602,102.6,298.0178342546736,293.26785666602,203,298.0178342546736,293.26785666602,304.1,298.0178342546736,293.26785666602,407.9,298.0178342546736,293.26785666602,509.9,298.0178342546736,293.26785666602,609.9,66.76783425467355,560.76785666602,711.1,60.51783425467355,567.01785666602,816.2,60.51783425467355,567.01785666602,919.5,60.51783425467355,567.01785666602,1037.8,60.51783425467355,565.76785666602,1138.4,60.51783425467355,563.26785666602,1239.1,60.51783425467355,563.26785666602,1347.3,60.51783425467355,563.26785666602,1453.2,60.51783425467355,563.26785666602,1554.7,60.51783425467355,563.26785666602,1655.3,60.51783425467355,563.26785666602,1759.3,60.51783425467355,563.26785666602,1870.7,60.51783425467355,563.26785666602,1976.6,60.51783425467355,563.26785666602,2080.4,60.51783425467355,563.26785666602,2181.5,60.51783425467355,563.26785666602,2284,60.51783425467355,563.26785666602,2389.2,60.51783425467355,563.26785666602,2494.1,60.51783425467355,563.26785666602,2595.7,60.51783425467355,563.26785666602,2697.9,60.51783425467355,563.26785666602,2802.2,60.51783425467355,563.26785666602,2904.5,60.51783425467355,563.26785666602,3011.1,60.51783425467355,563.26785666602,3116.8,60.51783425467355,563.26785666602,3218,60.51783425467355,563.26785666602,3321.4,60.51783425467355,563.26785666602,3427.1,60.51783425467355,563.26785666602,3528.7,60.51783425467355,563.26785666602,3637.6,60.51783425467355,563.26785666602,3738.8,60.51783425467355,563.26785666602,3844.3,60.51783425467355,563.26785666602,3949.8,60.51783425467355,563.26785666602,4052.3,60.51783425467355,563.26785666602,4156.4,60.51783425467355,563.26785666602,4261.1,60.51783425467355,563.26785666602,4363.9,60.51783425467355,563.26785666602,4477.9,60.51783425467355,563.26785666602,4578.6,60.51783425467355,563.26785666602,4680.8,60.51783425467355,563.26785666602,4793,60.51783425467355,563.26785666602,4893.5,60.51783425467355,563.26785666602,4994.5]","[1445.8,1445.8,1000,0,445.8,""smooth"",""down"",""down"",""good_move"",7977.5,6531.5,2425.6,5152.1,399.9,""smooth"",""left"",""left"",""good_move"",10424.3,2446.4,1993.4,7977.9,453,""smooth"",""down"",""down"",""good_move"",16893.1,6468.5,2947.1,13476.9,469.1,""smooth"",""left"",""left"",""good_move"",19708.4,2815.1,2370.1,16893.4,444.9,""oops"",""down"",""left"",""good_move"",25735.3,6026.5,2416.3,22966.7,352.3,""smooth"",""down"",""down"",""good_move""]"
"4464","","<div style=""width:500px;"">
  <p>What determined the result of this run?</p>
  </div>","77","html-slider-response","39","688895","0.0-7.0-1.5","206","1","2025-08-06 13:59:10","36c45c0696341be0efffe67d72a12abb","154.66.155.77","Mozilla/5.0 (Windows NT 10.0; Win64; x64) AppleWebKit/537.36 (KHTML, like Gecko) Chrome/138.0.0.0 Safari/537.36","WebKit","Chrome","138.0.0.0","Windows","10.0","https://app.prolific.com/","en-ZA,en-GB;q=0.9,en-US;q=0.8,en;q=0.7","666408427db5e38fe0ea1736","6877649eabb845cf142cd221","68935f3c0e70b3b74c66214e","1","666408427db5e38fe0ea1736","1","2025-08-06T14:10:43.272Z","","","","AttribQ","","","","","","","","","","","50","","","","","","","","","","","","","","","","","","","","","","","","","","",""
"3060","","<div style=""width:500px;"">
  <p>How much control did you have over the ball?</p>
  </div>","46","html-slider-response","40","691957","0.0-7.0-2.5","206","1","2025-08-06 13:59:10","36c45c0696341be0efffe67d72a12abb","154.66.155.77","Mozilla/5.0 (Windows NT 10.0; Win64; x64) AppleWebKit/537.36 (KHTML, like Gecko) Chrome/138.0.0.0 Safari/537.36","WebKit","Chrome","138.0.0.0","Windows","10.0","https://app.prolific.com/","en-ZA,en-GB;q=0.9,en-US;q=0.8,en;q=0.7","666408427db5e38fe0ea1736","6877649eabb845cf142cd221","68935f3c0e70b3b74c66214e","1","666408427db5e38fe0ea1736","1","2025-08-06T14:10:46.333Z","","","","ControlQ","","","","","","","","","","","50","","","","","","","","","","","","","","","","","","","","","","","","","","",""
"4984","","<div style=""width:500px;"">
  <p>How would you describe your current emotional state?</p>
  </div>","27","html-slider-response","41","696943","0.0-7.0-3.5","206","1","2025-08-06 13:59:10","36c45c0696341be0efffe67d72a12abb","154.66.155.77","Mozilla/5.0 (Windows NT 10.0; Win64; x64) AppleWebKit/537.36 (KHTML, like Gecko) Chrome/138.0.0.0 Safari/537.36","WebKit","Chrome","138.0.0.0","Windows","10.0","https://app.prolific.com/","en-ZA,en-GB;q=0.9,en-US;q=0.8,en;q=0.7","666408427db5e38fe0ea1736","6877649eabb845cf142cd221","68935f3c0e70b3b74c66214e","1","666408427db5e38fe0ea1736","1","2025-08-06T14:10:51.319Z","","","","StressQ","","","","","","","","","","","50","","","","","","","","","","","","","","","","","","","","","","","","","","",""
"6597","","<div style=""width:500px;"">
  <p>What best describes how you currently feel?</p>
  </div>","97","html-slider-response","42","703541","0.0-7.0-4.5","206","1","2025-08-06 13:59:10","36c45c0696341be0efffe67d72a12abb","154.66.155.77","Mozilla/5.0 (Windows NT 10.0; Win64; x64) AppleWebKit/537.36 (KHTML, like Gecko) Chrome/138.0.0.0 Safari/537.36","WebKit","Chrome","138.0.0.0","Windows","10.0","https://app.prolific.com/","en-ZA,en-GB;q=0.9,en-US;q=0.8,en;q=0.7","666408427db5e38fe0ea1736","6877649eabb845cf142cd221","68935f3c0e70b3b74c66214e","1","666408427db5e38fe0ea1736","1","2025-08-06T14:10:57.918Z","","","","MotivationQ","","","","","","","","","","","50","","","","","","","","","","","","","","","","","","","","","","","","","","",""
"","","","","ctl-task-cpt","43","738654","0.0-7.0-0.6","206","1","2025-08-06 13:59:10","36c45c0696341be0efffe67d72a12abb","154.66.155.77","Mozilla/5.0 (Windows NT 10.0; Win64; x64) AppleWebKit/537.36 (KHTML, like Gecko) Chrome/138.0.0.0 Safari/537.36","WebKit","Chrome","138.0.0.0","Windows","10.0","https://app.prolific.com/","en-ZA,en-GB;q=0.9,en-US;q=0.8,en;q=0.7","666408427db5e38fe0ea1736","6877649eabb845cf142cd221","68935f3c0e70b3b74c66214e","1","666408427db5e38fe0ea1736","1","2025-08-06T14:11:33.030Z","","","","","","","","","","","","","","","","win-only","1","g1:NE,g2:SW","0.4","7","0","706703","2054.1","7066","32085.8","1","4","8","6","2","-8","-9","10","19","0.07575757575757576","1581.6","3000","-2150","[""down"",""left""]","{""num_key_presses"":8,""num_perfect"":3,""num_errors"":1,""num_randdir"":4,""num_randdir_good_moves"":1,""num_whilered"":0,""num_whileblue"":0,""num_blue"":0,""num_good_moves"":4}","[296.7678342546736,290.76785666602,0.3,296.7678342546736,290.76785666602,104.4,296.7678342546736,290.76785666602,210.5,296.7678342546736,290.76785666602,314.7,296.7678342546736,290.76785666602,419.3,296.7678342546736,290.76785666602,528.3,238.01783425467355,347.01785666602,632.9,128.01783425467355,447.01785666602,737.6,128.01783425467355,447.01785666602,840,128.01783425467355,447.01785666602,943.2,128.01783425467355,447.01785666602,1051.6,90.51783425467355,490.76785666602,1152.6,84.26783425467355,505.76785666602,1260.1,71.76783425467355,527.01785666602,1363.3,71.76783425467355,529.51785666602,1467.2,71.76783425467355,529.51785666602,1567.6,71.76783425467355,529.51785666602,1671.8,71.76783425467355,529.51785666602,1779.1,71.76783425467355,529.51785666602,1884.5,71.76783425467355,529.51785666602,1987.4,71.76783425467355,529.51785666602,2088.3,71.76783425467355,529.51785666602,2196.9,71.76783425467355,529.51785666602,2303,71.76783425467355,529.51785666602,2404.4,71.76783425467355,529.51785666602,2511.3,71.76783425467355,529.51785666602,2612.4,71.76783425467355,529.51785666602,2722.3,71.76783425467355,529.51785666602,2834.2,71.76783425467355,529.51785666602,2937.1,71.76783425467355,529.51785666602,3045.3,71.76783425467355,529.51785666602,3146.8,71.76783425467355,529.51785666602,3248,71.76783425467355,529.51785666602,3353.8,71.76783425467355,529.51785666602,3455.9,71.76783425467355,529.51785666602,3557.4,71.76783425467355,529.51785666602,3661.1,71.76783425467355,529.51785666602,3761.8,71.76783425467355,529.51785666602,3862.9,71.76783425467355,529.51785666602,3966.2,71.76783425467355,529.51785666602,4068,71.76783425467355,529.51785666602,4179.1,71.76783425467355,529.51785666602,4284.1,71.76783425467355,529.51785666602,4385.4,71.76783425467355,529.51785666602,4496,71.76783425467355,529.51785666602,4596.2,71.76783425467355,529.51785666602,4703.5,71.76783425467355,529.51785666602,4806.5,71.76783425467355,529.51785666602,4911.7]","[2126.2,2126.2,1000,0,1126.2,""oops"",""down"",""right"",""bad_move"",5420.4,3293.6,2802.6,2126.8,491,""smooth"",""down"",""down"",""good_move"",8381.3,2960.4,2507.7,5420.9,452.7,""smooth"",""down"",""down"",""good_move"",11486.8,3105,2658.9,8381.8,446.1,""oops"",""left"",""left"",""good_move"",13971.4,2484,1998.7,11487.4,485.3,""smooth"",""down"",""down"",""good_move"",16603.1,2631.2,2213.9,13971.9,417.3,""oops"",""left"",""right"",""bad_move"",19954,3350.5,2777.4,16603.5,573.1,""oops"",""left"",""right"",""bad_move"",22033.5,2078.9,2108.5,19954.7,-29.7,""error"",""-"",""-"",""no_move""]"
"5996","","<div style=""width:500px;"">
  <p>What determined the result of this run?</p>
  </div>","15","html-slider-response","44","744652","0.0-7.0-1.6","206","1","2025-08-06 13:59:10","36c45c0696341be0efffe67d72a12abb","154.66.155.77","Mozilla/5.0 (Windows NT 10.0; Win64; x64) AppleWebKit/537.36 (KHTML, like Gecko) Chrome/138.0.0.0 Safari/537.36","WebKit","Chrome","138.0.0.0","Windows","10.0","https://app.prolific.com/","en-ZA,en-GB;q=0.9,en-US;q=0.8,en;q=0.7","666408427db5e38fe0ea1736","6877649eabb845cf142cd221","68935f3c0e70b3b74c66214e","1","666408427db5e38fe0ea1736","1","2025-08-06T14:11:39.028Z","","","","AttribQ","","","","","","","","","","","50","","","","","","","","","","","","","","","","","","","","","","","","","","",""
"3853","","<div style=""width:500px;"">
  <p>How much control did you have over the ball?</p>
  </div>","24","html-slider-response","45","748506","0.0-7.0-2.6","206","1","2025-08-06 13:59:10","36c45c0696341be0efffe67d72a12abb","154.66.155.77","Mozilla/5.0 (Windows NT 10.0; Win64; x64) AppleWebKit/537.36 (KHTML, like Gecko) Chrome/138.0.0.0 Safari/537.36","WebKit","Chrome","138.0.0.0","Windows","10.0","https://app.prolific.com/","en-ZA,en-GB;q=0.9,en-US;q=0.8,en;q=0.7","666408427db5e38fe0ea1736","6877649eabb845cf142cd221","68935f3c0e70b3b74c66214e","1","666408427db5e38fe0ea1736","1","2025-08-06T14:11:42.883Z","","","","ControlQ","","","","","","","","","","","50","","","","","","","","","","","","","","","","","","","","","","","","","","",""
"4150","","<div style=""width:500px;"">
  <p>How would you describe your current emotional state?</p>
  </div>","92","html-slider-response","46","752658","0.0-7.0-3.6","206","1","2025-08-06 13:59:10","36c45c0696341be0efffe67d72a12abb","154.66.155.77","Mozilla/5.0 (Windows NT 10.0; Win64; x64) AppleWebKit/537.36 (KHTML, like Gecko) Chrome/138.0.0.0 Safari/537.36","WebKit","Chrome","138.0.0.0","Windows","10.0","https://app.prolific.com/","en-ZA,en-GB;q=0.9,en-US;q=0.8,en;q=0.7","666408427db5e38fe0ea1736","6877649eabb845cf142cd221","68935f3c0e70b3b74c66214e","1","666408427db5e38fe0ea1736","1","2025-08-06T14:11:47.034Z","","","","StressQ","","","","","","","","","","","50","","","","","","","","","","","","","","","","","","","","","","","","","","",""
"5049","","<div style=""width:500px;"">
  <p>What best describes how you currently feel?</p>
  </div>","77","html-slider-response","47","757709","0.0-7.0-4.6","206","1","2025-08-06 13:59:10","36c45c0696341be0efffe67d72a12abb","154.66.155.77","Mozilla/5.0 (Windows NT 10.0; Win64; x64) AppleWebKit/537.36 (KHTML, like Gecko) Chrome/138.0.0.0 Safari/537.36","WebKit","Chrome","138.0.0.0","Windows","10.0","https://app.prolific.com/","en-ZA,en-GB;q=0.9,en-US;q=0.8,en;q=0.7","666408427db5e38fe0ea1736","6877649eabb845cf142cd221","68935f3c0e70b3b74c66214e","1","666408427db5e38fe0ea1736","1","2025-08-06T14:11:52.085Z","","","","MotivationQ","","","","","","","","","","","50","","","","","","","","","","","","","","","","","","","","","","","","","","",""
"","","","","ctl-task-cpt","48","790887","0.0-7.0-0.7","206","1","2025-08-06 13:59:10","36c45c0696341be0efffe67d72a12abb","154.66.155.77","Mozilla/5.0 (Windows NT 10.0; Win64; x64) AppleWebKit/537.36 (KHTML, like Gecko) Chrome/138.0.0.0 Safari/537.36","WebKit","Chrome","138.0.0.0","Windows","10.0","https://app.prolific.com/","en-ZA,en-GB;q=0.9,en-US;q=0.8,en;q=0.7","666408427db5e38fe0ea1736","6877649eabb845cf142cd221","68935f3c0e70b3b74c66214e","1","666408427db5e38fe0ea1736","1","2025-08-06T14:12:25.264Z","","","","","","","","","","","","","","","","win-only","3","g1:SW,g2:NE","0.3","8","0","760871.2","2860.5","7870","30162","1","4","4","6","2","-4","-4","6","10","0.045454545454545456","2039.2","3000","-2330","[""up"",""right""]","{""num_key_presses"":7,""num_perfect"":3,""num_errors"":0,""num_randdir"":4,""num_randdir_good_moves"":1,""num_whilered"":0,""num_whileblue"":0,""num_blue"":0,""num_good_moves"":4}","[293.0178342546736,295.76785666602,0.4,293.0178342546736,295.76785666602,108,293.0178342546736,295.76785666602,210.6,293.0178342546736,295.76785666602,323.6,293.0178342546736,295.76785666602,425.7,293.0178342546736,295.76785666602,525.9,288.0178342546736,295.76785666602,630.7,94.26783425467355,447.01785666602,734.8,88.01783425467355,459.51785666602,845.2,153.01783425467355,407.01785666602,957.7,164.26783425467355,393.26785666602,1061.9,361.7678342546736,122.01785666601998,1174.5,453.0178342546736,10.767856666019988,1276.6,473.0178342546736,-5.482143333980012,1382.4,475.5178342546736,-7.982143333980012,1483.1,489.2678342546736,12.017856666019988,1591.7,498.0178342546736,22.017856666019988,1692,501.7678342546736,25.767856666019988,1792.6,501.7678342546736,27.017856666019988,1901,501.7678342546736,27.017856666019988,2007.8,501.7678342546736,27.017856666019988,2114,501.7678342546736,27.017856666019988,2225,501.7678342546736,27.017856666019988,2333,501.7678342546736,27.017856666019988,2436,501.7678342546736,27.017856666019988,2541.9,501.7678342546736,27.017856666019988,2653.4,501.7678342546736,27.017856666019988,2756.5,501.7678342546736,27.017856666019988,2858.1,501.7678342546736,27.017856666019988,2963.2,501.7678342546736,27.017856666019988,3065,501.7678342546736,27.017856666019988,3175.4,501.7678342546736,27.017856666019988,3276.2,501.7678342546736,27.017856666019988,3376.3,501.7678342546736,27.017856666019988,3483.3,501.7678342546736,27.017856666019988,3589.5,501.7678342546736,27.017856666019988,3690.8,501.7678342546736,27.017856666019988,3799,501.7678342546736,27.017856666019988,3900.6,501.7678342546736,27.017856666019988,4001.8,501.7678342546736,27.017856666019988,4102.4,501.7678342546736,27.017856666019988,4206.4,501.7678342546736,27.017856666019988,4308.5,501.7678342546736,27.017856666019988,4413.7,501.7678342546736,27.017856666019988,4526.9,501.7678342546736,27.017856666019988,4627.1,501.7678342546736,27.017856666019988,4728.3,501.7678342546736,27.017856666019988,4831.7,501.7678342546736,27.017856666019988,4943.7]","[2029.1,2029.1,1000,0,1029.1,""oops"",""right"",""left"",""bad_move"",4805.5,2775.9,2339,2029.6,436.9,""oops"",""up"",""down"",""bad_move"",7616,2810.2,2370.9,4805.8,439.3,""oops"",""right"",""right"",""good_move"",11592.8,3976.2,3553,7616.6,423.2,""smooth"",""up"",""up"",""good_move"",14705.7,3112.5,2641.5,11593.2,471,""smooth"",""up"",""up"",""good_move"",17166.7,2460.6,1978.6,14706.1,482,""oops"",""right"",""down"",""bad_move"",20041.4,2874.1,2475.7,17167.3,398.4,""smooth"",""up"",""up"",""good_move""]"
"7572","","<div style=""width:500px;"">
  <p>What determined the result of this run?</p>
  </div>","98","html-slider-response","49","798461","0.0-7.0-1.7","206","1","2025-08-06 13:59:10","36c45c0696341be0efffe67d72a12abb","154.66.155.77","Mozilla/5.0 (Windows NT 10.0; Win64; x64) AppleWebKit/537.36 (KHTML, like Gecko) Chrome/138.0.0.0 Safari/537.36","WebKit","Chrome","138.0.0.0","Windows","10.0","https://app.prolific.com/","en-ZA,en-GB;q=0.9,en-US;q=0.8,en;q=0.7","666408427db5e38fe0ea1736","6877649eabb845cf142cd221","68935f3c0e70b3b74c66214e","1","666408427db5e38fe0ea1736","1","2025-08-06T14:12:32.837Z","","","","AttribQ","","","","","","","","","","","50","","","","","","","","","","","","","","","","","","","","","","","","","","",""
"60625","","<div style=""width:500px;"">
  <p>How much control did you have over the ball?</p>
  </div>","95","html-slider-response","50","859088","0.0-7.0-2.7","206","1","2025-08-06 13:59:10","36c45c0696341be0efffe67d72a12abb","154.66.155.77","Mozilla/5.0 (Windows NT 10.0; Win64; x64) AppleWebKit/537.36 (KHTML, like Gecko) Chrome/138.0.0.0 Safari/537.36","WebKit","Chrome","138.0.0.0","Windows","10.0","https://app.prolific.com/","en-ZA,en-GB;q=0.9,en-US;q=0.8,en;q=0.7","666408427db5e38fe0ea1736","6877649eabb845cf142cd221","68935f3c0e70b3b74c66214e","1","666408427db5e38fe0ea1736","1","2025-08-06T14:13:33.464Z","","","","ControlQ","","","","","","","","","","","50","","","","","","","","","","","","","","","","","","","","","","","","","","",""
"4308","","<div style=""width:500px;"">
  <p>How would you describe your current emotional state?</p>
  </div>","90","html-slider-response","51","863398","0.0-7.0-3.7","206","1","2025-08-06 13:59:10","36c45c0696341be0efffe67d72a12abb","154.66.155.77","Mozilla/5.0 (Windows NT 10.0; Win64; x64) AppleWebKit/537.36 (KHTML, like Gecko) Chrome/138.0.0.0 Safari/537.36","WebKit","Chrome","138.0.0.0","Windows","10.0","https://app.prolific.com/","en-ZA,en-GB;q=0.9,en-US;q=0.8,en;q=0.7","666408427db5e38fe0ea1736","6877649eabb845cf142cd221","68935f3c0e70b3b74c66214e","1","666408427db5e38fe0ea1736","1","2025-08-06T14:13:37.774Z","","","","StressQ","","","","","","","","","","","50","","","","","","","","","","","","","","","","","","","","","","","","","","",""
"3595","","<div style=""width:500px;"">
  <p>What best describes how you currently feel?</p>
  </div>","90","html-slider-response","52","866994","0.0-7.0-4.7","206","1","2025-08-06 13:59:10","36c45c0696341be0efffe67d72a12abb","154.66.155.77","Mozilla/5.0 (Windows NT 10.0; Win64; x64) AppleWebKit/537.36 (KHTML, like Gecko) Chrome/138.0.0.0 Safari/537.36","WebKit","Chrome","138.0.0.0","Windows","10.0","https://app.prolific.com/","en-ZA,en-GB;q=0.9,en-US;q=0.8,en;q=0.7","666408427db5e38fe0ea1736","6877649eabb845cf142cd221","68935f3c0e70b3b74c66214e","1","666408427db5e38fe0ea1736","1","2025-08-06T14:13:41.370Z","","","","MotivationQ","","","","","","","","","","","50","","","","","","","","","","","","","","","","","","","","","","","","","","",""
"","","","","ctl-task-cpt","53","912474","0.0-7.0-0.8","206","1","2025-08-06 13:59:10","36c45c0696341be0efffe67d72a12abb","154.66.155.77","Mozilla/5.0 (Windows NT 10.0; Win64; x64) AppleWebKit/537.36 (KHTML, like Gecko) Chrome/138.0.0.0 Safari/537.36","WebKit","Chrome","138.0.0.0","Windows","10.0","https://app.prolific.com/","en-ZA,en-GB;q=0.9,en-US;q=0.8,en;q=0.7","666408427db5e38fe0ea1736","6877649eabb845cf142cd221","68935f3c0e70b3b74c66214e","1","666408427db5e38fe0ea1736","1","2025-08-06T14:14:26.850Z","","","","","","","","","","","","","","","","win-only","3","g1:SW,g2:NE","0.4","9","0","870156.7","4356.1","9358.6","42456.8","1","4","8","6","2","-8","-8","0","6","0","1192.1","3000","-2155","[""up"",""right""]","{""num_key_presses"":8,""num_perfect"":3,""num_errors"":0,""num_randdir"":5,""num_randdir_good_moves"":2,""num_whilered"":0,""num_whileblue"":0,""num_blue"":2,""num_good_moves"":5}","[298.0178342546736,290.76785666602,0.4,298.0178342546736,290.76785666602,100.1,298.0178342546736,290.76785666602,204.9,298.0178342546736,290.76785666602,312.3,298.0178342546736,290.76785666602,413.1,298.0178342546736,290.76785666602,515.4,349.2678342546736,222.01785666601998,615.6,451.7678342546736,109.51785666601998,721.7,518.0178342546735,69.51785666601998,828,528.0178342546735,67.01785666601998,932,526.7678342546735,67.01785666601998,1040.4,526.7678342546735,67.01785666601998,1141.8,526.7678342546735,67.01785666601998,1243.6,526.7678342546735,67.01785666601998,1345.9,526.7678342546735,67.01785666601998,1458.1,526.7678342546735,67.01785666601998,1561.9,526.7678342546735,67.01785666601998,1664.6,526.7678342546735,67.01785666601998,1774.1,526.7678342546735,67.01785666601998,1879.7,526.7678342546735,67.01785666601998,1982.9,526.7678342546735,67.01785666601998,2082.9,526.7678342546735,67.01785666601998,2183.8,526.7678342546735,67.01785666601998,2286.6,526.7678342546735,67.01785666601998,2395.8,526.7678342546735,67.01785666601998,2496.3,526.7678342546735,67.01785666601998,2603.2,526.7678342546735,67.01785666601998,2712.2,526.7678342546735,67.01785666601998,2814.6,526.7678342546735,67.01785666601998,2919.2,526.7678342546735,67.01785666601998,3022.9,526.7678342546735,67.01785666601998,3129.3,526.7678342546735,67.01785666601998,3229.7,526.7678342546735,67.01785666601998,3339.1,526.7678342546735,67.01785666601998,3444.6,526.7678342546735,67.01785666601998,3546.4,526.7678342546735,67.01785666601998,3650.5,526.7678342546735,67.01785666601998,3755.9,526.7678342546735,67.01785666601998,3856.6,526.7678342546735,67.01785666601998,3962,526.7678342546735,67.01785666601998,4062.1,526.7678342546735,67.01785666601998,4165.9,526.7678342546735,67.01785666601998,4273.8,526.7678342546735,67.01785666601998,4381.8,526.7678342546735,67.01785666601998,4486.5,526.7678342546735,67.01785666601998,4587.6,526.7678342546735,67.01785666601998,4693.7,526.7678342546735,67.01785666601998,4801.6,526.7678342546735,67.01785666601998,4904.9]","[1472.8,1472.8,1000,0,472.8,""oops"",""up"",""left"",""bad_move"",4373.7,2900.5,2437.1,1473.3,463.3,""smooth"",""up"",""up"",""good_move"",7371.3,2997,2503.4,4374.3,493.6,""smooth"",""right"",""right"",""good_move"",13682.4,6310.6,2339.8,10889.6,453,""smooth"",""up"",""up"",""good_move"",17022.5,3339.5,2805.1,13683,534.4,""oops"",""right"",""up"",""good_move"",20428.3,3405.5,2957.5,17022.8,448,""oops"",""right"",""left"",""bad_move"",27235.6,6806.8,3174.5,23620.1,441,""oops"",""right"",""left"",""bad_move"",30535.1,3299.1,2835.4,27236,463.7,""oops"",""right"",""right"",""good_move""]"
"7011","","<div style=""width:500px;"">
  <p>What determined the result of this run?</p>
  </div>","99","html-slider-response","54","919487","0.0-7.0-1.8","206","1","2025-08-06 13:59:10","36c45c0696341be0efffe67d72a12abb","154.66.155.77","Mozilla/5.0 (Windows NT 10.0; Win64; x64) AppleWebKit/537.36 (KHTML, like Gecko) Chrome/138.0.0.0 Safari/537.36","WebKit","Chrome","138.0.0.0","Windows","10.0","https://app.prolific.com/","en-ZA,en-GB;q=0.9,en-US;q=0.8,en;q=0.7","666408427db5e38fe0ea1736","6877649eabb845cf142cd221","68935f3c0e70b3b74c66214e","1","666408427db5e38fe0ea1736","1","2025-08-06T14:14:33.863Z","","","","AttribQ","","","","","","","","","","","50","","","","","","","","","","","","","","","","","","","","","","","","","","",""
"4437","","<div style=""width:500px;"">
  <p>How much control did you have over the ball?</p>
  </div>","95","html-slider-response","55","923926","0.0-7.0-2.8","206","1","2025-08-06 13:59:10","36c45c0696341be0efffe67d72a12abb","154.66.155.77","Mozilla/5.0 (Windows NT 10.0; Win64; x64) AppleWebKit/537.36 (KHTML, like Gecko) Chrome/138.0.0.0 Safari/537.36","WebKit","Chrome","138.0.0.0","Windows","10.0","https://app.prolific.com/","en-ZA,en-GB;q=0.9,en-US;q=0.8,en;q=0.7","666408427db5e38fe0ea1736","6877649eabb845cf142cd221","68935f3c0e70b3b74c66214e","1","666408427db5e38fe0ea1736","1","2025-08-06T14:14:38.302Z","","","","ControlQ","","","","","","","","","","","50","","","","","","","","","","","","","","","","","","","","","","","","","","",""
"3386","","<div style=""width:500px;"">
  <p>How would you describe your current emotional state?</p>
  </div>","94","html-slider-response","56","927314","0.0-7.0-3.8","206","1","2025-08-06 13:59:10","36c45c0696341be0efffe67d72a12abb","154.66.155.77","Mozilla/5.0 (Windows NT 10.0; Win64; x64) AppleWebKit/537.36 (KHTML, like Gecko) Chrome/138.0.0.0 Safari/537.36","WebKit","Chrome","138.0.0.0","Windows","10.0","https://app.prolific.com/","en-ZA,en-GB;q=0.9,en-US;q=0.8,en;q=0.7","666408427db5e38fe0ea1736","6877649eabb845cf142cd221","68935f3c0e70b3b74c66214e","1","666408427db5e38fe0ea1736","1","2025-08-06T14:14:41.690Z","","","","StressQ","","","","","","","","","","","50","","","","","","","","","","","","","","","","","","","","","","","","","","",""
"3147","","<div style=""width:500px;"">
  <p>What best describes how you currently feel?</p>
  </div>","91","html-slider-response","57","930462","0.0-7.0-4.8","206","1","2025-08-06 13:59:10","36c45c0696341be0efffe67d72a12abb","154.66.155.77","Mozilla/5.0 (Windows NT 10.0; Win64; x64) AppleWebKit/537.36 (KHTML, like Gecko) Chrome/138.0.0.0 Safari/537.36","WebKit","Chrome","138.0.0.0","Windows","10.0","https://app.prolific.com/","en-ZA,en-GB;q=0.9,en-US;q=0.8,en;q=0.7","666408427db5e38fe0ea1736","6877649eabb845cf142cd221","68935f3c0e70b3b74c66214e","1","666408427db5e38fe0ea1736","1","2025-08-06T14:14:44.838Z","","","","MotivationQ","","","","","","","","","","","50","","","","","","","","","","","","","","","","","","","","","","","","","","",""
"","","","","ctl-task-cpt","58","972999","0.0-7.0-0.9","206","1","2025-08-06 13:59:10","36c45c0696341be0efffe67d72a12abb","154.66.155.77","Mozilla/5.0 (Windows NT 10.0; Win64; x64) AppleWebKit/537.36 (KHTML, like Gecko) Chrome/138.0.0.0 Safari/537.36","WebKit","Chrome","138.0.0.0","Windows","10.0","https://app.prolific.com/","en-ZA,en-GB;q=0.9,en-US;q=0.8,en;q=0.7","666408427db5e38fe0ea1736","6877649eabb845cf142cd221","68935f3c0e70b3b74c66214e","1","666408427db5e38fe0ea1736","1","2025-08-06T14:15:27.375Z","","","","","","","","","","","","","","","","win-only","0","g1:NW,g2:SE","0.5","10","0","933623.1","1518.7","6525","39523.3","1","4","4","6","2","-4","-4","0","0","0","4831.7","3000","-2060","[""down"",""right""]","{""num_key_presses"":8,""num_perfect"":3,""num_errors"":0,""num_randdir"":5,""num_randdir_good_moves"":3,""num_whilered"":0,""num_whileblue"":0,""num_blue"":2,""num_good_moves"":6}","[296.7678342546736,300.76785666602,0.4,296.7678342546736,300.76785666602,113.3,296.7678342546736,300.76785666602,213.3,296.7678342546736,300.76785666602,314.9,296.7678342546736,300.76785666602,416.7,296.7678342546736,300.76785666602,531.2,296.7678342546736,300.76785666602,631.9,296.7678342546736,300.76785666602,740.3,296.7678342546736,300.76785666602,843.5,296.7678342546736,300.76785666602,948.9,296.7678342546736,300.76785666602,1051.7,296.7678342546736,300.76785666602,1152.5,296.7678342546736,300.76785666602,1253.1,296.7678342546736,300.76785666602,1356.9,296.7678342546736,300.76785666602,1458.8,296.7678342546736,300.76785666602,1561.8,296.7678342546736,300.76785666602,1663.3,296.7678342546736,300.76785666602,1767.3,296.7678342546736,300.76785666602,1868.1,296.7678342546736,300.76785666602,1981.8,296.7678342546736,300.76785666602,2083.3,316.7678342546736,342.01785666602,2186.6,416.7678342546736,503.26785666602,2299.2,423.0178342546736,519.51785666602,2402.1,405.5178342546736,514.51785666602,2502.4,176.76783425467355,332.01785666602,2615.4,58.01783425467355,108.26785666601998,2718.1,18.017834254673552,20.767856666019988,2820.2,18.017834254673552,22.017856666019988,2927.3,18.017834254673552,23.267856666019988,3032.7,18.017834254673552,23.267856666019988,3132.8,18.017834254673552,23.267856666019988,3240.5,18.017834254673552,23.267856666019988,3349.6,18.017834254673552,23.267856666019988,3449.7,18.017834254673552,23.267856666019988,3556,235.51783425467355,127.01785666601998,3658.8,361.7678342546736,272.01785666602,3763.2,401.7678342546736,337.01785666602,3866.6,428.0178342546736,403.26785666602,3968.8,431.7678342546736,403.26785666602,4084.2,431.7678342546736,403.26785666602,4187.1,431.7678342546736,403.26785666602,4289,431.7678342546736,403.26785666602,4400.3,570.5178342546735,563.26785666602,4504.5,588.0178342546735,577.01785666602,4608.7,588.0178342546735,577.01785666602,4718.4,588.0178342546735,577.01785666602,4834.5,588.0178342546735,577.01785666602,4939.7]","[2025.9,2025.9,1000,0,1025.9,""smooth"",""down"",""down"",""good_move"",5093.1,3066.7,2634.9,2026.4,431.8,""oops"",""right"",""down"",""good_move"",7741.5,2648.3,2202.3,5093.4,445.9,""oops"",""down"",""right"",""good_move"",18095.9,10353.8,2588.2,15124.3,383.5,""oops"",""down"",""left"",""bad_move"",21386.2,3289.7,2741.8,18096.5,547.9,""smooth"",""right"",""right"",""good_move"",24255.3,2868.7,2130.9,21386.6,737.8,""smooth"",""right"",""right"",""good_move"",27680.7,3424.9,3049.4,24255.8,375.5,""oops"",""right"",""left"",""bad_move"",30852.5,3171.4,2776.7,27681.2,394.7,""oops"",""down"",""right"",""good_move""]"
"5094","","<div style=""width:500px;"">
  <p>What determined the result of this run?</p>
  </div>","6","html-slider-response","59","978094","0.0-7.0-1.9","206","1","2025-08-06 13:59:10","36c45c0696341be0efffe67d72a12abb","154.66.155.77","Mozilla/5.0 (Windows NT 10.0; Win64; x64) AppleWebKit/537.36 (KHTML, like Gecko) Chrome/138.0.0.0 Safari/537.36","WebKit","Chrome","138.0.0.0","Windows","10.0","https://app.prolific.com/","en-ZA,en-GB;q=0.9,en-US;q=0.8,en;q=0.7","666408427db5e38fe0ea1736","6877649eabb845cf142cd221","68935f3c0e70b3b74c66214e","1","666408427db5e38fe0ea1736","1","2025-08-06T14:15:32.470Z","","","","AttribQ","","","","","","","","","","","50","","","","","","","","","","","","","","","","","","","","","","","","","","",""
"4094","","<div style=""width:500px;"">
  <p>How much control did you have over the ball?</p>
  </div>","19","html-slider-response","60","982190","0.0-7.0-2.9","206","1","2025-08-06 13:59:10","36c45c0696341be0efffe67d72a12abb","154.66.155.77","Mozilla/5.0 (Windows NT 10.0; Win64; x64) AppleWebKit/537.36 (KHTML, like Gecko) Chrome/138.0.0.0 Safari/537.36","WebKit","Chrome","138.0.0.0","Windows","10.0","https://app.prolific.com/","en-ZA,en-GB;q=0.9,en-US;q=0.8,en;q=0.7","666408427db5e38fe0ea1736","6877649eabb845cf142cd221","68935f3c0e70b3b74c66214e","1","666408427db5e38fe0ea1736","1","2025-08-06T14:15:36.566Z","","","","ControlQ","","","","","","","","","","","50","","","","","","","","","","","","","","","","","","","","","","","","","","",""
"24769","","<div style=""width:500px;"">
  <p>How would you describe your current emotional state?</p>
  </div>","95","html-slider-response","61","1006961","0.0-7.0-3.9","206","1","2025-08-06 13:59:10","36c45c0696341be0efffe67d72a12abb","154.66.155.77","Mozilla/5.0 (Windows NT 10.0; Win64; x64) AppleWebKit/537.36 (KHTML, like Gecko) Chrome/138.0.0.0 Safari/537.36","WebKit","Chrome","138.0.0.0","Windows","10.0","https://app.prolific.com/","en-ZA,en-GB;q=0.9,en-US;q=0.8,en;q=0.7","666408427db5e38fe0ea1736","6877649eabb845cf142cd221","68935f3c0e70b3b74c66214e","1","666408427db5e38fe0ea1736","1","2025-08-06T14:16:01.337Z","","","","StressQ","","","","","","","","","","","50","","","","","","","","","","","","","","","","","","","","","","","","","","",""
"5194","","<div style=""width:500px;"">
  <p>What best describes how you currently feel?</p>
  </div>","96","html-slider-response","62","1012156","0.0-7.0-4.9","206","1","2025-08-06 13:59:10","36c45c0696341be0efffe67d72a12abb","154.66.155.77","Mozilla/5.0 (Windows NT 10.0; Win64; x64) AppleWebKit/537.36 (KHTML, like Gecko) Chrome/138.0.0.0 Safari/537.36","WebKit","Chrome","138.0.0.0","Windows","10.0","https://app.prolific.com/","en-ZA,en-GB;q=0.9,en-US;q=0.8,en;q=0.7","666408427db5e38fe0ea1736","6877649eabb845cf142cd221","68935f3c0e70b3b74c66214e","1","666408427db5e38fe0ea1736","1","2025-08-06T14:16:06.533Z","","","","MotivationQ","","","","","","","","","","","50","","","","","","","","","","","","","","","","","","","","","","","","","","",""
"","","","","ctl-task-cpt","63","1044444","0.0-7.0-0.10","206","1","2025-08-06 13:59:10","36c45c0696341be0efffe67d72a12abb","154.66.155.77","Mozilla/5.0 (Windows NT 10.0; Win64; x64) AppleWebKit/537.36 (KHTML, like Gecko) Chrome/138.0.0.0 Safari/537.36","WebKit","Chrome","138.0.0.0","Windows","10.0","https://app.prolific.com/","en-ZA,en-GB;q=0.9,en-US;q=0.8,en;q=0.7","666408427db5e38fe0ea1736","6877649eabb845cf142cd221","68935f3c0e70b3b74c66214e","1","666408427db5e38fe0ea1736","1","2025-08-06T14:16:38.821Z","","","","","","","","","","","","","","","","win-only","0","g1:NW,g2:SE","0.6","11","0","1015318.5","2166.2","7168.2","29266.1","1","4","4","6","2","4","4","4","0","0.030303030303030304","1424.4","3000","475","[""down"",""right""]","{""num_key_presses"":8,""num_perfect"":5,""num_errors"":0,""num_randdir"":3,""num_randdir_good_moves"":2,""num_whilered"":0,""num_whileblue"":0,""num_blue"":0,""num_good_moves"":7}","[296.7678342546736,297.01785666602,0.4,296.7678342546736,297.01785666602,101.4,296.7678342546736,297.01785666602,202,296.7678342546736,297.01785666602,310.4,296.7678342546736,297.01785666602,421.9,296.7678342546736,297.01785666602,524.4,296.7678342546736,297.01785666602,626.2,296.7678342546736,297.01785666602,737.3,376.7678342546736,412.01785666602,848.3,423.0178342546736,474.51785666602,952.8,473.0178342546736,498.26785666602,1055.6,543.0178342546735,528.26785666602,1163.1,543.0178342546735,528.26785666602,1265.2,543.0178342546735,528.26785666602,1365.9,543.0178342546735,528.26785666602,1471.1,543.0178342546735,528.26785666602,1577.6,543.0178342546735,528.26785666602,1689.3,543.0178342546735,528.26785666602,1794.7,543.0178342546735,528.26785666602,1896.1,543.0178342546735,528.26785666602,1996.9,543.0178342546735,528.26785666602,2100.3,543.0178342546735,528.26785666602,2201.5,543.0178342546735,528.26785666602,2303.2,543.0178342546735,528.26785666602,2405.8,543.0178342546735,528.26785666602,2512.5,543.0178342546735,528.26785666602,2614.6,543.0178342546735,528.26785666602,2722.9,543.0178342546735,528.26785666602,2838.7,543.0178342546735,528.26785666602,2939.4,543.0178342546735,528.26785666602,3045.3,543.0178342546735,528.26785666602,3157.7,543.0178342546735,528.26785666602,3272.5,543.0178342546735,528.26785666602,3388.6,543.0178342546735,528.26785666602,3491.3,543.0178342546735,528.26785666602,3605.9,543.0178342546735,528.26785666602,3707,543.0178342546735,528.26785666602,3822.5,543.0178342546735,528.26785666602,3939.2,543.0178342546735,528.26785666602,4045.5,543.0178342546735,528.26785666602,4156.9,543.0178342546735,528.26785666602,4272.9,543.0178342546735,528.26785666602,4389.4,543.0178342546735,528.26785666602,4490,543.0178342546735,528.26785666602,4590.9,543.0178342546735,528.26785666602,4696.9,543.0178342546735,528.26785666602,4804.5,543.0178342546735,528.26785666602,4904.7]","[1586.1,1586.1,1000,0,586.1,""smooth"",""down"",""down"",""good_move"",4643,3056.6,2600.2,1586.5,456.3,""smooth"",""right"",""right"",""good_move"",7236.9,2593.4,2123,4643.6,470.3,""smooth"",""down"",""down"",""good_move"",10284,3046.9,2600,7237.1,446.9,""oops"",""right"",""left"",""bad_move"",13091.4,2806.8,2297.6,10284.6,509.2,""smooth"",""down"",""down"",""good_move"",16122,3030.2,2551,13091.8,479.2,""oops"",""right"",""right"",""good_move"",18907.1,2784.5,2325.4,16122.6,459.1,""smooth"",""right"",""right"",""good_move"",21963.4,3055.9,2586.5,18907.5,469.4,""oops"",""right"",""right"",""good_move""]"
"3250","","<div style=""width:500px;"">
  <p>What determined the result of this run?</p>
  </div>","90","html-slider-response","64","1047696","0.0-7.0-1.10","206","1","2025-08-06 13:59:10","36c45c0696341be0efffe67d72a12abb","154.66.155.77","Mozilla/5.0 (Windows NT 10.0; Win64; x64) AppleWebKit/537.36 (KHTML, like Gecko) Chrome/138.0.0.0 Safari/537.36","WebKit","Chrome","138.0.0.0","Windows","10.0","https://app.prolific.com/","en-ZA,en-GB;q=0.9,en-US;q=0.8,en;q=0.7","666408427db5e38fe0ea1736","6877649eabb845cf142cd221","68935f3c0e70b3b74c66214e","1","666408427db5e38fe0ea1736","1","2025-08-06T14:16:42.072Z","","","","AttribQ","","","","","","","","","","","50","","","","","","","","","","","","","","","","","","","","","","","","","","",""
"3452","","<div style=""width:500px;"">
  <p>How much control did you have over the ball?</p>
  </div>","94","html-slider-response","65","1051149","0.0-7.0-2.10","206","1","2025-08-06 13:59:10","36c45c0696341be0efffe67d72a12abb","154.66.155.77","Mozilla/5.0 (Windows NT 10.0; Win64; x64) AppleWebKit/537.36 (KHTML, like Gecko) Chrome/138.0.0.0 Safari/537.36","WebKit","Chrome","138.0.0.0","Windows","10.0","https://app.prolific.com/","en-ZA,en-GB;q=0.9,en-US;q=0.8,en;q=0.7","666408427db5e38fe0ea1736","6877649eabb845cf142cd221","68935f3c0e70b3b74c66214e","1","666408427db5e38fe0ea1736","1","2025-08-06T14:16:45.525Z","","","","ControlQ","","","","","","","","","","","50","","","","","","","","","","","","","","","","","","","","","","","","","","",""
"10049","","<div style=""width:500px;"">
  <p>How would you describe your current emotional state?</p>
  </div>","17","html-slider-response","66","1061200","0.0-7.0-3.10","206","1","2025-08-06 13:59:10","36c45c0696341be0efffe67d72a12abb","154.66.155.77","Mozilla/5.0 (Windows NT 10.0; Win64; x64) AppleWebKit/537.36 (KHTML, like Gecko) Chrome/138.0.0.0 Safari/537.36","WebKit","Chrome","138.0.0.0","Windows","10.0","https://app.prolific.com/","en-ZA,en-GB;q=0.9,en-US;q=0.8,en;q=0.7","666408427db5e38fe0ea1736","6877649eabb845cf142cd221","68935f3c0e70b3b74c66214e","1","666408427db5e38fe0ea1736","1","2025-08-06T14:16:55.576Z","","","","StressQ","","","","","","","","","","","50","","","","","","","","","","","","","","","","","","","","","","","","","","",""
"2618","","<div style=""width:500px;"">
  <p>What best describes how you currently feel?</p>
  </div>","97","html-slider-response","67","1063819","0.0-7.0-4.10","206","1","2025-08-06 13:59:10","36c45c0696341be0efffe67d72a12abb","154.66.155.77","Mozilla/5.0 (Windows NT 10.0; Win64; x64) AppleWebKit/537.36 (KHTML, like Gecko) Chrome/138.0.0.0 Safari/537.36","WebKit","Chrome","138.0.0.0","Windows","10.0","https://app.prolific.com/","en-ZA,en-GB;q=0.9,en-US;q=0.8,en;q=0.7","666408427db5e38fe0ea1736","6877649eabb845cf142cd221","68935f3c0e70b3b74c66214e","1","666408427db5e38fe0ea1736","1","2025-08-06T14:16:58.195Z","","","","MotivationQ","","","","","","","","","","","50","","","","","","","","","","","","","","","","","","","","","","","","","","",""
"","","","","ctl-task-cpt","68","1103485","0.0-7.0-0.11","206","1","2025-08-06 13:59:10","36c45c0696341be0efffe67d72a12abb","154.66.155.77","Mozilla/5.0 (Windows NT 10.0; Win64; x64) AppleWebKit/537.36 (KHTML, like Gecko) Chrome/138.0.0.0 Safari/537.36","WebKit","Chrome","138.0.0.0","Windows","10.0","https://app.prolific.com/","en-ZA,en-GB;q=0.9,en-US;q=0.8,en;q=0.7","666408427db5e38fe0ea1736","6877649eabb845cf142cd221","68935f3c0e70b3b74c66214e","1","666408427db5e38fe0ea1736","1","2025-08-06T14:17:37.861Z","","","","","","","","","","","","","","","","win-only","1","g1:NE,g2:SW","0.7","12","0","1066980.4","1345.6","6348.7","36653.1","1","4","8","6","2","-8","-9","0","4","0","1576.2","3000","-2275","[""down"",""left""]","{""num_key_presses"":8,""num_perfect"":5,""num_errors"":1,""num_randdir"":2,""num_randdir_good_moves"":0,""num_whilered"":0,""num_whileblue"":1,""num_blue"":2,""num_good_moves"":2}","[293.0178342546736,302.01785666602,0.5,293.0178342546736,302.01785666602,100.4,293.0178342546736,302.01785666602,207.4,293.0178342546736,302.01785666602,308.9,293.0178342546736,302.01785666602,412.3,293.0178342546736,302.01785666602,513.5,291.7678342546736,307.01785666602,617.7,106.76783425467355,450.76785666602,720.8,28.017834254673552,488.26785666602,821.9,28.017834254673552,488.26785666602,936.8,28.017834254673552,488.26785666602,1040.3,28.017834254673552,488.26785666602,1151.3,31.767834254673552,502.01785666602,1257.1,35.51783425467355,509.51785666602,1359.6,35.51783425467355,509.51785666602,1468.6,35.51783425467355,509.51785666602,1569.3,35.51783425467355,509.51785666602,1674.8,35.51783425467355,509.51785666602,1784.3,35.51783425467355,509.51785666602,1886.8,35.51783425467355,509.51785666602,2001.7,35.51783425467355,509.51785666602,2102.3,35.51783425467355,509.51785666602,2203.2,35.51783425467355,509.51785666602,2306,35.51783425467355,509.51785666602,2406.6,35.51783425467355,509.51785666602,2506.9,35.51783425467355,509.51785666602,2615.3,35.51783425467355,509.51785666602,2716.4,35.51783425467355,509.51785666602,2819.4,35.51783425467355,509.51785666602,2923.2,35.51783425467355,509.51785666602,3025.3,35.51783425467355,509.51785666602,3133.4,35.51783425467355,509.51785666602,3234.4,35.51783425467355,509.51785666602,3351.1,35.51783425467355,509.51785666602,3456.2,35.51783425467355,509.51785666602,3560.3,35.51783425467355,509.51785666602,3669.2,35.51783425467355,509.51785666602,3782,35.51783425467355,509.51785666602,3885.8,35.51783425467355,509.51785666602,3992.8,35.51783425467355,509.51785666602,4094.6,35.51783425467355,509.51785666602,4195.4,35.51783425467355,509.51785666602,4300.5,35.51783425467355,509.51785666602,4401.6,35.51783425467355,509.51785666602,4517,35.51783425467355,509.51785666602,4623.4,35.51783425467355,509.51785666602,4724.3,35.51783425467355,509.51785666602,4825.3,35.51783425467355,509.51785666602,4934.1]","[1443.5,1443.5,1000,0,443.5,""smooth"",""right"",""right"",""bad_move"",4962.2,3518.2,2695.9,1444,822.3,""smooth"",""down"",""down"",""good_move"",8688.6,3725.8,3301.9,4962.8,423.9,""oops"",""down"",""up"",""bad_move"",10975.8,2286.6,1767.7,8689.2,518.9,""smooth"",""left"",""left"",""good_move"",14251.7,3275.5,2868.7,10976.3,406.8,""oops"",""left"",""up"",""bad_move"",17114.3,2862.1,2485.4,14252.2,376.7,""smooth"",""up"",""up"",""bad_move"",20400.3,3285.6,2837.3,17114.7,448.3,""while_blue"",""right"",""right"",""bad_move"",27104.5,6703.9,2464.1,23687.9,952.5,""smooth"",""right"",""right"",""bad_move""]"
"4009","","<div style=""width:500px;"">
  <p>What determined the result of this run?</p>
  </div>","98","html-slider-response","69","1107495","0.0-7.0-1.11","206","1","2025-08-06 13:59:10","36c45c0696341be0efffe67d72a12abb","154.66.155.77","Mozilla/5.0 (Windows NT 10.0; Win64; x64) AppleWebKit/537.36 (KHTML, like Gecko) Chrome/138.0.0.0 Safari/537.36","WebKit","Chrome","138.0.0.0","Windows","10.0","https://app.prolific.com/","en-ZA,en-GB;q=0.9,en-US;q=0.8,en;q=0.7","666408427db5e38fe0ea1736","6877649eabb845cf142cd221","68935f3c0e70b3b74c66214e","1","666408427db5e38fe0ea1736","1","2025-08-06T14:17:41.872Z","","","","AttribQ","","","","","","","","","","","50","","","","","","","","","","","","","","","","","","","","","","","","","","",""
"3636","","<div style=""width:500px;"">
  <p>How much control did you have over the ball?</p>
  </div>","100","html-slider-response","70","1111133","0.0-7.0-2.11","206","1","2025-08-06 13:59:10","36c45c0696341be0efffe67d72a12abb","154.66.155.77","Mozilla/5.0 (Windows NT 10.0; Win64; x64) AppleWebKit/537.36 (KHTML, like Gecko) Chrome/138.0.0.0 Safari/537.36","WebKit","Chrome","138.0.0.0","Windows","10.0","https://app.prolific.com/","en-ZA,en-GB;q=0.9,en-US;q=0.8,en;q=0.7","666408427db5e38fe0ea1736","6877649eabb845cf142cd221","68935f3c0e70b3b74c66214e","1","666408427db5e38fe0ea1736","1","2025-08-06T14:17:45.509Z","","","","ControlQ","","","","","","","","","","","50","","","","","","","","","","","","","","","","","","","","","","","","","","",""
"3688","","<div style=""width:500px;"">
  <p>How would you describe your current emotional state?</p>
  </div>","11","html-slider-response","71","1114822","0.0-7.0-3.11","206","1","2025-08-06 13:59:10","36c45c0696341be0efffe67d72a12abb","154.66.155.77","Mozilla/5.0 (Windows NT 10.0; Win64; x64) AppleWebKit/537.36 (KHTML, like Gecko) Chrome/138.0.0.0 Safari/537.36","WebKit","Chrome","138.0.0.0","Windows","10.0","https://app.prolific.com/","en-ZA,en-GB;q=0.9,en-US;q=0.8,en;q=0.7","666408427db5e38fe0ea1736","6877649eabb845cf142cd221","68935f3c0e70b3b74c66214e","1","666408427db5e38fe0ea1736","1","2025-08-06T14:17:49.198Z","","","","StressQ","","","","","","","","","","","50","","","","","","","","","","","","","","","","","","","","","","","","","","",""
"4293","","<div style=""width:500px;"">
  <p>What best describes how you currently feel?</p>
  </div>","93","html-slider-response","72","1119116","0.0-7.0-4.11","206","1","2025-08-06 13:59:10","36c45c0696341be0efffe67d72a12abb","154.66.155.77","Mozilla/5.0 (Windows NT 10.0; Win64; x64) AppleWebKit/537.36 (KHTML, like Gecko) Chrome/138.0.0.0 Safari/537.36","WebKit","Chrome","138.0.0.0","Windows","10.0","https://app.prolific.com/","en-ZA,en-GB;q=0.9,en-US;q=0.8,en;q=0.7","666408427db5e38fe0ea1736","6877649eabb845cf142cd221","68935f3c0e70b3b74c66214e","1","666408427db5e38fe0ea1736","1","2025-08-06T14:17:53.493Z","","","","MotivationQ","","","","","","","","","","","50","","","","","","","","","","","","","","","","","","","","","","","","","","",""
"","","","","ctl-task-cpt","73","1164145","0.0-7.0-0.12","206","1","2025-08-06 13:59:10","36c45c0696341be0efffe67d72a12abb","154.66.155.77","Mozilla/5.0 (Windows NT 10.0; Win64; x64) AppleWebKit/537.36 (KHTML, like Gecko) Chrome/138.0.0.0 Safari/537.36","WebKit","Chrome","138.0.0.0","Windows","10.0","https://app.prolific.com/","en-ZA,en-GB;q=0.9,en-US;q=0.8,en;q=0.7","666408427db5e38fe0ea1736","6877649eabb845cf142cd221","68935f3c0e70b3b74c66214e","1","666408427db5e38fe0ea1736","1","2025-08-06T14:18:38.521Z","","","","","","","","","","","","","","","","win-only","1","g1:NE,g2:SW","0.8","13","0","1122277.9","2131","7134.6","42007.9","1","4","4","6","2","4","4","4","0","0.030303030303030304","1643.6","3000","380","[""down"",""left""]","{""num_key_presses"":8,""num_perfect"":6,""num_errors"":0,""num_randdir"":2,""num_randdir_good_moves"":2,""num_whilered"":0,""num_whileblue"":0,""num_blue"":4,""num_good_moves"":7}","[303.0178342546736,299.51785666602,0.6,303.0178342546736,299.51785666602,103.3,303.0178342546736,299.51785666602,205.6,303.0178342546736,299.51785666602,311.1,303.0178342546736,299.51785666602,412,303.0178342546736,299.51785666602,518.5,303.0178342546736,299.51785666602,621.2,205.51783425467355,462.01785666602,727,178.01783425467355,483.26785666602,837.4,176.76783425467355,487.01785666602,943.7,176.76783425467355,487.01785666602,1054.3,176.76783425467355,487.01785666602,1154.6,108.01783425467355,522.01785666602,1268.4,60.51783425467355,542.01785666602,1376.9,58.01783425467355,542.01785666602,1485.4,58.01783425467355,542.01785666602,1593.8,58.01783425467355,542.01785666602,1704.1,58.01783425467355,542.01785666602,1806.6,58.01783425467355,542.01785666602,1911.2,58.01783425467355,542.01785666602,2015.7,58.01783425467355,542.01785666602,2117.7,58.01783425467355,542.01785666602,2218.6,58.01783425467355,542.01785666602,2320.3,58.01783425467355,542.01785666602,2420.9,58.01783425467355,542.01785666602,2521.4,58.01783425467355,542.01785666602,2623.4,58.01783425467355,542.01785666602,2726.4,58.01783425467355,542.01785666602,2839.2,58.01783425467355,542.01785666602,2949.8,58.01783425467355,542.01785666602,3056,58.01783425467355,542.01785666602,3160.1,58.01783425467355,542.01785666602,3262.1,58.01783425467355,542.01785666602,3366.3,58.01783425467355,542.01785666602,3469.6,58.01783425467355,542.01785666602,3570.1,58.01783425467355,542.01785666602,3670.7,58.01783425467355,542.01785666602,3773.4,58.01783425467355,542.01785666602,3874.7,58.01783425467355,542.01785666602,3975.3,58.01783425467355,542.01785666602,4076.7,58.01783425467355,542.01785666602,4177.1,58.01783425467355,542.01785666602,4282.5,58.01783425467355,542.01785666602,4383.9,58.01783425467355,542.01785666602,4486.1,58.01783425467355,542.01785666602,4590.3,58.01783425467355,542.01785666602,4694,58.01783425467355,542.01785666602,4802.6,58.01783425467355,542.01785666602,4905]","[1500.6,1500.6,1000,0,500.6,""smooth"",""right"",""right"",""bad_move"",4511,3010.1,2573.4,1500.9,436.7,""smooth"",""down"",""down"",""good_move"",10656.7,6145.1,2406.7,7764.7,485.3,""smooth"",""left"",""left"",""good_move"",13266.5,2609.6,2055.7,10657,553.9,""oops"",""down"",""left"",""good_move"",19542.7,6275.9,2650.2,16493.9,398.6,""smooth"",""down"",""down"",""good_move"",21604.1,2061.1,1501.2,19543.1,559.8,""smooth"",""left"",""left"",""good_move"",29376.1,7771.4,3853.1,25086,437,""smooth"",""down"",""down"",""good_move"",34746.7,5370.3,1737.2,32603.6,405.9,""oops"",""left"",""left"",""good_move""]"
"3979","","<div style=""width:500px;"">
  <p>What determined the result of this run?</p>
  </div>","97","html-slider-response","74","1168126","0.0-7.0-1.12","206","1","2025-08-06 13:59:10","36c45c0696341be0efffe67d72a12abb","154.66.155.77","Mozilla/5.0 (Windows NT 10.0; Win64; x64) AppleWebKit/537.36 (KHTML, like Gecko) Chrome/138.0.0.0 Safari/537.36","WebKit","Chrome","138.0.0.0","Windows","10.0","https://app.prolific.com/","en-ZA,en-GB;q=0.9,en-US;q=0.8,en;q=0.7","666408427db5e38fe0ea1736","6877649eabb845cf142cd221","68935f3c0e70b3b74c66214e","1","666408427db5e38fe0ea1736","1","2025-08-06T14:18:42.502Z","","","","AttribQ","","","","","","","","","","","50","","","","","","","","","","","","","","","","","","","","","","","","","","",""
"4416","","<div style=""width:500px;"">
  <p>How much control did you have over the ball?</p>
  </div>","56","html-slider-response","75","1172543","0.0-7.0-2.12","206","1","2025-08-06 13:59:10","36c45c0696341be0efffe67d72a12abb","154.66.155.77","Mozilla/5.0 (Windows NT 10.0; Win64; x64) AppleWebKit/537.36 (KHTML, like Gecko) Chrome/138.0.0.0 Safari/537.36","WebKit","Chrome","138.0.0.0","Windows","10.0","https://app.prolific.com/","en-ZA,en-GB;q=0.9,en-US;q=0.8,en;q=0.7","666408427db5e38fe0ea1736","6877649eabb845cf142cd221","68935f3c0e70b3b74c66214e","1","666408427db5e38fe0ea1736","1","2025-08-06T14:18:46.919Z","","","","ControlQ","","","","","","","","","","","50","","","","","","","","","","","","","","","","","","","","","","","","","","",""
"3051","","<div style=""width:500px;"">
  <p>How would you describe your current emotional state?</p>
  </div>","29","html-slider-response","76","1175596","0.0-7.0-3.12","206","1","2025-08-06 13:59:10","36c45c0696341be0efffe67d72a12abb","154.66.155.77","Mozilla/5.0 (Windows NT 10.0; Win64; x64) AppleWebKit/537.36 (KHTML, like Gecko) Chrome/138.0.0.0 Safari/537.36","WebKit","Chrome","138.0.0.0","Windows","10.0","https://app.prolific.com/","en-ZA,en-GB;q=0.9,en-US;q=0.8,en;q=0.7","666408427db5e38fe0ea1736","6877649eabb845cf142cd221","68935f3c0e70b3b74c66214e","1","666408427db5e38fe0ea1736","1","2025-08-06T14:18:49.972Z","","","","StressQ","","","","","","","","","","","50","","","","","","","","","","","","","","","","","","","","","","","","","","",""
"2672","","<div style=""width:500px;"">
  <p>What best describes how you currently feel?</p>
  </div>","81","html-slider-response","77","1178269","0.0-7.0-4.12","206","1","2025-08-06 13:59:10","36c45c0696341be0efffe67d72a12abb","154.66.155.77","Mozilla/5.0 (Windows NT 10.0; Win64; x64) AppleWebKit/537.36 (KHTML, like Gecko) Chrome/138.0.0.0 Safari/537.36","WebKit","Chrome","138.0.0.0","Windows","10.0","https://app.prolific.com/","en-ZA,en-GB;q=0.9,en-US;q=0.8,en;q=0.7","666408427db5e38fe0ea1736","6877649eabb845cf142cd221","68935f3c0e70b3b74c66214e","1","666408427db5e38fe0ea1736","1","2025-08-06T14:18:52.646Z","","","","MotivationQ","","","","","","","","","","","50","","","","","","","","","","","","","","","","","","","","","","","","","","",""
