"rt","response_timestamp","stimulus","response","trial_type","trial_index","time_elapsed","internal_node_id","run_id","condition","recorded_at","source_code_version","ip","user_agent","device","browser","browser_version","platform","platform_version","referer","accept_language","PROLIFIC_PID","STUDY_ID","SESSION_ID","BATCH","prolific_id","batch","realtime","success","question_order","question_id","eventType","responses","item_order","radio_event_ids","radio_event_times","key_event_times","mouse_event_times","straightlining","zigzagging","honeypot","view_history","slider_start","which_type","canvas_config","goals_layout","control_level","trial_number","tutorial_trial_number","trial_start_time","phase1_start_time","phase2_start_time","phase3_start_time","goal_1_value","goal_1_distance","goal_2_value","goal_2_distance","goal_selected","outcome","outcome_total","participant_final_score","participant_initial_score","participant_final_score_prop","goal_choice_rt","allocated_time","allocated_time_remaining","goal_direction","counts","mouse_movements","key_presses"
"12140","1754470517790","<p style='font-size:40px;line-height:1.25'><strong>Welcome to the experiment!</strong></p><p style='font-size:1.1em;line-height:1.25'>Thank you for participanting in our experiment again! You will be asked to play the Dysfunctional Ball Game again. We will briefly recap the rules before we start.</p><p style='font-size:1.1em;line-height:1.25'>Press <strong>Next</strong> to continue.</p>","0","custom-html-button-response","0","12148","0.0-0.0","143","1","2025-08-06 08:55:02","36c45c0696341be0efffe67d72a12abb","41.13.146.236","Mozilla/5.0 (Windows NT 10.0; Win64; x64) AppleWebKit/537.36 (KHTML, like Gecko) Chrome/138.0.0.0 Safari/537.36","WebKit","Chrome","138.0.0.0","Windows","10.0","https://app.prolific.com/","en-ZA,en-GB;q=0.9,en-US;q=0.8,en;q=0.7,he;q=0.6,hi;q=0.5,ko;q=0.4,zu;q=0.3,zh-CN;q=0.2,zh;q=0.1","666c4699beb014a7b85ccea1","687a1a965b9f5b85a264363e","68931750ec0ca4895fca1c29","1","666c4699beb014a7b85ccea1","1","2025-08-06T08:55:17.796Z","","","","","","","","","","","","","","","","","","","","","","","","","","","","","","","","","","","","","","","","","",""
"63890","","","","fullscreen","1","77051","0.0-1.0","143","1","2025-08-06 08:55:02","36c45c0696341be0efffe67d72a12abb","41.13.146.236","Mozilla/5.0 (Windows NT 10.0; Win64; x64) AppleWebKit/537.36 (KHTML, like Gecko) Chrome/138.0.0.0 Safari/537.36","WebKit","Chrome","138.0.0.0","Windows","10.0","https://app.prolific.com/","en-ZA,en-GB;q=0.9,en-US;q=0.8,en;q=0.7,he;q=0.6,hi;q=0.5,ko;q=0.4,zu;q=0.3,zh-CN;q=0.2,zh;q=0.1","666c4699beb014a7b85ccea1","687a1a965b9f5b85a264363e","68931750ec0ca4895fca1c29","1","666c4699beb014a7b85ccea1","1","","true","","","","","","","","","","","","","","","","","","","","","","","","","","","","","","","","","","","","","","","","",""
"8383","1754470591085"," <p style='font-size:1.1em;line-height:1.25'>Thank you for closing all other tabs.</p><p style='font-size:1.1em;line-height:1.25'>We will now invite you to fill in some questionnaires, before starting the game.<br>This will take about 5 minutes.<br></p><p style='font-size:1.1em;line-height:1.25'>Press the <strong>Next</strong> button to continue.</p>","0","custom-html-button-response","2","85439","0.0-2.0","143","1","2025-08-06 08:55:02","36c45c0696341be0efffe67d72a12abb","41.13.146.236","Mozilla/5.0 (Windows NT 10.0; Win64; x64) AppleWebKit/537.36 (KHTML, like Gecko) Chrome/138.0.0.0 Safari/537.36","WebKit","Chrome","138.0.0.0","Windows","10.0","https://app.prolific.com/","en-ZA,en-GB;q=0.9,en-US;q=0.8,en;q=0.7,he;q=0.6,hi;q=0.5,ko;q=0.4,zu;q=0.3,zh-CN;q=0.2,zh;q=0.1","666c4699beb014a7b85ccea1","687a1a965b9f5b85a264363e","68931750ec0ca4895fca1c29","1","666c4699beb014a7b85ccea1","1","2025-08-06T08:56:31.086Z","","","","","","","","","","","","","","","","","","","","","","","","","","","","","","","","","","","","","","","","","",""
"3446","","","{""assigned_sex"":""female""}","survey-multi-choice","3","88894","0.0-3.0-0.0","143","1","2025-08-06 08:55:02","36c45c0696341be0efffe67d72a12abb","41.13.146.236","Mozilla/5.0 (Windows NT 10.0; Win64; x64) AppleWebKit/537.36 (KHTML, like Gecko) Chrome/138.0.0.0 Safari/537.36","WebKit","Chrome","138.0.0.0","Windows","10.0","https://app.prolific.com/","en-ZA,en-GB;q=0.9,en-US;q=0.8,en;q=0.7,he;q=0.6,hi;q=0.5,ko;q=0.4,zu;q=0.3,zh-CN;q=0.2,zh;q=0.1","666c4699beb014a7b85ccea1","687a1a965b9f5b85a264363e","68931750ec0ca4895fca1c29","1","666c4699beb014a7b85ccea1","1","","","[0]","0","demographics","","","","","","","","","","","","","","","","","","","","","","","","","","","","","","","","","","","","","",""
"8508","1754470603051","<p style='font-size:1.1em;line-height:1.25'>In the following, we will perform a baseline assessment. This means that we will ask you a few questions relating to your experiences over the past month.<br></p><p style='font-size:1.1em;line-height:1.25'>Press the <strong>Next</strong> button to continue.</p>","0","custom-html-button-response","4","97405","0.0-4.0-0.0","143","1","2025-08-06 08:55:02","36c45c0696341be0efffe67d72a12abb","41.13.146.236","Mozilla/5.0 (Windows NT 10.0; Win64; x64) AppleWebKit/537.36 (KHTML, like Gecko) Chrome/138.0.0.0 Safari/537.36","WebKit","Chrome","138.0.0.0","Windows","10.0","https://app.prolific.com/","en-ZA,en-GB;q=0.9,en-US;q=0.8,en;q=0.7,he;q=0.6,hi;q=0.5,ko;q=0.4,zu;q=0.3,zh-CN;q=0.2,zh;q=0.1","666c4699beb014a7b85ccea1","687a1a965b9f5b85a264363e","68931750ec0ca4895fca1c29","1","666c4699beb014a7b85ccea1","1","2025-08-06T08:56:43.052Z","","","","","","","","","","","","","","","","","","","","","","","","","","","","","","","","","","","","","","","","","",""
"124210.20000001788","","","","survey-template","5","221631","0.0-4.0-1.0","143","1","2025-08-06 08:55:02","36c45c0696341be0efffe67d72a12abb","41.13.146.236","Mozilla/5.0 (Windows NT 10.0; Win64; x64) AppleWebKit/537.36 (KHTML, like Gecko) Chrome/138.0.0.0 Safari/537.36","WebKit","Chrome","138.0.0.0","Windows","10.0","https://app.prolific.com/","en-ZA,en-GB;q=0.9,en-US;q=0.8,en;q=0.7,he;q=0.6,hi;q=0.5,ko;q=0.4,zu;q=0.3,zh-CN;q=0.2,zh;q=0.1","666c4699beb014a7b85ccea1","687a1a965b9f5b85a264363e","68931750ec0ca4895fca1c29","1","666c4699beb014a7b85ccea1","1","2025-08-06T08:58:47.279Z","","","","pss","{""Q01"":""2"",""Q02"":""1"",""Q03"":""0"",""Q04"":""1"",""Q05"":""0"",""Q06"":""2"",""Q07"":""2"",""Q08"":""0"",""Q09"":""1"",""Q10"":""0""}","[0,1,2,3,4,5,6,7,8,9]","[""Q01"",""Q02"",""Q03"",""Q03"",""Q04"",""Q05"",""Q06"",""Q07"",""Q08"",""Q09"",""Q10""]","[14066.300000011921,23713.90000000596,30209.90000000596,38972.30000001192,47358.30000001192,55604.70000001788,63626.30000001192,73039.5,84883.5,91753,97823.5]","[]","[1.5999999940395355,14066.300000011921,23713.90000000596,30209.90000000596,38972.30000001192,47358.30000001192,55604.70000001788,63626.30000001192,73039.5,73981,84883.5,91753,97823.5,99185.59999999404,124196.90000000596]","0.3","0.4444444444444444","0","","","","","","","","","","","","","","","","","","","","","","","","","","","","",""
"6336","1754470733618","<p style='font-size:1.1em;line-height:1.25'>Thank you for your answers! Now we will ask you a few more questions relating to your feelings in the last 24 hours.<br></p><p style='font-size:1.1em;line-height:1.25'>Press the <strong>Next</strong> button to continue.</p>","0","custom-html-button-response","6","227972","0.0-4.0-2.0","143","1","2025-08-06 08:55:02","36c45c0696341be0efffe67d72a12abb","41.13.146.236","Mozilla/5.0 (Windows NT 10.0; Win64; x64) AppleWebKit/537.36 (KHTML, like Gecko) Chrome/138.0.0.0 Safari/537.36","WebKit","Chrome","138.0.0.0","Windows","10.0","https://app.prolific.com/","en-ZA,en-GB;q=0.9,en-US;q=0.8,en;q=0.7,he;q=0.6,hi;q=0.5,ko;q=0.4,zu;q=0.3,zh-CN;q=0.2,zh;q=0.1","666c4699beb014a7b85ccea1","687a1a965b9f5b85a264363e","68931750ec0ca4895fca1c29","1","666c4699beb014a7b85ccea1","1","2025-08-06T08:58:53.620Z","","","","","","","","","","","","","","","","","","","","","","","","","","","","","","","","","","","","","","","","","",""
"163044.5","","","","survey-template","7","391043","0.0-4.0-3.0","143","1","2025-08-06 08:55:02","36c45c0696341be0efffe67d72a12abb","41.13.146.236","Mozilla/5.0 (Windows NT 10.0; Win64; x64) AppleWebKit/537.36 (KHTML, like Gecko) Chrome/138.0.0.0 Safari/537.36","WebKit","Chrome","138.0.0.0","Windows","10.0","https://app.prolific.com/","en-ZA,en-GB;q=0.9,en-US;q=0.8,en;q=0.7,he;q=0.6,hi;q=0.5,ko;q=0.4,zu;q=0.3,zh-CN;q=0.2,zh;q=0.1","666c4699beb014a7b85ccea1","687a1a965b9f5b85a264363e","68931750ec0ca4895fca1c29","1","666c4699beb014a7b85ccea1","1","2025-08-06T09:01:36.690Z","","","","drsp","{""Q01"":""0"",""Q02"":""0"",""Q03"":""0"",""Q04"":""1"",""Q05"":""0"",""Q06"":""0"",""Q07"":""0"",""Q08"":""1"",""Q09"":""0"",""Q10"":""1"",""Q11"":""2"",""Q12"":""4"",""Q13"":""5"",""Q14"":""3"",""Q15"":""1"",""Q16"":""0"",""Q17"":""2"",""Q18"":""0"",""Q19"":""3"",""Q20"":""1"",""Q21"":""0"",""Q22"":""0""}","[0,1,2,3,4,5,6,7,8,9,10,11,12,13,14,15,16,17,18,19,20,21]","[""Q01"",""Q02"",""Q03"",""Q04"",""Q05"",""Q06"",""Q07"",""Q08"",""Q09"",""Q10"",""Q11"",""Q12"",""Q13"",""Q14"",""Q15"",""Q16"",""Q17"",""Q18"",""Q19"",""Q20"",""Q21"",""Q22""]","[3457,9414,10680.799999982119,13895.59999999404,17811.29999998212,21779.59999999404,33942.5,35357,46410.69999998808,49922,54096.29999998212,58315.90000000596,61899.09999999404,67635.59999999404,75429.79999998212,81475.5,93144.29999998212,94752.29999998212,99843,105964.90000000596,110999.29999998212,119418]","[]","[0.699999988079071,3457,5104.299999982119,9414,10680.799999982119,13895.59999999404,17811.29999998212,21779.59999999404,33942.5,35357,37078.29999998212,46410.69999998808,49922,54096.29999998212,58315.90000000596,61899.09999999404,67635.59999999404,75429.79999998212,81475.5,83031.09999999404,93144.29999998212,94752.29999998212,99843,105964.90000000596,110999.29999998212,119418,120909.90000000596,163020.69999998808]","0.5","0.42857142857142855","0","","","","","","","","","","","","","","","","","","","","","","","","","","","","",""
"60369.69999998808","","","","survey-template","8","451419","0.0-4.0-4.0","143","1","2025-08-06 08:55:02","36c45c0696341be0efffe67d72a12abb","41.13.146.236","Mozilla/5.0 (Windows NT 10.0; Win64; x64) AppleWebKit/537.36 (KHTML, like Gecko) Chrome/138.0.0.0 Safari/537.36","WebKit","Chrome","138.0.0.0","Windows","10.0","https://app.prolific.com/","en-ZA,en-GB;q=0.9,en-US;q=0.8,en;q=0.7,he;q=0.6,hi;q=0.5,ko;q=0.4,zu;q=0.3,zh-CN;q=0.2,zh;q=0.1","666c4699beb014a7b85ccea1","687a1a965b9f5b85a264363e","68931750ec0ca4895fca1c29","1","666c4699beb014a7b85ccea1","1","2025-08-06T09:02:37.067Z","","","","stress","{""Q01"":""0"",""Q02"":""1"",""Q03"":""1""}","[0,1,2]","[""Q02"",""Q03"",""Q01""]","[34646.30000001192,42221.30000001192,48702.5]","[]","[34646.30000001192,42221.30000001192,48702.5,50497.59999999404,60367.09999999404]","0.3333333333333333","0","0","","","","","","","","","","","","","","","","","","","","","","","","","","","","",""
"107136","","","","instructions","9","558558","0.0-5.0-0.0","143","1","2025-08-06 08:55:02","36c45c0696341be0efffe67d72a12abb","41.13.146.236","Mozilla/5.0 (Windows NT 10.0; Win64; x64) AppleWebKit/537.36 (KHTML, like Gecko) Chrome/138.0.0.0 Safari/537.36","WebKit","Chrome","138.0.0.0","Windows","10.0","https://app.prolific.com/","en-ZA,en-GB;q=0.9,en-US;q=0.8,en;q=0.7,he;q=0.6,hi;q=0.5,ko;q=0.4,zu;q=0.3,zh-CN;q=0.2,zh;q=0.1","666c4699beb014a7b85ccea1","687a1a965b9f5b85a264363e","68931750ec0ca4895fca1c29","1","666c4699beb014a7b85ccea1","1","","","","","","","","","","","","","","","[{""page_index"":0,""viewing_time"":107135}]","","","","","","","","","","","","","","","","","","","","","","","","","","","",""
"25133","","<p>Before you start with this game please answer the following three questions yourself. </p>
  <p>Through this game, we measure several aspects of your cognitive performance, such as reaction times, multi-tasking capabilities </p>
  <p>and the ability to assess the situation you are in.</p>
  <p></p>
  <p><b>How good do you usually are in such tasks?</b></p>","54","html-slider-response","10","583703","0.0-6.0-0.0","143","1","2025-08-06 08:55:02","36c45c0696341be0efffe67d72a12abb","41.13.146.236","Mozilla/5.0 (Windows NT 10.0; Win64; x64) AppleWebKit/537.36 (KHTML, like Gecko) Chrome/138.0.0.0 Safari/537.36","WebKit","Chrome","138.0.0.0","Windows","10.0","https://app.prolific.com/","en-ZA,en-GB;q=0.9,en-US;q=0.8,en;q=0.7,he;q=0.6,hi;q=0.5,ko;q=0.4,zu;q=0.3,zh-CN;q=0.2,zh;q=0.1","666c4699beb014a7b85ccea1","687a1a965b9f5b85a264363e","68931750ec0ca4895fca1c29","1","666c4699beb014a7b85ccea1","1","2025-08-06T09:04:49.351Z","","","","PreSkillQ","","","","","","","","","","","50","","","","","","","","","","","","","","","","","","","","","","","","","","",""
"8608","","<div style=""width:500px;"">
  <p>How well do you think you will perform in this task compared to other participants?</p>
  </div>","47","html-slider-response","11","592316","0.0-6.0-1.0","143","1","2025-08-06 08:55:02","36c45c0696341be0efffe67d72a12abb","41.13.146.236","Mozilla/5.0 (Windows NT 10.0; Win64; x64) AppleWebKit/537.36 (KHTML, like Gecko) Chrome/138.0.0.0 Safari/537.36","WebKit","Chrome","138.0.0.0","Windows","10.0","https://app.prolific.com/","en-ZA,en-GB;q=0.9,en-US;q=0.8,en;q=0.7,he;q=0.6,hi;q=0.5,ko;q=0.4,zu;q=0.3,zh-CN;q=0.2,zh;q=0.1","666c4699beb014a7b85ccea1","687a1a965b9f5b85a264363e","68931750ec0ca4895fca1c29","1","666c4699beb014a7b85ccea1","1","2025-08-06T09:04:57.964Z","","","","PrePerfQ","","","","","","","","","","","50","","","","","","","","","","","","","","","","","","","","","","","","","","",""
"8411","","<div style=""width:500px;"">
  <p>What best describes how you currently feel?</p>
  </div>","89","html-slider-response","12","600732","0.0-6.0-2.0","143","1","2025-08-06 08:55:02","36c45c0696341be0efffe67d72a12abb","41.13.146.236","Mozilla/5.0 (Windows NT 10.0; Win64; x64) AppleWebKit/537.36 (KHTML, like Gecko) Chrome/138.0.0.0 Safari/537.36","WebKit","Chrome","138.0.0.0","Windows","10.0","https://app.prolific.com/","en-ZA,en-GB;q=0.9,en-US;q=0.8,en;q=0.7,he;q=0.6,hi;q=0.5,ko;q=0.4,zu;q=0.3,zh-CN;q=0.2,zh;q=0.1","666c4699beb014a7b85ccea1","687a1a965b9f5b85a264363e","68931750ec0ca4895fca1c29","1","666c4699beb014a7b85ccea1","1","2025-08-06T09:05:06.379Z","","","","PreMotivationQ","","","","","","","","","","","50","","","","","","","","","","","","","","","","","","","","","","","","","","",""
"","","","","ctl-task-cpt","13","637357","0.0-7.0-0.0","143","1","2025-08-06 08:55:02","36c45c0696341be0efffe67d72a12abb","41.13.146.236","Mozilla/5.0 (Windows NT 10.0; Win64; x64) AppleWebKit/537.36 (KHTML, like Gecko) Chrome/138.0.0.0 Safari/537.36","WebKit","Chrome","138.0.0.0","Windows","10.0","https://app.prolific.com/","en-ZA,en-GB;q=0.9,en-US;q=0.8,en;q=0.7,he;q=0.6,hi;q=0.5,ko;q=0.4,zu;q=0.3,zh-CN;q=0.2,zh;q=0.1","666c4699beb014a7b85ccea1","687a1a965b9f5b85a264363e","68931750ec0ca4895fca1c29","1","666c4699beb014a7b85ccea1","1","2025-08-06T09:05:43.004Z","","","","","","","","","","","","","","","","win-only","3","g1:SW,g2:NE","1","1","0","603737.4","2381.2","7383.4","33611.3","1","4","8","6","2","8","5","5","0","0.03787878787878788","2263.7","3000","1250","[""up"",""right""]","{""num_key_presses"":14,""num_perfect"":6,""num_errors"":3,""num_randdir"":0,""num_randdir_good_moves"":0,""num_whilered"":5,""num_whileblue"":0,""num_blue"":2,""num_good_moves"":6}","[413.57142857142856,413.1808016640799,0.7,413.57142857142856,413.1808016640799,117,413.57142857142856,413.1808016640799,218.3,413.57142857142856,413.1808016640799,326.9,413.57142857142856,413.1808016640799,441,413.57142857142856,413.1808016640799,541.3,413.57142857142856,413.1808016640799,647.9,413.57142857142856,413.1808016640799,752.3,413.57142857142856,413.1808016640799,853,413.57142857142856,413.1808016640799,959.8,413.57142857142856,413.1808016640799,1064.9,413.57142857142856,413.1808016640799,1165.2,413.57142857142856,413.1808016640799,1267.5,413.57142857142856,413.1808016640799,1367.7,413.57142857142856,413.1808016640799,1476.6,433.07142857142856,230.18080166407992,1583.4,686.5714285714286,65.18080166407994,1688.8,763.0714285714286,41.18080166407994,1790.6,767.5714285714286,41.18080166407994,1896.8,766.0714285714286,57.68080166407994,1998.3,766.0714285714286,68.18080166407994,2098.5,766.0714285714286,68.18080166407994,2201.6,766.0714285714286,68.18080166407994,2305.2,766.0714285714286,68.18080166407994,2405.8,766.0714285714286,68.18080166407994,2512.6,766.0714285714286,68.18080166407994,2620.6,766.0714285714286,68.18080166407994,2722.7,766.0714285714286,68.18080166407994,2832.8,766.0714285714286,68.18080166407994,2935.5,766.0714285714286,68.18080166407994,3035.8,766.0714285714286,68.18080166407994,3136,766.0714285714286,68.18080166407994,3237.4,766.0714285714286,68.18080166407994,3343.9,766.0714285714286,68.18080166407994,3447.7,766.0714285714286,68.18080166407994,3551.4,766.0714285714286,68.18080166407994,3651.7,766.0714285714286,68.18080166407994,3752,766.0714285714286,68.18080166407994,3852.7,766.0714285714286,68.18080166407994,3963.2,766.0714285714286,68.18080166407994,4065.8,766.0714285714286,68.18080166407994,4168.2,766.0714285714286,68.18080166407994,4268.3,766.0714285714286,68.18080166407994,4377.1,766.0714285714286,68.18080166407994,4485.1,766.0714285714286,68.18080166407994,4585.1,766.0714285714286,68.18080166407994,4687.1,766.0714285714286,68.18080166407994,4792.4,766.0714285714286,68.18080166407994,4893.2,766.0714285714286,68.18080166407994,4993.8]","[926.1,926.1,1000,0,-73.9,""error"",""-"",""-"",""no_move"",1288.7,359.2,1000,0,288.8,""while_red"",""-"",""-"",""no_move"",1472.9,543.4,1000,0,472.9,""while_red"",""-"",""-"",""no_move"",7144.5,6215.1,1758.2,4948.2,438.2,""smooth"",""up"",""up"",""good_move"",7387.2,237.1,2330.3,7150.2,-2093.2,""error"",""-"",""-"",""no_move"",7592.5,203.3,2330.3,7150.2,-1888,""while_red"",""-"",""-"",""no_move"",7734.9,345.7,2330.3,7150.2,-1745.6,""while_red"",""-"",""-"",""no_move"",11002,3612.8,2019.5,8397.2,585.3,""smooth"",""up"",""up"",""good_move"",11257.5,249.3,1811.4,11008.3,-1562.2,""error"",""-"",""-"",""no_move"",11469.7,210.2,1811.4,11008.3,-1349.9,""while_red"",""-"",""-"",""no_move"",14755.1,3495.7,2120.4,12272,362.8,""smooth"",""right"",""right"",""good_move"",21188.7,6430.2,2721.4,18097.6,369.7,""smooth"",""right"",""right"",""good_move"",23514.7,2325.2,1822.1,21189.5,503.1,""smooth"",""right"",""right"",""good_move"",26069.5,2554,2217.8,23515.5,336.2,""smooth"",""up"",""up"",""good_move""]"
"7879","","<div style=""width:500px;"">
  <p>What determined the result of this run?</p>
  </div>","68","html-slider-response","14","645241","0.0-7.0-1.0","143","1","2025-08-06 08:55:02","36c45c0696341be0efffe67d72a12abb","41.13.146.236","Mozilla/5.0 (Windows NT 10.0; Win64; x64) AppleWebKit/537.36 (KHTML, like Gecko) Chrome/138.0.0.0 Safari/537.36","WebKit","Chrome","138.0.0.0","Windows","10.0","https://app.prolific.com/","en-ZA,en-GB;q=0.9,en-US;q=0.8,en;q=0.7,he;q=0.6,hi;q=0.5,ko;q=0.4,zu;q=0.3,zh-CN;q=0.2,zh;q=0.1","666c4699beb014a7b85ccea1","687a1a965b9f5b85a264363e","68931750ec0ca4895fca1c29","1","666c4699beb014a7b85ccea1","1","2025-08-06T09:05:50.888Z","","","","AttribQ","","","","","","","","","","","50","","","","","","","","","","","","","","","","","","","","","","","","","","",""
"6698","","<div style=""width:500px;"">
  <p>How much control did you have over the ball?</p>
  </div>","55","html-slider-response","15","651943","0.0-7.0-2.0","143","1","2025-08-06 08:55:02","36c45c0696341be0efffe67d72a12abb","41.13.146.236","Mozilla/5.0 (Windows NT 10.0; Win64; x64) AppleWebKit/537.36 (KHTML, like Gecko) Chrome/138.0.0.0 Safari/537.36","WebKit","Chrome","138.0.0.0","Windows","10.0","https://app.prolific.com/","en-ZA,en-GB;q=0.9,en-US;q=0.8,en;q=0.7,he;q=0.6,hi;q=0.5,ko;q=0.4,zu;q=0.3,zh-CN;q=0.2,zh;q=0.1","666c4699beb014a7b85ccea1","687a1a965b9f5b85a264363e","68931750ec0ca4895fca1c29","1","666c4699beb014a7b85ccea1","1","2025-08-06T09:05:57.591Z","","","","ControlQ","","","","","","","","","","","50","","","","","","","","","","","","","","","","","","","","","","","","","","",""
"8856","","<div style=""width:500px;"">
  <p>How would you describe your current emotional state?</p>
  </div>","17","html-slider-response","16","660802","0.0-7.0-3.0","143","1","2025-08-06 08:55:02","36c45c0696341be0efffe67d72a12abb","41.13.146.236","Mozilla/5.0 (Windows NT 10.0; Win64; x64) AppleWebKit/537.36 (KHTML, like Gecko) Chrome/138.0.0.0 Safari/537.36","WebKit","Chrome","138.0.0.0","Windows","10.0","https://app.prolific.com/","en-ZA,en-GB;q=0.9,en-US;q=0.8,en;q=0.7,he;q=0.6,hi;q=0.5,ko;q=0.4,zu;q=0.3,zh-CN;q=0.2,zh;q=0.1","666c4699beb014a7b85ccea1","687a1a965b9f5b85a264363e","68931750ec0ca4895fca1c29","1","666c4699beb014a7b85ccea1","1","2025-08-06T09:06:06.450Z","","","","StressQ","","","","","","","","","","","50","","","","","","","","","","","","","","","","","","","","","","","","","","",""
"9151","","<div style=""width:500px;"">
  <p>What best describes how you currently feel?</p>
  </div>","72","html-slider-response","17","669960","0.0-7.0-4.0","143","1","2025-08-06 08:55:02","36c45c0696341be0efffe67d72a12abb","41.13.146.236","Mozilla/5.0 (Windows NT 10.0; Win64; x64) AppleWebKit/537.36 (KHTML, like Gecko) Chrome/138.0.0.0 Safari/537.36","WebKit","Chrome","138.0.0.0","Windows","10.0","https://app.prolific.com/","en-ZA,en-GB;q=0.9,en-US;q=0.8,en;q=0.7,he;q=0.6,hi;q=0.5,ko;q=0.4,zu;q=0.3,zh-CN;q=0.2,zh;q=0.1","666c4699beb014a7b85ccea1","687a1a965b9f5b85a264363e","68931750ec0ca4895fca1c29","1","666c4699beb014a7b85ccea1","1","2025-08-06T09:06:15.607Z","","","","MotivationQ","","","","","","","","","","","50","","","","","","","","","","","","","","","","","","","","","","","","","","",""
"","","","","ctl-task-cpt","18","701807","0.0-7.0-0.1","143","1","2025-08-06 08:55:02","36c45c0696341be0efffe67d72a12abb","41.13.146.236","Mozilla/5.0 (Windows NT 10.0; Win64; x64) AppleWebKit/537.36 (KHTML, like Gecko) Chrome/138.0.0.0 Safari/537.36","WebKit","Chrome","138.0.0.0","Windows","10.0","https://app.prolific.com/","en-ZA,en-GB;q=0.9,en-US;q=0.8,en;q=0.7,he;q=0.6,hi;q=0.5,ko;q=0.4,zu;q=0.3,zh-CN;q=0.2,zh;q=0.1","666c4699beb014a7b85ccea1","687a1a965b9f5b85a264363e","68931750ec0ca4895fca1c29","1","666c4699beb014a7b85ccea1","1","2025-08-06T09:06:47.454Z","","","","","","","","","","","","","","","","win-only","2","g1:SE,g2:NW","0.9","2","0","672964.1","1872.1","6873.8","28834","1","4","4","6","2","4","4","9","5","0.06818181818181818","2065.6","3000","905","[""left"",""up""]","{""num_key_presses"":8,""num_perfect"":7,""num_errors"":0,""num_randdir"":1,""num_randdir_good_moves"":0,""num_whilered"":0,""num_whileblue"":0,""num_blue"":0,""num_good_moves"":7}","[412.07142857142856,417.6808016640799,4,412.07142857142856,417.6808016640799,100.4,412.07142857142856,417.6808016640799,203.3,412.07142857142856,417.6808016640799,307.6,412.07142857142856,417.6808016640799,410.9,412.07142857142856,417.6808016640799,514.9,412.07142857142856,417.6808016640799,615.5,412.07142857142856,417.6808016640799,719.7,412.07142857142856,417.6808016640799,820.6,412.07142857142856,417.6808016640799,922.9,412.07142857142856,417.6808016640799,1027.3,412.07142857142856,417.6808016640799,1129.7,412.07142857142856,417.6808016640799,1235.5,266.57142857142856,275.1808016640799,1339,122.57142857142857,83.18080166407994,1450.2,89.57142857142857,41.18080166407994,1554.2,86.57142857142857,42.68080166407994,1662,86.57142857142857,53.18080166407994,1766.9,89.57142857142857,59.18080166407994,1869.4,89.57142857142857,59.18080166407994,1975.9,89.57142857142857,59.18080166407994,2084.1,89.57142857142857,59.18080166407994,2191.2,89.57142857142857,59.18080166407994,2299.4,89.57142857142857,59.18080166407994,2403,89.57142857142857,59.18080166407994,2508.4,89.57142857142857,59.18080166407994,2617.4,89.57142857142857,59.18080166407994,2717.3,89.57142857142857,59.18080166407994,2818,89.57142857142857,59.18080166407994,2920.5,89.57142857142857,59.18080166407994,3025.5,89.57142857142857,59.18080166407994,3144.3,89.57142857142857,59.18080166407994,3259.9,89.57142857142857,59.18080166407994,3359.9,89.57142857142857,59.18080166407994,3463.9,89.57142857142857,59.18080166407994,3567,89.57142857142857,59.18080166407994,3670.4,89.57142857142857,59.18080166407994,3776.5,89.57142857142857,59.18080166407994,3888.7,89.57142857142857,59.18080166407994,3991.1,89.57142857142857,59.18080166407994,4091.7,89.57142857142857,59.18080166407994,4205.6,89.57142857142857,59.18080166407994,4305.7,89.57142857142857,59.18080166407994,4406.5,89.57142857142857,59.18080166407994,4513.5,89.57142857142857,59.18080166407994,4624.4,89.57142857142857,59.18080166407994,4730.8,89.57142857142857,59.18080166407994,4834.7,89.57142857142857,59.18080166407994,4936]","[1436,1436,1000,0,436.1,""oops"",""left"",""down"",""bad_move"",4027.8,2589.6,1993.3,1438.3,596.3,""smooth"",""left"",""left"",""good_move"",7023.1,2993.1,2599.4,4030,393.7,""smooth"",""left"",""left"",""good_move"",9775.6,2749.6,2345.8,7026.2,403.7,""smooth"",""left"",""left"",""good_move"",12671.3,2893.1,2522.3,9778.3,370.9,""smooth"",""up"",""up"",""good_move"",15597.6,2919.7,2595.1,12677.9,324.6,""smooth"",""up"",""up"",""good_move"",18390.7,2792,2432.4,15598.7,359.6,""smooth"",""up"",""up"",""good_move"",21791.2,3395.7,3035.5,18395.5,360.3,""smooth"",""up"",""up"",""good_move""]"
"5286","","<div style=""width:500px;"">
  <p>What determined the result of this run?</p>
  </div>","85","html-slider-response","19","707098","0.0-7.0-1.1","143","1","2025-08-06 08:55:02","36c45c0696341be0efffe67d72a12abb","41.13.146.236","Mozilla/5.0 (Windows NT 10.0; Win64; x64) AppleWebKit/537.36 (KHTML, like Gecko) Chrome/138.0.0.0 Safari/537.36","WebKit","Chrome","138.0.0.0","Windows","10.0","https://app.prolific.com/","en-ZA,en-GB;q=0.9,en-US;q=0.8,en;q=0.7,he;q=0.6,hi;q=0.5,ko;q=0.4,zu;q=0.3,zh-CN;q=0.2,zh;q=0.1","666c4699beb014a7b85ccea1","687a1a965b9f5b85a264363e","68931750ec0ca4895fca1c29","1","666c4699beb014a7b85ccea1","1","2025-08-06T09:06:52.746Z","","","","AttribQ","","","","","","","","","","","50","","","","","","","","","","","","","","","","","","","","","","","","","","",""
"7148","","<div style=""width:500px;"">
  <p>How much control did you have over the ball?</p>
  </div>","43","html-slider-response","20","714249","0.0-7.0-2.1","143","1","2025-08-06 08:55:02","36c45c0696341be0efffe67d72a12abb","41.13.146.236","Mozilla/5.0 (Windows NT 10.0; Win64; x64) AppleWebKit/537.36 (KHTML, like Gecko) Chrome/138.0.0.0 Safari/537.36","WebKit","Chrome","138.0.0.0","Windows","10.0","https://app.prolific.com/","en-ZA,en-GB;q=0.9,en-US;q=0.8,en;q=0.7,he;q=0.6,hi;q=0.5,ko;q=0.4,zu;q=0.3,zh-CN;q=0.2,zh;q=0.1","666c4699beb014a7b85ccea1","687a1a965b9f5b85a264363e","68931750ec0ca4895fca1c29","1","666c4699beb014a7b85ccea1","1","2025-08-06T09:06:59.896Z","","","","ControlQ","","","","","","","","","","","50","","","","","","","","","","","","","","","","","","","","","","","","","","",""
"5402","","<div style=""width:500px;"">
  <p>How would you describe your current emotional state?</p>
  </div>","18","html-slider-response","21","719655","0.0-7.0-3.1","143","1","2025-08-06 08:55:02","36c45c0696341be0efffe67d72a12abb","41.13.146.236","Mozilla/5.0 (Windows NT 10.0; Win64; x64) AppleWebKit/537.36 (KHTML, like Gecko) Chrome/138.0.0.0 Safari/537.36","WebKit","Chrome","138.0.0.0","Windows","10.0","https://app.prolific.com/","en-ZA,en-GB;q=0.9,en-US;q=0.8,en;q=0.7,he;q=0.6,hi;q=0.5,ko;q=0.4,zu;q=0.3,zh-CN;q=0.2,zh;q=0.1","666c4699beb014a7b85ccea1","687a1a965b9f5b85a264363e","68931750ec0ca4895fca1c29","1","666c4699beb014a7b85ccea1","1","2025-08-06T09:07:05.302Z","","","","StressQ","","","","","","","","","","","50","","","","","","","","","","","","","","","","","","","","","","","","","","",""
"5848","","<div style=""width:500px;"">
  <p>What best describes how you currently feel?</p>
  </div>","72","html-slider-response","22","725506","0.0-7.0-4.1","143","1","2025-08-06 08:55:02","36c45c0696341be0efffe67d72a12abb","41.13.146.236","Mozilla/5.0 (Windows NT 10.0; Win64; x64) AppleWebKit/537.36 (KHTML, like Gecko) Chrome/138.0.0.0 Safari/537.36","WebKit","Chrome","138.0.0.0","Windows","10.0","https://app.prolific.com/","en-ZA,en-GB;q=0.9,en-US;q=0.8,en;q=0.7,he;q=0.6,hi;q=0.5,ko;q=0.4,zu;q=0.3,zh-CN;q=0.2,zh;q=0.1","666c4699beb014a7b85ccea1","687a1a965b9f5b85a264363e","68931750ec0ca4895fca1c29","1","666c4699beb014a7b85ccea1","1","2025-08-06T09:07:11.153Z","","","","MotivationQ","","","","","","","","","","","50","","","","","","","","","","","","","","","","","","","","","","","","","","",""
"","","","","ctl-task-cpt","23","768216","0.0-7.0-0.2","143","1","2025-08-06 08:55:02","36c45c0696341be0efffe67d72a12abb","41.13.146.236","Mozilla/5.0 (Windows NT 10.0; Win64; x64) AppleWebKit/537.36 (KHTML, like Gecko) Chrome/138.0.0.0 Safari/537.36","WebKit","Chrome","138.0.0.0","Windows","10.0","https://app.prolific.com/","en-ZA,en-GB;q=0.9,en-US;q=0.8,en;q=0.7,he;q=0.6,hi;q=0.5,ko;q=0.4,zu;q=0.3,zh-CN;q=0.2,zh;q=0.1","666c4699beb014a7b85ccea1","687a1a965b9f5b85a264363e","68931750ec0ca4895fca1c29","1","666c4699beb014a7b85ccea1","1","2025-08-06T09:07:53.863Z","","","","","","","","","","","","","","","","win-only","3","g1:SW,g2:NE","0.8","3","0","728513.7","1610","6614.1","39681","1","4","8","6","2","8","8","17","9","0.12878787878787878","1378.8","3000","1480","[""up"",""right""]","{""num_key_presses"":6,""num_perfect"":6,""num_errors"":0,""num_randdir"":0,""num_randdir_good_moves"":0,""num_whilered"":0,""num_whileblue"":0,""num_blue"":5,""num_good_moves"":6}","[415.07142857142856,416.1808016640799,1.1,415.07142857142856,416.1808016640799,102,415.07142857142856,416.1808016640799,204.6,415.07142857142856,416.1808016640799,309.7,415.07142857142856,416.1808016640799,410.7,415.07142857142856,416.1808016640799,514,415.07142857142856,416.1808016640799,617.2,449.57142857142856,386.1808016640799,721.6,641.5714285714286,204.68080166407992,831.3,701.5714285714286,141.68080166407992,933,707.5714285714286,128.18080166407992,1039.1,725.5714285714286,90.68080166407994,1144.2,725.5714285714286,90.68080166407994,1246.7,725.5714285714286,90.68080166407994,1346.8,725.5714285714286,90.68080166407994,1447.6,725.5714285714286,90.68080166407994,1552,725.5714285714286,90.68080166407994,1652,725.5714285714286,90.68080166407994,1760.1,725.5714285714286,90.68080166407994,1877,725.5714285714286,90.68080166407994,1978.4,725.5714285714286,90.68080166407994,2083.7,725.5714285714286,90.68080166407994,2186.7,725.5714285714286,90.68080166407994,2288.2,725.5714285714286,90.68080166407994,2395.1,725.5714285714286,90.68080166407994,2503,725.5714285714286,90.68080166407994,2606.1,725.5714285714286,90.68080166407994,2706.2,725.5714285714286,90.68080166407994,2811.5,725.5714285714286,90.68080166407994,2912.4,725.5714285714286,90.68080166407994,3017,725.5714285714286,90.68080166407994,3121.5,725.5714285714286,90.68080166407994,3221.5,725.5714285714286,90.68080166407994,3323.2,725.5714285714286,90.68080166407994,3431.4,725.5714285714286,90.68080166407994,3544,725.5714285714286,90.68080166407994,3656.5,725.5714285714286,90.68080166407994,3761.8,725.5714285714286,90.68080166407994,3872.6,725.5714285714286,90.68080166407994,3973.8,725.5714285714286,90.68080166407994,4092.8,725.5714285714286,90.68080166407994,4196.1,725.5714285714286,90.68080166407994,4297.5,725.5714285714286,90.68080166407994,4398.6,725.5714285714286,90.68080166407994,4502.4,725.5714285714286,90.68080166407994,4604.3,725.5714285714286,90.68080166407994,4704.7,725.5714285714286,90.68080166407994,4804.7,725.5714285714286,90.68080166407994,4912.5]","[1363.7,1363.7,1000,0.1,363.6,""smooth"",""up"",""up"",""good_move"",4062.4,2697.5,2339.6,1364.9,357.9,""smooth"",""up"",""up"",""good_move"",21138.5,17074.9,2607.6,18102.6,428.3,""smooth"",""right"",""right"",""good_move"",26998,5858.2,2385.9,24199.5,412.6,""smooth"",""right"",""right"",""good_move"",29516.8,2517.6,2061.2,26999.4,456.3,""smooth"",""right"",""right"",""good_move"",32910.2,3389.9,2965.7,29520.3,424.2,""smooth"",""up"",""up"",""good_move""]"
"6500","","<div style=""width:500px;"">
  <p>What determined the result of this run?</p>
  </div>","84","html-slider-response","24","774722","0.0-7.0-1.2","143","1","2025-08-06 08:55:02","36c45c0696341be0efffe67d72a12abb","41.13.146.236","Mozilla/5.0 (Windows NT 10.0; Win64; x64) AppleWebKit/537.36 (KHTML, like Gecko) Chrome/138.0.0.0 Safari/537.36","WebKit","Chrome","138.0.0.0","Windows","10.0","https://app.prolific.com/","en-ZA,en-GB;q=0.9,en-US;q=0.8,en;q=0.7,he;q=0.6,hi;q=0.5,ko;q=0.4,zu;q=0.3,zh-CN;q=0.2,zh;q=0.1","666c4699beb014a7b85ccea1","687a1a965b9f5b85a264363e","68931750ec0ca4895fca1c29","1","666c4699beb014a7b85ccea1","1","2025-08-06T09:08:00.369Z","","","","AttribQ","","","","","","","","","","","50","","","","","","","","","","","","","","","","","","","","","","","","","","",""
"5963","","<div style=""width:500px;"">
  <p>How much control did you have over the ball?</p>
  </div>","76","html-slider-response","25","780689","0.0-7.0-2.2","143","1","2025-08-06 08:55:02","36c45c0696341be0efffe67d72a12abb","41.13.146.236","Mozilla/5.0 (Windows NT 10.0; Win64; x64) AppleWebKit/537.36 (KHTML, like Gecko) Chrome/138.0.0.0 Safari/537.36","WebKit","Chrome","138.0.0.0","Windows","10.0","https://app.prolific.com/","en-ZA,en-GB;q=0.9,en-US;q=0.8,en;q=0.7,he;q=0.6,hi;q=0.5,ko;q=0.4,zu;q=0.3,zh-CN;q=0.2,zh;q=0.1","666c4699beb014a7b85ccea1","687a1a965b9f5b85a264363e","68931750ec0ca4895fca1c29","1","666c4699beb014a7b85ccea1","1","2025-08-06T09:08:06.336Z","","","","ControlQ","","","","","","","","","","","50","","","","","","","","","","","","","","","","","","","","","","","","","","",""
"7931","","<div style=""width:500px;"">
  <p>How would you describe your current emotional state?</p>
  </div>","21","html-slider-response","26","788626","0.0-7.0-3.2","143","1","2025-08-06 08:55:02","36c45c0696341be0efffe67d72a12abb","41.13.146.236","Mozilla/5.0 (Windows NT 10.0; Win64; x64) AppleWebKit/537.36 (KHTML, like Gecko) Chrome/138.0.0.0 Safari/537.36","WebKit","Chrome","138.0.0.0","Windows","10.0","https://app.prolific.com/","en-ZA,en-GB;q=0.9,en-US;q=0.8,en;q=0.7,he;q=0.6,hi;q=0.5,ko;q=0.4,zu;q=0.3,zh-CN;q=0.2,zh;q=0.1","666c4699beb014a7b85ccea1","687a1a965b9f5b85a264363e","68931750ec0ca4895fca1c29","1","666c4699beb014a7b85ccea1","1","2025-08-06T09:08:14.273Z","","","","StressQ","","","","","","","","","","","50","","","","","","","","","","","","","","","","","","","","","","","","","","",""
"4436","","<div style=""width:500px;"">
  <p>What best describes how you currently feel?</p>
  </div>","81","html-slider-response","27","793066","0.0-7.0-4.2","143","1","2025-08-06 08:55:02","36c45c0696341be0efffe67d72a12abb","41.13.146.236","Mozilla/5.0 (Windows NT 10.0; Win64; x64) AppleWebKit/537.36 (KHTML, like Gecko) Chrome/138.0.0.0 Safari/537.36","WebKit","Chrome","138.0.0.0","Windows","10.0","https://app.prolific.com/","en-ZA,en-GB;q=0.9,en-US;q=0.8,en;q=0.7,he;q=0.6,hi;q=0.5,ko;q=0.4,zu;q=0.3,zh-CN;q=0.2,zh;q=0.1","666c4699beb014a7b85ccea1","687a1a965b9f5b85a264363e","68931750ec0ca4895fca1c29","1","666c4699beb014a7b85ccea1","1","2025-08-06T09:08:18.714Z","","","","MotivationQ","","","","","","","","","","","50","","","","","","","","","","","","","","","","","","","","","","","","","","",""
"","","","","ctl-task-cpt","28","855286","0.0-7.0-0.3","143","1","2025-08-06 08:55:02","36c45c0696341be0efffe67d72a12abb","41.13.146.236","Mozilla/5.0 (Windows NT 10.0; Win64; x64) AppleWebKit/537.36 (KHTML, like Gecko) Chrome/138.0.0.0 Safari/537.36","WebKit","Chrome","138.0.0.0","Windows","10.0","https://app.prolific.com/","en-ZA,en-GB;q=0.9,en-US;q=0.8,en;q=0.7,he;q=0.6,hi;q=0.5,ko;q=0.4,zu;q=0.3,zh-CN;q=0.2,zh;q=0.1","666c4699beb014a7b85ccea1","687a1a965b9f5b85a264363e","68931750ec0ca4895fca1c29","1","666c4699beb014a7b85ccea1","1","2025-08-06T09:09:20.933Z","","","","","","","","","","","","","","","","win-only","3","g1:SW,g2:NE","0.7","4","0","796076.7","1635.7","6653.8","59201.7","1","4","4","6","2","4","4","21","17","0.1590909090909091","1355.7","3000","165","[""up"",""right""]","{""num_key_presses"":12,""num_perfect"":9,""num_errors"":0,""num_randdir"":3,""num_randdir_good_moves"":0,""num_whilered"":0,""num_whileblue"":0,""num_blue"":5,""num_good_moves"":9}","[413.57142857142856,410.1808016640799,0.6,413.57142857142856,410.1808016640799,103.5,413.57142857142856,410.1808016640799,213.8,413.57142857142856,410.1808016640799,320.2,413.57142857142856,410.1808016640799,435.3,413.57142857142856,410.1808016640799,535.6,566.5714285714286,206.18080166407992,644.7,655.0714285714286,122.18080166407994,745.8,662.5714285714286,116.18080166407994,857,716.5714285714286,81.68080166407994,960.3,731.5714285714286,77.18080166407994,1061.8,734.5714285714286,77.18080166407994,1172.6,734.5714285714286,77.18080166407994,1273.7,734.5714285714286,77.18080166407994,1379.6,734.5714285714286,77.18080166407994,1489,734.5714285714286,77.18080166407994,1590.5,734.5714285714286,77.18080166407994,1706.6,734.5714285714286,77.18080166407994,1809.1,734.5714285714286,77.18080166407994,1910.3,734.5714285714286,77.18080166407994,2013.9,734.5714285714286,77.18080166407994,2118.8,734.5714285714286,77.18080166407994,2223.4,734.5714285714286,77.18080166407994,2328.9,734.5714285714286,77.18080166407994,2439.1,734.5714285714286,77.18080166407994,2540.6,734.5714285714286,77.18080166407994,2641.7,734.5714285714286,77.18080166407994,2747.8,734.5714285714286,77.18080166407994,2851.3,734.5714285714286,77.18080166407994,2951.6,734.5714285714286,77.18080166407994,3053.1,734.5714285714286,77.18080166407994,3153.8,734.5714285714286,77.18080166407994,3258.6,734.5714285714286,77.18080166407994,3358.9,734.5714285714286,77.18080166407994,3461,734.5714285714286,77.18080166407994,3562.6,734.5714285714286,77.18080166407994,3669.4,734.5714285714286,77.18080166407994,3790.2,734.5714285714286,77.18080166407994,3895.2,734.5714285714286,77.18080166407994,3996.7,734.5714285714286,77.18080166407994,4104.9,734.5714285714286,77.18080166407994,4205.4,734.5714285714286,77.18080166407994,4308.1,734.5714285714286,77.18080166407994,4409.3,734.5714285714286,77.18080166407994,4519.9,734.5714285714286,77.18080166407994,4624.9,734.5714285714286,77.18080166407994,4730.2,734.5714285714286,77.18080166407994,4836.4,734.5714285714286,77.18080166407994,4938.5]","[1334.4,1334.4,1000,0,334.4,""smooth"",""up"",""up"",""good_move"",4705,3369,2980.7,1336,388.3,""smooth"",""up"",""up"",""good_move"",7463.5,2753.8,2415.2,4709.7,338.6,""smooth"",""right"",""right"",""good_move"",10510.7,3044.3,2700,7466.4,344.3,""smooth"",""right"",""right"",""good_move"",14160.6,3645.4,3279.7,10515.3,365.6,""oops"",""right"",""down"",""bad_move"",19737.3,5570,1838.3,17466.2,432.8,""oops"",""up"",""left"",""bad_move"",23457.1,3718.9,3282.8,19738.2,436.1,""smooth"",""up"",""up"",""good_move"",26204.9,2745.3,2309.9,23459.6,435.4,""smooth"",""up"",""up"",""good_move"",32934.6,6725.6,2761,29804,369.7,""smooth"",""right"",""right"",""good_move"",35926.4,2988.1,2555.8,32938.3,432.3,""oops"",""right"",""down"",""bad_move"",38931.3,3003.3,2638.2,35928.1,365.1,""smooth"",""right"",""right"",""good_move"",52415.4,13481.7,2606.1,49463.9,345.4,""smooth"",""up"",""up"",""good_move""]"
"7077","","<div style=""width:500px;"">
  <p>What determined the result of this run?</p>
  </div>","32","html-slider-response","29","862366","0.0-7.0-1.3","143","1","2025-08-06 08:55:02","36c45c0696341be0efffe67d72a12abb","41.13.146.236","Mozilla/5.0 (Windows NT 10.0; Win64; x64) AppleWebKit/537.36 (KHTML, like Gecko) Chrome/138.0.0.0 Safari/537.36","WebKit","Chrome","138.0.0.0","Windows","10.0","https://app.prolific.com/","en-ZA,en-GB;q=0.9,en-US;q=0.8,en;q=0.7,he;q=0.6,hi;q=0.5,ko;q=0.4,zu;q=0.3,zh-CN;q=0.2,zh;q=0.1","666c4699beb014a7b85ccea1","687a1a965b9f5b85a264363e","68931750ec0ca4895fca1c29","1","666c4699beb014a7b85ccea1","1","2025-08-06T09:09:28.013Z","","","","AttribQ","","","","","","","","","","","50","","","","","","","","","","","","","","","","","","","","","","","","","","",""
"5301","","<div style=""width:500px;"">
  <p>How much control did you have over the ball?</p>
  </div>","34","html-slider-response","30","867669","0.0-7.0-2.3","143","1","2025-08-06 08:55:02","36c45c0696341be0efffe67d72a12abb","41.13.146.236","Mozilla/5.0 (Windows NT 10.0; Win64; x64) AppleWebKit/537.36 (KHTML, like Gecko) Chrome/138.0.0.0 Safari/537.36","WebKit","Chrome","138.0.0.0","Windows","10.0","https://app.prolific.com/","en-ZA,en-GB;q=0.9,en-US;q=0.8,en;q=0.7,he;q=0.6,hi;q=0.5,ko;q=0.4,zu;q=0.3,zh-CN;q=0.2,zh;q=0.1","666c4699beb014a7b85ccea1","687a1a965b9f5b85a264363e","68931750ec0ca4895fca1c29","1","666c4699beb014a7b85ccea1","1","2025-08-06T09:09:33.317Z","","","","ControlQ","","","","","","","","","","","50","","","","","","","","","","","","","","","","","","","","","","","","","","",""
"4765","","<div style=""width:500px;"">
  <p>How would you describe your current emotional state?</p>
  </div>","37","html-slider-response","31","872441","0.0-7.0-3.3","143","1","2025-08-06 08:55:02","36c45c0696341be0efffe67d72a12abb","41.13.146.236","Mozilla/5.0 (Windows NT 10.0; Win64; x64) AppleWebKit/537.36 (KHTML, like Gecko) Chrome/138.0.0.0 Safari/537.36","WebKit","Chrome","138.0.0.0","Windows","10.0","https://app.prolific.com/","en-ZA,en-GB;q=0.9,en-US;q=0.8,en;q=0.7,he;q=0.6,hi;q=0.5,ko;q=0.4,zu;q=0.3,zh-CN;q=0.2,zh;q=0.1","666c4699beb014a7b85ccea1","687a1a965b9f5b85a264363e","68931750ec0ca4895fca1c29","1","666c4699beb014a7b85ccea1","1","2025-08-06T09:09:38.088Z","","","","StressQ","","","","","","","","","","","50","","","","","","","","","","","","","","","","","","","","","","","","","","",""
"5524","","<div style=""width:500px;"">
  <p>What best describes how you currently feel?</p>
  </div>","77","html-slider-response","32","877970","0.0-7.0-4.3","143","1","2025-08-06 08:55:02","36c45c0696341be0efffe67d72a12abb","41.13.146.236","Mozilla/5.0 (Windows NT 10.0; Win64; x64) AppleWebKit/537.36 (KHTML, like Gecko) Chrome/138.0.0.0 Safari/537.36","WebKit","Chrome","138.0.0.0","Windows","10.0","https://app.prolific.com/","en-ZA,en-GB;q=0.9,en-US;q=0.8,en;q=0.7,he;q=0.6,hi;q=0.5,ko;q=0.4,zu;q=0.3,zh-CN;q=0.2,zh;q=0.1","666c4699beb014a7b85ccea1","687a1a965b9f5b85a264363e","68931750ec0ca4895fca1c29","1","666c4699beb014a7b85ccea1","1","2025-08-06T09:09:43.618Z","","","","MotivationQ","","","","","","","","","","","50","","","","","","","","","","","","","","","","","","","","","","","","","","",""
"","","","","ctl-task-cpt","33","912046","0.0-7.0-0.4","143","1","2025-08-06 08:55:02","36c45c0696341be0efffe67d72a12abb","41.13.146.236","Mozilla/5.0 (Windows NT 10.0; Win64; x64) AppleWebKit/537.36 (KHTML, like Gecko) Chrome/138.0.0.0 Safari/537.36","WebKit","Chrome","138.0.0.0","Windows","10.0","https://app.prolific.com/","en-ZA,en-GB;q=0.9,en-US;q=0.8,en;q=0.7,he;q=0.6,hi;q=0.5,ko;q=0.4,zu;q=0.3,zh-CN;q=0.2,zh;q=0.1","666c4699beb014a7b85ccea1","687a1a965b9f5b85a264363e","68931750ec0ca4895fca1c29","1","666c4699beb014a7b85ccea1","1","2025-08-06T09:10:17.693Z","","","","","","","","","","","","","","","","win-only","3","g1:SW,g2:NE","0.6","5","0","880983.3","1534.8","6543.1","31041.7","1","4","4","6","2","4","4","25","21","0.1893939393939394","1202.2","3000","1535","[""up"",""right""]","{""num_key_presses"":6,""num_perfect"":4,""num_errors"":0,""num_randdir"":2,""num_randdir_good_moves"":2,""num_whilered"":0,""num_whileblue"":0,""num_blue"":2,""num_good_moves"":6}","[416.57142857142856,422.1808016640799,1.3,416.57142857142856,422.1808016640799,113.1,416.57142857142856,422.1808016640799,221.9,416.57142857142856,422.1808016640799,326.1,416.57142857142856,422.1808016640799,430.5,416.57142857142856,422.1808016640799,531.4,538.0714285714286,260.1808016640799,636,653.5714285714286,144.68080166407992,736.6,694.0714285714286,101.18080166407994,843.7,695.5714285714286,98.18080166407994,943.7,698.5714285714286,98.18080166407994,1047.3,698.5714285714286,98.18080166407994,1150.1,698.5714285714286,98.18080166407994,1254.4,698.5714285714286,98.18080166407994,1357.7,698.5714285714286,98.18080166407994,1470,698.5714285714286,98.18080166407994,1570.8,698.5714285714286,98.18080166407994,1674.7,698.5714285714286,98.18080166407994,1783.6,698.5714285714286,98.18080166407994,1888.8,698.5714285714286,98.18080166407994,1991.8,698.5714285714286,98.18080166407994,2103.6,698.5714285714286,98.18080166407994,2208.4,698.5714285714286,98.18080166407994,2317.7,698.5714285714286,98.18080166407994,2421,698.5714285714286,98.18080166407994,2522.3,698.5714285714286,98.18080166407994,2624,698.5714285714286,98.18080166407994,2726.6,698.5714285714286,98.18080166407994,2829.5,698.5714285714286,98.18080166407994,2932,698.5714285714286,98.18080166407994,3036.1,698.5714285714286,98.18080166407994,3138.7,698.5714285714286,98.18080166407994,3243.1,698.5714285714286,98.18080166407994,3349.5,698.5714285714286,98.18080166407994,3455.7,698.5714285714286,98.18080166407994,3559.2,698.5714285714286,98.18080166407994,3665.5,698.5714285714286,98.18080166407994,3769.8,698.5714285714286,98.18080166407994,3876,698.5714285714286,98.18080166407994,3981.5,698.5714285714286,98.18080166407994,4082.2,698.5714285714286,98.18080166407994,4183.9,698.5714285714286,98.18080166407994,4288.2,698.5714285714286,98.18080166407994,4400.3,698.5714285714286,98.18080166407994,4509.1,698.5714285714286,98.18080166407994,4612.1,698.5714285714286,98.18080166407994,4720.7,698.5714285714286,98.18080166407994,4822.8,698.5714285714286,98.18080166407994,4926.3]","[5158.7,5158.7,2760.2,2004.9,393.6,""oops"",""up"",""right"",""good_move"",8250,3088.7,2692.4,5161.3,396.3,""smooth"",""up"",""up"",""good_move"",14606.3,6355.4,2953.4,11255.3,397.6,""oops"",""up"",""up"",""good_move"",17172.8,2565.8,2131.9,14607,433.9,""smooth"",""right"",""right"",""good_move"",21046.2,3870.4,3509.2,17175.8,361.2,""smooth"",""right"",""right"",""good_move"",24364.1,3316.6,2932.1,21047.5,384.5,""smooth"",""up"",""up"",""good_move""]"
"6175","","<div style=""width:500px;"">
  <p>What determined the result of this run?</p>
  </div>","87","html-slider-response","34","918224","0.0-7.0-1.4","143","1","2025-08-06 08:55:02","36c45c0696341be0efffe67d72a12abb","41.13.146.236","Mozilla/5.0 (Windows NT 10.0; Win64; x64) AppleWebKit/537.36 (KHTML, like Gecko) Chrome/138.0.0.0 Safari/537.36","WebKit","Chrome","138.0.0.0","Windows","10.0","https://app.prolific.com/","en-ZA,en-GB;q=0.9,en-US;q=0.8,en;q=0.7,he;q=0.6,hi;q=0.5,ko;q=0.4,zu;q=0.3,zh-CN;q=0.2,zh;q=0.1","666c4699beb014a7b85ccea1","687a1a965b9f5b85a264363e","68931750ec0ca4895fca1c29","1","666c4699beb014a7b85ccea1","1","2025-08-06T09:10:23.871Z","","","","AttribQ","","","","","","","","","","","50","","","","","","","","","","","","","","","","","","","","","","","","","","",""
"5083","","<div style=""width:500px;"">
  <p>How much control did you have over the ball?</p>
  </div>","80","html-slider-response","35","923311","0.0-7.0-2.4","143","1","2025-08-06 08:55:02","36c45c0696341be0efffe67d72a12abb","41.13.146.236","Mozilla/5.0 (Windows NT 10.0; Win64; x64) AppleWebKit/537.36 (KHTML, like Gecko) Chrome/138.0.0.0 Safari/537.36","WebKit","Chrome","138.0.0.0","Windows","10.0","https://app.prolific.com/","en-ZA,en-GB;q=0.9,en-US;q=0.8,en;q=0.7,he;q=0.6,hi;q=0.5,ko;q=0.4,zu;q=0.3,zh-CN;q=0.2,zh;q=0.1","666c4699beb014a7b85ccea1","687a1a965b9f5b85a264363e","68931750ec0ca4895fca1c29","1","666c4699beb014a7b85ccea1","1","2025-08-06T09:10:28.959Z","","","","ControlQ","","","","","","","","","","","50","","","","","","","","","","","","","","","","","","","","","","","","","","",""
"5683","","<div style=""width:500px;"">
  <p>How would you describe your current emotional state?</p>
  </div>","15","html-slider-response","36","928999","0.0-7.0-3.4","143","1","2025-08-06 08:55:02","36c45c0696341be0efffe67d72a12abb","41.13.146.236","Mozilla/5.0 (Windows NT 10.0; Win64; x64) AppleWebKit/537.36 (KHTML, like Gecko) Chrome/138.0.0.0 Safari/537.36","WebKit","Chrome","138.0.0.0","Windows","10.0","https://app.prolific.com/","en-ZA,en-GB;q=0.9,en-US;q=0.8,en;q=0.7,he;q=0.6,hi;q=0.5,ko;q=0.4,zu;q=0.3,zh-CN;q=0.2,zh;q=0.1","666c4699beb014a7b85ccea1","687a1a965b9f5b85a264363e","68931750ec0ca4895fca1c29","1","666c4699beb014a7b85ccea1","1","2025-08-06T09:10:34.647Z","","","","StressQ","","","","","","","","","","","50","","","","","","","","","","","","","","","","","","","","","","","","","","",""
"35688","","<div style=""width:500px;"">
  <p>What best describes how you currently feel?</p>
  </div>","87","html-slider-response","37","964691","0.0-7.0-4.4","143","1","2025-08-06 08:55:02","36c45c0696341be0efffe67d72a12abb","41.13.146.236","Mozilla/5.0 (Windows NT 10.0; Win64; x64) AppleWebKit/537.36 (KHTML, like Gecko) Chrome/138.0.0.0 Safari/537.36","WebKit","Chrome","138.0.0.0","Windows","10.0","https://app.prolific.com/","en-ZA,en-GB;q=0.9,en-US;q=0.8,en;q=0.7,he;q=0.6,hi;q=0.5,ko;q=0.4,zu;q=0.3,zh-CN;q=0.2,zh;q=0.1","666c4699beb014a7b85ccea1","687a1a965b9f5b85a264363e","68931750ec0ca4895fca1c29","1","666c4699beb014a7b85ccea1","1","2025-08-06T09:11:10.338Z","","","","MotivationQ","","","","","","","","","","","50","","","","","","","","","","","","","","","","","","","","","","","","","","",""
"","","","","ctl-task-cpt","38","1021882","0.0-7.0-0.5","143","1","2025-08-06 08:55:02","36c45c0696341be0efffe67d72a12abb","41.13.146.236","Mozilla/5.0 (Windows NT 10.0; Win64; x64) AppleWebKit/537.36 (KHTML, like Gecko) Chrome/138.0.0.0 Safari/537.36","WebKit","Chrome","138.0.0.0","Windows","10.0","https://app.prolific.com/","en-ZA,en-GB;q=0.9,en-US;q=0.8,en;q=0.7,he;q=0.6,hi;q=0.5,ko;q=0.4,zu;q=0.3,zh-CN;q=0.2,zh;q=0.1","666c4699beb014a7b85ccea1","687a1a965b9f5b85a264363e","68931750ec0ca4895fca1c29","1","666c4699beb014a7b85ccea1","1","2025-08-06T09:12:07.529Z","","","","","","","","","","","","","","","","win-only","3","g1:SW,g2:NE","0.5","6","0","967696.8","1520","6522.1","54167.5","1","4","8","6","2","-8","-9","16","25","0.12121212121212122","1369.2","3000","-1790","[""up"",""right""]","{""num_key_presses"":12,""num_perfect"":5,""num_errors"":1,""num_randdir"":6,""num_randdir_good_moves"":3,""num_whilered"":0,""num_whileblue"":1,""num_blue"":4,""num_good_moves"":8}","[419.57142857142856,417.6808016640799,0.7,419.57142857142856,417.6808016640799,103.3,419.57142857142856,417.6808016640799,206.3,419.57142857142856,417.6808016640799,310.9,419.57142857142856,417.6808016640799,428.4,419.57142857142856,417.6808016640799,528.5,596.5714285714286,249.68080166407992,633.2,806.5714285714286,74.18080166407994,736,820.0714285714286,60.68080166407994,842.9,818.5714285714286,54.68080166407994,944.3,784.0714285714286,68.18080166407994,1045.9,779.5714285714286,71.18080166407994,1146.9,779.5714285714286,71.18080166407994,1248,779.5714285714286,71.18080166407994,1350.3,779.5714285714286,71.18080166407994,1458,779.5714285714286,71.18080166407994,1563.3,779.5714285714286,71.18080166407994,1671.7,779.5714285714286,71.18080166407994,1779.3,779.5714285714286,71.18080166407994,1894.9,779.5714285714286,71.18080166407994,1997.1,779.5714285714286,71.18080166407994,2102.4,779.5714285714286,71.18080166407994,2202.9,779.5714285714286,71.18080166407994,2302.9,779.5714285714286,71.18080166407994,2405.2,779.5714285714286,71.18080166407994,2508.1,779.5714285714286,71.18080166407994,2610.3,779.5714285714286,71.18080166407994,2717.9,779.5714285714286,71.18080166407994,2820.6,779.5714285714286,71.18080166407994,2927,779.5714285714286,71.18080166407994,3031,779.5714285714286,71.18080166407994,3131.2,779.5714285714286,71.18080166407994,3233,779.5714285714286,71.18080166407994,3340.2,779.5714285714286,71.18080166407994,3446.3,779.5714285714286,71.18080166407994,3554.2,779.5714285714286,71.18080166407994,3659.2,779.5714285714286,71.18080166407994,3764.3,779.5714285714286,71.18080166407994,3867.3,779.5714285714286,71.18080166407994,3967.7,779.5714285714286,71.18080166407994,4074.7,779.5714285714286,71.18080166407994,4176.4,779.5714285714286,71.18080166407994,4278.9,779.5714285714286,71.18080166407994,4385.1,779.5714285714286,71.18080166407994,4485.9,779.5714285714286,71.18080166407994,4593.7,779.5714285714286,71.18080166407994,4696.6,779.5714285714286,71.18080166407994,4804.6,779.5714285714286,71.18080166407994,4906.2]","[5128.6,5128.6,2763.9,2002,362.7,""oops"",""right"",""down"",""bad_move"",7782,2652.1,2162.1,5130,490,""smooth"",""right"",""right"",""good_move"",14752,6969.3,2526.7,11860.3,365.1,""smooth"",""right"",""right"",""good_move"",17262.7,2510.4,2051,14752.4,459.3,""oops"",""up"",""up"",""good_move"",20094.4,2830.2,2429.2,17264.3,400.9,""while_blue"",""up"",""left"",""bad_move"",23892.1,3795.5,3325.3,20096.7,470.1,""oops"",""up"",""right"",""good_move"",26783.3,2890.2,2438.2,23893.1,452,""smooth"",""up"",""up"",""good_move"",29015.7,2232,1803.7,26783.7,428.3,""smooth"",""up"",""up"",""good_move"",32391.9,3375.7,2969.5,29016.2,406.2,""smooth"",""right"",""right"",""good_move"",34620.9,2226.3,1809.8,32394.6,416.5,""oops"",""up"",""left"",""bad_move"",37981.6,3360.2,2997.7,34621.4,362.5,""oops"",""up"",""left"",""bad_move"",44761.9,6780,2755.7,41614.4,391.9,""oops"",""right"",""up"",""good_move""]"
"13358","","<div style=""width:500px;"">
  <p>What determined the result of this run?</p>
  </div>","91","html-slider-response","39","1035243","0.0-7.0-1.5","143","1","2025-08-06 08:55:02","36c45c0696341be0efffe67d72a12abb","41.13.146.236","Mozilla/5.0 (Windows NT 10.0; Win64; x64) AppleWebKit/537.36 (KHTML, like Gecko) Chrome/138.0.0.0 Safari/537.36","WebKit","Chrome","138.0.0.0","Windows","10.0","https://app.prolific.com/","en-ZA,en-GB;q=0.9,en-US;q=0.8,en;q=0.7,he;q=0.6,hi;q=0.5,ko;q=0.4,zu;q=0.3,zh-CN;q=0.2,zh;q=0.1","666c4699beb014a7b85ccea1","687a1a965b9f5b85a264363e","68931750ec0ca4895fca1c29","1","666c4699beb014a7b85ccea1","1","2025-08-06T09:12:20.891Z","","","","AttribQ","","","","","","","","","","","50","","","","","","","","","","","","","","","","","","","","","","","","","","",""
"7374","","<div style=""width:500px;"">
  <p>How much control did you have over the ball?</p>
  </div>","20","html-slider-response","40","1042624","0.0-7.0-2.5","143","1","2025-08-06 08:55:02","36c45c0696341be0efffe67d72a12abb","41.13.146.236","Mozilla/5.0 (Windows NT 10.0; Win64; x64) AppleWebKit/537.36 (KHTML, like Gecko) Chrome/138.0.0.0 Safari/537.36","WebKit","Chrome","138.0.0.0","Windows","10.0","https://app.prolific.com/","en-ZA,en-GB;q=0.9,en-US;q=0.8,en;q=0.7,he;q=0.6,hi;q=0.5,ko;q=0.4,zu;q=0.3,zh-CN;q=0.2,zh;q=0.1","666c4699beb014a7b85ccea1","687a1a965b9f5b85a264363e","68931750ec0ca4895fca1c29","1","666c4699beb014a7b85ccea1","1","2025-08-06T09:12:28.271Z","","","","ControlQ","","","","","","","","","","","50","","","","","","","","","","","","","","","","","","","","","","","","","","",""
"5327","","<div style=""width:500px;"">
  <p>How would you describe your current emotional state?</p>
  </div>","76","html-slider-response","41","1047953","0.0-7.0-3.5","143","1","2025-08-06 08:55:02","36c45c0696341be0efffe67d72a12abb","41.13.146.236","Mozilla/5.0 (Windows NT 10.0; Win64; x64) AppleWebKit/537.36 (KHTML, like Gecko) Chrome/138.0.0.0 Safari/537.36","WebKit","Chrome","138.0.0.0","Windows","10.0","https://app.prolific.com/","en-ZA,en-GB;q=0.9,en-US;q=0.8,en;q=0.7,he;q=0.6,hi;q=0.5,ko;q=0.4,zu;q=0.3,zh-CN;q=0.2,zh;q=0.1","666c4699beb014a7b85ccea1","687a1a965b9f5b85a264363e","68931750ec0ca4895fca1c29","1","666c4699beb014a7b85ccea1","1","2025-08-06T09:12:33.600Z","","","","StressQ","","","","","","","","","","","50","","","","","","","","","","","","","","","","","","","","","","","","","","",""
"5595","","<div style=""width:500px;"">
  <p>What best describes how you currently feel?</p>
  </div>","60","html-slider-response","42","1053551","0.0-7.0-4.5","143","1","2025-08-06 08:55:02","36c45c0696341be0efffe67d72a12abb","41.13.146.236","Mozilla/5.0 (Windows NT 10.0; Win64; x64) AppleWebKit/537.36 (KHTML, like Gecko) Chrome/138.0.0.0 Safari/537.36","WebKit","Chrome","138.0.0.0","Windows","10.0","https://app.prolific.com/","en-ZA,en-GB;q=0.9,en-US;q=0.8,en;q=0.7,he;q=0.6,hi;q=0.5,ko;q=0.4,zu;q=0.3,zh-CN;q=0.2,zh;q=0.1","666c4699beb014a7b85ccea1","687a1a965b9f5b85a264363e","68931750ec0ca4895fca1c29","1","666c4699beb014a7b85ccea1","1","2025-08-06T09:12:39.198Z","","","","MotivationQ","","","","","","","","","","","50","","","","","","","","","","","","","","","","","","","","","","","","","","",""
"","","","","ctl-task-cpt","43","1157690","0.0-7.0-0.6","143","1","2025-08-06 08:55:02","36c45c0696341be0efffe67d72a12abb","41.13.146.236","Mozilla/5.0 (Windows NT 10.0; Win64; x64) AppleWebKit/537.36 (KHTML, like Gecko) Chrome/138.0.0.0 Safari/537.36","WebKit","Chrome","138.0.0.0","Windows","10.0","https://app.prolific.com/","en-ZA,en-GB;q=0.9,en-US;q=0.8,en;q=0.7,he;q=0.6,hi;q=0.5,ko;q=0.4,zu;q=0.3,zh-CN;q=0.2,zh;q=0.1","666c4699beb014a7b85ccea1","687a1a965b9f5b85a264363e","68931750ec0ca4895fca1c29","1","666c4699beb014a7b85ccea1","1","2025-08-06T09:14:23.337Z","","","","","","","","","","","","","","","","win-only","3","g1:SW,g2:NE","0.4","7","0","1056560.7","1366.8","6376.6","101095.1","1","4","8","6","2","-8","-9","7","16","0.05303030303030303","1321.5","3000","-645","[""up"",""right""]","{""num_key_presses"":21,""num_perfect"":8,""num_errors"":1,""num_randdir"":12,""num_randdir_good_moves"":4,""num_whilered"":0,""num_whileblue"":0,""num_blue"":7,""num_good_moves"":12}","[419.57142857142856,411.6808016640799,1.6,419.57142857142856,411.6808016640799,101.1,419.57142857142856,411.6808016640799,207.8,419.57142857142856,411.6808016640799,335.4,419.57142857142856,411.6808016640799,444.9,439.07142857142856,380.1808016640799,549.8,596.5714285714286,200.18080166407992,662,667.0714285714286,149.18080166407992,773.1,686.5714285714286,137.18080166407992,881.3,707.5714285714286,119.18080166407994,983.9,716.5714285714286,110.18080166407994,1092.9,716.5714285714286,110.18080166407994,1206.6,716.5714285714286,110.18080166407994,1308.1,716.5714285714286,110.18080166407994,1410.6,716.5714285714286,110.18080166407994,1516.7,716.5714285714286,110.18080166407994,1623.4,716.5714285714286,110.18080166407994,1726.2,716.5714285714286,110.18080166407994,1833.5,716.5714285714286,110.18080166407994,1938,716.5714285714286,110.18080166407994,2039.3,716.5714285714286,110.18080166407994,2146.3,716.5714285714286,110.18080166407994,2247.1,716.5714285714286,110.18080166407994,2353.9,716.5714285714286,110.18080166407994,2454.9,716.5714285714286,110.18080166407994,2559.1,716.5714285714286,110.18080166407994,2664.8,716.5714285714286,110.18080166407994,2765.7,716.5714285714286,110.18080166407994,2866.8,716.5714285714286,110.18080166407994,2967.3,716.5714285714286,110.18080166407994,3074,716.5714285714286,110.18080166407994,3176.1,716.5714285714286,110.18080166407994,3283.4,716.5714285714286,110.18080166407994,3393.4,716.5714285714286,110.18080166407994,3499.6,716.5714285714286,110.18080166407994,3599.6,716.5714285714286,110.18080166407994,3702.4,716.5714285714286,110.18080166407994,3805.1,716.5714285714286,110.18080166407994,3912.6,716.5714285714286,110.18080166407994,4014.1,716.5714285714286,110.18080166407994,4123.5,716.5714285714286,110.18080166407994,4227.1,716.5714285714286,110.18080166407994,4327.8,716.5714285714286,110.18080166407994,4432.9,716.5714285714286,110.18080166407994,4535.9,716.5714285714286,110.18080166407994,4653.8,716.5714285714286,110.18080166407994,4756.4,716.5714285714286,110.18080166407994,4863.4,716.5714285714286,110.18080166407994,4966.4]","[1439.4,1439.4,1000,0,439.4,""smooth"",""up"",""up"",""good_move"",4728.9,3283.8,2860.4,1445.1,423.4,""smooth"",""up"",""up"",""good_move"",6958,2226.5,1813.5,4731.5,413,""oops"",""up"",""down"",""bad_move"",20961.3,14002,2555.1,17991.7,414.5,""oops"",""up"",""down"",""bad_move"",22997.9,2036.1,2620.1,20961.8,-583.9,""error"",""-"",""-"",""no_move"",27414.2,4415.8,2898.7,24008.5,507,""oops"",""up"",""down"",""bad_move"",30575.6,3161,2646.1,27414.7,514.8,""smooth"",""right"",""right"",""good_move"",33305.4,2726.8,2276.3,30578.6,450.5,""smooth"",""right"",""right"",""good_move"",36029,2723.2,2239.4,33305.9,483.7,""oops"",""right"",""right"",""good_move"",38653.1,2623.7,2130,36029.4,493.7,""oops"",""up"",""down"",""bad_move"",41150.9,2496.6,2067.2,38654.5,429.2,""oops"",""up"",""left"",""bad_move"",44917,3765.6,2228.2,41151.4,1537.4,""oops"",""up"",""up"",""good_move"",51385.9,6468.3,1642.5,49256.8,486.6,""smooth"",""up"",""up"",""good_move"",55406.4,4020.2,2707.3,51386.2,1312.9,""oops"",""up"",""right"",""good_move"",58061.4,2654.4,2164.1,55407,490.3,""smooth"",""up"",""up"",""good_move"",61944.8,3882.9,2273.1,58061.9,1609.8,""oops"",""up"",""left"",""bad_move"",66120.8,4175.3,2645.5,61945.5,1529.8,""oops"",""up"",""left"",""bad_move"",74293.7,8171.6,3215.1,70630.8,447.9,""smooth"",""right"",""right"",""good_move"",80646.5,6352.5,2309.5,77894.2,442.8,""smooth"",""right"",""right"",""good_move"",83256.8,2609.9,2171.1,80647,438.8,""oops"",""up"",""up"",""good_move"",91773.1,8515.9,3201.4,88137.7,434,""oops"",""up"",""down"",""bad_move""]"
"7390","","<div style=""width:500px;"">
  <p>What determined the result of this run?</p>
  </div>","99","html-slider-response","44","1165084","0.0-7.0-1.6","143","1","2025-08-06 08:55:02","36c45c0696341be0efffe67d72a12abb","41.13.146.236","Mozilla/5.0 (Windows NT 10.0; Win64; x64) AppleWebKit/537.36 (KHTML, like Gecko) Chrome/138.0.0.0 Safari/537.36","WebKit","Chrome","138.0.0.0","Windows","10.0","https://app.prolific.com/","en-ZA,en-GB;q=0.9,en-US;q=0.8,en;q=0.7,he;q=0.6,hi;q=0.5,ko;q=0.4,zu;q=0.3,zh-CN;q=0.2,zh;q=0.1","666c4699beb014a7b85ccea1","687a1a965b9f5b85a264363e","68931750ec0ca4895fca1c29","1","666c4699beb014a7b85ccea1","1","2025-08-06T09:14:30.731Z","","","","AttribQ","","","","","","","","","","","50","","","","","","","","","","","","","","","","","","","","","","","","","","",""
"8271","","<div style=""width:500px;"">
  <p>How much control did you have over the ball?</p>
  </div>","13","html-slider-response","45","1173364","0.0-7.0-2.6","143","1","2025-08-06 08:55:02","36c45c0696341be0efffe67d72a12abb","41.13.146.236","Mozilla/5.0 (Windows NT 10.0; Win64; x64) AppleWebKit/537.36 (KHTML, like Gecko) Chrome/138.0.0.0 Safari/537.36","WebKit","Chrome","138.0.0.0","Windows","10.0","https://app.prolific.com/","en-ZA,en-GB;q=0.9,en-US;q=0.8,en;q=0.7,he;q=0.6,hi;q=0.5,ko;q=0.4,zu;q=0.3,zh-CN;q=0.2,zh;q=0.1","666c4699beb014a7b85ccea1","687a1a965b9f5b85a264363e","68931750ec0ca4895fca1c29","1","666c4699beb014a7b85ccea1","1","2025-08-06T09:14:39.012Z","","","","ControlQ","","","","","","","","","","","50","","","","","","","","","","","","","","","","","","","","","","","","","","",""
"4841","","<div style=""width:500px;"">
  <p>How would you describe your current emotional state?</p>
  </div>","89","html-slider-response","46","1178219","0.0-7.0-3.6","143","1","2025-08-06 08:55:02","36c45c0696341be0efffe67d72a12abb","41.13.146.236","Mozilla/5.0 (Windows NT 10.0; Win64; x64) AppleWebKit/537.36 (KHTML, like Gecko) Chrome/138.0.0.0 Safari/537.36","WebKit","Chrome","138.0.0.0","Windows","10.0","https://app.prolific.com/","en-ZA,en-GB;q=0.9,en-US;q=0.8,en;q=0.7,he;q=0.6,hi;q=0.5,ko;q=0.4,zu;q=0.3,zh-CN;q=0.2,zh;q=0.1","666c4699beb014a7b85ccea1","687a1a965b9f5b85a264363e","68931750ec0ca4895fca1c29","1","666c4699beb014a7b85ccea1","1","2025-08-06T09:14:43.866Z","","","","StressQ","","","","","","","","","","","50","","","","","","","","","","","","","","","","","","","","","","","","","","",""
"6029","","<div style=""width:500px;"">
  <p>What best describes how you currently feel?</p>
  </div>","45","html-slider-response","47","1184256","0.0-7.0-4.6","143","1","2025-08-06 08:55:02","36c45c0696341be0efffe67d72a12abb","41.13.146.236","Mozilla/5.0 (Windows NT 10.0; Win64; x64) AppleWebKit/537.36 (KHTML, like Gecko) Chrome/138.0.0.0 Safari/537.36","WebKit","Chrome","138.0.0.0","Windows","10.0","https://app.prolific.com/","en-ZA,en-GB;q=0.9,en-US;q=0.8,en;q=0.7,he;q=0.6,hi;q=0.5,ko;q=0.4,zu;q=0.3,zh-CN;q=0.2,zh;q=0.1","666c4699beb014a7b85ccea1","687a1a965b9f5b85a264363e","68931750ec0ca4895fca1c29","1","666c4699beb014a7b85ccea1","1","2025-08-06T09:14:49.903Z","","","","MotivationQ","","","","","","","","","","","50","","","","","","","","","","","","","","","","","","","","","","","","","","",""
"","","","","ctl-task-cpt","48","1314213","0.0-7.0-0.7","143","1","2025-08-06 08:55:02","36c45c0696341be0efffe67d72a12abb","41.13.146.236","Mozilla/5.0 (Windows NT 10.0; Win64; x64) AppleWebKit/537.36 (KHTML, like Gecko) Chrome/138.0.0.0 Safari/537.36","WebKit","Chrome","138.0.0.0","Windows","10.0","https://app.prolific.com/","en-ZA,en-GB;q=0.9,en-US;q=0.8,en;q=0.7,he;q=0.6,hi;q=0.5,ko;q=0.4,zu;q=0.3,zh-CN;q=0.2,zh;q=0.1","666c4699beb014a7b85ccea1","687a1a965b9f5b85a264363e","68931750ec0ca4895fca1c29","1","666c4699beb014a7b85ccea1","1","2025-08-06T09:16:59.860Z","","","","","","","","","","","","","","","","win-only","1","g1:NE,g2:SW","0.3","8","0","1187266.3","1307.7","6334.8","126889.2","1","4","4","6","2","4","3","10","7","0.07575757575757576","1619.6","3000","1850","[""down"",""left""]","{""num_key_presses"":22,""num_perfect"":6,""num_errors"":1,""num_randdir"":15,""num_randdir_good_moves"":7,""num_whilered"":0,""num_whileblue"":1,""num_blue"":2,""num_good_moves"":14}","[413.57142857142856,407.1808016640799,0.4,413.57142857142856,407.1808016640799,105.9,413.57142857142856,407.1808016640799,242.4,413.57142857142856,407.1808016640799,360.5,413.57142857142856,407.1808016640799,514.7,413.57142857142856,407.1808016640799,649.2,413.57142857142856,407.1808016640799,776.8,296.57142857142856,554.1808016640799,938.7,185.57142857142856,680.1808016640799,1061.5,148.07142857142856,707.1808016640799,1173.7,104.57142857142857,728.1808016640799,1277,92.57142857142857,734.1808016640799,1417.2,92.57142857142857,734.1808016640799,1544.8,92.57142857142857,734.1808016640799,1647.7,92.57142857142857,734.1808016640799,1773,92.57142857142857,734.1808016640799,1908.4,92.57142857142857,734.1808016640799,2032.6,92.57142857142857,734.1808016640799,2152.6,92.57142857142857,734.1808016640799,2280.6,92.57142857142857,734.1808016640799,2402.6,92.57142857142857,734.1808016640799,2526.8,92.57142857142857,734.1808016640799,2648.1,92.57142857142857,734.1808016640799,2775.9,92.57142857142857,734.1808016640799,2903.8,92.57142857142857,734.1808016640799,3027.1,92.57142857142857,734.1808016640799,3158,92.57142857142857,734.1808016640799,3282.1,92.57142857142857,734.1808016640799,3406.9,92.57142857142857,734.1808016640799,3527.6,92.57142857142857,734.1808016640799,3646.5,92.57142857142857,734.1808016640799,3767,92.57142857142857,734.1808016640799,3888.2,92.57142857142857,734.1808016640799,4031.7,92.57142857142857,734.1808016640799,4161.4,92.57142857142857,734.1808016640799,4303.5,92.57142857142857,734.1808016640799,4434.5,92.57142857142857,734.1808016640799,4562.1,92.57142857142857,734.1808016640799,4688.1,92.57142857142857,734.1808016640799,4803.4,92.57142857142857,734.1808016640799,4919.2]","[1443.2,1443.2,1000,0,443.2,""smooth"",""down"",""down"",""good_move"",5021.2,3577.5,3080.8,1443.7,496.7,""smooth"",""down"",""down"",""good_move"",7762.7,2741.1,2287.3,5021.6,453.8,""smooth"",""left"",""left"",""good_move"",14907.6,7144.2,2455.1,7763.4,4689.1,""oops"",""left"",""down"",""good_move"",20479.8,5571.4,2358.3,17663.6,457.9,""oops"",""left"",""right"",""bad_move"",23272.3,2792.2,2277.4,20480.1,514.8,""oops"",""left"",""right"",""bad_move"",25731.7,2457.9,2003.9,23273.9,453.9,""oops"",""left"",""left"",""good_move"",32956.9,7224.8,3491,25732.1,3733.8,""oops"",""left"",""right"",""bad_move"",36541.6,3584.4,3172.4,32957.2,412,""oops"",""left"",""up"",""bad_move"",43664.1,7120.8,2731.5,36543.4,4389.2,""oops"",""down"",""left"",""good_move"",51179.5,7514.7,2615.9,43664.8,4898.8,""oops"",""down"",""down"",""good_move"",53900.9,2721.2,2093.7,51179.8,627.5,""oops"",""left"",""right"",""bad_move"",57189.2,3287.1,2784,53902.1,503.1,""oops"",""left"",""right"",""bad_move"",60683.3,3493.6,2965.2,57189.7,528.4,""smooth"",""left"",""left"",""good_move"",68145.6,7461.8,2137.2,60683.8,5324.6,""oops"",""left"",""up"",""bad_move"",75745.8,7599.8,7145.3,68146,454.5,""while_blue"",""down"",""left"",""good_move"",83731.1,7984.9,3394.1,75746.2,4590.8,""smooth"",""left"",""left"",""good_move"",91631.2,7899.7,2572.4,83731.5,5327.3,""oops"",""left"",""up"",""bad_move"",99378.2,7746.7,2169.1,91631.5,5577.6,""smooth"",""left"",""left"",""good_move"",107537.9,8159,2781.8,99378.9,5377.2,""oops"",""left"",""left"",""good_move"",115688.9,8150.5,1969.3,107538.4,6181.2,""oops"",""down"",""down"",""good_move"",119327.7,3638.3,3103.3,115689.4,535,""oops"",""down"",""down"",""good_move""]"
"6534","","<div style=""width:500px;"">
  <p>What determined the result of this run?</p>
  </div>","30","html-slider-response","49","1320753","0.0-7.0-1.7","143","1","2025-08-06 08:55:02","36c45c0696341be0efffe67d72a12abb","41.13.146.236","Mozilla/5.0 (Windows NT 10.0; Win64; x64) AppleWebKit/537.36 (KHTML, like Gecko) Chrome/138.0.0.0 Safari/537.36","WebKit","Chrome","138.0.0.0","Windows","10.0","https://app.prolific.com/","en-ZA,en-GB;q=0.9,en-US;q=0.8,en;q=0.7,he;q=0.6,hi;q=0.5,ko;q=0.4,zu;q=0.3,zh-CN;q=0.2,zh;q=0.1","666c4699beb014a7b85ccea1","687a1a965b9f5b85a264363e","68931750ec0ca4895fca1c29","1","666c4699beb014a7b85ccea1","1","2025-08-06T09:17:06.400Z","","","","AttribQ","","","","","","","","","","","50","","","","","","","","","","","","","","","","","","","","","","","","","","",""
"4243","","<div style=""width:500px;"">
  <p>How much control did you have over the ball?</p>
  </div>","6","html-slider-response","50","1325005","0.0-7.0-2.7","143","1","2025-08-06 08:55:02","36c45c0696341be0efffe67d72a12abb","41.13.146.236","Mozilla/5.0 (Windows NT 10.0; Win64; x64) AppleWebKit/537.36 (KHTML, like Gecko) Chrome/138.0.0.0 Safari/537.36","WebKit","Chrome","138.0.0.0","Windows","10.0","https://app.prolific.com/","en-ZA,en-GB;q=0.9,en-US;q=0.8,en;q=0.7,he;q=0.6,hi;q=0.5,ko;q=0.4,zu;q=0.3,zh-CN;q=0.2,zh;q=0.1","666c4699beb014a7b85ccea1","687a1a965b9f5b85a264363e","68931750ec0ca4895fca1c29","1","666c4699beb014a7b85ccea1","1","2025-08-06T09:17:10.652Z","","","","ControlQ","","","","","","","","","","","50","","","","","","","","","","","","","","","","","","","","","","","","","","",""
"4557","","<div style=""width:500px;"">
  <p>How would you describe your current emotional state?</p>
  </div>","89","html-slider-response","51","1329571","0.0-7.0-3.7","143","1","2025-08-06 08:55:02","36c45c0696341be0efffe67d72a12abb","41.13.146.236","Mozilla/5.0 (Windows NT 10.0; Win64; x64) AppleWebKit/537.36 (KHTML, like Gecko) Chrome/138.0.0.0 Safari/537.36","WebKit","Chrome","138.0.0.0","Windows","10.0","https://app.prolific.com/","en-ZA,en-GB;q=0.9,en-US;q=0.8,en;q=0.7,he;q=0.6,hi;q=0.5,ko;q=0.4,zu;q=0.3,zh-CN;q=0.2,zh;q=0.1","666c4699beb014a7b85ccea1","687a1a965b9f5b85a264363e","68931750ec0ca4895fca1c29","1","666c4699beb014a7b85ccea1","1","2025-08-06T09:17:15.218Z","","","","StressQ","","","","","","","","","","","50","","","","","","","","","","","","","","","","","","","","","","","","","","",""
"6927","","<div style=""width:500px;"">
  <p>What best describes how you currently feel?</p>
  </div>","43","html-slider-response","52","1336510","0.0-7.0-4.7","143","1","2025-08-06 08:55:02","36c45c0696341be0efffe67d72a12abb","41.13.146.236","Mozilla/5.0 (Windows NT 10.0; Win64; x64) AppleWebKit/537.36 (KHTML, like Gecko) Chrome/138.0.0.0 Safari/537.36","WebKit","Chrome","138.0.0.0","Windows","10.0","https://app.prolific.com/","en-ZA,en-GB;q=0.9,en-US;q=0.8,en;q=0.7,he;q=0.6,hi;q=0.5,ko;q=0.4,zu;q=0.3,zh-CN;q=0.2,zh;q=0.1","666c4699beb014a7b85ccea1","687a1a965b9f5b85a264363e","68931750ec0ca4895fca1c29","1","666c4699beb014a7b85ccea1","1","2025-08-06T09:17:22.157Z","","","","MotivationQ","","","","","","","","","","","50","","","","","","","","","","","","","","","","","","","","","","","","","","",""
"","","","","ctl-task-cpt","53","1497623","0.0-7.0-0.8","143","1","2025-08-06 08:55:02","36c45c0696341be0efffe67d72a12abb","41.13.146.236","Mozilla/5.0 (Windows NT 10.0; Win64; x64) AppleWebKit/537.36 (KHTML, like Gecko) Chrome/138.0.0.0 Safari/537.36","WebKit","Chrome","138.0.0.0","Windows","10.0","https://app.prolific.com/","en-ZA,en-GB;q=0.9,en-US;q=0.8,en;q=0.7,he;q=0.6,hi;q=0.5,ko;q=0.4,zu;q=0.3,zh-CN;q=0.2,zh;q=0.1","666c4699beb014a7b85ccea1","687a1a965b9f5b85a264363e","68931750ec0ca4895fca1c29","1","666c4699beb014a7b85ccea1","1","2025-08-06T09:20:03.270Z","","","","","","","","","","","","","","","","win-only","0","g1:NW,g2:SE","0.4","9","0","1339521.6","1481.5","6511.1","157996.1","1","4","4","6","2","4","4","14","10","0.10606060606060606","1762.7","3000","2275","[""down"",""right""]","{""num_key_presses"":22,""num_perfect"":9,""num_errors"":0,""num_randdir"":13,""num_randdir_good_moves"":7,""num_whilered"":0,""num_whileblue"":0,""num_blue"":5,""num_good_moves"":16}","[416.57142857142856,417.6808016640799,0.8,416.57142857142856,417.6808016640799,142.2,416.57142857142856,417.6808016640799,261.3,416.57142857142856,417.6808016640799,380.7,416.57142857142856,417.6808016640799,495.4,416.57142857142856,417.6808016640799,612.5,416.57142857142856,417.6808016640799,723.1,416.57142857142856,417.6808016640799,840.8,524.5714285714286,554.1808016640799,962.6,584.5714285714286,620.1808016640799,1087.7,656.5714285714286,686.1808016640799,1209.4,713.5714285714286,752.1808016640799,1330.8,779.5714285714286,782.1808016640799,1460.1,784.0714285714286,783.6808016640799,1575,784.0714285714286,783.6808016640799,1691.6,784.0714285714286,783.6808016640799,1811.8,784.0714285714286,783.6808016640799,1926.9,784.0714285714286,783.6808016640799,2044.6,784.0714285714286,783.6808016640799,2157.8,784.0714285714286,783.6808016640799,2273.3,784.0714285714286,783.6808016640799,2382.4,784.0714285714286,783.6808016640799,2489.1,784.0714285714286,783.6808016640799,2598.7,784.0714285714286,783.6808016640799,2723.2,784.0714285714286,783.6808016640799,2834,784.0714285714286,783.6808016640799,2946.8,784.0714285714286,783.6808016640799,3060.3,784.0714285714286,783.6808016640799,3174.8,784.0714285714286,783.6808016640799,3281.3,784.0714285714286,783.6808016640799,3389.2,784.0714285714286,783.6808016640799,3503.2,784.0714285714286,783.6808016640799,3612.9,784.0714285714286,783.6808016640799,3726.9,784.0714285714286,783.6808016640799,3836.8,784.0714285714286,783.6808016640799,3944.1,784.0714285714286,783.6808016640799,4052.6,784.0714285714286,783.6808016640799,4172,784.0714285714286,783.6808016640799,4288.7,784.0714285714286,783.6808016640799,4401.2,784.0714285714286,783.6808016640799,4515.4,784.0714285714286,783.6808016640799,4626.2,784.0714285714286,783.6808016640799,4742,784.0714285714286,783.6808016640799,4859.7,784.0714285714286,783.6808016640799,4972.2]","[1507.1,1507.1,1000,0,507.6,""oops"",""down"",""up"",""bad_move"",20190.1,18681,3201,16183.5,805.6,""smooth"",""down"",""down"",""good_move"",23751.5,3560.9,2645.4,20190.6,915.5,""smooth"",""right"",""right"",""good_move"",27332.1,3579.8,2947.4,23752.3,632.5,""oops"",""right"",""up"",""bad_move"",42308,14974.1,1008.2,27333.9,13965.9,""smooth"",""right"",""right"",""good_move"",45230.2,2921.8,2043.7,42308.4,878.1,""smooth"",""right"",""right"",""good_move"",51855.4,6624.9,2600.9,48521.9,732.7,""oops"",""down"",""up"",""bad_move"",66629.1,14773,2189.6,51856.2,12583.3,""oops"",""down"",""left"",""bad_move"",81676,15046,2347.7,66630,12698.3,""oops"",""down"",""left"",""bad_move"",96697.2,15020.9,2981.4,81676.4,12039.4,""oops"",""down"",""right"",""good_move"",99239.1,2541.6,1873.4,96697.5,668.2,""oops"",""down"",""right"",""good_move"",101864.2,2622.6,1978.9,99241.6,643.7,""oops"",""down"",""right"",""good_move"",104905.1,3038.7,2442.5,101866.5,596.2,""oops"",""down"",""down"",""good_move"",107873.9,2968.4,2339.7,104905.6,628.7,""smooth"",""down"",""down"",""good_move"",111187.2,3310.5,2562.3,107876.7,748.2,""oops"",""down"",""left"",""bad_move"",133184.6,21996.6,1983.5,130639.7,561.4,""smooth"",""down"",""down"",""good_move"",135979.9,2794.8,2080.4,133185.1,714.4,""smooth"",""down"",""down"",""good_move"",138553.3,2572.8,1924.6,135980.5,648.2,""oops"",""down"",""down"",""good_move"",141925.8,3371.9,2798.2,138553.9,573.7,""oops"",""down"",""down"",""good_move"",144923.9,2997.6,2383.9,141926.3,613.7,""smooth"",""right"",""right"",""good_move"",147996.1,3071.8,2469.3,144924.4,602.5,""oops"",""right"",""down"",""good_move"",151336.6,3339.8,2568.7,147996.8,771.1,""smooth"",""right"",""right"",""good_move""]"
"6893","","<div style=""width:500px;"">
  <p>What determined the result of this run?</p>
  </div>","57","html-slider-response","54","1504527","0.0-7.0-1.8","143","1","2025-08-06 08:55:02","36c45c0696341be0efffe67d72a12abb","41.13.146.236","Mozilla/5.0 (Windows NT 10.0; Win64; x64) AppleWebKit/537.36 (KHTML, like Gecko) Chrome/138.0.0.0 Safari/537.36","WebKit","Chrome","138.0.0.0","Windows","10.0","https://app.prolific.com/","en-ZA,en-GB;q=0.9,en-US;q=0.8,en;q=0.7,he;q=0.6,hi;q=0.5,ko;q=0.4,zu;q=0.3,zh-CN;q=0.2,zh;q=0.1","666c4699beb014a7b85ccea1","687a1a965b9f5b85a264363e","68931750ec0ca4895fca1c29","1","666c4699beb014a7b85ccea1","1","2025-08-06T09:20:10.174Z","","","","AttribQ","","","","","","","","","","","50","","","","","","","","","","","","","","","","","","","","","","","","","","",""
"4308","","<div style=""width:500px;"">
  <p>How much control did you have over the ball?</p>
  </div>","28","html-slider-response","55","1508851","0.0-7.0-2.8","143","1","2025-08-06 08:55:02","36c45c0696341be0efffe67d72a12abb","41.13.146.236","Mozilla/5.0 (Windows NT 10.0; Win64; x64) AppleWebKit/537.36 (KHTML, like Gecko) Chrome/138.0.0.0 Safari/537.36","WebKit","Chrome","138.0.0.0","Windows","10.0","https://app.prolific.com/","en-ZA,en-GB;q=0.9,en-US;q=0.8,en;q=0.7,he;q=0.6,hi;q=0.5,ko;q=0.4,zu;q=0.3,zh-CN;q=0.2,zh;q=0.1","666c4699beb014a7b85ccea1","687a1a965b9f5b85a264363e","68931750ec0ca4895fca1c29","1","666c4699beb014a7b85ccea1","1","2025-08-06T09:20:14.498Z","","","","ControlQ","","","","","","","","","","","50","","","","","","","","","","","","","","","","","","","","","","","","","","",""
"8697","","<div style=""width:500px;"">
  <p>How would you describe your current emotional state?</p>
  </div>","49","html-slider-response","56","1517562","0.0-7.0-3.8","143","1","2025-08-06 08:55:02","36c45c0696341be0efffe67d72a12abb","41.13.146.236","Mozilla/5.0 (Windows NT 10.0; Win64; x64) AppleWebKit/537.36 (KHTML, like Gecko) Chrome/138.0.0.0 Safari/537.36","WebKit","Chrome","138.0.0.0","Windows","10.0","https://app.prolific.com/","en-ZA,en-GB;q=0.9,en-US;q=0.8,en;q=0.7,he;q=0.6,hi;q=0.5,ko;q=0.4,zu;q=0.3,zh-CN;q=0.2,zh;q=0.1","666c4699beb014a7b85ccea1","687a1a965b9f5b85a264363e","68931750ec0ca4895fca1c29","1","666c4699beb014a7b85ccea1","1","2025-08-06T09:20:23.209Z","","","","StressQ","","","","","","","","","","","50","","","","","","","","","","","","","","","","","","","","","","","","","","",""
"4620","","<div style=""width:500px;"">
  <p>What best describes how you currently feel?</p>
  </div>","62","html-slider-response","57","1522195","0.0-7.0-4.8","143","1","2025-08-06 08:55:02","36c45c0696341be0efffe67d72a12abb","41.13.146.236","Mozilla/5.0 (Windows NT 10.0; Win64; x64) AppleWebKit/537.36 (KHTML, like Gecko) Chrome/138.0.0.0 Safari/537.36","WebKit","Chrome","138.0.0.0","Windows","10.0","https://app.prolific.com/","en-ZA,en-GB;q=0.9,en-US;q=0.8,en;q=0.7,he;q=0.6,hi;q=0.5,ko;q=0.4,zu;q=0.3,zh-CN;q=0.2,zh;q=0.1","666c4699beb014a7b85ccea1","687a1a965b9f5b85a264363e","68931750ec0ca4895fca1c29","1","666c4699beb014a7b85ccea1","1","2025-08-06T09:20:27.842Z","","","","MotivationQ","","","","","","","","","","","50","","","","","","","","","","","","","","","","","","","","","","","","","","",""
"","","","","ctl-task-cpt","58","1699096","0.0-7.0-0.9","143","1","2025-08-06 08:55:02","36c45c0696341be0efffe67d72a12abb","41.13.146.236","Mozilla/5.0 (Windows NT 10.0; Win64; x64) AppleWebKit/537.36 (KHTML, like Gecko) Chrome/138.0.0.0 Safari/537.36","WebKit","Chrome","138.0.0.0","Windows","10.0","https://app.prolific.com/","en-ZA,en-GB;q=0.9,en-US;q=0.8,en;q=0.7,he;q=0.6,hi;q=0.5,ko;q=0.4,zu;q=0.3,zh-CN;q=0.2,zh;q=0.1","666c4699beb014a7b85ccea1","687a1a965b9f5b85a264363e","68931750ec0ca4895fca1c29","1","666c4699beb014a7b85ccea1","1","2025-08-06T09:23:24.743Z","","","","","","","","","","","","","","","","win-only","3","g1:SW,g2:NE","0.5","10","0","1525209.7","1724.5","6800.3","173780.1","1","4","8","6","2","8","7","21","14","0.1590909090909091","1502.8","3000","2365","[""up"",""right""]","{""num_key_presses"":17,""num_perfect"":8,""num_errors"":1,""num_randdir"":8,""num_randdir_good_moves"":3,""num_whilered"":0,""num_whileblue"":0,""num_blue"":2,""num_good_moves"":11}","[419.57142857142856,411.6808016640799,1.3,419.57142857142856,411.6808016640799,220.4,419.57142857142856,411.6808016640799,324.1,419.57142857142856,411.6808016640799,429.1,419.57142857142856,411.6808016640799,529.9,419.57142857142856,411.6808016640799,718.5,518.5714285714286,276.6808016640799,928.3,674.5714285714286,105.68080166407994,1037,716.5714285714286,71.18080166407994,1139.2,722.5714285714286,65.18080166407994,1245.9,728.5714285714286,63.68080166407994,1461.6,728.5714285714286,63.68080166407994,1571,728.5714285714286,63.68080166407994,1796.3,728.5714285714286,63.68080166407994,1903.2,728.5714285714286,63.68080166407994,2008,728.5714285714286,63.68080166407994,2109,728.5714285714286,63.68080166407994,2309.7,728.5714285714286,63.68080166407994,2503.2,728.5714285714286,63.68080166407994,2603.9,728.5714285714286,63.68080166407994,2794.1,728.5714285714286,63.68080166407994,2989.7,728.5714285714286,63.68080166407994,3092.2,728.5714285714286,63.68080166407994,3293.1,728.5714285714286,63.68080166407994,3498.2,728.5714285714286,63.68080166407994,3695.1,728.5714285714286,63.68080166407994,3892.4,728.5714285714286,63.68080166407994,4091.2,728.5714285714286,63.68080166407994,4285.3,728.5714285714286,63.68080166407994,4480.3,728.5714285714286,63.68080166407994,4591.7,728.5714285714286,63.68080166407994,4785,728.5714285714286,63.68080166407994,4976.1]","[516.4,516.4,1000,0,-483.6,""error"",""-"",""-"",""no_move"",5084,4566.7,2713.9,1607.9,762.2,""oops"",""up"",""down"",""bad_move"",8677.6,3593.1,2789.4,5084.5,803.8,""smooth"",""up"",""up"",""good_move"",26042.2,17364.1,2281.1,8678.2,15082.9,""smooth"",""right"",""right"",""good_move"",30024.5,3981.8,3317.1,26042.8,664.6,""oops"",""right"",""left"",""bad_move"",51067.4,21041.9,2289.9,48021.2,756.3,""oops"",""up"",""down"",""bad_move"",54277,3209.1,2396.3,51068,812.7,""smooth"",""up"",""up"",""good_move"",71813.2,17535.7,2095.9,54277.5,15439.8,""smooth"",""up"",""up"",""good_move"",89386.8,17572.9,2676.8,71813.9,14896.1,""oops"",""right"",""up"",""good_move"",106872,17484.9,2272.9,89387.2,15211.9,""smooth"",""right"",""right"",""good_move"",110780.1,3907.6,3194.2,106872.5,713.4,""oops"",""right"",""down"",""bad_move"",118330.9,7550.2,2888.4,114712.4,730.1,""smooth"",""up"",""up"",""good_move"",136008,17675.7,2446.4,118332.3,15229.3,""oops"",""up"",""right"",""good_move"",139393.2,3384.9,2724.9,136008.4,660,""smooth"",""right"",""right"",""good_move"",142597,3203.2,2588.9,139393.8,614.3,""oops"",""right"",""left"",""bad_move"",160377.3,17778,2309.5,142599.3,15468.5,""smooth"",""right"",""right"",""good_move"",163353.4,2975.8,2265.8,160377.7,709.9,""oops"",""right"",""right"",""good_move""]"
"7649","","<div style=""width:500px;"">
  <p>What determined the result of this run?</p>
  </div>","75","html-slider-response","59","1706757","0.0-7.0-1.9","143","1","2025-08-06 08:55:02","36c45c0696341be0efffe67d72a12abb","41.13.146.236","Mozilla/5.0 (Windows NT 10.0; Win64; x64) AppleWebKit/537.36 (KHTML, like Gecko) Chrome/138.0.0.0 Safari/537.36","WebKit","Chrome","138.0.0.0","Windows","10.0","https://app.prolific.com/","en-ZA,en-GB;q=0.9,en-US;q=0.8,en;q=0.7,he;q=0.6,hi;q=0.5,ko;q=0.4,zu;q=0.3,zh-CN;q=0.2,zh;q=0.1","666c4699beb014a7b85ccea1","687a1a965b9f5b85a264363e","68931750ec0ca4895fca1c29","1","666c4699beb014a7b85ccea1","1","2025-08-06T09:23:32.404Z","","","","AttribQ","","","","","","","","","","","50","","","","","","","","","","","","","","","","","","","","","","","","","","",""
"10511","","<div style=""width:500px;"">
  <p>How much control did you have over the ball?</p>
  </div>","53","html-slider-response","60","1717282","0.0-7.0-2.9","143","1","2025-08-06 08:55:02","36c45c0696341be0efffe67d72a12abb","41.13.146.236","Mozilla/5.0 (Windows NT 10.0; Win64; x64) AppleWebKit/537.36 (KHTML, like Gecko) Chrome/138.0.0.0 Safari/537.36","WebKit","Chrome","138.0.0.0","Windows","10.0","https://app.prolific.com/","en-ZA,en-GB;q=0.9,en-US;q=0.8,en;q=0.7,he;q=0.6,hi;q=0.5,ko;q=0.4,zu;q=0.3,zh-CN;q=0.2,zh;q=0.1","666c4699beb014a7b85ccea1","687a1a965b9f5b85a264363e","68931750ec0ca4895fca1c29","1","666c4699beb014a7b85ccea1","1","2025-08-06T09:23:42.929Z","","","","ControlQ","","","","","","","","","","","50","","","","","","","","","","","","","","","","","","","","","","","","","","",""
"8857","","<div style=""width:500px;"">
  <p>How would you describe your current emotional state?</p>
  </div>","61","html-slider-response","61","1726155","0.0-7.0-3.9","143","1","2025-08-06 08:55:02","36c45c0696341be0efffe67d72a12abb","41.13.146.236","Mozilla/5.0 (Windows NT 10.0; Win64; x64) AppleWebKit/537.36 (KHTML, like Gecko) Chrome/138.0.0.0 Safari/537.36","WebKit","Chrome","138.0.0.0","Windows","10.0","https://app.prolific.com/","en-ZA,en-GB;q=0.9,en-US;q=0.8,en;q=0.7,he;q=0.6,hi;q=0.5,ko;q=0.4,zu;q=0.3,zh-CN;q=0.2,zh;q=0.1","666c4699beb014a7b85ccea1","687a1a965b9f5b85a264363e","68931750ec0ca4895fca1c29","1","666c4699beb014a7b85ccea1","1","2025-08-06T09:23:51.803Z","","","","StressQ","","","","","","","","","","","50","","","","","","","","","","","","","","","","","","","","","","","","","","",""
"5817","","<div style=""width:500px;"">
  <p>What best describes how you currently feel?</p>
  </div>","58","html-slider-response","62","1731987","0.0-7.0-4.9","143","1","2025-08-06 08:55:02","36c45c0696341be0efffe67d72a12abb","41.13.146.236","Mozilla/5.0 (Windows NT 10.0; Win64; x64) AppleWebKit/537.36 (KHTML, like Gecko) Chrome/138.0.0.0 Safari/537.36","WebKit","Chrome","138.0.0.0","Windows","10.0","https://app.prolific.com/","en-ZA,en-GB;q=0.9,en-US;q=0.8,en;q=0.7,he;q=0.6,hi;q=0.5,ko;q=0.4,zu;q=0.3,zh-CN;q=0.2,zh;q=0.1","666c4699beb014a7b85ccea1","687a1a965b9f5b85a264363e","68931750ec0ca4895fca1c29","1","666c4699beb014a7b85ccea1","1","2025-08-06T09:23:57.634Z","","","","MotivationQ","","","","","","","","","","","50","","","","","","","","","","","","","","","","","","","","","","","","","","",""
"","","","","ctl-task-cpt","63","2073146","0.0-7.0-0.10","143","1","2025-08-06 08:55:02","36c45c0696341be0efffe67d72a12abb","41.13.146.236","Mozilla/5.0 (Windows NT 10.0; Win64; x64) AppleWebKit/537.36 (KHTML, like Gecko) Chrome/138.0.0.0 Safari/537.36","WebKit","Chrome","138.0.0.0","Windows","10.0","https://app.prolific.com/","en-ZA,en-GB;q=0.9,en-US;q=0.8,en;q=0.7,he;q=0.6,hi;q=0.5,ko;q=0.4,zu;q=0.3,zh-CN;q=0.2,zh;q=0.1","666c4699beb014a7b85ccea1","687a1a965b9f5b85a264363e","68931750ec0ca4895fca1c29","1","666c4699beb014a7b85ccea1","1","2025-08-06T09:29:38.794Z","","","","","","","","","","","","","","","","win-only","0","g1:NW,g2:SE","0.6","11","0","1734999.8","1251","6353.8","338016.2","1","4","8","6","2","8","5","26","21","0.19696969696969696","1452.3","3000","2340","[""down"",""right""]","{""num_key_presses"":36,""num_perfect"":21,""num_errors"":3,""num_randdir"":12,""num_randdir_good_moves"":3,""num_whilered"":0,""num_whileblue"":2,""num_blue"":10,""num_good_moves"":24}","[413.57142857142856,408.6808016640799,0.3,413.57142857142856,408.6808016640799,393.7,413.57142857142856,408.6808016640799,537.6,413.57142857142856,408.6808016640799,654.1,487.07142857142856,479.1808016640799,783.7,683.5714285714286,653.1808016640799,932.5,802.0714285714286,764.1808016640799,1091.2,803.5714285714286,765.6808016640799,1229.5,802.0714285714286,762.6808016640799,1335.2,802.0714285714286,762.6808016640799,1453.6,802.0714285714286,762.6808016640799,1571.2,802.0714285714286,762.6808016640799,1687.5,802.0714285714286,762.6808016640799,1801.5,802.0714285714286,762.6808016640799,1915.9,802.0714285714286,762.6808016640799,2028.2,802.0714285714286,762.6808016640799,2158.3,802.0714285714286,762.6808016640799,2266.7,802.0714285714286,762.6808016640799,2373.8,802.0714285714286,762.6808016640799,2481,802.0714285714286,762.6808016640799,2589.1,802.0714285714286,762.6808016640799,2724.4,802.0714285714286,762.6808016640799,2829.3,802.0714285714286,762.6808016640799,2940.1,802.0714285714286,762.6808016640799,3051.9,802.0714285714286,762.6808016640799,3166,802.0714285714286,762.6808016640799,3282.7,802.0714285714286,762.6808016640799,3392.8,802.0714285714286,762.6808016640799,3505.2,802.0714285714286,762.6808016640799,3620.3,802.0714285714286,762.6808016640799,3745,802.0714285714286,762.6808016640799,3854.4,802.0714285714286,762.6808016640799,3969.3,802.0714285714286,762.6808016640799,4077.7,802.0714285714286,762.6808016640799,4196.3,802.0714285714286,762.6808016640799,4314.6,802.0714285714286,762.6808016640799,4426.9,802.0714285714286,762.6808016640799,4536.8,802.0714285714286,762.6808016640799,4649,802.0714285714286,762.6808016640799,4761.7,802.0714285714286,762.6808016640799,4880.2,802.0714285714286,762.6808016640799,4989.8]","[1519.3,1519.3,1000,0,519.4,""oops"",""right"",""down"",""good_move"",5232,3712.2,3108.1,1519.8,604.1,""smooth"",""right"",""right"",""good_move"",7598,2365.5,1804.9,5232.5,560.6,""smooth"",""right"",""right"",""good_move"",10970.5,3371.8,2839,7598.7,532.8,""oops"",""right"",""left"",""bad_move"",30899.8,19928.1,2263.3,10971.7,17664.8,""smooth"",""down"",""down"",""good_move"",33660,2759.8,2182.7,30900.3,577,""smooth"",""down"",""down"",""good_move"",37162,3501.4,2810.5,33660.6,690.9,""oops"",""right"",""up"",""bad_move"",57305.5,20143,2390.6,37162.5,17752.4,""oops"",""down"",""left"",""bad_move"",77567.2,20261.3,19741.7,57305.9,519.6,""while_blue"",""down"",""left"",""bad_move"",97981.7,20413.9,3239.6,77567.8,17174.3,""smooth"",""down"",""down"",""good_move"",101872.6,3890.4,3337.5,97982.2,552.9,""smooth"",""down"",""down"",""good_move"",108082.2,6208.9,2526.2,104895.8,660.2,""smooth"",""right"",""right"",""good_move"",111306.5,3223.9,2464.6,108082.6,759.3,""smooth"",""right"",""right"",""good_move"",113902.1,2594.9,2009.9,111307.2,585,""smooth"",""right"",""right"",""good_move"",117489.4,3586.6,2991.2,113902.8,595.4,""smooth"",""right"",""right"",""good_move"",120370.5,2880.4,2182.4,117490.1,698,""oops"",""right"",""left"",""bad_move"",141283,20911.8,2723.1,120371.2,18188.7,""oops"",""right"",""right"",""good_move"",148403.1,7119.6,2426.8,145323.9,652.4,""oops"",""right"",""left"",""bad_move"",175627.1,27223.7,2106.8,172890.9,629.4,""smooth"",""right"",""right"",""good_move"",181860.9,6232,1578.2,179599.3,683.5,""oops"",""right"",""left"",""bad_move"",207453.5,25592.2,3259.9,203501.4,692.2,""smooth"",""right"",""right"",""good_move"",218986.6,11532.7,2317.8,215941,727.8,""oops"",""right"",""left"",""bad_move"",240241.8,21254.8,1870.3,218987,19384.5,""oops"",""right"",""left"",""bad_move"",261496.1,21253.5,2748.2,240242.6,18505.3,""smooth"",""right"",""right"",""good_move"",264711.2,3214,2469.5,261497.3,744.4,""smooth"",""right"",""right"",""good_move"",267464.9,2753.2,2188.9,264711.7,564.3,""smooth"",""right"",""right"",""good_move"",270506.3,3039.3,2400.3,267467,639,""smooth"",""right"",""right"",""good_move"",273077.8,2570.8,1966.3,270507,604.5,""oops"",""right"",""left"",""bad_move"",294377.1,21298.7,2597.2,273078.4,18701.5,""smooth"",""right"",""right"",""good_move"",296947.8,2569.9,2060.9,294377.9,509,""smooth"",""right"",""right"",""good_move"",300153.1,3202.6,2721.3,296950.5,481.3,""oops"",""right"",""right"",""good_move"",303176.6,3022.9,2445.7,300153.7,577.2,""smooth"",""right"",""right"",""good_move"",305673.1,2496.1,2014.9,303177.2,481.1,""while_blue"",""right"",""left"",""bad_move"",305857.1,183.4,2407.5,305673.7,-2224.1,""error"",""-"",""-"",""no_move"",327069.5,21212.4,1998.7,306950.3,18120.6,""smooth"",""right"",""right"",""good_move"",329748.2,2677.7,2070.3,327070.5,607.4,""smooth"",""right"",""right"",""good_move""]"
"7241","","<div style=""width:500px;"">
  <p>What determined the result of this run?</p>
  </div>","11","html-slider-response","64","2080398","0.0-7.0-1.10","143","1","2025-08-06 08:55:02","36c45c0696341be0efffe67d72a12abb","41.13.146.236","Mozilla/5.0 (Windows NT 10.0; Win64; x64) AppleWebKit/537.36 (KHTML, like Gecko) Chrome/138.0.0.0 Safari/537.36","WebKit","Chrome","138.0.0.0","Windows","10.0","https://app.prolific.com/","en-ZA,en-GB;q=0.9,en-US;q=0.8,en;q=0.7,he;q=0.6,hi;q=0.5,ko;q=0.4,zu;q=0.3,zh-CN;q=0.2,zh;q=0.1","666c4699beb014a7b85ccea1","687a1a965b9f5b85a264363e","68931750ec0ca4895fca1c29","1","666c4699beb014a7b85ccea1","1","2025-08-06T09:29:46.046Z","","","","AttribQ","","","","","","","","","","","50","","","","","","","","","","","","","","","","","","","","","","","","","","",""
"7740","","<div style=""width:500px;"">
  <p>How much control did you have over the ball?</p>
  </div>","4","html-slider-response","65","2088155","0.0-7.0-2.10","143","1","2025-08-06 08:55:02","36c45c0696341be0efffe67d72a12abb","41.13.146.236","Mozilla/5.0 (Windows NT 10.0; Win64; x64) AppleWebKit/537.36 (KHTML, like Gecko) Chrome/138.0.0.0 Safari/537.36","WebKit","Chrome","138.0.0.0","Windows","10.0","https://app.prolific.com/","en-ZA,en-GB;q=0.9,en-US;q=0.8,en;q=0.7,he;q=0.6,hi;q=0.5,ko;q=0.4,zu;q=0.3,zh-CN;q=0.2,zh;q=0.1","666c4699beb014a7b85ccea1","687a1a965b9f5b85a264363e","68931750ec0ca4895fca1c29","1","666c4699beb014a7b85ccea1","1","2025-08-06T09:29:53.802Z","","","","ControlQ","","","","","","","","","","","50","","","","","","","","","","","","","","","","","","","","","","","","","","",""
"7378","","<div style=""width:500px;"">
  <p>How would you describe your current emotional state?</p>
  </div>","97","html-slider-response","66","2095549","0.0-7.0-3.10","143","1","2025-08-06 08:55:02","36c45c0696341be0efffe67d72a12abb","41.13.146.236","Mozilla/5.0 (Windows NT 10.0; Win64; x64) AppleWebKit/537.36 (KHTML, like Gecko) Chrome/138.0.0.0 Safari/537.36","WebKit","Chrome","138.0.0.0","Windows","10.0","https://app.prolific.com/","en-ZA,en-GB;q=0.9,en-US;q=0.8,en;q=0.7,he;q=0.6,hi;q=0.5,ko;q=0.4,zu;q=0.3,zh-CN;q=0.2,zh;q=0.1","666c4699beb014a7b85ccea1","687a1a965b9f5b85a264363e","68931750ec0ca4895fca1c29","1","666c4699beb014a7b85ccea1","1","2025-08-06T09:30:01.196Z","","","","StressQ","","","","","","","","","","","50","","","","","","","","","","","","","","","","","","","","","","","","","","",""
"6321","","<div style=""width:500px;"">
  <p>What best describes how you currently feel?</p>
  </div>","32","html-slider-response","67","2101888","0.0-7.0-4.10","143","1","2025-08-06 08:55:02","36c45c0696341be0efffe67d72a12abb","41.13.146.236","Mozilla/5.0 (Windows NT 10.0; Win64; x64) AppleWebKit/537.36 (KHTML, like Gecko) Chrome/138.0.0.0 Safari/537.36","WebKit","Chrome","138.0.0.0","Windows","10.0","https://app.prolific.com/","en-ZA,en-GB;q=0.9,en-US;q=0.8,en;q=0.7,he;q=0.6,hi;q=0.5,ko;q=0.4,zu;q=0.3,zh-CN;q=0.2,zh;q=0.1","666c4699beb014a7b85ccea1","687a1a965b9f5b85a264363e","68931750ec0ca4895fca1c29","1","666c4699beb014a7b85ccea1","1","2025-08-06T09:30:07.535Z","","","","MotivationQ","","","","","","","","","","","50","","","","","","","","","","","","","","","","","","","","","","","","","","",""
"","","","","ctl-task-cpt","68","2239994","0.0-7.0-0.11","143","1","2025-08-06 08:55:02","36c45c0696341be0efffe67d72a12abb","41.13.146.236","Mozilla/5.0 (Windows NT 10.0; Win64; x64) AppleWebKit/537.36 (KHTML, like Gecko) Chrome/138.0.0.0 Safari/537.36","WebKit","Chrome","138.0.0.0","Windows","10.0","https://app.prolific.com/","en-ZA,en-GB;q=0.9,en-US;q=0.8,en;q=0.7,he;q=0.6,hi;q=0.5,ko;q=0.4,zu;q=0.3,zh-CN;q=0.2,zh;q=0.1","666c4699beb014a7b85ccea1","687a1a965b9f5b85a264363e","68931750ec0ca4895fca1c29","1","666c4699beb014a7b85ccea1","1","2025-08-06T09:32:25.641Z","","","","","","","","","","","","","","","","win-only","1","g1:NE,g2:SW","0.7","12","0","2104904.6","1384.9","6507.5","134900.1","1","4","4","6","2","4","4","30","26","0.22727272727272727","1577.5","3000","2815","[""down"",""left""]","{""num_key_presses"":11,""num_perfect"":8,""num_errors"":0,""num_randdir"":3,""num_randdir_good_moves"":2,""num_whilered"":0,""num_whileblue"":0,""num_blue"":0,""num_good_moves"":10}","[416.57142857142856,413.1808016640799,0.3,416.57142857142856,413.1808016640799,210.3,416.57142857142856,413.1808016640799,396.4,416.57142857142856,413.1808016640799,557.5,392.57142857142856,452.1808016640799,690.5,136.07142857142856,702.6808016640799,1124.1,113.57142857142857,726.6808016640799,1278.1,110.57142857142857,728.1808016640799,1410.5,110.57142857142857,728.1808016640799,1543.1,110.57142857142857,728.1808016640799,1677.7,110.57142857142857,728.1808016640799,1816.5,110.57142857142857,728.1808016640799,1945.8,110.57142857142857,728.1808016640799,2076.1,110.57142857142857,728.1808016640799,2211.8,110.57142857142857,728.1808016640799,2341.7,110.57142857142857,728.1808016640799,2470.5,110.57142857142857,728.1808016640799,2597.6,110.57142857142857,728.1808016640799,2729.8,110.57142857142857,728.1808016640799,2866.6,110.57142857142857,728.1808016640799,2990.8,110.57142857142857,728.1808016640799,3127.4,110.57142857142857,728.1808016640799,3266,110.57142857142857,728.1808016640799,3397.6,110.57142857142857,728.1808016640799,3533.5,110.57142857142857,728.1808016640799,3667.6,110.57142857142857,728.1808016640799,3806.8,110.57142857142857,728.1808016640799,3939.1,110.57142857142857,728.1808016640799,4079,110.57142857142857,728.1808016640799,4223.3,110.57142857142857,728.1808016640799,4361.5,110.57142857142857,728.1808016640799,4520,110.57142857142857,728.1808016640799,4671.9,110.57142857142857,728.1808016640799,4824.2,110.57142857142857,728.1808016640799,4979.1]","[1534.2,1534.2,1000,0,534.2,""smooth"",""down"",""down"",""good_move"",4384.8,2850.2,2150.1,1534.6,700.1,""smooth"",""down"",""down"",""good_move"",7535,3149.6,2593.1,4385.5,556.4,""smooth"",""down"",""down"",""good_move"",10596.8,3061.2,2543.3,7535.6,517.9,""oops"",""left"",""up"",""bad_move"",34537.8,23940.4,2765,10597.4,21175.4,""smooth"",""left"",""left"",""good_move"",58496.2,23957.9,2613.6,34538.3,21344.3,""smooth"",""left"",""left"",""good_move"",84178.7,25682.2,2899.6,58496.7,22782.5,""smooth"",""down"",""down"",""good_move"",87766.1,3587,2931,84179.1,656,""oops"",""down"",""left"",""good_move"",120477.5,32711,1953.6,87766.5,30757.4,""smooth"",""down"",""down"",""good_move"",124388.9,3911.1,3080.6,120477.9,830.4,""oops"",""down"",""down"",""good_move"",127445,3055.7,2205.2,124389.3,850.5,""smooth"",""down"",""down"",""good_move""]"
"6032","","<div style=""width:500px;"">
  <p>What determined the result of this run?</p>
  </div>","88","html-slider-response","69","2246041","0.0-7.0-1.11","143","1","2025-08-06 08:55:02","36c45c0696341be0efffe67d72a12abb","41.13.146.236","Mozilla/5.0 (Windows NT 10.0; Win64; x64) AppleWebKit/537.36 (KHTML, like Gecko) Chrome/138.0.0.0 Safari/537.36","WebKit","Chrome","138.0.0.0","Windows","10.0","https://app.prolific.com/","en-ZA,en-GB;q=0.9,en-US;q=0.8,en;q=0.7,he;q=0.6,hi;q=0.5,ko;q=0.4,zu;q=0.3,zh-CN;q=0.2,zh;q=0.1","666c4699beb014a7b85ccea1","687a1a965b9f5b85a264363e","68931750ec0ca4895fca1c29","1","666c4699beb014a7b85ccea1","1","2025-08-06T09:32:31.688Z","","","","AttribQ","","","","","","","","","","","50","","","","","","","","","","","","","","","","","","","","","","","","","","",""
"4774","","<div style=""width:500px;"">
  <p>How much control did you have over the ball?</p>
