"rt","response_timestamp","stimulus","response","trial_type","trial_index","time_elapsed","internal_node_id","run_id","condition","recorded_at","source_code_version","ip","user_agent","device","browser","browser_version","platform","platform_version","referer","accept_language","PROLIFIC_PID","STUDY_ID","SESSION_ID","BATCH","prolific_id","batch","realtime","success","question_order","question_id","eventType","responses","item_order","radio_event_ids","radio_event_times","key_event_times","mouse_event_times","straightlining","zigzagging","honeypot","view_history","slider_start","which_type","canvas_config","goals_layout","control_level","trial_number","tutorial_trial_number","trial_start_time","phase1_start_time","phase2_start_time","phase3_start_time","goal_1_value","goal_1_distance","goal_2_value","goal_2_distance","goal_selected","outcome","outcome_total","participant_final_score","participant_initial_score","participant_final_score_prop","goal_choice_rt","allocated_time","allocated_time_remaining","goal_direction","counts","mouse_movements","key_presses"
"66444","1753864891772","<p style='font-size:40px;line-height:1.25'><strong>Welcome to the experiment!</strong></p><p style='font-size:1.1em;line-height:1.25'>Thank you for participanting in our experiment again! You will be asked to play the Dysfunctional Ball Game again. We will briefly recap the rules before we start.</p><p style='font-size:1.1em;line-height:1.25'>Press <strong>Next</strong> to continue.</p>","0","custom-html-button-response","0","66445","0.0-0.0","25","1","2025-07-30 08:40:24","36c45c0696341be0efffe67d72a12abb","90.196.11.108","Mozilla/5.0 (Macintosh; Intel Mac OS X 10_15_7) AppleWebKit/537.36 (KHTML, like Gecko) Chrome/138.0.0.0 Safari/537.36","Macintosh","Chrome","138.0.0.0","OS X","10_15_7","https://app.prolific.com/","en-GB,en-US;q=0.9,en;q=0.8","66742c4307bb2004831faaef","687a360dabe5252b5ada7185","6889da6fc3ba7af97f601b3e","0","66742c4307bb2004831faaef","0","2025-07-30T08:41:31.773Z","","","","","","","","","","","","","","","","","","","","","","","","","","","","","","","","","","","","","","","","","",""
"22232","","","","fullscreen","1","89679","0.0-1.0","25","1","2025-07-30 08:40:24","36c45c0696341be0efffe67d72a12abb","90.196.11.108","Mozilla/5.0 (Macintosh; Intel Mac OS X 10_15_7) AppleWebKit/537.36 (KHTML, like Gecko) Chrome/138.0.0.0 Safari/537.36","Macintosh","Chrome","138.0.0.0","OS X","10_15_7","https://app.prolific.com/","en-GB,en-US;q=0.9,en;q=0.8","66742c4307bb2004831faaef","687a360dabe5252b5ada7185","6889da6fc3ba7af97f601b3e","0","66742c4307bb2004831faaef","0","","true","","","","","","","","","","","","","","","","","","","","","","","","","","","","","","","","","","","","","","","","",""
"5772","1753864920780"," <p style='font-size:1.1em;line-height:1.25'>Thank you for closing all other tabs.</p><p style='font-size:1.1em;line-height:1.25'>We will now invite you to fill in some questionnaires, before starting the game.<br>This will take about 5 minutes.<br></p><p style='font-size:1.1em;line-height:1.25'>Press the <strong>Next</strong> button to continue.</p>","0","custom-html-button-response","2","95452","0.0-2.0","25","1","2025-07-30 08:40:24","36c45c0696341be0efffe67d72a12abb","90.196.11.108","Mozilla/5.0 (Macintosh; Intel Mac OS X 10_15_7) AppleWebKit/537.36 (KHTML, like Gecko) Chrome/138.0.0.0 Safari/537.36","Macintosh","Chrome","138.0.0.0","OS X","10_15_7","https://app.prolific.com/","en-GB,en-US;q=0.9,en;q=0.8","66742c4307bb2004831faaef","687a360dabe5252b5ada7185","6889da6fc3ba7af97f601b3e","0","66742c4307bb2004831faaef","0","2025-07-30T08:42:00.780Z","","","","","","","","","","","","","","","","","","","","","","","","","","","","","","","","","","","","","","","","","",""
"2139","","","{""assigned_sex"":""female""}","survey-multi-choice","3","97594","0.0-3.0-0.0","25","1","2025-07-30 08:40:24","36c45c0696341be0efffe67d72a12abb","90.196.11.108","Mozilla/5.0 (Macintosh; Intel Mac OS X 10_15_7) AppleWebKit/537.36 (KHTML, like Gecko) Chrome/138.0.0.0 Safari/537.36","Macintosh","Chrome","138.0.0.0","OS X","10_15_7","https://app.prolific.com/","en-GB,en-US;q=0.9,en;q=0.8","66742c4307bb2004831faaef","687a360dabe5252b5ada7185","6889da6fc3ba7af97f601b3e","0","66742c4307bb2004831faaef","0","","","[0]","0","demographics","","","","","","","","","","","","","","","","","","","","","","","","","","","","","","","","","","","","","",""
"2309","1753864925231","<p style='font-size:1.1em;line-height:1.25'>In the following, we will perform a baseline assessment. This means that we will ask you a few questions relating to your experiences over the past month.<br></p><p style='font-size:1.1em;line-height:1.25'>Press the <strong>Next</strong> button to continue.</p>","0","custom-html-button-response","4","99904","0.0-4.0-0.0","25","1","2025-07-30 08:40:24","36c45c0696341be0efffe67d72a12abb","90.196.11.108","Mozilla/5.0 (Macintosh; Intel Mac OS X 10_15_7) AppleWebKit/537.36 (KHTML, like Gecko) Chrome/138.0.0.0 Safari/537.36","Macintosh","Chrome","138.0.0.0","OS X","10_15_7","https://app.prolific.com/","en-GB,en-US;q=0.9,en;q=0.8","66742c4307bb2004831faaef","687a360dabe5252b5ada7185","6889da6fc3ba7af97f601b3e","0","66742c4307bb2004831faaef","0","2025-07-30T08:42:05.232Z","","","","","","","","","","","","","","","","","","","","","","","","","","","","","","","","","","","","","","","","","",""
"133712.8999999985","","","","survey-template","5","233617","0.0-4.0-1.0","25","1","2025-07-30 08:40:24","36c45c0696341be0efffe67d72a12abb","90.196.11.108","Mozilla/5.0 (Macintosh; Intel Mac OS X 10_15_7) AppleWebKit/537.36 (KHTML, like Gecko) Chrome/138.0.0.0 Safari/537.36","Macintosh","Chrome","138.0.0.0","OS X","10_15_7","https://app.prolific.com/","en-GB,en-US;q=0.9,en;q=0.8","66742c4307bb2004831faaef","687a360dabe5252b5ada7185","6889da6fc3ba7af97f601b3e","0","66742c4307bb2004831faaef","0","2025-07-30T08:44:18.945Z","","","","pss","{""Q01"":""2"",""Q02"":""2"",""Q03"":""3"",""Q04"":""2"",""Q05"":""2"",""Q06"":""2"",""Q07"":""3"",""Q08"":""2"",""Q09"":""2"",""Q10"":""1""}","[0,1,2,3,4,5,6,7,8,9]","[""Q01"",""Q02"",""Q03"",""Q04"",""Q05"",""Q10"",""Q09"",""Q08"",""Q06"",""Q07"",""Q10"",""Q07"",""Q02""]","[17803.39999999851,24509,69707.30000000447,74452.20000000298,77990,79900.5,80409.80000000447,81510.60000000149,85373.89999999851,91202.30000000447,92570.89999999851,109233.20000000298,131810.3999999985]","[]","[0.10000000149011612,16927.30000000447,17803.39999999851,23417.89999999851,24509,69707.30000000447,70579.70000000298,74452.20000000298,77990,79900.5,80409.80000000447,81510.60000000149,82591.30000000447,83603.10000000149,84882.39999999851,85373.89999999851,86226.60000000149,91202.30000000447,92570.89999999851,109233.20000000298,131810.3999999985,133710.6000000015]","0.7","0.5555555555555556","0","","","","","","","","","","","","","","","","","","","","","","","","","","","","",""
"38468","1753865097412","<p style='font-size:1.1em;line-height:1.25'>Thank you for your answers! Now we will ask you a few more questions relating to your feelings in the last 24 hours.<br></p><p style='font-size:1.1em;line-height:1.25'>Press the <strong>Next</strong> button to continue.</p>","0","custom-html-button-response","6","272084","0.0-4.0-2.0","25","1","2025-07-30 08:40:24","36c45c0696341be0efffe67d72a12abb","90.196.11.108","Mozilla/5.0 (Macintosh; Intel Mac OS X 10_15_7) AppleWebKit/537.36 (KHTML, like Gecko) Chrome/138.0.0.0 Safari/537.36","Macintosh","Chrome","138.0.0.0","OS X","10_15_7","https://app.prolific.com/","en-GB,en-US;q=0.9,en;q=0.8","66742c4307bb2004831faaef","687a360dabe5252b5ada7185","6889da6fc3ba7af97f601b3e","0","66742c4307bb2004831faaef","0","2025-07-30T08:44:57.413Z","","","","","","","","","","","","","","","","","","","","","","","","","","","","","","","","","","","","","","","","","",""
"112285.80000000447","","","","survey-template","7","384372","0.0-4.0-3.0","25","1","2025-07-30 08:40:24","36c45c0696341be0efffe67d72a12abb","90.196.11.108","Mozilla/5.0 (Macintosh; Intel Mac OS X 10_15_7) AppleWebKit/537.36 (KHTML, like Gecko) Chrome/138.0.0.0 Safari/537.36","Macintosh","Chrome","138.0.0.0","OS X","10_15_7","https://app.prolific.com/","en-GB,en-US;q=0.9,en;q=0.8","66742c4307bb2004831faaef","687a360dabe5252b5ada7185","6889da6fc3ba7af97f601b3e","0","66742c4307bb2004831faaef","0","2025-07-30T08:46:49.700Z","","","","drsp","{""Q01"":""1"",""Q02"":""1"",""Q03"":""1"",""Q04"":""2"",""Q05"":""2"",""Q06"":""2"",""Q07"":""1"",""Q08"":""3"",""Q09"":""0"",""Q10"":""1"",""Q11"":""1"",""Q12"":""1"",""Q13"":""5"",""Q14"":""1"",""Q15"":""1"",""Q16"":""1"",""Q17"":""1"",""Q18"":""2"",""Q19"":""1"",""Q20"":""0"",""Q21"":""0"",""Q22"":""0""}","[0,1,2,3,4,5,6,7,8,9,10,11,12,13,14,15,16,17,18,19,20,21]","[""Q01"",""Q02"",""Q03"",""Q04"",""Q05"",""Q06"",""Q07"",""Q08"",""Q08"",""Q09"",""Q10"",""Q11"",""Q12"",""Q13"",""Q14"",""Q15"",""Q15"",""Q16"",""Q18"",""Q17"",""Q19"",""Q21"",""Q20"",""Q22"",""Q20"",""Q21"",""Q22""]","[6045.39999999851,7355.60000000149,11214.39999999851,13524.60000000149,14575.30000000447,19058.60000000149,21140.20000000298,23153.80000000447,25543.80000000447,27639.10000000149,29394.10000000149,30933.10000000149,34870.89999999851,36271.30000000447,40035.39999999851,44293.70000000298,45684.70000000298,50740.10000000149,53093.30000000447,53887.30000000447,83290.39999999851,86043.20000000298,86538.30000000447,87193.20000000298,105628.70000000298,108916.70000000298,111270.10000000149]","[]","[0,6045.39999999851,7355.60000000149,11214.39999999851,13524.60000000149,14575.30000000447,18366.80000000447,19058.60000000149,21140.20000000298,23153.80000000447,25543.80000000447,27639.10000000149,29394.10000000149,30933.10000000149,34870.89999999851,36271.30000000447,40035.39999999851,44293.70000000298,45684.70000000298,48989.70000000298,50740.10000000149,51359.10000000149,53093.30000000447,53887.30000000447,82860.39999999851,83290.39999999851,83983,84982.60000000149,85384.60000000149,86043.20000000298,86538.30000000447,87193.20000000298,105628.70000000298,108916.70000000298,111270.10000000149,112281.89999999851]","0.5454545454545454","0.2857142857142857","0","","","","","","","","","","","","","","","","","","","","","","","","","","","","",""
"17271.89999999851","","","","survey-template","8","401646","0.0-4.0-4.0","25","1","2025-07-30 08:40:24","36c45c0696341be0efffe67d72a12abb","90.196.11.108","Mozilla/5.0 (Macintosh; Intel Mac OS X 10_15_7) AppleWebKit/537.36 (KHTML, like Gecko) Chrome/138.0.0.0 Safari/537.36","Macintosh","Chrome","138.0.0.0","OS X","10_15_7","https://app.prolific.com/","en-GB,en-US;q=0.9,en;q=0.8","66742c4307bb2004831faaef","687a360dabe5252b5ada7185","6889da6fc3ba7af97f601b3e","0","66742c4307bb2004831faaef","0","2025-07-30T08:47:06.974Z","","","","stress","{""Q01"":""2"",""Q02"":""4"",""Q03"":""0""}","[0,1,2]","[""Q01"",""Q02"",""Q03"",""Q03""]","[5834.5,10196.89999999851,14348.20000000298,16463.60000000149]","[]","[5834.5,8547.80000000447,10196.89999999851,14348.20000000298,14913,16463.60000000149,17270.80000000447]","0.3333333333333333","1","0","","","","","","","","","","","","","","","","","","","","","","","","","","","","",""
"66263","","","","instructions","9","467908","0.0-5.0-0.0","25","1","2025-07-30 08:40:24","36c45c0696341be0efffe67d72a12abb","90.196.11.108","Mozilla/5.0 (Macintosh; Intel Mac OS X 10_15_7) AppleWebKit/537.36 (KHTML, like Gecko) Chrome/138.0.0.0 Safari/537.36","Macintosh","Chrome","138.0.0.0","OS X","10_15_7","https://app.prolific.com/","en-GB,en-US;q=0.9,en;q=0.8","66742c4307bb2004831faaef","687a360dabe5252b5ada7185","6889da6fc3ba7af97f601b3e","0","66742c4307bb2004831faaef","0","","","","","","","","","","","","","","","[{""page_index"":0,""viewing_time"":66263}]","","","","","","","","","","","","","","","","","","","","","","","","","","","",""
"11042","","<p>Before you start with this game please answer the following three questions yourself. </p>
  <p>Through this game, we measure several aspects of your cognitive performance, such as reaction times, multi-tasking capabilities </p>
  <p>and the ability to assess the situation you are in.</p>
  <p></p>
  <p><b>How good do you usually are in such tasks?</b></p>","73","html-slider-response","10","478951","0.0-6.0-0.0","25","1","2025-07-30 08:40:24","36c45c0696341be0efffe67d72a12abb","90.196.11.108","Mozilla/5.0 (Macintosh; Intel Mac OS X 10_15_7) AppleWebKit/537.36 (KHTML, like Gecko) Chrome/138.0.0.0 Safari/537.36","Macintosh","Chrome","138.0.0.0","OS X","10_15_7","https://app.prolific.com/","en-GB,en-US;q=0.9,en;q=0.8","66742c4307bb2004831faaef","687a360dabe5252b5ada7185","6889da6fc3ba7af97f601b3e","0","66742c4307bb2004831faaef","0","2025-07-30T08:48:24.279Z","","","","PreSkillQ","","","","","","","","","","","50","","","","","","","","","","","","","","","","","","","","","","","","","","",""
"3502","","<div style=""width:500px;"">
  <p>How well do you think you will perform in this task compared to other participants?</p>
  </div>","63","html-slider-response","11","482454","0.0-6.0-1.0","25","1","2025-07-30 08:40:24","36c45c0696341be0efffe67d72a12abb","90.196.11.108","Mozilla/5.0 (Macintosh; Intel Mac OS X 10_15_7) AppleWebKit/537.36 (KHTML, like Gecko) Chrome/138.0.0.0 Safari/537.36","Macintosh","Chrome","138.0.0.0","OS X","10_15_7","https://app.prolific.com/","en-GB,en-US;q=0.9,en;q=0.8","66742c4307bb2004831faaef","687a360dabe5252b5ada7185","6889da6fc3ba7af97f601b3e","0","66742c4307bb2004831faaef","0","2025-07-30T08:48:27.782Z","","","","PrePerfQ","","","","","","","","","","","50","","","","","","","","","","","","","","","","","","","","","","","","","","",""
"6477","","<div style=""width:500px;"">
  <p>What best describes how you currently feel?</p>
  </div>","69","html-slider-response","12","488932","0.0-6.0-2.0","25","1","2025-07-30 08:40:24","36c45c0696341be0efffe67d72a12abb","90.196.11.108","Mozilla/5.0 (Macintosh; Intel Mac OS X 10_15_7) AppleWebKit/537.36 (KHTML, like Gecko) Chrome/138.0.0.0 Safari/537.36","Macintosh","Chrome","138.0.0.0","OS X","10_15_7","https://app.prolific.com/","en-GB,en-US;q=0.9,en;q=0.8","66742c4307bb2004831faaef","687a360dabe5252b5ada7185","6889da6fc3ba7af97f601b3e","0","66742c4307bb2004831faaef","0","2025-07-30T08:48:34.260Z","","","","PreMotivationQ","","","","","","","","","","","50","","","","","","","","","","","","","","","","","","","","","","","","","","",""
"","","","","ctl-task-cpt","13","527148","0.0-7.0-0.0","25","1","2025-07-30 08:40:24","36c45c0696341be0efffe67d72a12abb","90.196.11.108","Mozilla/5.0 (Macintosh; Intel Mac OS X 10_15_7) AppleWebKit/537.36 (KHTML, like Gecko) Chrome/138.0.0.0 Safari/537.36","Macintosh","Chrome","138.0.0.0","OS X","10_15_7","https://app.prolific.com/","en-GB,en-US;q=0.9,en;q=0.8","66742c4307bb2004831faaef","687a360dabe5252b5ada7185","6889da6fc3ba7af97f601b3e","0","66742c4307bb2004831faaef","0","2025-07-30T08:49:12.476Z","","","","","","","","","","","","","","","","win-only","3","g1:SW,g2:NE","1","1","0","489920.4","4017.5","9021","35208","1","4","4","6","2","-4","-6","0","0","0","5003.5","3000","-2825","[""up"",""right""]","{""num_key_presses"":8,""num_perfect"":5,""num_errors"":2,""num_randdir"":0,""num_randdir_good_moves"":0,""num_whilered"":1,""num_whileblue"":0,""num_blue"":2,""num_good_moves"":5}","[708.2857142857143,700.0825892857143,0.2,708.2857142857143,700.0825892857143,104.9,708.2857142857143,700.0825892857143,209.2,708.2857142857143,700.0825892857143,313.4,708.2857142857143,700.0825892857143,418.6,708.2857142857143,700.0825892857143,523.8,708.2857142857143,700.0825892857143,629.5,708.2857142857143,700.0825892857143,733.2,708.2857142857143,700.0825892857143,833.9,708.2857142857143,700.0825892857143,939.1,708.2857142857143,700.0825892857143,1044.1,708.2857142857143,700.0825892857143,1144.1,708.2857142857143,700.0825892857143,1248.4,708.2857142857143,700.0825892857143,1352.9,708.2857142857143,700.0825892857143,1453,708.2857142857143,700.0825892857143,1553,708.2857142857143,700.0825892857143,1653.5,708.2857142857143,700.0825892857143,1753.6,708.2857142857143,700.0825892857143,1853.9,708.2857142857143,700.0825892857143,1954.2,708.2857142857143,700.0825892857143,2059.2,708.2857142857143,700.0825892857143,2163,708.2857142857143,700.0825892857143,2268.6,708.2857142857143,700.0825892857143,2373.4,708.2857142857143,700.0825892857143,2473.4,708.2857142857143,700.0825892857143,2573.6,708.2857142857143,700.0825892857143,2673.8,708.2857142857143,700.0825892857143,2773.8,708.2857142857143,700.0825892857143,2874.3,708.2857142857143,700.0825892857143,2978.1,708.2857142857143,700.0825892857143,3079.2,708.2857142857143,700.0825892857143,3179.6,708.2857142857143,700.0825892857143,3283.6,708.2857142857143,700.0825892857143,3388.9,708.2857142857143,700.0825892857143,3489.2,700.2857142857143,702.0825892857143,3589.2,700.2857142857143,706.0825892857143,3693.7,700.2857142857143,706.0825892857143,3795.7,700.2857142857143,706.0825892857143,3898.8,698.2857142857143,712.0825892857143,4003.5,682.2857142857143,756.0825892857143,4108.8,648.2857142857143,790.0825892857143,4208.9,594.2857142857143,870.0825892857143,4316.4,550.2857142857143,892.0825892857143,4419,536.2857142857143,902.0825892857143,4523.4,536.2857142857143,902.0825892857143,4624.5,538.2857142857143,900.0825892857143,4727.8,538.2857142857143,900.0825892857143,4827.9,538.2857142857143,900.0825892857143,4928]","[2113,2113,1000,0,1113,""smooth"",""up"",""up"",""good_move"",2447.9,334.7,2242.7,2113.2,-1908,""error"",""-"",""-"",""no_move"",2663.7,215.6,2242.7,2113.2,-1692.2,""while_red"",""-"",""-"",""no_move"",4365.9,1917.8,2743,3450,-1827.1,""error"",""-"",""-"",""no_move"",8411.7,4045.8,2383.2,5370.8,657.8,""smooth"",""right"",""right"",""good_move"",11288.6,2876.2,2393.9,8412.4,482.3,""smooth"",""up"",""up"",""good_move"",17361,6072.3,2531.5,14414.9,414.6,""smooth"",""right"",""right"",""good_move"",23705.1,6343.9,2430.6,20935.8,338.7,""smooth"",""up"",""up"",""good_move""]"
"14265","","<div style=""width:500px;"">
  <p>What determined the result of this run?</p>
  </div>","89","html-slider-response","14","541413","0.0-7.0-1.0","25","1","2025-07-30 08:40:24","36c45c0696341be0efffe67d72a12abb","90.196.11.108","Mozilla/5.0 (Macintosh; Intel Mac OS X 10_15_7) AppleWebKit/537.36 (KHTML, like Gecko) Chrome/138.0.0.0 Safari/537.36","Macintosh","Chrome","138.0.0.0","OS X","10_15_7","https://app.prolific.com/","en-GB,en-US;q=0.9,en;q=0.8","66742c4307bb2004831faaef","687a360dabe5252b5ada7185","6889da6fc3ba7af97f601b3e","0","66742c4307bb2004831faaef","0","2025-07-30T08:49:26.742Z","","","","AttribQ","","","","","","","","","","","50","","","","","","","","","","","","","","","","","","","","","","","","","","",""
"4469","","<div style=""width:500px;"">
  <p>How much control did you have over the ball?</p>
  </div>","80","html-slider-response","15","545884","0.0-7.0-2.0","25","1","2025-07-30 08:40:24","36c45c0696341be0efffe67d72a12abb","90.196.11.108","Mozilla/5.0 (Macintosh; Intel Mac OS X 10_15_7) AppleWebKit/537.36 (KHTML, like Gecko) Chrome/138.0.0.0 Safari/537.36","Macintosh","Chrome","138.0.0.0","OS X","10_15_7","https://app.prolific.com/","en-GB,en-US;q=0.9,en;q=0.8","66742c4307bb2004831faaef","687a360dabe5252b5ada7185","6889da6fc3ba7af97f601b3e","0","66742c4307bb2004831faaef","0","2025-07-30T08:49:31.212Z","","","","ControlQ","","","","","","","","","","","50","","","","","","","","","","","","","","","","","","","","","","","","","","",""
"13432","","<div style=""width:500px;"">
  <p>How would you describe your current emotional state?</p>
  </div>","68","html-slider-response","16","559316","0.0-7.0-3.0","25","1","2025-07-30 08:40:24","36c45c0696341be0efffe67d72a12abb","90.196.11.108","Mozilla/5.0 (Macintosh; Intel Mac OS X 10_15_7) AppleWebKit/537.36 (KHTML, like Gecko) Chrome/138.0.0.0 Safari/537.36","Macintosh","Chrome","138.0.0.0","OS X","10_15_7","https://app.prolific.com/","en-GB,en-US;q=0.9,en;q=0.8","66742c4307bb2004831faaef","687a360dabe5252b5ada7185","6889da6fc3ba7af97f601b3e","0","66742c4307bb2004831faaef","0","2025-07-30T08:49:44.644Z","","","","StressQ","","","","","","","","","","","50","","","","","","","","","","","","","","","","","","","","","","","","","","",""
"9510","","<div style=""width:500px;"">
  <p>What best describes how you currently feel?</p>
  </div>","62","html-slider-response","17","568827","0.0-7.0-4.0","25","1","2025-07-30 08:40:24","36c45c0696341be0efffe67d72a12abb","90.196.11.108","Mozilla/5.0 (Macintosh; Intel Mac OS X 10_15_7) AppleWebKit/537.36 (KHTML, like Gecko) Chrome/138.0.0.0 Safari/537.36","Macintosh","Chrome","138.0.0.0","OS X","10_15_7","https://app.prolific.com/","en-GB,en-US;q=0.9,en;q=0.8","66742c4307bb2004831faaef","687a360dabe5252b5ada7185","6889da6fc3ba7af97f601b3e","0","66742c4307bb2004831faaef","0","2025-07-30T08:49:54.155Z","","","","MotivationQ","","","","","","","","","","","50","","","","","","","","","","","","","","","","","","","","","","","","","","",""
"","","","","ctl-task-cpt","18","600183","0.0-7.0-0.1","25","1","2025-07-30 08:40:24","36c45c0696341be0efffe67d72a12abb","90.196.11.108","Mozilla/5.0 (Macintosh; Intel Mac OS X 10_15_7) AppleWebKit/537.36 (KHTML, like Gecko) Chrome/138.0.0.0 Safari/537.36","Macintosh","Chrome","138.0.0.0","OS X","10_15_7","https://app.prolific.com/","en-GB,en-US;q=0.9,en;q=0.8","66742c4307bb2004831faaef","687a360dabe5252b5ada7185","6889da6fc3ba7af97f601b3e","0","66742c4307bb2004831faaef","0","2025-07-30T08:50:25.511Z","","","","","","","","","","","","","","","","win-only","2","g1:SE,g2:NW","0.9","2","0","569817.6","1670.4","6671.7","28341.8","1","4","8","6","2","8","7","7","0","0.05303030303030303","1199.9","3000","985","[""left"",""up""]","{""num_key_presses"":7,""num_perfect"":6,""num_errors"":1,""num_randdir"":0,""num_randdir_good_moves"":0,""num_whilered"":0,""num_whileblue"":0,""num_blue"":1,""num_good_moves"":6}","[690.2857142857143,694.0825892857143,0.2,690.2857142857143,694.0825892857143,102.2,690.2857142857143,694.0825892857143,205.8,690.2857142857143,694.0825892857143,308.2,690.2857142857143,694.0825892857143,410,718.2857142857143,650.0825892857143,513.6,746.2857142857143,526.0825892857143,614.9,662.2857142857143,484.0825892857143,717.3,654.2857142857143,484.0825892857143,820.7,622.2857142857143,494.0825892857143,925.9,308.2857142857143,238.08258928571428,1030.3,212.28571428571428,160.08258928571428,1135.2,200.28571428571428,158.08258928571428,1236.4,200.28571428571428,158.08258928571428,1344.1,200.28571428571428,158.08258928571428,1450.4,200.28571428571428,158.08258928571428,1550.9,200.28571428571428,158.08258928571428,1652.9,200.28571428571428,158.08258928571428,1755.7,200.28571428571428,158.08258928571428,1861.5,200.28571428571428,158.08258928571428,1966,200.28571428571428,158.08258928571428,2067.4,200.28571428571428,158.08258928571428,2170.4,200.28571428571428,158.08258928571428,2270.9,200.28571428571428,158.08258928571428,2371,200.28571428571428,158.08258928571428,2471.1,200.28571428571428,158.08258928571428,2575.8,200.28571428571428,158.08258928571428,2676,200.28571428571428,158.08258928571428,2777.1,200.28571428571428,158.08258928571428,2884.1,200.28571428571428,158.08258928571428,2985.5,200.28571428571428,158.08258928571428,3086.2,200.28571428571428,158.08258928571428,3190.4,200.28571428571428,158.08258928571428,3290.8,200.28571428571428,158.08258928571428,3399.2,200.28571428571428,158.08258928571428,3500.8,200.28571428571428,158.08258928571428,3605.2,200.28571428571428,158.08258928571428,3705.2,200.28571428571428,158.08258928571428,3805.6,200.28571428571428,158.08258928571428,3911,200.28571428571428,158.08258928571428,4017.2,200.28571428571428,158.08258928571428,4120.8,200.28571428571428,158.08258928571428,4225.2,200.28571428571428,158.08258928571428,4325.3,200.28571428571428,158.08258928571428,4425.4,200.28571428571428,158.08258928571428,4525.8,200.28571428571428,158.08258928571428,4632.7,200.28571428571428,158.08258928571428,4736,200.28571428571428,158.08258928571428,4840.5,200.28571428571428,158.08258928571428,4941]","[297,297,1000,0,-703,""error"",""-"",""-"",""no_move"",4619.3,4322.2,2919.2,1299.2,400.9,""smooth"",""left"",""left"",""good_move"",6866.1,2246.4,1807.2,4619.7,439.2,""smooth"",""left"",""left"",""good_move"",13159.6,6293.3,2393.3,10373.8,392.5,""smooth"",""up"",""up"",""good_move"",16066,2905.9,2493.9,13160.2,411.9,""smooth"",""up"",""up"",""good_move"",19070.2,3003.9,2641.9,16066.3,362,""smooth"",""left"",""left"",""good_move"",21569.6,2499.3,2174.7,19070.3,324.6,""smooth"",""up"",""up"",""good_move""]"
"8327","","<div style=""width:500px;"">
  <p>What determined the result of this run?</p>
  </div>","83","html-slider-response","19","608511","0.0-7.0-1.1","25","1","2025-07-30 08:40:24","36c45c0696341be0efffe67d72a12abb","90.196.11.108","Mozilla/5.0 (Macintosh; Intel Mac OS X 10_15_7) AppleWebKit/537.36 (KHTML, like Gecko) Chrome/138.0.0.0 Safari/537.36","Macintosh","Chrome","138.0.0.0","OS X","10_15_7","https://app.prolific.com/","en-GB,en-US;q=0.9,en;q=0.8","66742c4307bb2004831faaef","687a360dabe5252b5ada7185","6889da6fc3ba7af97f601b3e","0","66742c4307bb2004831faaef","0","2025-07-30T08:50:33.839Z","","","","AttribQ","","","","","","","","","","","50","","","","","","","","","","","","","","","","","","","","","","","","","","",""
"9312","","<div style=""width:500px;"">
  <p>How much control did you have over the ball?</p>
  </div>","73","html-slider-response","20","617825","0.0-7.0-2.1","25","1","2025-07-30 08:40:24","36c45c0696341be0efffe67d72a12abb","90.196.11.108","Mozilla/5.0 (Macintosh; Intel Mac OS X 10_15_7) AppleWebKit/537.36 (KHTML, like Gecko) Chrome/138.0.0.0 Safari/537.36","Macintosh","Chrome","138.0.0.0","OS X","10_15_7","https://app.prolific.com/","en-GB,en-US;q=0.9,en;q=0.8","66742c4307bb2004831faaef","687a360dabe5252b5ada7185","6889da6fc3ba7af97f601b3e","0","66742c4307bb2004831faaef","0","2025-07-30T08:50:43.153Z","","","","ControlQ","","","","","","","","","","","50","","","","","","","","","","","","","","","","","","","","","","","","","","",""
"3510","","<div style=""width:500px;"">
  <p>How would you describe your current emotional state?</p>
  </div>","33","html-slider-response","21","621337","0.0-7.0-3.1","25","1","2025-07-30 08:40:24","36c45c0696341be0efffe67d72a12abb","90.196.11.108","Mozilla/5.0 (Macintosh; Intel Mac OS X 10_15_7) AppleWebKit/537.36 (KHTML, like Gecko) Chrome/138.0.0.0 Safari/537.36","Macintosh","Chrome","138.0.0.0","OS X","10_15_7","https://app.prolific.com/","en-GB,en-US;q=0.9,en;q=0.8","66742c4307bb2004831faaef","687a360dabe5252b5ada7185","6889da6fc3ba7af97f601b3e","0","66742c4307bb2004831faaef","0","2025-07-30T08:50:46.665Z","","","","StressQ","","","","","","","","","","","50","","","","","","","","","","","","","","","","","","","","","","","","","","",""
"4383","","<div style=""width:500px;"">
  <p>What best describes how you currently feel?</p>
  </div>","68","html-slider-response","22","625721","0.0-7.0-4.1","25","1","2025-07-30 08:40:24","36c45c0696341be0efffe67d72a12abb","90.196.11.108","Mozilla/5.0 (Macintosh; Intel Mac OS X 10_15_7) AppleWebKit/537.36 (KHTML, like Gecko) Chrome/138.0.0.0 Safari/537.36","Macintosh","Chrome","138.0.0.0","OS X","10_15_7","https://app.prolific.com/","en-GB,en-US;q=0.9,en;q=0.8","66742c4307bb2004831faaef","687a360dabe5252b5ada7185","6889da6fc3ba7af97f601b3e","0","66742c4307bb2004831faaef","0","2025-07-30T08:50:51.049Z","","","","MotivationQ","","","","","","","","","","","50","","","","","","","","","","","","","","","","","","","","","","","","","","",""
"","","","","ctl-task-cpt","23","660812","0.0-7.0-0.2","25","1","2025-07-30 08:40:24","36c45c0696341be0efffe67d72a12abb","90.196.11.108","Mozilla/5.0 (Macintosh; Intel Mac OS X 10_15_7) AppleWebKit/537.36 (KHTML, like Gecko) Chrome/138.0.0.0 Safari/537.36","Macintosh","Chrome","138.0.0.0","OS X","10_15_7","https://app.prolific.com/","en-GB,en-US;q=0.9,en;q=0.8","66742c4307bb2004831faaef","687a360dabe5252b5ada7185","6889da6fc3ba7af97f601b3e","0","66742c4307bb2004831faaef","0","2025-07-30T08:51:26.140Z","","","","","","","","","","","","","","","","win-only","3","g1:SW,g2:NE","0.8","3","0","626712.9","1352.1","6357.7","32072.6","1","4","4","6","2","4","2","9","7","0.06818181818181818","918.1","3000","515","[""up"",""right""]","{""num_key_presses"":9,""num_perfect"":5,""num_errors"":2,""num_randdir"":2,""num_randdir_good_moves"":2,""num_whilered"":0,""num_whileblue"":1,""num_blue"":2,""num_good_moves"":7}","[696.2857142857143,696.0825892857143,0.2,696.2857142857143,696.0825892857143,104.3,696.2857142857143,696.0825892857143,205.1,696.2857142857143,696.0825892857143,308.9,696.2857142857143,696.0825892857143,408.9,766.2857142857143,602.0825892857143,509.4,1190.2857142857142,186.08258928571428,614.7,1292.2857142857142,122.08258928571429,722.9,1308.2857142857142,114.08258928571429,823.7,1310.2857142857142,114.08258928571429,924,1310.2857142857142,114.08258928571429,1024.4,1310.2857142857142,114.08258928571429,1124.4,1310.2857142857142,114.08258928571429,1229.4,1310.2857142857142,114.08258928571429,1341.3,1310.2857142857142,114.08258928571429,1444.1,1310.2857142857142,114.08258928571429,1548.9,1310.2857142857142,114.08258928571429,1657.7,1310.2857142857142,114.08258928571429,1758.2,1310.2857142857142,114.08258928571429,1860.1,1310.2857142857142,114.08258928571429,1964.2,1310.2857142857142,114.08258928571429,2064.2,1310.2857142857142,114.08258928571429,2175.5,1310.2857142857142,114.08258928571429,2279.7,1310.2857142857142,114.08258928571429,2385.9,1310.2857142857142,114.08258928571429,2490.7,1310.2857142857142,114.08258928571429,2594.1,1310.2857142857142,114.08258928571429,2694.3,1310.2857142857142,114.08258928571429,2794.3,1310.2857142857142,114.08258928571429,2906.1,1310.2857142857142,114.08258928571429,3009.7,1310.2857142857142,114.08258928571429,3109.8,1310.2857142857142,114.08258928571429,3210,1310.2857142857142,114.08258928571429,3314.7,1310.2857142857142,114.08258928571429,3415.9,1310.2857142857142,114.08258928571429,3524.8,1310.2857142857142,114.08258928571429,3629.3,1310.2857142857142,114.08258928571429,3734.2,1310.2857142857142,114.08258928571429,3836,1310.2857142857142,114.08258928571429,3939.8,1310.2857142857142,114.08258928571429,4043.9,1310.2857142857142,114.08258928571429,4143.9,1310.2857142857142,114.08258928571429,4244.9,1310.2857142857142,114.08258928571429,4348.9,1310.2857142857142,114.08258928571429,4456.2,1310.2857142857142,114.08258928571429,4561,1310.2857142857142,114.08258928571429,4663.8,1310.2857142857142,114.08258928571429,4773.4,1310.2857142857142,114.08258928571429,4873.5,1310.2857142857142,114.08258928571429,4974.4]","[4732.7,4732.7,2328.8,2004.1,399.8,""oops"",""up"",""right"",""good_move"",7287.4,2554.4,1964.9,4733,589.5,""oops"",""up"",""right"",""good_move"",8064.1,776.5,2448.4,7287.7,-1672,""error"",""-"",""-"",""no_move"",11755.7,3691.1,2292.7,9068.3,394.7,""smooth"",""up"",""up"",""good_move"",14555.3,2799.3,2453.1,11756,346.2,""smooth"",""up"",""up"",""good_move"",17456.1,2900.5,2503.2,14555.6,397.3,""while_blue"",""up"",""left"",""bad_move"",20653.9,3197.5,2690.2,17456.4,507.3,""smooth"",""up"",""up"",""good_move"",23031.9,2377.7,1897.7,20654.2,480,""smooth"",""right"",""right"",""good_move"",25602.9,2570.8,2243.8,23032.1,327,""smooth"",""right"",""right"",""good_move""]"
"7623","","<div style=""width:500px;"">
  <p>What determined the result of this run?</p>
  </div>","50","html-slider-response","24","668436","0.0-7.0-1.2","25","1","2025-07-30 08:40:24","36c45c0696341be0efffe67d72a12abb","90.196.11.108","Mozilla/5.0 (Macintosh; Intel Mac OS X 10_15_7) AppleWebKit/537.36 (KHTML, like Gecko) Chrome/138.0.0.0 Safari/537.36","Macintosh","Chrome","138.0.0.0","OS X","10_15_7","https://app.prolific.com/","en-GB,en-US;q=0.9,en;q=0.8","66742c4307bb2004831faaef","687a360dabe5252b5ada7185","6889da6fc3ba7af97f601b3e","0","66742c4307bb2004831faaef","0","2025-07-30T08:51:33.764Z","","","","AttribQ","","","","","","","","","","","50","","","","","","","","","","","","","","","","","","","","","","","","","","",""
"2309","","<div style=""width:500px;"">
  <p>How much control did you have over the ball?</p>
  </div>","43","html-slider-response","25","670746","0.0-7.0-2.2","25","1","2025-07-30 08:40:24","36c45c0696341be0efffe67d72a12abb","90.196.11.108","Mozilla/5.0 (Macintosh; Intel Mac OS X 10_15_7) AppleWebKit/537.36 (KHTML, like Gecko) Chrome/138.0.0.0 Safari/537.36","Macintosh","Chrome","138.0.0.0","OS X","10_15_7","https://app.prolific.com/","en-GB,en-US;q=0.9,en;q=0.8","66742c4307bb2004831faaef","687a360dabe5252b5ada7185","6889da6fc3ba7af97f601b3e","0","66742c4307bb2004831faaef","0","2025-07-30T08:51:36.075Z","","","","ControlQ","","","","","","","","","","","50","","","","","","","","","","","","","","","","","","","","","","","","","","",""
"5505","","<div style=""width:500px;"">
  <p>How would you describe your current emotional state?</p>
  </div>","50","html-slider-response","26","676253","0.0-7.0-3.2","25","1","2025-07-30 08:40:24","36c45c0696341be0efffe67d72a12abb","90.196.11.108","Mozilla/5.0 (Macintosh; Intel Mac OS X 10_15_7) AppleWebKit/537.36 (KHTML, like Gecko) Chrome/138.0.0.0 Safari/537.36","Macintosh","Chrome","138.0.0.0","OS X","10_15_7","https://app.prolific.com/","en-GB,en-US;q=0.9,en;q=0.8","66742c4307bb2004831faaef","687a360dabe5252b5ada7185","6889da6fc3ba7af97f601b3e","0","66742c4307bb2004831faaef","0","2025-07-30T08:51:41.581Z","","","","StressQ","","","","","","","","","","","50","","","","","","","","","","","","","","","","","","","","","","","","","","",""
"3500","","<div style=""width:500px;"">
  <p>What best describes how you currently feel?</p>
  </div>","71","html-slider-response","27","679754","0.0-7.0-4.2","25","1","2025-07-30 08:40:24","36c45c0696341be0efffe67d72a12abb","90.196.11.108","Mozilla/5.0 (Macintosh; Intel Mac OS X 10_15_7) AppleWebKit/537.36 (KHTML, like Gecko) Chrome/138.0.0.0 Safari/537.36","Macintosh","Chrome","138.0.0.0","OS X","10_15_7","https://app.prolific.com/","en-GB,en-US;q=0.9,en;q=0.8","66742c4307bb2004831faaef","687a360dabe5252b5ada7185","6889da6fc3ba7af97f601b3e","0","66742c4307bb2004831faaef","0","2025-07-30T08:51:45.082Z","","","","MotivationQ","","","","","","","","","","","50","","","","","","","","","","","","","","","","","","","","","","","","","","",""
"","","","","ctl-task-cpt","28","719763","0.0-7.0-0.3","25","1","2025-07-30 08:40:24","36c45c0696341be0efffe67d72a12abb","90.196.11.108","Mozilla/5.0 (Macintosh; Intel Mac OS X 10_15_7) AppleWebKit/537.36 (KHTML, like Gecko) Chrome/138.0.0.0 Safari/537.36","Macintosh","Chrome","138.0.0.0","OS X","10_15_7","https://app.prolific.com/","en-GB,en-US;q=0.9,en;q=0.8","66742c4307bb2004831faaef","687a360dabe5252b5ada7185","6889da6fc3ba7af97f601b3e","0","66742c4307bb2004831faaef","0","2025-07-30T08:52:25.091Z","","","","","","","","","","","","","","","","win-only","0","g1:NW,g2:SE","0.7","4","0","680747.6","1585.3","6587","37001.4","1","4","8","6","2","-8","-8","1","9","0.007575757575757576","1300.9","3000","-2700","[""down"",""right""]","{""num_key_presses"":8,""num_perfect"":5,""num_errors"":0,""num_randdir"":3,""num_randdir_good_moves"":1,""num_whilered"":0,""num_whileblue"":0,""num_blue"":2,""num_good_moves"":6}","[698.2857142857143,696.0825892857143,0.2,698.2857142857143,696.0825892857143,101.3,698.2857142857143,696.0825892857143,201.7,698.2857142857143,696.0825892857143,306.1,698.2857142857143,696.0825892857143,406.8,698.2857142857143,696.0825892857143,511.5,698.2857142857143,696.0825892857143,616.5,714.2857142857143,722.0825892857143,721.6,1014.2857142857143,1070.0825892857142,821.8,1014.2857142857143,1070.0825892857142,926.3,1014.2857142857143,1070.0825892857142,1033.8,1078.2857142857142,1096.0825892857142,1136.6,1210.2857142857142,1190.0825892857142,1241.8,1214.2857142857142,1198.0825892857142,1347.1,1214.2857142857142,1198.0825892857142,1450,1214.2857142857142,1198.0825892857142,1552,1214.2857142857142,1198.0825892857142,1656.4,1214.2857142857142,1198.0825892857142,1756.8,1214.2857142857142,1198.0825892857142,1860.9,1214.2857142857142,1198.0825892857142,1960.9,1214.2857142857142,1198.0825892857142,2063.3,1214.2857142857142,1198.0825892857142,2174.1,1214.2857142857142,1198.0825892857142,2276.2,1214.2857142857142,1198.0825892857142,2376.2,1214.2857142857142,1198.0825892857142,2476.2,1214.2857142857142,1198.0825892857142,2577.7,1214.2857142857142,1198.0825892857142,2681.4,1214.2857142857142,1198.0825892857142,2786.8,1214.2857142857142,1198.0825892857142,2891.4,1214.2857142857142,1198.0825892857142,2991.4,1214.2857142857142,1198.0825892857142,3096.4,1214.2857142857142,1198.0825892857142,3201.2,1214.2857142857142,1198.0825892857142,3301.5,1214.2857142857142,1198.0825892857142,3401.7,1214.2857142857142,1198.0825892857142,3506.3,1214.2857142857142,1198.0825892857142,3607.1,1214.2857142857142,1198.0825892857142,3711,1214.2857142857142,1198.0825892857142,3811.2,1214.2857142857142,1198.0825892857142,3911.5,1214.2857142857142,1198.0825892857142,4011.5,1214.2857142857142,1198.0825892857142,4113.3,1214.2857142857142,1198.0825892857142,4216.8,1214.2857142857142,1198.0825892857142,4321.4,1214.2857142857142,1198.0825892857142,4426.1,1214.2857142857142,1198.0825892857142,4531.8,1214.2857142857142,1198.0825892857142,4639.9,1214.2857142857142,1198.0825892857142,4740.9,1214.2857142857142,1198.0825892857142,4847,1214.2857142857142,1198.0825892857142,4953]","[4269.7,4269.7,1914.2,2005.2,350.3,""smooth"",""down"",""down"",""good_move"",6997.4,2727.5,2322.1,4270,405.3,""smooth"",""down"",""down"",""good_move"",10188.8,3191.2,2786.6,6997.6,404.6,""smooth"",""right"",""right"",""good_move"",12913.6,2724.4,2286.4,10189.2,438,""oops"",""right"",""right"",""good_move"",15789.5,2875.8,2402.5,12913.7,473.3,""smooth"",""right"",""right"",""good_move"",21952.9,6163.1,2714.3,18838.3,400.3,""oops"",""down"",""up"",""bad_move"",24874.1,2920.9,2529.2,21953.2,391.7,""smooth"",""down"",""down"",""good_move"",27624.3,2749.9,2431.2,24874.4,318.7,""oops"",""down"",""left"",""bad_move""]"
"14013","","<div style=""width:500px;"">
  <p>What determined the result of this run?</p>
  </div>","47","html-slider-response","29","733777","0.0-7.0-1.3","25","1","2025-07-30 08:40:24","36c45c0696341be0efffe67d72a12abb","90.196.11.108","Mozilla/5.0 (Macintosh; Intel Mac OS X 10_15_7) AppleWebKit/537.36 (KHTML, like Gecko) Chrome/138.0.0.0 Safari/537.36","Macintosh","Chrome","138.0.0.0","OS X","10_15_7","https://app.prolific.com/","en-GB,en-US;q=0.9,en;q=0.8","66742c4307bb2004831faaef","687a360dabe5252b5ada7185","6889da6fc3ba7af97f601b3e","0","66742c4307bb2004831faaef","0","2025-07-30T08:52:39.105Z","","","","AttribQ","","","","","","","","","","","50","","","","","","","","","","","","","","","","","","","","","","","","","","",""
"4349","","<div style=""width:500px;"">
  <p>How much control did you have over the ball?</p>
  </div>","30","html-slider-response","30","738126","0.0-7.0-2.3","25","1","2025-07-30 08:40:24","36c45c0696341be0efffe67d72a12abb","90.196.11.108","Mozilla/5.0 (Macintosh; Intel Mac OS X 10_15_7) AppleWebKit/537.36 (KHTML, like Gecko) Chrome/138.0.0.0 Safari/537.36","Macintosh","Chrome","138.0.0.0","OS X","10_15_7","https://app.prolific.com/","en-GB,en-US;q=0.9,en;q=0.8","66742c4307bb2004831faaef","687a360dabe5252b5ada7185","6889da6fc3ba7af97f601b3e","0","66742c4307bb2004831faaef","0","2025-07-30T08:52:43.454Z","","","","ControlQ","","","","","","","","","","","50","","","","","","","","","","","","","","","","","","","","","","","","","","",""
"5014","","<div style=""width:500px;"">
  <p>How would you describe your current emotional state?</p>
  </div>","54","html-slider-response","31","743141","0.0-7.0-3.3","25","1","2025-07-30 08:40:24","36c45c0696341be0efffe67d72a12abb","90.196.11.108","Mozilla/5.0 (Macintosh; Intel Mac OS X 10_15_7) AppleWebKit/537.36 (KHTML, like Gecko) Chrome/138.0.0.0 Safari/537.36","Macintosh","Chrome","138.0.0.0","OS X","10_15_7","https://app.prolific.com/","en-GB,en-US;q=0.9,en;q=0.8","66742c4307bb2004831faaef","687a360dabe5252b5ada7185","6889da6fc3ba7af97f601b3e","0","66742c4307bb2004831faaef","0","2025-07-30T08:52:48.469Z","","","","StressQ","","","","","","","","","","","50","","","","","","","","","","","","","","","","","","","","","","","","","","",""
"7987","","<div style=""width:500px;"">
  <p>What best describes how you currently feel?</p>
  </div>","58","html-slider-response","32","751128","0.0-7.0-4.3","25","1","2025-07-30 08:40:24","36c45c0696341be0efffe67d72a12abb","90.196.11.108","Mozilla/5.0 (Macintosh; Intel Mac OS X 10_15_7) AppleWebKit/537.36 (KHTML, like Gecko) Chrome/138.0.0.0 Safari/537.36","Macintosh","Chrome","138.0.0.0","OS X","10_15_7","https://app.prolific.com/","en-GB,en-US;q=0.9,en;q=0.8","66742c4307bb2004831faaef","687a360dabe5252b5ada7185","6889da6fc3ba7af97f601b3e","0","66742c4307bb2004831faaef","0","2025-07-30T08:52:56.456Z","","","","MotivationQ","","","","","","","","","","","50","","","","","","","","","","","","","","","","","","","","","","","","","","",""
"","","","","ctl-task-cpt","33","789360","0.0-7.0-0.4","25","1","2025-07-30 08:40:24","36c45c0696341be0efffe67d72a12abb","90.196.11.108","Mozilla/5.0 (Macintosh; Intel Mac OS X 10_15_7) AppleWebKit/537.36 (KHTML, like Gecko) Chrome/138.0.0.0 Safari/537.36","Macintosh","Chrome","138.0.0.0","OS X","10_15_7","https://app.prolific.com/","en-GB,en-US;q=0.9,en;q=0.8","66742c4307bb2004831faaef","687a360dabe5252b5ada7185","6889da6fc3ba7af97f601b3e","0","66742c4307bb2004831faaef","0","2025-07-30T08:53:34.688Z","","","","","","","","","","","","","","","","win-only","0","g1:NW,g2:SE","0.6","5","0","752123.9","1415.3","6416.7","35211.1","1","4","4","6","2","-4","-5","0","1","0","982.6","3000","-2770","[""down"",""right""]","{""num_key_presses"":7,""num_perfect"":3,""num_errors"":1,""num_randdir"":3,""num_randdir_good_moves"":1,""num_whilered"":0,""num_whileblue"":0,""num_blue"":2,""num_good_moves"":4}","[692.2857142857143,690.0825892857143,0.2,692.2857142857143,690.0825892857143,101.8,692.2857142857143,690.0825892857143,208.8,692.2857142857143,690.0825892857143,317.3,668.2857142857143,690.0825892857143,423,646.2857142857143,696.0825892857143,530.7,1062.2857142857142,1002.0825892857143,631.1,1220.2857142857142,1186.0825892857142,731.3,1220.2857142857142,1186.0825892857142,836.5,1230.2857142857142,1206.0825892857142,946,1234.2857142857142,1210.0825892857142,1051.9,1234.2857142857142,1156.0825892857142,1159.7,1234.2857142857142,1156.0825892857142,1261.3,1234.2857142857142,1156.0825892857142,1362.8,1234.2857142857142,1156.0825892857142,1463,1234.2857142857142,1156.0825892857142,1566.4,1234.2857142857142,1156.0825892857142,1666.7,1234.2857142857142,1156.0825892857142,1770.9,1234.2857142857142,1156.0825892857142,1875.3,1234.2857142857142,1156.0825892857142,1977.3,1234.2857142857142,1156.0825892857142,2079.4,1234.2857142857142,1156.0825892857142,2181.6,1234.2857142857142,1156.0825892857142,2286.5,1234.2857142857142,1156.0825892857142,2392.5,1234.2857142857142,1156.0825892857142,2495.9,1234.2857142857142,1156.0825892857142,2596.7,1234.2857142857142,1156.0825892857142,2701.4,1234.2857142857142,1156.0825892857142,2802.6,1234.2857142857142,1156.0825892857142,2905.4,1234.2857142857142,1156.0825892857142,3014.5,1234.2857142857142,1156.0825892857142,3115.6,1234.2857142857142,1156.0825892857142,3216.5,1234.2857142857142,1156.0825892857142,3323.2,1234.2857142857142,1156.0825892857142,3430,1234.2857142857142,1156.0825892857142,3531.1,1234.2857142857142,1156.0825892857142,3635.3,1234.2857142857142,1156.0825892857142,3735.6,1234.2857142857142,1156.0825892857142,3838.6,1234.2857142857142,1156.0825892857142,3945,1234.2857142857142,1156.0825892857142,4046.1,1234.2857142857142,1156.0825892857142,4146.6,1234.2857142857142,1156.0825892857142,4250.6,1234.2857142857142,1156.0825892857142,4351.8,1234.2857142857142,1156.0825892857142,4457.1,1234.2857142857142,1156.0825892857142,4560.9,1234.2857142857142,1156.0825892857142,4667.2,1234.2857142857142,1156.0825892857142,4778.7,1234.2857142857142,1156.0825892857142,4881.3,1234.2857142857142,1156.0825892857142,4986.7]","[642.1,642.1,1000,0,-357.9,""error"",""-"",""-"",""no_move"",4899.7,4257.4,2787.3,1644.6,467.8,""smooth"",""down"",""down"",""good_move"",10652.2,5752.1,2784.9,7443.4,423.9,""smooth"",""down"",""down"",""good_move"",15440.7,4788.4,2143.2,12874.5,423,""oops"",""down"",""up"",""bad_move"",19099.3,3658.4,3167.1,15441,491.2,""smooth"",""down"",""down"",""good_move"",22642,3542.5,2892.7,19099.5,649.8,""oops"",""down"",""left"",""bad_move"",25947.9,3305.6,2667.1,22642.3,638.5,""oops"",""down"",""down"",""good_move""]"
"14884","","<div style=""width:500px;"">
  <p>What determined the result of this run?</p>
  </div>","34","html-slider-response","34","804244","0.0-7.0-1.4","25","1","2025-07-30 08:40:24","36c45c0696341be0efffe67d72a12abb","90.196.11.108","Mozilla/5.0 (Macintosh; Intel Mac OS X 10_15_7) AppleWebKit/537.36 (KHTML, like Gecko) Chrome/138.0.0.0 Safari/537.36","Macintosh","Chrome","138.0.0.0","OS X","10_15_7","https://app.prolific.com/","en-GB,en-US;q=0.9,en;q=0.8","66742c4307bb2004831faaef","687a360dabe5252b5ada7185","6889da6fc3ba7af97f601b3e","0","66742c4307bb2004831faaef","0","2025-07-30T08:53:49.572Z","","","","AttribQ","","","","","","","","","","","50","","","","","","","","","","","","","","","","","","","","","","","","","","",""
"2477","","<div style=""width:500px;"">
  <p>How much control did you have over the ball?</p>
  </div>","36","html-slider-response","35","806722","0.0-7.0-2.4","25","1","2025-07-30 08:40:24","36c45c0696341be0efffe67d72a12abb","90.196.11.108","Mozilla/5.0 (Macintosh; Intel Mac OS X 10_15_7) AppleWebKit/537.36 (KHTML, like Gecko) Chrome/138.0.0.0 Safari/537.36","Macintosh","Chrome","138.0.0.0","OS X","10_15_7","https://app.prolific.com/","en-GB,en-US;q=0.9,en;q=0.8","66742c4307bb2004831faaef","687a360dabe5252b5ada7185","6889da6fc3ba7af97f601b3e","0","66742c4307bb2004831faaef","0","2025-07-30T08:53:52.050Z","","","","ControlQ","","","","","","","","","","","50","","","","","","","","","","","","","","","","","","","","","","","","","","",""
"2409","","<div style=""width:500px;"">
  <p>How would you describe your current emotional state?</p>
  </div>","50","html-slider-response","36","809132","0.0-7.0-3.4","25","1","2025-07-30 08:40:24","36c45c0696341be0efffe67d72a12abb","90.196.11.108","Mozilla/5.0 (Macintosh; Intel Mac OS X 10_15_7) AppleWebKit/537.36 (KHTML, like Gecko) Chrome/138.0.0.0 Safari/537.36","Macintosh","Chrome","138.0.0.0","OS X","10_15_7","https://app.prolific.com/","en-GB,en-US;q=0.9,en;q=0.8","66742c4307bb2004831faaef","687a360dabe5252b5ada7185","6889da6fc3ba7af97f601b3e","0","66742c4307bb2004831faaef","0","2025-07-30T08:53:54.460Z","","","","StressQ","","","","","","","","","","","50","","","","","","","","","","","","","","","","","","","","","","","","","","",""
"3358","","<div style=""width:500px;"">
  <p>What best describes how you currently feel?</p>
  </div>","70","html-slider-response","37","812491","0.0-7.0-4.4","25","1","2025-07-30 08:40:24","36c45c0696341be0efffe67d72a12abb","90.196.11.108","Mozilla/5.0 (Macintosh; Intel Mac OS X 10_15_7) AppleWebKit/537.36 (KHTML, like Gecko) Chrome/138.0.0.0 Safari/537.36","Macintosh","Chrome","138.0.0.0","OS X","10_15_7","https://app.prolific.com/","en-GB,en-US;q=0.9,en;q=0.8","66742c4307bb2004831faaef","687a360dabe5252b5ada7185","6889da6fc3ba7af97f601b3e","0","66742c4307bb2004831faaef","0","2025-07-30T08:53:57.819Z","","","","MotivationQ","","","","","","","","","","","50","","","","","","","","","","","","","","","","","","","","","","","","","","",""
"","","","","ctl-task-cpt","38","853418","0.0-7.0-0.5","25","1","2025-07-30 08:40:24","36c45c0696341be0efffe67d72a12abb","90.196.11.108","Mozilla/5.0 (Macintosh; Intel Mac OS X 10_15_7) AppleWebKit/537.36 (KHTML, like Gecko) Chrome/138.0.0.0 Safari/537.36","Macintosh","Chrome","138.0.0.0","OS X","10_15_7","https://app.prolific.com/","en-GB,en-US;q=0.9,en;q=0.8","66742c4307bb2004831faaef","687a360dabe5252b5ada7185","6889da6fc3ba7af97f601b3e","0","66742c4307bb2004831faaef","0","2025-07-30T08:54:38.746Z","","","","","","","","","","","","","","","","win-only","3","g1:SW,g2:NE","0.5","6","0","813488.9","851.4","5856.5","37916.1","1","4","8","6","2","-8","-10","0","0","0","2033.6","3000","-2535","[""up"",""right""]","{""num_key_presses"":10,""num_perfect"":5,""num_errors"":2,""num_randdir"":3,""num_randdir_good_moves"":0,""num_whilered"":0,""num_whileblue"":1,""num_blue"":2,""num_good_moves"":5}","[702.2857142857143,704.0825892857143,0.2,702.2857142857143,706.0825892857143,100.5,702.2857142857143,706.0825892857143,210.4,702.2857142857143,706.0825892857143,310.5,702.2857142857143,706.0825892857143,414.6,694.2857142857143,718.0825892857143,519.8,640.2857142857143,756.0825892857143,628.5,632.2857142857143,770.0825892857143,729.2,624.2857142857143,788.0825892857143,829.5,622.2857142857143,794.0825892857143,929.7,622.2857142857143,794.0825892857143,1030.4,622.2857142857143,794.0825892857143,1130.4,622.2857142857143,792.0825892857143,1234.7,626.2857142857143,780.0825892857143,1343.6,626.2857142857143,780.0825892857143,1445.3,626.2857142857143,780.0825892857143,1549.9,626.2857142857143,780.0825892857143,1650.3,702.2857142857143,698.0825892857143,1750.3,1252.2857142857142,212.08258928571428,1859.4,1252.2857142857142,212.08258928571428,1961.6,1252.2857142857142,212.08258928571428,2065.2,1252.2857142857142,212.08258928571428,2169.6,1252.2857142857142,212.08258928571428,2274.2,1252.2857142857142,212.08258928571428,2381,1252.2857142857142,212.08258928571428,2488.5,1252.2857142857142,212.08258928571428,2590.3,1252.2857142857142,212.08258928571428,2694.9,1252.2857142857142,212.08258928571428,2799.1,1252.2857142857142,212.08258928571428,2900.3,1252.2857142857142,212.08258928571428,3005.1,1252.2857142857142,212.08258928571428,3108.9,1252.2857142857142,212.08258928571428,3211,1252.2857142857142,212.08258928571428,3314.9,1252.2857142857142,212.08258928571428,3419.3,1252.2857142857142,212.08258928571428,3524.1,1252.2857142857142,212.08258928571428,3630.6,1252.2857142857142,212.08258928571428,3733.8,1252.2857142857142,212.08258928571428,3844.5,1252.2857142857142,212.08258928571428,3945.6,1252.2857142857142,212.08258928571428,4049.6,1252.2857142857142,212.08258928571428,4159.9,1252.2857142857142,212.08258928571428,4260.7,1252.2857142857142,212.08258928571428,4363.9,1252.2857142857142,212.08258928571428,4465.8,1252.2857142857142,212.08258928571428,4570.2,1252.2857142857142,212.08258928571428,4678.1,1252.2857142857142,212.08258928571428,4780.4,1252.2857142857142,212.08258928571428,4884.6,1252.2857142857142,212.08258928571428,4984.6]","[325.3,325.3,1000,0,-674.7,""error"",""-"",""-"",""no_move"",7504.5,7179,2455.7,4675,373.8,""oops"",""up"",""left"",""bad_move"",10860.6,3355.7,2477.2,7504.9,878.5,""smooth"",""up"",""up"",""good_move"",13276.8,2415.8,2034.5,10861,381.4,""smooth"",""up"",""up"",""good_move"",16407.8,3130.6,2761.1,13277.2,369.5,""oops"",""right"",""down"",""bad_move"",18741.2,2333,1961.3,16408.2,371.7,""smooth"",""up"",""up"",""good_move"",21857.4,3116,2778.5,18741.4,337.5,""oops"",""right"",""down"",""bad_move"",24583.7,2726.2,2395.8,21857.5,330.4,""smooth"",""right"",""right"",""good_move"",26889.7,2305.7,2013.8,24584,291.9,""smooth"",""right"",""right"",""good_move"",29496.8,2606.8,2366.3,26890,240.5,""while_blue"",""up"",""left"",""bad_move""]"
"6493","","<div style=""width:500px;"">
  <p>What determined the result of this run?</p>
  </div>","28","html-slider-response","39","859912","0.0-7.0-1.5","25","1","2025-07-30 08:40:24","36c45c0696341be0efffe67d72a12abb","90.196.11.108","Mozilla/5.0 (Macintosh; Intel Mac OS X 10_15_7) AppleWebKit/537.36 (KHTML, like Gecko) Chrome/138.0.0.0 Safari/537.36","Macintosh","Chrome","138.0.0.0","OS X","10_15_7","https://app.prolific.com/","en-GB,en-US;q=0.9,en;q=0.8","66742c4307bb2004831faaef","687a360dabe5252b5ada7185","6889da6fc3ba7af97f601b3e","0","66742c4307bb2004831faaef","0","2025-07-30T08:54:45.240Z","","","","AttribQ","","","","","","","","","","","50","","","","","","","","","","","","","","","","","","","","","","","","","","",""
"5060","","<div style=""width:500px;"">
  <p>How much control did you have over the ball?</p>
  </div>","15","html-slider-response","40","864973","0.0-7.0-2.5","25","1","2025-07-30 08:40:24","36c45c0696341be0efffe67d72a12abb","90.196.11.108","Mozilla/5.0 (Macintosh; Intel Mac OS X 10_15_7) AppleWebKit/537.36 (KHTML, like Gecko) Chrome/138.0.0.0 Safari/537.36","Macintosh","Chrome","138.0.0.0","OS X","10_15_7","https://app.prolific.com/","en-GB,en-US;q=0.9,en;q=0.8","66742c4307bb2004831faaef","687a360dabe5252b5ada7185","6889da6fc3ba7af97f601b3e","0","66742c4307bb2004831faaef","0","2025-07-30T08:54:50.301Z","","","","ControlQ","","","","","","","","","","","50","","","","","","","","","","","","","","","","","","","","","","","","","","",""
"2152","","<div style=""width:500px;"">
  <p>How would you describe your current emotional state?</p>
  </div>","68","html-slider-response","41","867127","0.0-7.0-3.5","25","1","2025-07-30 08:40:24","36c45c0696341be0efffe67d72a12abb","90.196.11.108","Mozilla/5.0 (Macintosh; Intel Mac OS X 10_15_7) AppleWebKit/537.36 (KHTML, like Gecko) Chrome/138.0.0.0 Safari/537.36","Macintosh","Chrome","138.0.0.0","OS X","10_15_7","https://app.prolific.com/","en-GB,en-US;q=0.9,en;q=0.8","66742c4307bb2004831faaef","687a360dabe5252b5ada7185","6889da6fc3ba7af97f601b3e","0","66742c4307bb2004831faaef","0","2025-07-30T08:54:52.455Z","","","","StressQ","","","","","","","","","","","50","","","","","","","","","","","","","","","","","","","","","","","","","","",""
"2507","","<div style=""width:500px;"">
  <p>What best describes how you currently feel?</p>
  </div>","66","html-slider-response","42","869634","0.0-7.0-4.5","25","1","2025-07-30 08:40:24","36c45c0696341be0efffe67d72a12abb","90.196.11.108","Mozilla/5.0 (Macintosh; Intel Mac OS X 10_15_7) AppleWebKit/537.36 (KHTML, like Gecko) Chrome/138.0.0.0 Safari/537.36","Macintosh","Chrome","138.0.0.0","OS X","10_15_7","https://app.prolific.com/","en-GB,en-US;q=0.9,en;q=0.8","66742c4307bb2004831faaef","687a360dabe5252b5ada7185","6889da6fc3ba7af97f601b3e","0","66742c4307bb2004831faaef","0","2025-07-30T08:54:54.963Z","","","","MotivationQ","","","","","","","","","","","50","","","","","","","","","","","","","","","","","","","","","","","","","","",""
"","","","","ctl-task-cpt","43","910100","0.0-7.0-0.6","25","1","2025-07-30 08:40:24","36c45c0696341be0efffe67d72a12abb","90.196.11.108","Mozilla/5.0 (Macintosh; Intel Mac OS X 10_15_7) AppleWebKit/537.36 (KHTML, like Gecko) Chrome/138.0.0.0 Safari/537.36","Macintosh","Chrome","138.0.0.0","OS X","10_15_7","https://app.prolific.com/","en-GB,en-US;q=0.9,en;q=0.8","66742c4307bb2004831faaef","687a360dabe5252b5ada7185","6889da6fc3ba7af97f601b3e","0","66742c4307bb2004831faaef","0","2025-07-30T08:55:35.428Z","","","","","","","","","","","","","","","","win-only","3","g1:SW,g2:NE","0.4","7","0","870634.5","918.6","5922.4","37453.3","1","4","8","6","2","-8","-8","0","0","0","982.6","3000","-2200","[""up"",""right""]","{""num_key_presses"":10,""num_perfect"":4,""num_errors"":0,""num_randdir"":6,""num_randdir_good_moves"":3,""num_whilered"":0,""num_whileblue"":0,""num_blue"":0,""num_good_moves"":7}","[700.2857142857143,704.0825892857143,0.1,700.2857142857143,704.0825892857143,104.2,700.2857142857143,704.0825892857143,208.3,700.2857142857143,704.0825892857143,317.5,710.2857142857143,694.0825892857143,418.9,1016.2857142857143,376.0825892857143,524.5,1228.2857142857142,136.08258928571428,629.3,1276.2857142857142,94.08258928571429,730.6,1298.2857142857142,86.08258928571429,838.1,1298.2857142857142,86.08258928571429,941.2,1298.2857142857142,86.08258928571429,1050,1298.2857142857142,86.08258928571429,1156.5,1298.2857142857142,86.08258928571429,1256.8,1298.2857142857142,86.08258928571429,1360.5,1298.2857142857142,86.08258928571429,1465.8,1278.2857142857142,108.08258928571429,1569.7,1224.2857142857142,210.08258928571428,1670.8,1212.2857142857142,268.0825892857143,1771.1,1212.2857142857142,324.0825892857143,1872.5,1214.2857142857142,326.0825892857143,1980.5,1214.2857142857142,326.0825892857143,2084.5,1214.2857142857142,326.0825892857143,2193.9,1214.2857142857142,326.0825892857143,2296.1,1214.2857142857142,326.0825892857143,2398.8,1214.2857142857142,326.0825892857143,2504.7,1214.2857142857142,326.0825892857143,2605.6,1214.2857142857142,326.0825892857143,2709.1,1214.2857142857142,326.0825892857143,2813.2,1214.2857142857142,326.0825892857143,2914.7,1214.2857142857142,326.0825892857143,3021.7,1214.2857142857142,326.0825892857143,3129.1,1214.2857142857142,326.0825892857143,3231.3,1214.2857142857142,326.0825892857143,3334.8,1214.2857142857142,326.0825892857143,3439.7,1214.2857142857142,326.0825892857143,3544.3,1214.2857142857142,326.0825892857143,3650,1214.2857142857142,326.0825892857143,3754.2,1214.2857142857142,326.0825892857143,3858,1214.2857142857142,326.0825892857143,3970.3,1214.2857142857142,326.0825892857143,4079.5,1214.2857142857142,326.0825892857143,4184.2,1214.2857142857142,326.0825892857143,4288,1214.2857142857142,326.0825892857143,4389.4,1214.2857142857142,326.0825892857143,4500,1214.2857142857142,326.0825892857143,4600.4,1214.2857142857142,326.0825892857143,4703.7,1214.2857142857142,326.0825892857143,4808.9,1214.2857142857142,326.0825892857143,4909.9]","[1470.1,1470.1,1000,0,470.1,""oops"",""up"",""right"",""good_move"",4852.5,3382.2,2974.4,1470.4,407.8,""smooth"",""up"",""up"",""good_move"",7379.4,2526.5,2174.7,4852.9,351.8,""oops"",""up"",""left"",""bad_move"",9778.6,2398.9,2040.4,7379.7,358.5,""oops"",""up"",""left"",""bad_move"",12768.9,2990.1,2575.6,9778.9,414.4,""smooth"",""up"",""up"",""good_move"",16748.8,3979.6,3491.8,12769.2,487.8,""oops"",""up"",""up"",""good_move"",19916.3,3167.3,2670.6,16749,496.7,""smooth"",""right"",""right"",""good_move"",22627.3,2710.5,2396.6,19916.8,313.9,""oops"",""right"",""down"",""bad_move"",25696.6,3068.9,2785.4,22627.7,283.5,""smooth"",""right"",""right"",""good_move"",28835.8,3139,2764.4,25696.8,374.6,""oops"",""right"",""right"",""good_move""]"
"13720","","<div style=""width:500px;"">
  <p>What determined the result of this run?</p>
  </div>","5","html-slider-response","44","923820","0.0-7.0-1.6","25","1","2025-07-30 08:40:24","36c45c0696341be0efffe67d72a12abb","90.196.11.108","Mozilla/5.0 (Macintosh; Intel Mac OS X 10_15_7) AppleWebKit/537.36 (KHTML, like Gecko) Chrome/138.0.0.0 Safari/537.36","Macintosh","Chrome","138.0.0.0","OS X","10_15_7","https://app.prolific.com/","en-GB,en-US;q=0.9,en;q=0.8","66742c4307bb2004831faaef","687a360dabe5252b5ada7185","6889da6fc3ba7af97f601b3e","0","66742c4307bb2004831faaef","0","2025-07-30T08:55:49.148Z","","","","AttribQ","","","","","","","","","","","50","","","","","","","","","","","","","","","","","","","","","","","","","","",""
"2791","","<div style=""width:500px;"">
  <p>How much control did you have over the ball?</p>
  </div>","9","html-slider-response","45","926612","0.0-7.0-2.6","25","1","2025-07-30 08:40:24","36c45c0696341be0efffe67d72a12abb","90.196.11.108","Mozilla/5.0 (Macintosh; Intel Mac OS X 10_15_7) AppleWebKit/537.36 (KHTML, like Gecko) Chrome/138.0.0.0 Safari/537.36","Macintosh","Chrome","138.0.0.0","OS X","10_15_7","https://app.prolific.com/","en-GB,en-US;q=0.9,en;q=0.8","66742c4307bb2004831faaef","687a360dabe5252b5ada7185","6889da6fc3ba7af97f601b3e","0","66742c4307bb2004831faaef","0","2025-07-30T08:55:51.940Z","","","","ControlQ","","","","","","","","","","","50","","","","","","","","","","","","","","","","","","","","","","","","","","",""
"1426","","<div style=""width:500px;"">
  <p>How would you describe your current emotional state?</p>
  </div>","86","html-slider-response","46","928039","0.0-7.0-3.6","25","1","2025-07-30 08:40:24","36c45c0696341be0efffe67d72a12abb","90.196.11.108","Mozilla/5.0 (Macintosh; Intel Mac OS X 10_15_7) AppleWebKit/537.36 (KHTML, like Gecko) Chrome/138.0.0.0 Safari/537.36","Macintosh","Chrome","138.0.0.0","OS X","10_15_7","https://app.prolific.com/","en-GB,en-US;q=0.9,en;q=0.8","66742c4307bb2004831faaef","687a360dabe5252b5ada7185","6889da6fc3ba7af97f601b3e","0","66742c4307bb2004831faaef","0","2025-07-30T08:55:53.368Z","","","","StressQ","","","","","","","","","","","50","","","","","","","","","","","","","","","","","","","","","","","","","","",""
"3092","","<div style=""width:500px;"">
  <p>What best describes how you currently feel?</p>
  </div>","72","html-slider-response","47","931133","0.0-7.0-4.6","25","1","2025-07-30 08:40:24","36c45c0696341be0efffe67d72a12abb","90.196.11.108","Mozilla/5.0 (Macintosh; Intel Mac OS X 10_15_7) AppleWebKit/537.36 (KHTML, like Gecko) Chrome/138.0.0.0 Safari/537.36","Macintosh","Chrome","138.0.0.0","OS X","10_15_7","https://app.prolific.com/","en-GB,en-US;q=0.9,en;q=0.8","66742c4307bb2004831faaef","687a360dabe5252b5ada7185","6889da6fc3ba7af97f601b3e","0","66742c4307bb2004831faaef","0","2025-07-30T08:55:56.461Z","","","","MotivationQ","","","","","","","","","","","50","","","","","","","","","","","","","","","","","","","","","","","","","","",""
"","","","","ctl-task-cpt","48","962558","0.0-7.0-0.7","25","1","2025-07-30 08:40:24","36c45c0696341be0efffe67d72a12abb","90.196.11.108","Mozilla/5.0 (Macintosh; Intel Mac OS X 10_15_7) AppleWebKit/537.36 (KHTML, like Gecko) Chrome/138.0.0.0 Safari/537.36","Macintosh","Chrome","138.0.0.0","OS X","10_15_7","https://app.prolific.com/","en-GB,en-US;q=0.9,en;q=0.8","66742c4307bb2004831faaef","687a360dabe5252b5ada7185","6889da6fc3ba7af97f601b3e","0","66742c4307bb2004831faaef","0","2025-07-30T08:56:27.886Z","","","","","","","","","","","","","","","","win-only","0","g1:NW,g2:SE","0.3","8","0","932134.8","736.5","5738.2","28408.7","1","4","4","6","2","-4","-5","0","0","0","1699.7","3000","-1975","[""down"",""right""]","{""num_key_presses"":7,""num_perfect"":2,""num_errors"":1,""num_randdir"":4,""num_randdir_good_moves"":0,""num_whilered"":0,""num_whileblue"":0,""num_blue"":0,""num_good_moves"":2}","[712.2857142857143,704.0825892857143,0.2,712.2857142857143,704.0825892857143,107.8,712.2857142857143,704.0825892857143,217.2,754.2857142857143,734.0825892857143,328.5,904.2857142857143,936.0825892857143,433.2,968.2857142857143,1014.0825892857143,534.8,908.2857142857143,926.0825892857143,638.5,656.2857142857143,636.0825892857143,753,640.2857142857143,620.0825892857143,855.8,638.2857142857143,620.0825892857143,959.6,638.2857142857143,620.0825892857143,1060.9,638.2857142857143,620.0825892857143,1167.7,670.2857142857143,656.0825892857143,1268.5,1174.2857142857142,1136.0825892857142,1373.2,1200.2857142857142,1162.0825892857142,1478.1,1206.2857142857142,1174.0825892857142,1583.4,1258.2857142857142,1244.0825892857142,1685.7,1258.2857142857142,1244.0825892857142,1785.8,1258.2857142857142,1244.0825892857142,1889.2,1258.2857142857142,1244.0825892857142,1997,1260.2857142857142,1240.0825892857142,2097.9,1278.2857142857142,1102.0825892857142,2198.8,1372.2857142857142,818.0825892857143,2304.5,1386.2857142857142,778.0825892857143,2412.3,1348.2857142857142,772.0825892857143,2513.6,1308.2857142857142,808.0825892857143,2619.9,1306.2857142857142,810.0825892857143,2721.9,1306.2857142857142,810.0825892857143,2824.3,1306.2857142857142,810.0825892857143,2925.2,1306.2857142857142,810.0825892857143,3030.3,1306.2857142857142,810.0825892857143,3139.1,1306.2857142857142,810.0825892857143,3247.5,1306.2857142857142,810.0825892857143,3349.4,1306.2857142857142,810.0825892857143,3453.2,1306.2857142857142,810.0825892857143,3553.4,1306.2857142857142,810.0825892857143,3654.1,1306.2857142857142,810.0825892857143,3772,1306.2857142857142,810.0825892857143,3876.4,1306.2857142857142,810.0825892857143,3976.4,1306.2857142857142,810.0825892857143,4076.5,1306.2857142857142,810.0825892857143,4193,1306.2857142857142,810.0825892857143,4297.6,1306.2857142857142,810.0825892857143,4402.1,1306.2857142857142,810.0825892857143,4508.5,1306.2857142857142,810.0825892857143,4610.6,1306.2857142857142,810.0825892857143,4713.2,1306.2857142857142,810.0825892857143,4824.5,1306.2857142857142,810.0825892857143,4925.6]","[491.1,491.1,1000,0,-508.9,""error"",""-"",""-"",""no_move"",4675.3,4184,2271.5,1494.1,909.7,""smooth"",""down"",""down"",""good_move"",7867.1,3191.4,2657.9,4675.7,533.5,""oops"",""right"",""up"",""bad_move"",10570.7,2703.2,2291.6,7867.5,411.6,""smooth"",""down"",""down"",""good_move"",13448.8,2877.9,2458.4,10570.9,419.5,""oops"",""right"",""up"",""bad_move"",16598.9,3149.8,2122.9,13449.1,1026.9,""oops"",""right"",""up"",""bad_move"",19237.3,2638.2,2196.1,16599.1,442.1,""oops"",""down"",""left"",""bad_move""]"
"18211","","<div style=""width:500px;"">
  <p>What determined the result of this run?</p>
  </div>","0","html-slider-response","49","980769","0.0-7.0-1.7","25","1","2025-07-30 08:40:24","36c45c0696341be0efffe67d72a12abb","90.196.11.108","Mozilla/5.0 (Macintosh; Intel Mac OS X 10_15_7) AppleWebKit/537.36 (KHTML, like Gecko) Chrome/138.0.0.0 Safari/537.36","Macintosh","Chrome","138.0.0.0","OS X","10_15_7","https://app.prolific.com/","en-GB,en-US;q=0.9,en;q=0.8","66742c4307bb2004831faaef","687a360dabe5252b5ada7185","6889da6fc3ba7af97f601b3e","0","66742c4307bb2004831faaef","0","2025-07-30T08:56:46.097Z","","","","AttribQ","","","","","","","","","","","50","","","","","","","","","","","","","","","","","","","","","","","","","","",""
"4406","","<div style=""width:500px;"">
  <p>How much control did you have over the ball?</p>
  </div>","0","html-slider-response","50","985176","0.0-7.0-2.7","25","1","2025-07-30 08:40:24","36c45c0696341be0efffe67d72a12abb","90.196.11.108","Mozilla/5.0 (Macintosh; Intel Mac OS X 10_15_7) AppleWebKit/537.36 (KHTML, like Gecko) Chrome/138.0.0.0 Safari/537.36","Macintosh","Chrome","138.0.0.0","OS X","10_15_7","https://app.prolific.com/","en-GB,en-US;q=0.9,en;q=0.8","66742c4307bb2004831faaef","687a360dabe5252b5ada7185","6889da6fc3ba7af97f601b3e","0","66742c4307bb2004831faaef","0","2025-07-30T08:56:50.504Z","","","","ControlQ","","","","","","","","","","","50","","","","","","","","","","","","","","","","","","","","","","","","","","",""
"2091","","<div style=""width:500px;"">
  <p>How would you describe your current emotional state?</p>
  </div>","86","html-slider-response","51","987268","0.0-7.0-3.7","25","1","2025-07-30 08:40:24","36c45c0696341be0efffe67d72a12abb","90.196.11.108","Mozilla/5.0 (Macintosh; Intel Mac OS X 10_15_7) AppleWebKit/537.36 (KHTML, like Gecko) Chrome/138.0.0.0 Safari/537.36","Macintosh","Chrome","138.0.0.0","OS X","10_15_7","https://app.prolific.com/","en-GB,en-US;q=0.9,en;q=0.8","66742c4307bb2004831faaef","687a360dabe5252b5ada7185","6889da6fc3ba7af97f601b3e","0","66742c4307bb2004831faaef","0","2025-07-30T08:56:52.596Z","","","","StressQ","","","","","","","","","","","50","","","","","","","","","","","","","","","","","","","","","","","","","","",""
"1766","","<div style=""width:500px;"">
  <p>What best describes how you currently feel?</p>
  </div>","72","html-slider-response","52","989035","0.0-7.0-4.7","25","1","2025-07-30 08:40:24","36c45c0696341be0efffe67d72a12abb","90.196.11.108","Mozilla/5.0 (Macintosh; Intel Mac OS X 10_15_7) AppleWebKit/537.36 (KHTML, like Gecko) Chrome/138.0.0.0 Safari/537.36","Macintosh","Chrome","138.0.0.0","OS X","10_15_7","https://app.prolific.com/","en-GB,en-US;q=0.9,en;q=0.8","66742c4307bb2004831faaef","687a360dabe5252b5ada7185","6889da6fc3ba7af97f601b3e","0","66742c4307bb2004831faaef","0","2025-07-30T08:56:54.363Z","","","","MotivationQ","","","","","","","","","","","50","","","","","","","","","","","","","","","","","","","","","","","","","","",""
"","","","","ctl-task-cpt","53","1030914","0.0-7.0-0.8","25","1","2025-07-30 08:40:24","36c45c0696341be0efffe67d72a12abb","90.196.11.108","Mozilla/5.0 (Macintosh; Intel Mac OS X 10_15_7) AppleWebKit/537.36 (KHTML, like Gecko) Chrome/138.0.0.0 Safari/537.36","Macintosh","Chrome","138.0.0.0","OS X","10_15_7","https://app.prolific.com/","en-GB,en-US;q=0.9,en;q=0.8","66742c4307bb2004831faaef","687a360dabe5252b5ada7185","6889da6fc3ba7af97f601b3e","0","66742c4307bb2004831faaef","0","2025-07-30T08:57:36.242Z","","","","","","","","","","","","","","","","win-only","0","g1:NW,g2:SE","0.4","9","0","990038.7","4334.7","9336.5","38862.9","1","4","4","6","2","-4","-7","0","0","0","982.2","3000","-1995","[""down"",""right""]","{""num_key_presses"":8,""num_perfect"":2,""num_errors"":3,""num_randdir"":3,""num_randdir_good_moves"":2,""num_whilered"":0,""num_whileblue"":0,""num_blue"":1,""num_good_moves"":3}","[696.2857142857143,716.0825892857143,0.3,696.2857142857143,716.0825892857143,105,696.2857142857143,716.0825892857143,212,724.2857142857143,732.0825892857143,312.6,920.2857142857143,928.0825892857143,417.6,1104.2857142857142,1144.0825892857142,519.1,1162.2857142857142,1234.0825892857142,622.9,1162.2857142857142,1234.0825892857142,734.5,1254.2857142857142,1242.0825892857142,840.3,1292.2857142857142,1248.0825892857142,946.5,1294.2857142857142,1248.0825892857142,1050.6,1294.2857142857142,1248.0825892857142,1151.3,1294.2857142857142,1248.0825892857142,1252.9,1294.2857142857142,1248.0825892857142,1355.5,1294.2857142857142,1248.0825892857142,1459.2,1294.2857142857142,1248.0825892857142,1560.7,1294.2857142857142,1248.0825892857142,1660.9,1294.2857142857142,1248.0825892857142,1761.9,1294.2857142857142,1248.0825892857142,1864.2,1294.2857142857142,1248.0825892857142,1965.4,1294.2857142857142,1248.0825892857142,2072.3,1294.2857142857142,1248.0825892857142,2178,1294.2857142857142,1248.0825892857142,2280,1294.2857142857142,1248.0825892857142,2381.8,1294.2857142857142,1248.0825892857142,2482.3,1294.2857142857142,1248.0825892857142,2587.8,1294.2857142857142,1248.0825892857142,2688.9,1294.2857142857142,1248.0825892857142,2792.5,1294.2857142857142,1248.0825892857142,2894.7,1294.2857142857142,1248.0825892857142,2997.6,1294.2857142857142,1248.0825892857142,3098.6,1294.2857142857142,1248.0825892857142,3203.2,1294.2857142857142,1248.0825892857142,3310.4,1294.2857142857142,1248.0825892857142,3415.3,1294.2857142857142,1248.0825892857142,3526.2,1294.2857142857142,1248.0825892857142,3629.5,1294.2857142857142,1248.0825892857142,3731.8,1294.2857142857142,1248.0825892857142,3833,1294.2857142857142,1248.0825892857142,3935.2,1294.2857142857142,1248.0825892857142,4036.9,1294.2857142857142,1248.0825892857142,4137.8,1294.2857142857142,1248.0825892857142,4244.4,1294.2857142857142,1248.0825892857142,4347,1294.2857142857142,1248.0825892857142,4448.6,1294.2857142857142,1248.0825892857142,4550.1,1294.2857142857142,1248.0825892857142,4652.8,1294.2857142857142,1248.0825892857142,4754.2,1294.2857142857142,1248.0825892857142,4864.7,1294.2857142857142,1248.0825892857142,4966.3]","[1346.6,1346.6,1000,0,346.6,""oops"",""up"",""right"",""good_move"",2955.3,1608.3,2538,1347,-929.7,""error"",""-"",""-"",""no_move"",7027.9,4072.4,2731.3,3956.1,340.5,""smooth"",""up"",""up"",""bad_move"",8397.5,1369.2,2416.3,7028.3,-1047.1,""error"",""-"",""-"",""no_move"",12384.1,3986.4,2615.5,9407.9,360.7,""oops"",""down"",""up"",""bad_move"",15498.1,3113.8,2622.3,12384.3,491.5,""oops"",""down"",""down"",""good_move"",19455.6,3957,1928.5,19097.7,-1570.6,""error"",""-"",""-"",""no_move"",23760,4304.2,2861.5,20464.6,433.9,""smooth"",""down"",""down"",""good_move""]"
"3575","","<div style=""width:500px;"">
  <p>What determined the result of this run?</p>
  </div>","0","html-slider-response","54","1034490","0.0-7.0-1.8","25","1","2025-07-30 08:40:24","36c45c0696341be0efffe67d72a12abb","90.196.11.108","Mozilla/5.0 (Macintosh; Intel Mac OS X 10_15_7) AppleWebKit/537.36 (KHTML, like Gecko) Chrome/138.0.0.0 Safari/537.36","Macintosh","Chrome","138.0.0.0","OS X","10_15_7","https://app.prolific.com/","en-GB,en-US;q=0.9,en;q=0.8","66742c4307bb2004831faaef","687a360dabe5252b5ada7185","6889da6fc3ba7af97f601b3e","0","66742c4307bb2004831faaef","0","2025-07-30T08:57:39.818Z","","","","AttribQ","","","","","","","","","","","50","","","","","","","","","","","","","","","","","","","","","","","","","","",""
"28165","","<div style=""width:500px;"">
  <p>How much control did you have over the ball?</p>
  </div>","50","html-slider-response","55","1062655","0.0-7.0-2.8","25","1","2025-07-30 08:40:24","36c45c0696341be0efffe67d72a12abb","90.196.11.108","Mozilla/5.0 (Macintosh; Intel Mac OS X 10_15_7) AppleWebKit/537.36 (KHTML, like Gecko) Chrome/138.0.0.0 Safari/537.36","Macintosh","Chrome","138.0.0.0","OS X","10_15_7","https://app.prolific.com/","en-GB,en-US;q=0.9,en;q=0.8","66742c4307bb2004831faaef","687a360dabe5252b5ada7185","6889da6fc3ba7af97f601b3e","0","66742c4307bb2004831faaef","0","2025-07-30T08:58:07.983Z","","","","ControlQ","","","","","","","","","","","50","","","","","","","","","","","","","","","","","","","","","","","","","","",""
"3542","","<div style=""width:500px;"">
  <p>How would you describe your current emotional state?</p>
  </div>","96","html-slider-response","56","1066198","0.0-7.0-3.8","25","1","2025-07-30 08:40:24","36c45c0696341be0efffe67d72a12abb","90.196.11.108","Mozilla/5.0 (Macintosh; Intel Mac OS X 10_15_7) AppleWebKit/537.36 (KHTML, like Gecko) Chrome/138.0.0.0 Safari/537.36","Macintosh","Chrome","138.0.0.0","OS X","10_15_7","https://app.prolific.com/","en-GB,en-US;q=0.9,en;q=0.8","66742c4307bb2004831faaef","687a360dabe5252b5ada7185","6889da6fc3ba7af97f601b3e","0","66742c4307bb2004831faaef","0","2025-07-30T08:58:11.526Z","","","","StressQ","","","","","","","","","","","50","","","","","","","","","","","","","","","","","","","","","","","","","","",""
"178948","","<div style=""width:500px;"">
  <p>What best describes how you currently feel?</p>
  </div>","67","html-slider-response","57","1245141","0.0-7.0-4.8","25","1","2025-07-30 08:40:24","36c45c0696341be0efffe67d72a12abb","90.196.11.108","Mozilla/5.0 (Macintosh; Intel Mac OS X 10_15_7) AppleWebKit/537.36 (KHTML, like Gecko) Chrome/138.0.0.0 Safari/537.36","Macintosh","Chrome","138.0.0.0","OS X","10_15_7","https://app.prolific.com/","en-GB,en-US;q=0.9,en;q=0.8","66742c4307bb2004831faaef","687a360dabe5252b5ada7185","6889da6fc3ba7af97f601b3e","0","66742c4307bb2004831faaef","0","2025-07-30T09:01:10.470Z","","","","MotivationQ","","","","","","","","","","","50","","","","","","","","","","","","","","","","","","","","","","","","","","",""
"","","","","ctl-task-cpt","58","1954777","0.0-7.0-0.9","25","1","2025-07-30 08:40:24","36c45c0696341be0efffe67d72a12abb","90.196.11.108","Mozilla/5.0 (Macintosh; Intel Mac OS X 10_15_7) AppleWebKit/537.36 (KHTML, like Gecko) Chrome/138.0.0.0 Safari/537.36","Macintosh","Chrome","138.0.0.0","OS X","10_15_7","https://app.prolific.com/","en-GB,en-US;q=0.9,en;q=0.8","66742c4307bb2004831faaef","687a360dabe5252b5ada7185","6889da6fc3ba7af97f601b3e","0","66742c4307bb2004831faaef","0","2025-07-30T09:13:00.105Z","","","","","","","","","","","","","","","","win-only","3","g1:SW,g2:NE","0.5","10","0","1246153.2","641275","646282.3","706581.7","1","4","8","6","2","-8","-10","0","0","0","2849.5","3000","-1755","[""up"",""right""]","{""num_key_presses"":14,""num_perfect"":5,""num_errors"":2,""num_randdir"":7,""num_randdir_good_moves"":3,""num_whilered"":0,""num_whileblue"":0,""num_blue"":5,""num_good_moves"":8}","[700.2857142857143,708.0825892857143,0.2,700.2857142857143,708.0825892857143,101.3,700.2857142857143,708.0825892857143,206.6,700.2857142857143,708.0825892857143,307.4,700.2857142857143,708.0825892857143,411.1,700.2857142857143,708.0825892857143,514.4,700.2857142857143,708.0825892857143,614.5,700.2857142857143,708.0825892857143,720.5,700.2857142857143,708.0825892857143,826.1,700.2857142857143,708.0825892857143,928.5,700.2857142857143,708.0825892857143,1038.9,700.2857142857143,708.0825892857143,1139.3,700.2857142857143,708.0825892857143,1241.2,700.2857142857143,708.0825892857143,1342.2,700.2857142857143,708.0825892857143,1446.4,700.2857142857143,708.0825892857143,1549.1,700.2857142857143,708.0825892857143,1654.6,700.2857142857143,708.0825892857143,1761.2,700.2857142857143,708.0825892857143,1863.2,700.2857142857143,708.0825892857143,1969.7,636.2857142857143,770.0825892857143,2075.3,600.2857142857143,820.0825892857143,2176.1,602.2857142857143,830.0825892857143,2285.8,692.2857142857143,696.0825892857143,2396,1254.2857142857142,108.08258928571429,2506.2,1280.2857142857142,82.08258928571429,2614.1,1282.2857142857142,86.08258928571429,2721.5,1284.2857142857142,112.08258928571429,2825.3,1284.2857142857142,114.08258928571429,2931.8,1284.2857142857142,114.08258928571429,3036.2,1284.2857142857142,114.08258928571429,3143.6,1284.2857142857142,114.08258928571429,3246.4,1284.2857142857142,114.08258928571429,3354.5,1284.2857142857142,114.08258928571429,3457.7,1286.2857142857142,102.08258928571429,3564.1,642.2857142857143,620.0825892857143,3665.4,642.2857142857143,620.0825892857143,3770.4,642.2857142857143,620.0825892857143,3877.5,642.2857142857143,620.0825892857143,3979.3,642.2857142857143,620.0825892857143,4082,642.2857142857143,620.0825892857143,4184.9,642.2857142857143,620.0825892857143,4290.7,642.2857142857143,620.0825892857143,4399.3,642.2857142857143,620.0825892857143,4503.8,642.2857142857143,620.0825892857143,4606.6,642.2857142857143,620.0825892857143,4711.9,642.2857142857143,620.0825892857143,4820,642.2857142857143,620.0825892857143,4923.5]","[1528,1528,1000,0,528,""smooth"",""right"",""right"",""good_move"",7741.6,6213.2,2594.6,4614,533,""smooth"",""right"",""right"",""good_move"",11024,3282.2,2865,7741.8,417.2,""smooth"",""up"",""up"",""good_move"",13494,2469.6,2058.9,11024.4,410.7,""oops"",""up"",""left"",""bad_move"",16632,3137.7,2755.6,13494.4,382.1,""oops"",""up"",""up"",""good_move"",19659.8,3027.6,2606.3,16632.2,421.3,""oops"",""right"",""left"",""bad_move"",22837,3177,2847.3,19660,329.7,""oops"",""up"",""left"",""bad_move"",29089.9,6252.7,2502.9,26165.3,421.7,""oops"",""right"",""down"",""bad_move"",32093.3,3003.1,2511,29090.2,492.1,""smooth"",""right"",""right"",""good_move"",35463.6,3369.9,3068.9,32093.7,301,""smooth"",""right"",""right"",""good_move"",36550.4,1086.6,2404.7,35463.8,-1318.1,""error"",""-"",""-"",""no_move"",45024.3,8473.6,2917.2,41653.8,453.3,""oops"",""right"",""up"",""good_move"",49600.4,4575.8,2773.3,48838.2,-2011,""error"",""-"",""-"",""no_move"",58259.4,8658.8,3268.6,54622.8,368,""oops"",""right"",""up"",""good_move""]"
"7553","","<div style=""width:500px;"">
  <p>What determined the result of this run?</p>
  </div>","6","html-slider-response","59","1962331","0.0-7.0-1.9","25","1","2025-07-30 08:40:24","36c45c0696341be0efffe67d72a12abb","90.196.11.108","Mozilla/5.0 (Macintosh; Intel Mac OS X 10_15_7) AppleWebKit/537.36 (KHTML, like Gecko) Chrome/138.0.0.0 Safari/537.36","Macintosh","Chrome","138.0.0.0","OS X","10_15_7","https://app.prolific.com/","en-GB,en-US;q=0.9,en;q=0.8","66742c4307bb2004831faaef","687a360dabe5252b5ada7185","6889da6fc3ba7af97f601b3e","0","66742c4307bb2004831faaef","0","2025-07-30T09:13:07.659Z","","","","AttribQ","","","","","","","","","","","50","","","","","","","","","","","","","","","","","","","","","","","","","","",""
"3440","","<div style=""width:500px;"">
  <p>How much control did you have over the ball?</p>
  </div>","4","html-slider-response","60","1965771","0.0-7.0-2.9","25","1","2025-07-30 08:40:24","36c45c0696341be0efffe67d72a12abb","90.196.11.108","Mozilla/5.0 (Macintosh; Intel Mac OS X 10_15_7) AppleWebKit/537.36 (KHTML, like Gecko) Chrome/138.0.0.0 Safari/537.36","Macintosh","Chrome","138.0.0.0","OS X","10_15_7","https://app.prolific.com/","en-GB,en-US;q=0.9,en;q=0.8","66742c4307bb2004831faaef","687a360dabe5252b5ada7185","6889da6fc3ba7af97f601b3e","0","66742c4307bb2004831faaef","0","2025-07-30T09:13:11.100Z","","","","ControlQ","","","","","","","","","","","50","","","","","","","","","","","","","","","","","","","","","","","","","","",""
"3859","","<div style=""width:500px;"">
  <p>How would you describe your current emotional state?</p>
  </div>","71","html-slider-response","61","1969632","0.0-7.0-3.9","25","1","2025-07-30 08:40:24","36c45c0696341be0efffe67d72a12abb","90.196.11.108","Mozilla/5.0 (Macintosh; Intel Mac OS X 10_15_7) AppleWebKit/537.36 (KHTML, like Gecko) Chrome/138.0.0.0 Safari/537.36","Macintosh","Chrome","138.0.0.0","OS X","10_15_7","https://app.prolific.com/","en-GB,en-US;q=0.9,en;q=0.8","66742c4307bb2004831faaef","687a360dabe5252b5ada7185","6889da6fc3ba7af97f601b3e","0","66742c4307bb2004831faaef","0","2025-07-30T09:13:14.960Z","","","","StressQ","","","","","","","","","","","50","","","","","","","","","","","","","","","","","","","","","","","","","","",""
"1872","","<div style=""width:500px;"">
  <p>What best describes how you currently feel?</p>
  </div>","68","html-slider-response","62","1971506","0.0-7.0-4.9","25","1","2025-07-30 08:40:24","36c45c0696341be0efffe67d72a12abb","90.196.11.108","Mozilla/5.0 (Macintosh; Intel Mac OS X 10_15_7) AppleWebKit/537.36 (KHTML, like Gecko) Chrome/138.0.0.0 Safari/537.36","Macintosh","Chrome","138.0.0.0","OS X","10_15_7","https://app.prolific.com/","en-GB,en-US;q=0.9,en;q=0.8","66742c4307bb2004831faaef","687a360dabe5252b5ada7185","6889da6fc3ba7af97f601b3e","0","66742c4307bb2004831faaef","0","2025-07-30T09:13:16.834Z","","","","MotivationQ","","","","","","","","","","","50","","","","","","","","","","","","","","","","","","","","","","","","","","",""
"","","","","ctl-task-cpt","63","2010156","0.0-7.0-0.10","25","1","2025-07-30 08:40:24","36c45c0696341be0efffe67d72a12abb","90.196.11.108","Mozilla/5.0 (Macintosh; Intel Mac OS X 10_15_7) AppleWebKit/537.36 (KHTML, like Gecko) Chrome/138.0.0.0 Safari/537.36","Macintosh","Chrome","138.0.0.0","OS X","10_15_7","https://app.prolific.com/","en-GB,en-US;q=0.9,en;q=0.8","66742c4307bb2004831faaef","687a360dabe5252b5ada7185","6889da6fc3ba7af97f601b3e","0","66742c4307bb2004831faaef","0","2025-07-30T09:13:55.485Z","","","","","","","","","","","","","","","","win-only","0","g1:NW,g2:SE","0.6","11","0","1972477.1","966.8","5974.7","35637","1","4","8","6","2","8","7","7","0","0.05303030303030303","1214","3000","365","[""down"",""right""]","{""num_key_presses"":10,""num_perfect"":6,""num_errors"":1,""num_randdir"":3,""num_randdir_good_moves"":1,""num_whilered"":0,""num_whileblue"":1,""num_blue"":1,""num_good_moves"":8}","[700.2857142857143,688.0825892857143,0.1,700.2857142857143,688.0825892857143,102.5,708.2857142857143,684.0825892857143,211.1,806.2857142857143,622.0825892857143,311.7,820.2857142857143,690.0825892857143,419.1,932.2857142857143,944.0825892857143,523.2,1298.2857142857142,1024.0825892857142,628.3,1310.2857142857142,1032.0825892857142,730.8,1310.2857142857142,1032.0825892857142,830.9,1310.2857142857142,1032.0825892857142,933,1314.2857142857142,1084.0825892857142,1037.5,1338.2857142857142,1236.0825892857142,1142.1,1338.2857142857142,1240.0825892857142,1251.5,1338.2857142857142,1240.0825892857142,1371.2,1338.2857142857142,1240.0825892857142,1475.2,1338.2857142857142,1240.0825892857142,1580.3,1338.2857142857142,1240.0825892857142,1684,1338.2857142857142,1240.0825892857142,1785.4,1338.2857142857142,1240.0825892857142,1889.8,1338.2857142857142,1240.0825892857142,2001.5,1338.2857142857142,1240.0825892857142,2102.4,1338.2857142857142,1240.0825892857142,2205.8,1338.2857142857142,1240.0825892857142,2309.5,1338.2857142857142,1240.0825892857142,2424.1,1338.2857142857142,1240.0825892857142,2528.7,1338.2857142857142,1240.0825892857142,2633.6,1338.2857142857142,1240.0825892857142,2734.4,1338.2857142857142,1240.0825892857142,2839.2,1338.2857142857142,1240.0825892857142,2941,1338.2857142857142,1240.0825892857142,3044.7,1338.2857142857142,1240.0825892857142,3151.7,1338.2857142857142,1240.0825892857142,3255.5,1338.2857142857142,1240.0825892857142,3361.5,1338.2857142857142,1240.0825892857142,3467.8,1338.2857142857142,1240.0825892857142,3568.9,1338.2857142857142,1240.0825892857142,3673.1,1338.2857142857142,1240.0825892857142,3774.2,1338.2857142857142,1240.0825892857142,3877.1,1338.2857142857142,1240.0825892857142,3978.6,1338.2857142857142,1240.0825892857142,4082.4,1338.2857142857142,1240.0825892857142,4185.1,1338.2857142857142,1240.0825892857142,4295.8,1338.2857142857142,1240.0825892857142,4402.7,1338.2857142857142,1240.0825892857142,4503.3,1338.2857142857142,1240.0825892857142,4608.2,1338.2857142857142,1240.0825892857142,4710.9,1338.2857142857142,1240.0825892857142,4819.1,1338.2857142857142,1240.0825892857142,4931]","[1809.2,1809.2,1000,0,809.2,""oops"",""right"",""up"",""bad_move"",5105.9,3296.4,2880.4,1809.5,416,""smooth"",""right"",""right"",""good_move"",8363.6,3257.5,2235.3,5106.1,1022.2,""oops"",""right"",""up"",""bad_move"",11224,2860.2,2447.4,8363.8,412.8,""oops"",""right"",""right"",""good_move"",13821.6,2597.3,2161.1,11224.3,436.2,""smooth"",""right"",""right"",""good_move"",17441.4,3619.5,3261.4,13821.9,358.1,""smooth"",""down"",""down"",""good_move"",20707.2,3265.5,2897,17441.8,368.4,""smooth"",""down"",""down"",""good_move"",23834,3126.7,2844.3,20707.4,282.4,""while_blue"",""down"",""down"",""good_move"",26735.4,2901.1,2443,23834.3,458.1,""smooth"",""down"",""down"",""good_move"",29492.6,2756.9,2278.3,26735.7,478.6,""smooth"",""down"",""down"",""good_move""]"
"7666","","<div style=""width:500px;"">
  <p>What determined the result of this run?</p>
  </div>","50","html-slider-response","64","2017824","0.0-7.0-1.10","25","1","2025-07-30 08:40:24","36c45c0696341be0efffe67d72a12abb","90.196.11.108","Mozilla/5.0 (Macintosh; Intel Mac OS X 10_15_7) AppleWebKit/537.36 (KHTML, like Gecko) Chrome/138.0.0.0 Safari/537.36","Macintosh","Chrome","138.0.0.0","OS X","10_15_7","https://app.prolific.com/","en-GB,en-US;q=0.9,en;q=0.8","66742c4307bb2004831faaef","687a360dabe5252b5ada7185","6889da6fc3ba7af97f601b3e","0","66742c4307bb2004831faaef","0","2025-07-30T09:14:03.152Z","","","","AttribQ","","","","","","","","","","","50","","","","","","","","","","","","","","","","","","","","","","","","","","",""
"5143","","<div style=""width:500px;"">
  <p>How much control did you have over the ball?</p>
  </div>","50","html-slider-response","65","2022968","0.0-7.0-2.10","25","1","2025-07-30 08:40:24","36c45c0696341be0efffe67d72a12abb","90.196.11.108","Mozilla/5.0 (Macintosh; Intel Mac OS X 10_15_7) AppleWebKit/537.36 (KHTML, like Gecko) Chrome/138.0.0.0 Safari/537.36","Macintosh","Chrome","138.0.0.0","OS X","10_15_7","https://app.prolific.com/","en-GB,en-US;q=0.9,en;q=0.8","66742c4307bb2004831faaef","687a360dabe5252b5ada7185","6889da6fc3ba7af97f601b3e","0","66742c4307bb2004831faaef","0","2025-07-30T09:14:08.296Z","","","","ControlQ","","","","","","","","","","","50","","","","","","","","","","","","","","","","","","","","","","","","","","",""
"3082","","<div style=""width:500px;"">
  <p>How would you describe your current emotional state?</p>
  </div>","68","html-slider-response","66","2026051","0.0-7.0-3.10","25","1","2025-07-30 08:40:24","36c45c0696341be0efffe67d72a12abb","90.196.11.108","Mozilla/5.0 (Macintosh; Intel Mac OS X 10_15_7) AppleWebKit/537.36 (KHTML, like Gecko) Chrome/138.0.0.0 Safari/537.36","Macintosh","Chrome","138.0.0.0","OS X","10_15_7","https://app.prolific.com/","en-GB,en-US;q=0.9,en;q=0.8","66742c4307bb2004831faaef","687a360dabe5252b5ada7185","6889da6fc3ba7af97f601b3e","0","66742c4307bb2004831faaef","0","2025-07-30T09:14:11.379Z","","","","StressQ","","","","","","","","","","","50","","","","","","","","","","","","","","","","","","","","","","","","","","",""
"7396","","<div style=""width:500px;"">
  <p>What best describes how you currently feel?</p>
  </div>","70","html-slider-response","67","2033448","0.0-7.0-4.10","25","1","2025-07-30 08:40:24","36c45c0696341be0efffe67d72a12abb","90.196.11.108","Mozilla/5.0 (Macintosh; Intel Mac OS X 10_15_7) AppleWebKit/537.36 (KHTML, like Gecko) Chrome/138.0.0.0 Safari/537.36","Macintosh","Chrome","138.0.0.0","OS X","10_15_7","https://app.prolific.com/","en-GB,en-US;q=0.9,en;q=0.8","66742c4307bb2004831faaef","687a360dabe5252b5ada7185","6889da6fc3ba7af97f601b3e","0","66742c4307bb2004831faaef","0","2025-07-30T09:14:18.777Z","","","","MotivationQ","","","","","","","","","","","50","","","","","","","","","","","","","","","","","","","","","","","","","","",""
"","","","","ctl-task-cpt","68","2077260","0.0-7.0-0.11","25","1","2025-07-30 08:40:24","36c45c0696341be0efffe67d72a12abb","90.196.11.108","Mozilla/5.0 (Macintosh; Intel Mac OS X 10_15_7) AppleWebKit/537.36 (KHTML, like Gecko) Chrome/138.0.0.0 Safari/537.36","Macintosh","Chrome","138.0.0.0","OS X","10_15_7","https://app.prolific.com/","en-GB,en-US;q=0.9,en;q=0.8","66742c4307bb2004831faaef","687a360dabe5252b5ada7185","6889da6fc3ba7af97f601b3e","0","66742c4307bb2004831faaef","0","2025-07-30T09:15:02.588Z","","","","","","","","","","","","","","","","win-only","0","g1:NW,g2:SE","0.7","12","0","2034421.3","8486.6","13497.4","40797.7","1","4","4","6","2","4","4","11","7","0.08333333333333333","3151","3000","1360","[""down"",""right""]","{""num_key_presses"":8,""num_perfect"":6,""num_errors"":0,""num_randdir"":2,""num_randdir_good_moves"":1,""num_whilered"":0,""num_whileblue"":0,""num_blue"":2,""num_good_moves"":7}","[698.2857142857143,676.0825892857143,0.2,700.2857142857143,676.0825892857143,110.1,700.2857142857143,676.0825892857143,215.5,700.2857142857143,676.0825892857143,323.7,700.2857142857143,676.0825892857143,432.9,700.2857142857143,676.0825892857143,535.6,700.2857142857143,676.0825892857143,640.7,700.2857142857143,676.0825892857143,744.7,700.2857142857143,676.0825892857143,852.6,700.2857142857143,676.0825892857143,962.1,700.2857142857143,676.0825892857143,1062.8,700.2857142857143,676.0825892857143,1171.5,700.2857142857143,676.0825892857143,1279.1,700.2857142857143,676.0825892857143,1382.3,700.2857142857143,676.0825892857143,1489.1,700.2857142857143,676.0825892857143,1595.6,700.2857142857143,676.0825892857143,1701.7,700.2857142857143,676.0825892857143,1803.1,700.2857142857143,676.0825892857143,1908.6,700.2857142857143,676.0825892857143,2012.3,700.2857142857143,676.0825892857143,2115.7,700.2857142857143,676.0825892857143,2224,700.2857142857143,676.0825892857143,2328.5,700.2857142857143,676.0825892857143,2437.8,700.2857142857143,676.0825892857143,2549.2,904.2857142857143,636.0825892857143,2656.8,1460.2857142857142,1052.0825892857142,2760.9,1460.2857142857142,1052.0825892857142,2868,1394.2857142857142,1118.0825892857142,2976.9,1360.2857142857142,1162.0825892857142,3090.7,1354.2857142857142,1168.0825892857142,3191.8,1354.2857142857142,1168.0825892857142,3296.1,1354.2857142857142,1168.0825892857142,3402.9,1354.2857142857142,1168.0825892857142,3512.6,1354.2857142857142,1168.0825892857142,3614.7,1354.2857142857142,1168.0825892857142,3722.3,1354.2857142857142,1168.0825892857142,3826.3,1354.2857142857142,1168.0825892857142,3928.9,1354.2857142857142,1168.0825892857142,4029.4,1354.2857142857142,1168.0825892857142,4138.5,1354.2857142857142,1168.0825892857142,4238.7,1354.2857142857142,1168.0825892857142,4346,1354.2857142857142,1168.0825892857142,4452.6,1354.2857142857142,1168.0825892857142,4557.9,1354.2857142857142,1168.0825892857142,4665.3,1354.2857142857142,1168.0825892857142,4770.7,1354.2857142857142,1168.0825892857142,4878.3,1354.2857142857142,1168.0825892857142,4980.2]","[8147.9,8147.9,2273.9,5461.7,412.3,""smooth"",""down"",""down"",""good_move"",11429.1,3281,2886.2,8148.1,394.8,""smooth"",""down"",""down"",""good_move"",14184.2,2754.8,2193.2,11429.4,561.6,""oops"",""down"",""up"",""bad_move"",16906.9,2722.1,2393.3,14184.8,328.8,""smooth"",""right"",""right"",""good_move"",18789.3,1882.1,1439.6,16907.2,442.6,""oops"",""right"",""down"",""good_move"",21098.6,2309,1906.1,18789.6,402.9,""smooth"",""right"",""right"",""good_move"",24927.2,3828.4,3443.5,21098.8,384.9,""smooth"",""right"",""right"",""good_move"",27110.5,2183.1,1779.2,24927.4,403.9,""smooth"",""down"",""down"",""good_move""]"
"44867","","<div style=""width:500px;"">
  <p>What determined the result of this run?</p>
  </div>","59","html-slider-response","69","2122127","0.0-7.0-1.11","25","1","2025-07-30 08:40:24","36c45c0696341be0efffe67d72a12abb","90.196.11.108","Mozilla/5.0 (Macintosh; Intel Mac OS X 10_15_7) AppleWebKit/537.36 (KHTML, like Gecko) Chrome/138.0.0.0 Safari/537.36","Macintosh","Chrome","138.0.0.0","OS X","10_15_7","https://app.prolific.com/","en-GB,en-US;q=0.9,en;q=0.8","66742c4307bb2004831faaef","687a360dabe5252b5ada7185","6889da6fc3ba7af97f601b3e","0","66742c4307bb2004831faaef","0","2025-07-30T09:15:47.455Z","","","","AttribQ","","","","","","","","","","","50","","","","","","","","","","","","","","","","","","","","","","","","","","",""
"2659","","<div style=""width:500px;"">
  <p>How much control did you have over the ball?</p>
  </div>","50","html-slider-response","70","2124788","0.0-7.0-2.11","25","1","2025-07-30 08:40:24","36c45c0696341be0efffe67d72a12abb","90.196.11.108","Mozilla/5.0 (Macintosh; Intel Mac OS X 10_15_7) AppleWebKit/537.36 (KHTML, like Gecko) Chrome/138.0.0.0 Safari/537.36","Macintosh","Chrome","138.0.0.0","OS X","10_15_7","https://app.prolific.com/","en-GB,en-US;q=0.9,en;q=0.8","66742c4307bb2004831faaef","687a360dabe5252b5ada7185","6889da6fc3ba7af97f601b3e","0","66742c4307bb2004831faaef","0","2025-07-30T09:15:50.116Z","","","","ControlQ","","","","","","","","","","","50","","","","","","","","","","","","","","","","","","","","","","","","","","",""
"1805","","<div style=""width:500px;"">
  <p>How would you describe your current emotional state?</p>
  </div>","57","html-slider-response","71","2126593","0.0-7.0-3.11","25","1","2025-07-30 08:40:24","36c45c0696341be0efffe67d72a12abb","90.196.11.108","Mozilla/5.0 (Macintosh; Intel Mac OS X 10_15_7) AppleWebKit/537.36 (KHTML, like Gecko) Chrome/138.0.0.0 Safari/537.36","Macintosh","Chrome","138.0.0.0","OS X","10_15_7","https://app.prolific.com/","en-GB,en-US;q=0.9,en;q=0.8","66742c4307bb2004831faaef","687a360dabe5252b5ada7185","6889da6fc3ba7af97f601b3e","0","66742c4307bb2004831faaef","0","2025-07-30T09:15:51.921Z","","","","StressQ","","","","","","","","","","","50","","","","","","","","","","","","","","","","","","","","","","","","","","",""
"1948","","<div style=""width:500px;"">
  <p>What best describes how you currently feel?</p>
  </div>","60","html-slider-response","72","2128542","0.0-7.0-4.11","25","1","2025-07-30 08:40:24","36c45c0696341be0efffe67d72a12abb","90.196.11.108","Mozilla/5.0 (Macintosh; Intel Mac OS X 10_15_7) AppleWebKit/537.36 (KHTML, like Gecko) Chrome/138.0.0.0 Safari/537.36","Macintosh","Chrome","138.0.0.0","OS X","10_15_7","https://app.prolific.com/","en-GB,en-US;q=0.9,en;q=0.8","66742c4307bb2004831faaef","687a360dabe5252b5ada7185","6889da6fc3ba7af97f601b3e","0","66742c4307bb2004831faaef","0","2025-07-30T09:15:53.870Z","","","","MotivationQ","","","","","","","","","","","50","","","","","","","","","","","","","","","","","","","","","","","","","","",""
"","","","","ctl-task-cpt","73","2164715","0.0-7.0-0.12","25","1","2025-07-30 08:40:24","36c45c0696341be0efffe67d72a12abb","90.196.11.108","Mozilla/5.0 (Macintosh; Intel Mac OS X 10_15_7) AppleWebKit/537.36 (KHTML, like Gecko) Chrome/138.0.0.0 Safari/537.36","Macintosh","Chrome","138.0.0.0","OS X","10_15_7","https://app.prolific.com/","en-GB,en-US;q=0.9,en;q=0.8","66742c4307bb2004831faaef","687a360dabe5252b5ada7185","6889da6fc3ba7af97f601b3e","0","66742c4307bb2004831faaef","0","2025-07-30T09:16:30.043Z","","","","","","","","","","","","","","","","win-only","2","g1:SE,g2:NW","0.8","13","0","2129518.1","2571.7","7580.9","33156.4","1","4","8","6","2","8","8","19","11","0.14393939393939395","1536.2","3000","1585","[""left"",""up""]","{""num_key_presses"":8,""num_perfect"":6,""num_errors"":0,""num_randdir"":2,""num_randdir_good_moves"":1,""num_whilered"":0,""num_whileblue"":0,""num_blue"":1,""num_good_moves"":7}","[684.2857142857143,676.0825892857143,0.2,684.2857142857143,676.0825892857143,106.7,684.2857142857143,676.0825892857143,216.7,684.2857142857143,672.0825892857143,320.2,698.2857142857143,678.0825892857143,423.7,752.2857142857143,748.0825892857143,531.3,780.2857142857143,780.0825892857143,636.7,796.2857142857143,798.0825892857143,740.5,798.2857142857143,800.0825892857143,844.1,798.2857142857143,792.0825892857143,949.1,798.2857142857143,792.0825892857143,1053.3,798.2857142857143,792.0825892857143,1155.3,280.2857142857143,396.0825892857143,1260.2,110.28571428571429,216.08258928571428,1368.5,90.28571428571429,182.08258928571428,1476.8,94.28571428571429,176.08258928571428,1582.2,94.28571428571429,176.08258928571428,1683.5,94.28571428571429,176.08258928571428,1783.8,94.28571428571429,176.08258928571428,1885.6,94.28571428571429,176.08258928571428,1988,94.28571428571429,176.08258928571428,2096.5,94.28571428571429,176.08258928571428,2206.5,94.28571428571429,176.08258928571428,2308.3,94.28571428571429,176.08258928571428,2410,94.28571428571429,176.08258928571428,2511.9,94.28571428571429,176.08258928571428,2613.5,94.28571428571429,176.08258928571428,2722.5,94.28571428571429,176.08258928571428,2830,94.28571428571429,176.08258928571428,2932.1,94.28571428571429,176.08258928571428,3033.7,94.28571428571429,176.08258928571428,3139.7,94.28571428571429,176.08258928571428,3249.2,94.28571428571429,176.08258928571428,3356.9,94.28571428571429,176.08258928571428,3463,94.28571428571429,176.08258928571428,3566,94.28571428571429,176.08258928571428,3672.5,94.28571428571429,176.08258928571428,3779.4,94.28571428571429,176.08258928571428,3880.9,94.28571428571429,176.08258928571428,3987.2,94.28571428571429,176.08258928571428,4087.6,94.28571428571429,176.08258928571428,4194.7,94.28571428571429,176.08258928571428,4303.5,94.28571428571429,176.08258928571428,4403.8,94.28571428571429,176.08258928571428,4507.3,94.28571428571429,176.08258928571428,4614.4,94.28571428571429,176.08258928571428,4720.3,94.28571428571429,176.08258928571428,4821,94.28571428571429,176.08258928571428,4927.9]","[1460.4,1460.4,1000,0,460.4,""smooth"",""up"",""up"",""good_move"",4474.7,3014,2626.7,1460.7,387.3,""oops"",""up"",""down"",""bad_move"",7625.1,3150,2797.4,4475.1,352.6,""smooth"",""left"",""left"",""good_move"",13068.8,5443.2,2135,10540.3,393.5,""smooth"",""up"",""up"",""good_move"",16499.3,3430.2,3071.5,13069.1,358.7,""smooth"",""left"",""left"",""good_move"",19887.7,3388.1,2995.2,16499.6,392.9,""smooth"",""up"",""up"",""good_move"",23028.4,3140.4,2760.7,19888,379.7,""oops"",""left"",""up"",""good_move"",25396.3,2367.7,1993.5,23028.6,374.2,""smooth"",""left"",""left"",""good_move""]"
"1831","","<div style=""width:500px;"">
  <p>What determined the result of this run?</p>
  </div>","62","html-slider-response","74","2166547","0.0-7.0-1.12","25","1","2025-07-30 08:40:24","36c45c0696341be0efffe67d72a12abb","90.196.11.108","Mozilla/5.0 (Macintosh; Intel Mac OS X 10_15_7) AppleWebKit/537.36 (KHTML, like Gecko) Chrome/138.0.0.0 Safari/537.36","Macintosh","Chrome","138.0.0.0","OS X","10_15_7","https://app.prolific.com/","en-GB,en-US;q=0.9,en;q=0.8","66742c4307bb2004831faaef","687a360dabe5252b5ada7185","6889da6fc3ba7af97f601b3e","0","66742c4307bb2004831faaef","0","2025-07-30T09:16:31.875Z","","","","AttribQ","","","","","","","","","","","50","","","","","","","","","","","","","","","","","","","","","","","","","","",""
"1596","","<div style=""width:500px;"">
  <p>How much control did you have over the ball?</p>
  </div>","56","html-slider-response","75","2168144","0.0-7.0-2.12","25","1","2025-07-30 08:40:24","36c45c0696341be0efffe67d72a12abb","90.196.11.108","Mozilla/5.0 (Macintosh; Intel Mac OS X 10_15_7) AppleWebKit/537.36 (KHTML, like Gecko) Chrome/138.0.0.0 Safari/537.36","Macintosh","Chrome","138.0.0.0","OS X","10_15_7","https://app.prolific.com/","en-GB,en-US;q=0.9,en;q=0.8","66742c4307bb2004831faaef","687a360dabe5252b5ada7185","6889da6fc3ba7af97f601b3e","0","66742c4307bb2004831faaef","0","2025-07-30T09:16:33.472Z","","","","ControlQ","","","","","","","","","","","50","","","","","","","","","","","","","","","","","","","","","","","","","","",""
"2428","","<div style=""width:500px;"">
  <p>How would you describe your current emotional state?</p>
