"rt","response_timestamp","stimulus","response","trial_type","trial_index","time_elapsed","internal_node_id","run_id","condition","recorded_at","source_code_version","ip","user_agent","device","browser","browser_version","platform","platform_version","referer","accept_language","PROLIFIC_PID","STUDY_ID","SESSION_ID","BATCH","prolific_id","batch","realtime","success","question_order","question_id","eventType","responses","item_order","radio_event_ids","radio_event_times","key_event_times","mouse_event_times","straightlining","zigzagging","honeypot","view_history","slider_start","which_type","canvas_config","goals_layout","control_level","trial_number","tutorial_trial_number","trial_start_time","phase1_start_time","phase2_start_time","phase3_start_time","goal_1_value","goal_1_distance","goal_2_value","goal_2_distance","goal_selected","outcome","outcome_total","participant_final_score","participant_initial_score","participant_final_score_prop","goal_choice_rt","allocated_time","allocated_time_remaining","goal_direction","counts","mouse_movements","key_presses"
"7506","1754471426208","<p style='font-size:40px;line-height:1.25'><strong>Welcome to the experiment!</strong></p><p style='font-size:1.1em;line-height:1.25'>Thank you for participanting in our experiment again! You will be asked to play the Dysfunctional Ball Game again. We will briefly recap the rules before we start.</p><p style='font-size:1.1em;line-height:1.25'>Press <strong>Next</strong> to continue.</p>","0","custom-html-button-response","0","7513","0.0-0.0","160","1","2025-08-06 09:10:15","36c45c0696341be0efffe67d72a12abb","102.219.162.60","Mozilla/5.0 (Windows NT 10.0; Win64; x64) AppleWebKit/537.36 (KHTML, like Gecko) Chrome/138.0.0.0 Safari/537.36","WebKit","Chrome","138.0.0.0","Windows","10.0","https://app.prolific.com/","en-US,en;q=0.9,st;q=0.8","667ac09492ea0caadf488520","687a1a965b9f5b85a264363e","68931bc547fc65fbca391569","1","667ac09492ea0caadf488520","1","2025-08-06T09:10:26.211Z","","","","","","","","","","","","","","","","","","","","","","","","","","","","","","","","","","","","","","","","","",""
"12932","","","","fullscreen","1","21468","0.0-1.0","160","1","2025-08-06 09:10:15","36c45c0696341be0efffe67d72a12abb","102.219.162.60","Mozilla/5.0 (Windows NT 10.0; Win64; x64) AppleWebKit/537.36 (KHTML, like Gecko) Chrome/138.0.0.0 Safari/537.36","WebKit","Chrome","138.0.0.0","Windows","10.0","https://app.prolific.com/","en-US,en;q=0.9,st;q=0.8","667ac09492ea0caadf488520","687a1a965b9f5b85a264363e","68931bc547fc65fbca391569","1","667ac09492ea0caadf488520","1","","true","","","","","","","","","","","","","","","","","","","","","","","","","","","","","","","","","","","","","","","","",""
"5471","1754471445643"," <p style='font-size:1.1em;line-height:1.25'>Thank you for closing all other tabs.</p><p style='font-size:1.1em;line-height:1.25'>We will now invite you to fill in some questionnaires, before starting the game.<br>This will take about 5 minutes.<br></p><p style='font-size:1.1em;line-height:1.25'>Press the <strong>Next</strong> button to continue.</p>","0","custom-html-button-response","2","26945","0.0-2.0","160","1","2025-08-06 09:10:15","36c45c0696341be0efffe67d72a12abb","102.219.162.60","Mozilla/5.0 (Windows NT 10.0; Win64; x64) AppleWebKit/537.36 (KHTML, like Gecko) Chrome/138.0.0.0 Safari/537.36","WebKit","Chrome","138.0.0.0","Windows","10.0","https://app.prolific.com/","en-US,en;q=0.9,st;q=0.8","667ac09492ea0caadf488520","687a1a965b9f5b85a264363e","68931bc547fc65fbca391569","1","667ac09492ea0caadf488520","1","2025-08-06T09:10:45.643Z","","","","","","","","","","","","","","","","","","","","","","","","","","","","","","","","","","","","","","","","","",""
"3495","","","{""assigned_sex"":""female""}","survey-multi-choice","3","30447","0.0-3.0-0.0","160","1","2025-08-06 09:10:15","36c45c0696341be0efffe67d72a12abb","102.219.162.60","Mozilla/5.0 (Windows NT 10.0; Win64; x64) AppleWebKit/537.36 (KHTML, like Gecko) Chrome/138.0.0.0 Safari/537.36","WebKit","Chrome","138.0.0.0","Windows","10.0","https://app.prolific.com/","en-US,en;q=0.9,st;q=0.8","667ac09492ea0caadf488520","687a1a965b9f5b85a264363e","68931bc547fc65fbca391569","1","667ac09492ea0caadf488520","1","","","[0]","0","demographics","","","","","","","","","","","","","","","","","","","","","","","","","","","","","","","","","","","","","",""
"4489","1754471453635","<p style='font-size:1.1em;line-height:1.25'>In the following, we will perform a baseline assessment. This means that we will ask you a few questions relating to your experiences over the past month.<br></p><p style='font-size:1.1em;line-height:1.25'>Press the <strong>Next</strong> button to continue.</p>","0","custom-html-button-response","4","34938","0.0-4.0-0.0","160","1","2025-08-06 09:10:15","36c45c0696341be0efffe67d72a12abb","102.219.162.60","Mozilla/5.0 (Windows NT 10.0; Win64; x64) AppleWebKit/537.36 (KHTML, like Gecko) Chrome/138.0.0.0 Safari/537.36","WebKit","Chrome","138.0.0.0","Windows","10.0","https://app.prolific.com/","en-US,en;q=0.9,st;q=0.8","667ac09492ea0caadf488520","687a1a965b9f5b85a264363e","68931bc547fc65fbca391569","1","667ac09492ea0caadf488520","1","2025-08-06T09:10:53.636Z","","","","","","","","","","","","","","","","","","","","","","","","","","","","","","","","","","","","","","","","","",""
"56994.29999999702","","","","survey-template","5","91939","0.0-4.0-1.0","160","1","2025-08-06 09:10:15","36c45c0696341be0efffe67d72a12abb","102.219.162.60","Mozilla/5.0 (Windows NT 10.0; Win64; x64) AppleWebKit/537.36 (KHTML, like Gecko) Chrome/138.0.0.0 Safari/537.36","WebKit","Chrome","138.0.0.0","Windows","10.0","https://app.prolific.com/","en-US,en;q=0.9,st;q=0.8","667ac09492ea0caadf488520","687a1a965b9f5b85a264363e","68931bc547fc65fbca391569","1","667ac09492ea0caadf488520","1","2025-08-06T09:11:50.637Z","","","","pss","{""Q01"":""3"",""Q02"":""3"",""Q03"":""3"",""Q04"":""1"",""Q05"":""1"",""Q06"":""3"",""Q07"":""2"",""Q08"":""1"",""Q09"":""3"",""Q10"":""2""}","[0,1,2,3,4,5,6,7,8,9]","[""Q01"",""Q03"",""Q02"",""Q04"",""Q06"",""Q05"",""Q07"",""Q08"",""Q09"",""Q10""]","[4575.5999999940395,7551.5999999940395,8832.59999999404,14037.09999999404,22866.20000000298,24398.39999999106,32381.20000000298,39032.29999999702,50599.20000000298,55720.29999999702]","[]","[35.79999999701977,4575.5999999940395,5954,7551.5999999940395,8832.59999999404,14037.09999999404,17936.79999999702,22866.20000000298,24398.39999999106,30586.39999999106,32381.20000000298,39032.29999999702,39961.89999999106,50599.20000000298,55720.29999999702,56989.89999999106]","0.8","0.3333333333333333","0","","","","","","","","","","","","","","","","","","","","","","","","","","","","",""
"2383","1754471513024","<p style='font-size:1.1em;line-height:1.25'>Thank you for your answers! Now we will ask you a few more questions relating to your feelings in the last 24 hours.<br></p><p style='font-size:1.1em;line-height:1.25'>Press the <strong>Next</strong> button to continue.</p>","0","custom-html-button-response","6","94327","0.0-4.0-2.0","160","1","2025-08-06 09:10:15","36c45c0696341be0efffe67d72a12abb","102.219.162.60","Mozilla/5.0 (Windows NT 10.0; Win64; x64) AppleWebKit/537.36 (KHTML, like Gecko) Chrome/138.0.0.0 Safari/537.36","WebKit","Chrome","138.0.0.0","Windows","10.0","https://app.prolific.com/","en-US,en;q=0.9,st;q=0.8","667ac09492ea0caadf488520","687a1a965b9f5b85a264363e","68931bc547fc65fbca391569","1","667ac09492ea0caadf488520","1","2025-08-06T09:11:53.025Z","","","","","","","","","","","","","","","","","","","","","","","","","","","","","","","","","","","","","","","","","",""
"82832.5","","","","survey-template","7","177167","0.0-4.0-3.0","160","1","2025-08-06 09:10:15","36c45c0696341be0efffe67d72a12abb","102.219.162.60","Mozilla/5.0 (Windows NT 10.0; Win64; x64) AppleWebKit/537.36 (KHTML, like Gecko) Chrome/138.0.0.0 Safari/537.36","WebKit","Chrome","138.0.0.0","Windows","10.0","https://app.prolific.com/","en-US,en;q=0.9,st;q=0.8","667ac09492ea0caadf488520","687a1a965b9f5b85a264363e","68931bc547fc65fbca391569","1","667ac09492ea0caadf488520","1","2025-08-06T09:13:15.865Z","","","","drsp","{""Q01"":""1"",""Q02"":""1"",""Q03"":""2"",""Q04"":""2"",""Q05"":""3"",""Q06"":""3"",""Q07"":""1"",""Q08"":""2"",""Q09"":""1"",""Q10"":""2"",""Q11"":""3"",""Q12"":""3"",""Q13"":""5"",""Q14"":""4"",""Q15"":""3"",""Q16"":""3"",""Q17"":""3"",""Q18"":""3"",""Q19"":""1"",""Q20"":""2"",""Q21"":""2"",""Q22"":""2""}","[0,1,2,3,4,5,6,7,8,9,10,11,12,13,14,15,16,17,18,19,20,21]","[""Q01"",""Q02"",""Q03"",""Q04"",""Q05"",""Q06"",""Q07"",""Q08"",""Q09"",""Q10"",""Q11"",""Q12"",""Q13"",""Q14"",""Q15"",""Q16"",""Q17"",""Q18"",""Q19"",""Q20"",""Q21"",""Q22""]","[3243.4000000059605,6245.9000000059605,8525.79999999702,10130.90000000596,11814.90000000596,15071.90000000596,17629.10000000894,19320.20000000298,22312.90000000596,24558.40000000596,38314.20000000298,42838.5,46738.40000000596,51054.70000000298,52825.20000000298,59697,62876.79999999702,63971.40000000596,69992.5,75245.79999999702,79542.79999999702,81514.10000000894]","[]","[67.90000000596046,3243.4000000059605,6245.9000000059605,8525.79999999702,10130.90000000596,11814.90000000596,15071.90000000596,17629.10000000894,19320.20000000298,22312.90000000596,24558.40000000596,25741.20000000298,30451.29999999702,38314.20000000298,42838.5,46738.40000000596,51054.70000000298,52825.20000000298,59697,61294.40000000596,62876.79999999702,63971.40000000596,65025.60000000894,69992.5,75245.79999999702,79542.79999999702,81514.10000000894,82825.79999999702]","0.36363636363636365","0.42857142857142855","0","","","","","","","","","","","","","","","","","","","","","","","","","","","","",""
"27448.79999999702","","","","survey-template","8","204619","0.0-4.0-4.0","160","1","2025-08-06 09:10:15","36c45c0696341be0efffe67d72a12abb","102.219.162.60","Mozilla/5.0 (Windows NT 10.0; Win64; x64) AppleWebKit/537.36 (KHTML, like Gecko) Chrome/138.0.0.0 Safari/537.36","WebKit","Chrome","138.0.0.0","Windows","10.0","https://app.prolific.com/","en-US,en;q=0.9,st;q=0.8","667ac09492ea0caadf488520","687a1a965b9f5b85a264363e","68931bc547fc65fbca391569","1","667ac09492ea0caadf488520","1","2025-08-06T09:13:43.318Z","","","","stress","{""Q01"":""2"",""Q02"":""1"",""Q03"":""1""}","[0,1,2]","[""Q01"",""Q02"",""Q03""]","[4771.399999991059,8068,26117.59999999404]","[]","[4771.399999991059,8068,26117.59999999404,27447]","0.3333333333333333","0","0","","","","","","","","","","","","","","","","","","","","","","","","","","","","",""
"107309","","","","instructions","9","311931","0.0-5.0-0.0","160","1","2025-08-06 09:10:15","36c45c0696341be0efffe67d72a12abb","102.219.162.60","Mozilla/5.0 (Windows NT 10.0; Win64; x64) AppleWebKit/537.36 (KHTML, like Gecko) Chrome/138.0.0.0 Safari/537.36","WebKit","Chrome","138.0.0.0","Windows","10.0","https://app.prolific.com/","en-US,en;q=0.9,st;q=0.8","667ac09492ea0caadf488520","687a1a965b9f5b85a264363e","68931bc547fc65fbca391569","1","667ac09492ea0caadf488520","1","","","","","","","","","","","","","","","[{""page_index"":0,""viewing_time"":107309}]","","","","","","","","","","","","","","","","","","","","","","","","","","","",""
"14302","","<p>Before you start with this game please answer the following three questions yourself. </p>
  <p>Through this game, we measure several aspects of your cognitive performance, such as reaction times, multi-tasking capabilities </p>
  <p>and the ability to assess the situation you are in.</p>
  <p></p>
  <p><b>How good do you usually are in such tasks?</b></p>","82","html-slider-response","10","326239","0.0-6.0-0.0","160","1","2025-08-06 09:10:15","36c45c0696341be0efffe67d72a12abb","102.219.162.60","Mozilla/5.0 (Windows NT 10.0; Win64; x64) AppleWebKit/537.36 (KHTML, like Gecko) Chrome/138.0.0.0 Safari/537.36","WebKit","Chrome","138.0.0.0","Windows","10.0","https://app.prolific.com/","en-US,en;q=0.9,st;q=0.8","667ac09492ea0caadf488520","687a1a965b9f5b85a264363e","68931bc547fc65fbca391569","1","667ac09492ea0caadf488520","1","2025-08-06T09:15:44.937Z","","","","PreSkillQ","","","","","","","","","","","50","","","","","","","","","","","","","","","","","","","","","","","","","","",""
"7726","","<div style=""width:500px;"">
  <p>How well do you think you will perform in this task compared to other participants?</p>
  </div>","88","html-slider-response","11","333967","0.0-6.0-1.0","160","1","2025-08-06 09:10:15","36c45c0696341be0efffe67d72a12abb","102.219.162.60","Mozilla/5.0 (Windows NT 10.0; Win64; x64) AppleWebKit/537.36 (KHTML, like Gecko) Chrome/138.0.0.0 Safari/537.36","WebKit","Chrome","138.0.0.0","Windows","10.0","https://app.prolific.com/","en-US,en;q=0.9,st;q=0.8","667ac09492ea0caadf488520","687a1a965b9f5b85a264363e","68931bc547fc65fbca391569","1","667ac09492ea0caadf488520","1","2025-08-06T09:15:52.665Z","","","","PrePerfQ","","","","","","","","","","","50","","","","","","","","","","","","","","","","","","","","","","","","","","",""
"3712","","<div style=""width:500px;"">
  <p>What best describes how you currently feel?</p>
  </div>","84","html-slider-response","12","337682","0.0-6.0-2.0","160","1","2025-08-06 09:10:15","36c45c0696341be0efffe67d72a12abb","102.219.162.60","Mozilla/5.0 (Windows NT 10.0; Win64; x64) AppleWebKit/537.36 (KHTML, like Gecko) Chrome/138.0.0.0 Safari/537.36","WebKit","Chrome","138.0.0.0","Windows","10.0","https://app.prolific.com/","en-US,en;q=0.9,st;q=0.8","667ac09492ea0caadf488520","687a1a965b9f5b85a264363e","68931bc547fc65fbca391569","1","667ac09492ea0caadf488520","1","2025-08-06T09:15:56.380Z","","","","PreMotivationQ","","","","","","","","","","","50","","","","","","","","","","","","","","","","","","","","","","","","","","",""
"","","","","ctl-task-cpt","13","355328","0.0-7.0-0.0","160","1","2025-08-06 09:10:15","36c45c0696341be0efffe67d72a12abb","102.219.162.60","Mozilla/5.0 (Windows NT 10.0; Win64; x64) AppleWebKit/537.36 (KHTML, like Gecko) Chrome/138.0.0.0 Safari/537.36","WebKit","Chrome","138.0.0.0","Windows","10.0","https://app.prolific.com/","en-US,en;q=0.9,st;q=0.8","667ac09492ea0caadf488520","687a1a965b9f5b85a264363e","68931bc547fc65fbca391569","1","667ac09492ea0caadf488520","1","2025-08-06T09:16:14.026Z","","","","","","","","","","","","","","","","win-only","3","g1:SW,g2:NE","1","1","0","342121.9","3331.2","8378.3","14614.9","1","4","8","6","1","-1","-1","0","0","0","5047.1","3000","-2225","[""down"",""left""]","{""num_key_presses"":0,""num_perfect"":0,""num_errors"":0,""num_randdir"":0,""num_randdir_good_moves"":0,""num_whilered"":0,""num_whileblue"":0,""num_blue"":0,""num_good_moves"":0}","[411.5714133126395,419.07142761775424,4.2,411.5714133126395,419.07142761775424,100.1,411.5714133126395,419.07142761775424,206.1,411.5714133126395,419.07142761775424,310.5,411.5714133126395,419.07142761775424,415.9,411.5714133126395,419.07142761775424,524.3,411.5714133126395,419.07142761775424,625,411.5714133126395,419.07142761775424,726.3,411.5714133126395,419.07142761775424,830.7,411.5714133126395,419.07142761775424,942,411.5714133126395,419.07142761775424,1042.5,411.5714133126395,419.07142761775424,1145.7,411.5714133126395,419.07142761775424,1250,411.5714133126395,419.07142761775424,1361.5,411.5714133126395,419.07142761775424,1462.9,411.5714133126395,420.32142761775424,1565.8,411.5714133126395,420.32142761775424,1669.7,411.5714133126395,420.32142761775424,1769.7,411.5714133126395,420.32142761775424,1870.3,411.5714133126395,420.32142761775424,1976.5,411.5714133126395,420.32142761775424,2080.8,411.5714133126395,420.32142761775424,2187.4,411.5714133126395,420.32142761775424,2296.2,411.5714133126395,420.32142761775424,2400.6,411.5714133126395,420.32142761775424,2517.7,411.5714133126395,420.32142761775424,2619.6,411.5714133126395,420.32142761775424,2720.4,411.5714133126395,420.32142761775424,2825.9,411.5714133126395,420.32142761775424,2941.8,411.5714133126395,420.32142761775424,3061.7,411.5714133126395,420.32142761775424,3165.4,411.5714133126395,420.32142761775424,3265.8,411.5714133126395,420.32142761775424,3368.4,411.5714133126395,420.32142761775424,3470.4,411.5714133126395,420.32142761775424,3570.7,411.5714133126395,420.32142761775424,3683.9,411.5714133126395,420.32142761775424,3785.7,411.5714133126395,420.32142761775424,3903.4,411.5714133126395,420.32142761775424,4019.9,411.5714133126395,420.32142761775424,4124.1,411.5714133126395,420.32142761775424,4238,411.5714133126395,420.32142761775424,4352.8,411.5714133126395,420.32142761775424,4456.2,411.5714133126395,420.32142761775424,4556.2,411.5714133126395,420.32142761775424,4659.6,411.5714133126395,420.32142761775424,4760.7,411.5714133126395,420.32142761775424,4877.2,472.8214133126395,361.57142761775424,4978.4]","[]"
"5248","","<div style=""width:500px;"">
  <p>What determined the result of this run?</p>
  </div>","63","html-slider-response","14","360578","0.0-7.0-1.0","160","1","2025-08-06 09:10:15","36c45c0696341be0efffe67d72a12abb","102.219.162.60","Mozilla/5.0 (Windows NT 10.0; Win64; x64) AppleWebKit/537.36 (KHTML, like Gecko) Chrome/138.0.0.0 Safari/537.36","WebKit","Chrome","138.0.0.0","Windows","10.0","https://app.prolific.com/","en-US,en;q=0.9,st;q=0.8","667ac09492ea0caadf488520","687a1a965b9f5b85a264363e","68931bc547fc65fbca391569","1","667ac09492ea0caadf488520","1","2025-08-06T09:16:19.276Z","","","","AttribQ","","","","","","","","","","","50","","","","","","","","","","","","","","","","","","","","","","","","","","",""
"7730","","<div style=""width:500px;"">
  <p>How much control did you have over the ball?</p>
  </div>","9","html-slider-response","15","368311","0.0-7.0-2.0","160","1","2025-08-06 09:10:15","36c45c0696341be0efffe67d72a12abb","102.219.162.60","Mozilla/5.0 (Windows NT 10.0; Win64; x64) AppleWebKit/537.36 (KHTML, like Gecko) Chrome/138.0.0.0 Safari/537.36","WebKit","Chrome","138.0.0.0","Windows","10.0","https://app.prolific.com/","en-US,en;q=0.9,st;q=0.8","667ac09492ea0caadf488520","687a1a965b9f5b85a264363e","68931bc547fc65fbca391569","1","667ac09492ea0caadf488520","1","2025-08-06T09:16:27.009Z","","","","ControlQ","","","","","","","","","","","50","","","","","","","","","","","","","","","","","","","","","","","","","","",""
"4423","","<div style=""width:500px;"">
  <p>How would you describe your current emotional state?</p>
  </div>","88","html-slider-response","16","372736","0.0-7.0-3.0","160","1","2025-08-06 09:10:15","36c45c0696341be0efffe67d72a12abb","102.219.162.60","Mozilla/5.0 (Windows NT 10.0; Win64; x64) AppleWebKit/537.36 (KHTML, like Gecko) Chrome/138.0.0.0 Safari/537.36","WebKit","Chrome","138.0.0.0","Windows","10.0","https://app.prolific.com/","en-US,en;q=0.9,st;q=0.8","667ac09492ea0caadf488520","687a1a965b9f5b85a264363e","68931bc547fc65fbca391569","1","667ac09492ea0caadf488520","1","2025-08-06T09:16:31.434Z","","","","StressQ","","","","","","","","","","","50","","","","","","","","","","","","","","","","","","","","","","","","","","",""
"6741","","<div style=""width:500px;"">
  <p>What best describes how you currently feel?</p>
  </div>","81","html-slider-response","17","379480","0.0-7.0-4.0","160","1","2025-08-06 09:10:15","36c45c0696341be0efffe67d72a12abb","102.219.162.60","Mozilla/5.0 (Windows NT 10.0; Win64; x64) AppleWebKit/537.36 (KHTML, like Gecko) Chrome/138.0.0.0 Safari/537.36","WebKit","Chrome","138.0.0.0","Windows","10.0","https://app.prolific.com/","en-US,en;q=0.9,st;q=0.8","667ac09492ea0caadf488520","687a1a965b9f5b85a264363e","68931bc547fc65fbca391569","1","667ac09492ea0caadf488520","1","2025-08-06T09:16:38.178Z","","","","MotivationQ","","","","","","","","","","","50","","","","","","","","","","","","","","","","","","","","","","","","","","",""
"","","","","ctl-task-cpt","18","435145","0.0-7.0-0.1","160","1","2025-08-06 09:10:15","36c45c0696341be0efffe67d72a12abb","102.219.162.60","Mozilla/5.0 (Windows NT 10.0; Win64; x64) AppleWebKit/537.36 (KHTML, like Gecko) Chrome/138.0.0.0 Safari/537.36","WebKit","Chrome","138.0.0.0","Windows","10.0","https://app.prolific.com/","en-US,en;q=0.9,st;q=0.8","667ac09492ea0caadf488520","687a1a965b9f5b85a264363e","68931bc547fc65fbca391569","1","667ac09492ea0caadf488520","1","2025-08-06T09:17:33.843Z","","","","","","","","","","","","","","","","win-only","3","g1:SW,g2:NE","0.9","2","0","383903.4","2607.1","7612.9","52641.2","1","4","4","6","2","-4","-5","0","0","0","2004.9","3000","-2220","[""up"",""right""]","{""num_key_presses"":10,""num_perfect"":8,""num_errors"":1,""num_randdir"":1,""num_randdir_good_moves"":0,""num_whilered"":0,""num_whileblue"":0,""num_blue"":3,""num_good_moves"":7}","[416.5714133126395,416.57142761775424,1,416.5714133126395,416.57142761775424,100.5,416.5714133126395,416.57142761775424,202.8,416.5714133126395,416.57142761775424,304.4,416.5714133126395,416.57142761775424,409.3,416.5714133126395,416.57142761775424,519.7,416.5714133126395,416.57142761775424,624.2,416.5714133126395,416.57142761775424,732.4,416.5714133126395,416.57142761775424,838.4,416.5714133126395,416.57142761775424,939.4,416.5714133126395,416.57142761775424,1055.7,416.5714133126395,416.57142761775424,1164.2,455.3214133126395,352.82142761775424,1275.3,696.5714133126395,126.57142761775425,1377,696.5714133126395,126.57142761775425,1478.7,696.5714133126395,126.57142761775425,1579.9,715.3214133126395,111.57142761775425,1681.6,751.5714133126395,92.82142761775425,1789.6,752.8214133126395,90.32142761775425,1893.8,752.8214133126395,90.32142761775425,2013.2,752.8214133126395,90.32142761775425,2113.3,752.8214133126395,90.32142761775425,2214.7,752.8214133126395,90.32142761775425,2332.8,752.8214133126395,90.32142761775425,2432.9,752.8214133126395,90.32142761775425,2537.9,752.8214133126395,90.32142761775425,2653.5,752.8214133126395,90.32142761775425,2769.6,752.8214133126395,90.32142761775425,2875.2,752.8214133126395,90.32142761775425,2978.7,752.8214133126395,90.32142761775425,3086.2,752.8214133126395,90.32142761775425,3189.1,752.8214133126395,90.32142761775425,3293.4,752.8214133126395,90.32142761775425,3394.3,752.8214133126395,90.32142761775425,3516,752.8214133126395,90.32142761775425,3635.8,752.8214133126395,90.32142761775425,3744.1,752.8214133126395,90.32142761775425,3857.1,752.8214133126395,90.32142761775425,3971,745.3214133126395,34.07142761775425,4074,745.3214133126395,30.321427617754253,4184.9,745.3214133126395,30.321427617754253,4288.5,746.5714133126395,30.321427617754253,4389.2,746.5714133126395,30.321427617754253,4492,746.5714133126395,30.321427617754253,4593.8,746.5714133126395,30.321427617754253,4695.7,746.5714133126395,30.321427617754253,4810.3,746.5714133126395,30.321427617754253,4923]","[406.5,406.5,1000,0.1,-593.5,""error"",""-"",""-"",""no_move"",5430.3,5022.4,3214.5,1408.3,807.5,""smooth"",""up"",""up"",""good_move"",12400.6,6968.6,2476,9407.4,517.2,""smooth"",""up"",""up"",""good_move"",18909.4,6507.8,1805.4,16591.3,512.8,""smooth"",""up"",""up"",""good_move"",23047.8,4130,2350.2,18917.9,1779.7,""smooth"",""right"",""right"",""good_move"",25755.7,2706.8,2146.2,23048.9,560.6,""smooth"",""right"",""right"",""good_move"",28609.1,2852,2385.7,25757.1,466.3,""oops"",""right"",""left"",""bad_move"",31537.2,2920.3,2465,28616.9,455.3,""smooth"",""right"",""right"",""good_move"",34799.5,3260.8,2811.2,31538.7,449.6,""smooth"",""down"",""down"",""bad_move"",38228.4,3427,3000.7,34801.5,426.2,""smooth"",""up"",""up"",""good_move""]"
"5907","","<div style=""width:500px;"">
  <p>What determined the result of this run?</p>
  </div>","19","html-slider-response","19","441056","0.0-7.0-1.1","160","1","2025-08-06 09:10:15","36c45c0696341be0efffe67d72a12abb","102.219.162.60","Mozilla/5.0 (Windows NT 10.0; Win64; x64) AppleWebKit/537.36 (KHTML, like Gecko) Chrome/138.0.0.0 Safari/537.36","WebKit","Chrome","138.0.0.0","Windows","10.0","https://app.prolific.com/","en-US,en;q=0.9,st;q=0.8","667ac09492ea0caadf488520","687a1a965b9f5b85a264363e","68931bc547fc65fbca391569","1","667ac09492ea0caadf488520","1","2025-08-06T09:17:39.754Z","","","","AttribQ","","","","","","","","","","","50","","","","","","","","","","","","","","","","","","","","","","","","","","",""
"4810","","<div style=""width:500px;"">
  <p>How much control did you have over the ball?</p>
  </div>","85","html-slider-response","20","445869","0.0-7.0-2.1","160","1","2025-08-06 09:10:15","36c45c0696341be0efffe67d72a12abb","102.219.162.60","Mozilla/5.0 (Windows NT 10.0; Win64; x64) AppleWebKit/537.36 (KHTML, like Gecko) Chrome/138.0.0.0 Safari/537.36","WebKit","Chrome","138.0.0.0","Windows","10.0","https://app.prolific.com/","en-US,en;q=0.9,st;q=0.8","667ac09492ea0caadf488520","687a1a965b9f5b85a264363e","68931bc547fc65fbca391569","1","667ac09492ea0caadf488520","1","2025-08-06T09:17:44.567Z","","","","ControlQ","","","","","","","","","","","50","","","","","","","","","","","","","","","","","","","","","","","","","","",""
"4812","","<div style=""width:500px;"">
  <p>How would you describe your current emotional state?</p>
  </div>","30","html-slider-response","21","450684","0.0-7.0-3.1","160","1","2025-08-06 09:10:15","36c45c0696341be0efffe67d72a12abb","102.219.162.60","Mozilla/5.0 (Windows NT 10.0; Win64; x64) AppleWebKit/537.36 (KHTML, like Gecko) Chrome/138.0.0.0 Safari/537.36","WebKit","Chrome","138.0.0.0","Windows","10.0","https://app.prolific.com/","en-US,en;q=0.9,st;q=0.8","667ac09492ea0caadf488520","687a1a965b9f5b85a264363e","68931bc547fc65fbca391569","1","667ac09492ea0caadf488520","1","2025-08-06T09:17:49.382Z","","","","StressQ","","","","","","","","","","","50","","","","","","","","","","","","","","","","","","","","","","","","","","",""
"7293","","<div style=""width:500px;"">
  <p>What best describes how you currently feel?</p>
  </div>","81","html-slider-response","22","457979","0.0-7.0-4.1","160","1","2025-08-06 09:10:15","36c45c0696341be0efffe67d72a12abb","102.219.162.60","Mozilla/5.0 (Windows NT 10.0; Win64; x64) AppleWebKit/537.36 (KHTML, like Gecko) Chrome/138.0.0.0 Safari/537.36","WebKit","Chrome","138.0.0.0","Windows","10.0","https://app.prolific.com/","en-US,en;q=0.9,st;q=0.8","667ac09492ea0caadf488520","687a1a965b9f5b85a264363e","68931bc547fc65fbca391569","1","667ac09492ea0caadf488520","1","2025-08-06T09:17:56.677Z","","","","MotivationQ","","","","","","","","","","","50","","","","","","","","","","","","","","","","","","","","","","","","","","",""
"","","","","ctl-task-cpt","23","508861","0.0-7.0-0.2","160","1","2025-08-06 09:10:15","36c45c0696341be0efffe67d72a12abb","102.219.162.60","Mozilla/5.0 (Windows NT 10.0; Win64; x64) AppleWebKit/537.36 (KHTML, like Gecko) Chrome/138.0.0.0 Safari/537.36","WebKit","Chrome","138.0.0.0","Windows","10.0","https://app.prolific.com/","en-US,en;q=0.9,st;q=0.8","667ac09492ea0caadf488520","687a1a965b9f5b85a264363e","68931bc547fc65fbca391569","1","667ac09492ea0caadf488520","1","2025-08-06T09:18:47.559Z","","","","","","","","","","","","","","","","win-only","3","g1:SW,g2:NE","0.8","3","0","462406.3","3115.4","8132.7","47850.9","1","4","4","6","2","4","4","4","0","0.030303030303030304","2050.7","3000","625","[""up"",""right""]","{""num_key_presses"":8,""num_perfect"":7,""num_errors"":0,""num_randdir"":1,""num_randdir_good_moves"":0,""num_whilered"":0,""num_whileblue"":0,""num_blue"":4,""num_good_moves"":7}","[416.5714133126395,410.32142761775424,0.6,416.5714133126395,410.32142761775424,113.8,416.5714133126395,410.32142761775424,216.7,416.5714133126395,410.32142761775424,320.9,416.5714133126395,410.32142761775424,432.1,416.5714133126395,410.32142761775424,541.3,416.5714133126395,410.32142761775424,658.4,416.5714133126395,410.32142761775424,763.4,416.5714133126395,410.32142761775424,881.1,416.5714133126395,410.32142761775424,985.4,521.5714133126395,291.57142761775424,1087.7,746.5714133126395,119.07142761775425,1198.6,775.3214133126395,87.82142761775425,1313.2,775.3214133126395,87.82142761775425,1417.7,775.3214133126395,87.82142761775425,1520.3,775.3214133126395,87.82142761775425,1634.2,775.3214133126395,87.82142761775425,1737.4,775.3214133126395,87.82142761775425,1841.7,775.3214133126395,87.82142761775425,1970.5,775.3214133126395,87.82142761775425,2071.7,775.3214133126395,87.82142761775425,2183.3,775.3214133126395,87.82142761775425,2285.9,775.3214133126395,87.82142761775425,2392.6,775.3214133126395,87.82142761775425,2498.3,775.3214133126395,87.82142761775425,2600.7,775.3214133126395,87.82142761775425,2723.5,775.3214133126395,87.82142761775425,2838.4,775.3214133126395,87.82142761775425,2939,775.3214133126395,87.82142761775425,3040.4,775.3214133126395,87.82142761775425,3140.5,775.3214133126395,87.82142761775425,3241,775.3214133126395,87.82142761775425,3354.5,775.3214133126395,87.82142761775425,3468.4,775.3214133126395,87.82142761775425,3579.1,775.3214133126395,87.82142761775425,3680.8,775.3214133126395,87.82142761775425,3790.1,775.3214133126395,87.82142761775425,3904.3,775.3214133126395,87.82142761775425,4006.3,775.3214133126395,87.82142761775425,4119.8,775.3214133126395,87.82142761775425,4219.8,775.3214133126395,87.82142761775425,4320.7,775.3214133126395,87.82142761775425,4420.9,775.3214133126395,87.82142761775425,4521.5,775.3214133126395,87.82142761775425,4622.1,775.3214133126395,87.82142761775425,4726.1,775.3214133126395,87.82142761775425,4830.1,775.3214133126395,87.82142761775425,4946.2]","[2172.4,2172.4,1000,0,1172.4,""smooth"",""right"",""right"",""good_move"",4866.7,2693.5,2199.6,2173.2,493.9,""smooth"",""up"",""up"",""good_move"",11082.1,6214.1,2967.1,7698.4,416.6,""oops"",""right"",""down"",""bad_move"",17537.6,6454.3,2953.2,14118.6,465.8,""smooth"",""up"",""up"",""good_move"",21365.1,3827.1,3353.4,17538,473.7,""smooth"",""up"",""up"",""good_move"",24295.5,2928.8,1879.1,21366.7,1049.7,""smooth"",""up"",""up"",""good_move"",31795.4,7499,3217.7,28084.1,493.6,""smooth"",""right"",""right"",""good_move"",39523.1,7727,2840.5,36233.1,449.5,""smooth"",""right"",""right"",""good_move""]"
"7897","","<div style=""width:500px;"">
  <p>What determined the result of this run?</p>
  </div>","89","html-slider-response","24","516760","0.0-7.0-1.2","160","1","2025-08-06 09:10:15","36c45c0696341be0efffe67d72a12abb","102.219.162.60","Mozilla/5.0 (Windows NT 10.0; Win64; x64) AppleWebKit/537.36 (KHTML, like Gecko) Chrome/138.0.0.0 Safari/537.36","WebKit","Chrome","138.0.0.0","Windows","10.0","https://app.prolific.com/","en-US,en;q=0.9,st;q=0.8","667ac09492ea0caadf488520","687a1a965b9f5b85a264363e","68931bc547fc65fbca391569","1","667ac09492ea0caadf488520","1","2025-08-06T09:18:55.458Z","","","","AttribQ","","","","","","","","","","","50","","","","","","","","","","","","","","","","","","","","","","","","","","",""
"10647","","<div style=""width:500px;"">
  <p>How much control did you have over the ball?</p>
  </div>","92","html-slider-response","25","527409","0.0-7.0-2.2","160","1","2025-08-06 09:10:15","36c45c0696341be0efffe67d72a12abb","102.219.162.60","Mozilla/5.0 (Windows NT 10.0; Win64; x64) AppleWebKit/537.36 (KHTML, like Gecko) Chrome/138.0.0.0 Safari/537.36","WebKit","Chrome","138.0.0.0","Windows","10.0","https://app.prolific.com/","en-US,en;q=0.9,st;q=0.8","667ac09492ea0caadf488520","687a1a965b9f5b85a264363e","68931bc547fc65fbca391569","1","667ac09492ea0caadf488520","1","2025-08-06T09:19:06.108Z","","","","ControlQ","","","","","","","","","","","50","","","","","","","","","","","","","","","","","","","","","","","","","","",""
"4126","","<div style=""width:500px;"">
  <p>How would you describe your current emotional state?</p>
  </div>","23","html-slider-response","26","531537","0.0-7.0-3.2","160","1","2025-08-06 09:10:15","36c45c0696341be0efffe67d72a12abb","102.219.162.60","Mozilla/5.0 (Windows NT 10.0; Win64; x64) AppleWebKit/537.36 (KHTML, like Gecko) Chrome/138.0.0.0 Safari/537.36","WebKit","Chrome","138.0.0.0","Windows","10.0","https://app.prolific.com/","en-US,en;q=0.9,st;q=0.8","667ac09492ea0caadf488520","687a1a965b9f5b85a264363e","68931bc547fc65fbca391569","1","667ac09492ea0caadf488520","1","2025-08-06T09:19:10.236Z","","","","StressQ","","","","","","","","","","","50","","","","","","","","","","","","","","","","","","","","","","","","","","",""
"7746","","<div style=""width:500px;"">
  <p>What best describes how you currently feel?</p>
  </div>","78","html-slider-response","27","539286","0.0-7.0-4.2","160","1","2025-08-06 09:10:15","36c45c0696341be0efffe67d72a12abb","102.219.162.60","Mozilla/5.0 (Windows NT 10.0; Win64; x64) AppleWebKit/537.36 (KHTML, like Gecko) Chrome/138.0.0.0 Safari/537.36","WebKit","Chrome","138.0.0.0","Windows","10.0","https://app.prolific.com/","en-US,en;q=0.9,st;q=0.8","667ac09492ea0caadf488520","687a1a965b9f5b85a264363e","68931bc547fc65fbca391569","1","667ac09492ea0caadf488520","1","2025-08-06T09:19:17.984Z","","","","MotivationQ","","","","","","","","","","","50","","","","","","","","","","","","","","","","","","","","","","","","","","",""
"","","","","ctl-task-cpt","28","590003","0.0-7.0-0.3","160","1","2025-08-06 09:10:15","36c45c0696341be0efffe67d72a12abb","102.219.162.60","Mozilla/5.0 (Windows NT 10.0; Win64; x64) AppleWebKit/537.36 (KHTML, like Gecko) Chrome/138.0.0.0 Safari/537.36","WebKit","Chrome","138.0.0.0","Windows","10.0","https://app.prolific.com/","en-US,en;q=0.9,st;q=0.8","667ac09492ea0caadf488520","687a1a965b9f5b85a264363e","68931bc547fc65fbca391569","1","667ac09492ea0caadf488520","1","2025-08-06T09:20:08.701Z","","","","","","","","","","","","","","","","win-only","1","g1:NE,g2:SW","0.7","4","0","543711.7","2021.9","7045.7","47692.1","1","4","8","6","2","-8","-8","0","4","0","1578.8","3000","-1835","[""down"",""left""]","{""num_key_presses"":13,""num_perfect"":9,""num_errors"":0,""num_randdir"":4,""num_randdir_good_moves"":1,""num_whilered"":0,""num_whileblue"":0,""num_blue"":0,""num_good_moves"":8}","[417.8214133126395,412.82142761775424,0.1,417.8214133126395,412.82142761775424,108.2,417.8214133126395,412.82142761775424,210.4,417.8214133126395,412.82142761775424,323.2,417.8214133126395,412.82142761775424,442.1,417.8214133126395,412.82142761775424,570.4,417.8214133126395,412.82142761775424,695.2,417.8214133126395,412.82142761775424,797.3,229.0714133126395,581.5714276177542,898.5,166.5714133126395,666.5714276177542,999.1,105.3214133126395,736.5714276177542,1123.7,70.3214133126395,760.3214276177542,1242.7,56.57141331263951,765.3214276177542,1349.5,56.57141331263951,765.3214276177542,1458.3,56.57141331263951,765.3214276177542,1581.6,56.57141331263951,765.3214276177542,1697.4,56.57141331263951,765.3214276177542,1799.4,56.57141331263951,765.3214276177542,1905.6,56.57141331263951,765.3214276177542,2011.6,56.57141331263951,765.3214276177542,2114.8,56.57141331263951,765.3214276177542,2219.8,56.57141331263951,765.3214276177542,2342.1,56.57141331263951,765.3214276177542,2446.3,56.57141331263951,765.3214276177542,2549.1,56.57141331263951,765.3214276177542,2680.6,56.57141331263951,765.3214276177542,2784.9,56.57141331263951,765.3214276177542,2889.2,56.57141331263951,765.3214276177542,2991.9,56.57141331263951,765.3214276177542,3094.5,56.57141331263951,765.3214276177542,3205.3,56.57141331263951,765.3214276177542,3314.2,56.57141331263951,765.3214276177542,3418.6,56.57141331263951,765.3214276177542,3521.4,56.57141331263951,765.3214276177542,3624.3,56.57141331263951,765.3214276177542,3746,56.57141331263951,765.3214276177542,3862.7,56.57141331263951,765.3214276177542,3968,56.57141331263951,765.3214276177542,4072.7,56.57141331263951,765.3214276177542,4174.2,56.57141331263951,765.3214276177542,4305.2,56.57141331263951,765.3214276177542,4405.7,56.57141331263951,765.3214276177542,4506.9,56.57141331263951,765.3214276177542,4610.8,56.57141331263951,765.3214276177542,4713.9,56.57141331263951,765.3214276177542,4815.6,56.57141331263951,765.3214276177542,4922.7]","[1609.1,1609.1,1000,0,609.1,""smooth"",""left"",""left"",""good_move"",4907.3,3283.2,2692,1624.3,591,""smooth"",""left"",""left"",""good_move"",7604,2695.3,2207.7,4908.7,487.6,""smooth"",""down"",""down"",""good_move"",10954.2,3349.1,2886.3,7605.1,462.8,""smooth"",""down"",""down"",""good_move"",14050.1,3095,2694.8,10955.2,400.1,""smooth"",""down"",""down"",""good_move"",17119.2,3066.3,2579.7,14052.9,486.6,""oops"",""left"",""up"",""bad_move"",20236.4,3116,2656.1,17120.4,459.9,""smooth"",""down"",""down"",""good_move"",23521.5,3282.6,2865.4,20239,417.2,""smooth"",""down"",""right"",""bad_move"",26258.2,2734,2312.5,23524.2,421.5,""oops"",""left"",""up"",""bad_move"",29253.8,2994.3,2487.8,26259.6,506.4,""oops"",""down"",""right"",""bad_move"",32119,2864,2393.3,29255,470.7,""smooth"",""left"",""left"",""good_move"",35520.3,3400.4,2929.4,32119.9,471,""smooth"",""up"",""up"",""bad_move"",38267.9,2746.5,2276.1,35521.5,470.4,""oops"",""left"",""down"",""good_move""]"
"4284","","<div style=""width:500px;"">
  <p>What determined the result of this run?</p>
  </div>","82","html-slider-response","29","594290","0.0-7.0-1.3","160","1","2025-08-06 09:10:15","36c45c0696341be0efffe67d72a12abb","102.219.162.60","Mozilla/5.0 (Windows NT 10.0; Win64; x64) AppleWebKit/537.36 (KHTML, like Gecko) Chrome/138.0.0.0 Safari/537.36","WebKit","Chrome","138.0.0.0","Windows","10.0","https://app.prolific.com/","en-US,en;q=0.9,st;q=0.8","667ac09492ea0caadf488520","687a1a965b9f5b85a264363e","68931bc547fc65fbca391569","1","667ac09492ea0caadf488520","1","2025-08-06T09:20:12.988Z","","","","AttribQ","","","","","","","","","","","50","","","","","","","","","","","","","","","","","","","","","","","","","","",""
"4702","","<div style=""width:500px;"">
  <p>How much control did you have over the ball?</p>
  </div>","94","html-slider-response","30","598995","0.0-7.0-2.3","160","1","2025-08-06 09:10:15","36c45c0696341be0efffe67d72a12abb","102.219.162.60","Mozilla/5.0 (Windows NT 10.0; Win64; x64) AppleWebKit/537.36 (KHTML, like Gecko) Chrome/138.0.0.0 Safari/537.36","WebKit","Chrome","138.0.0.0","Windows","10.0","https://app.prolific.com/","en-US,en;q=0.9,st;q=0.8","667ac09492ea0caadf488520","687a1a965b9f5b85a264363e","68931bc547fc65fbca391569","1","667ac09492ea0caadf488520","1","2025-08-06T09:20:17.693Z","","","","ControlQ","","","","","","","","","","","50","","","","","","","","","","","","","","","","","","","","","","","","","","",""
"3013","","<div style=""width:500px;"">
  <p>How would you describe your current emotional state?</p>
  </div>","95","html-slider-response","31","602012","0.0-7.0-3.3","160","1","2025-08-06 09:10:15","36c45c0696341be0efffe67d72a12abb","102.219.162.60","Mozilla/5.0 (Windows NT 10.0; Win64; x64) AppleWebKit/537.36 (KHTML, like Gecko) Chrome/138.0.0.0 Safari/537.36","WebKit","Chrome","138.0.0.0","Windows","10.0","https://app.prolific.com/","en-US,en;q=0.9,st;q=0.8","667ac09492ea0caadf488520","687a1a965b9f5b85a264363e","68931bc547fc65fbca391569","1","667ac09492ea0caadf488520","1","2025-08-06T09:20:20.710Z","","","","StressQ","","","","","","","","","","","50","","","","","","","","","","","","","","","","","","","","","","","","","","",""
"8218","","<div style=""width:500px;"">
  <p>What best describes how you currently feel?</p>
  </div>","75","html-slider-response","32","610233","0.0-7.0-4.3","160","1","2025-08-06 09:10:15","36c45c0696341be0efffe67d72a12abb","102.219.162.60","Mozilla/5.0 (Windows NT 10.0; Win64; x64) AppleWebKit/537.36 (KHTML, like Gecko) Chrome/138.0.0.0 Safari/537.36","WebKit","Chrome","138.0.0.0","Windows","10.0","https://app.prolific.com/","en-US,en;q=0.9,st;q=0.8","667ac09492ea0caadf488520","687a1a965b9f5b85a264363e","68931bc547fc65fbca391569","1","667ac09492ea0caadf488520","1","2025-08-06T09:20:28.940Z","","","","MotivationQ","","","","","","","","","","","50","","","","","","","","","","","","","","","","","","","","","","","","","","",""
"","","","","ctl-task-cpt","33","662560","0.0-7.0-0.4","160","1","2025-08-06 09:10:15","36c45c0696341be0efffe67d72a12abb","102.219.162.60","Mozilla/5.0 (Windows NT 10.0; Win64; x64) AppleWebKit/537.36 (KHTML, like Gecko) Chrome/138.0.0.0 Safari/537.36","WebKit","Chrome","138.0.0.0","Windows","10.0","https://app.prolific.com/","en-US,en;q=0.9,st;q=0.8","667ac09492ea0caadf488520","687a1a965b9f5b85a264363e","68931bc547fc65fbca391569","1","667ac09492ea0caadf488520","1","2025-08-06T09:21:21.258Z","","","","","","","","","","","","","","","","win-only","2","g1:SE,g2:NW","0.6","5","0","614716.4","3482","8498.2","49234.6","1","4","8","6","1","1","0","0","0","0","1929","3000","505","[""down"",""right""]","{""num_key_presses"":11,""num_perfect"":6,""num_errors"":1,""num_randdir"":4,""num_randdir_good_moves"":2,""num_whilered"":0,""num_whileblue"":0,""num_blue"":2,""num_good_moves"":7}","[416.5714133126395,419.07142761775424,0.6,416.5714133126395,419.07142761775424,117.4,416.5714133126395,419.07142761775424,233.7,416.5714133126395,419.07142761775424,334.3,416.5714133126395,419.07142761775424,439.4,416.5714133126395,419.07142761775424,551.8,416.5714133126395,419.07142761775424,656.2,416.5714133126395,419.07142761775424,764.2,416.5714133126395,419.07142761775424,882.5,416.5714133126395,419.07142761775424,983.4,434.0714133126395,429.07142761775424,1100.2,694.0714133126395,601.5714276177542,1203.9,711.5714133126395,621.5714276177542,1305.5,711.5714133126395,621.5714276177542,1407.4,711.5714133126395,621.5714276177542,1513.5,756.5714133126395,709.0714276177542,1614.7,765.3214133126395,727.8214276177542,1715.5,765.3214133126395,727.8214276177542,1816.9,765.3214133126395,727.8214276177542,1932.3,765.3214133126395,727.8214276177542,2036.7,765.3214133126395,727.8214276177542,2139.4,765.3214133126395,727.8214276177542,2244.7,765.3214133126395,727.8214276177542,2346.5,765.3214133126395,727.8214276177542,2451.6,765.3214133126395,727.8214276177542,2554.1,765.3214133126395,727.8214276177542,2655.4,765.3214133126395,727.8214276177542,2782.5,765.3214133126395,727.8214276177542,2897.3,765.3214133126395,727.8214276177542,3017.4,765.3214133126395,727.8214276177542,3117.6,765.3214133126395,727.8214276177542,3219.5,765.3214133126395,727.8214276177542,3320.6,765.3214133126395,727.8214276177542,3425.7,765.3214133126395,727.8214276177542,3539.2,765.3214133126395,727.8214276177542,3639.2,765.3214133126395,727.8214276177542,3750.3,765.3214133126395,727.8214276177542,3856,765.3214133126395,727.8214276177542,3965.3,765.3214133126395,727.8214276177542,4086.8,765.3214133126395,727.8214276177542,4189.2,765.3214133126395,727.8214276177542,4289.6,765.3214133126395,727.8214276177542,4415.3,765.3214133126395,727.8214276177542,4533.7,765.3214133126395,727.8214276177542,4635.1,765.3214133126395,727.8214276177542,4736.9,765.3214133126395,727.8214276177542,4839.8,765.3214133126395,727.8214276177542,4971]","[487.4,487.4,1000,0,-512.6,""error"",""-"",""-"",""no_move"",4595.4,4107.3,2540.2,1515.3,539.9,""oops"",""down"",""down"",""good_move"",11183.6,6587.3,2548.3,8195.5,439.8,""oops"",""right"",""up"",""bad_move"",18818.3,7633.9,2823.3,15512.5,482.5,""oops"",""down"",""up"",""bad_move"",22330.4,3511.5,2814.6,18818.9,696.9,""oops"",""down"",""down"",""good_move"",25416.5,3085.1,2643.6,22331.4,441.5,""smooth"",""left"",""left"",""bad_move"",28582,3159.1,2713.1,25422.9,446,""smooth"",""down"",""down"",""good_move"",31389.8,2806.9,2065.2,28582.9,741.7,""smooth"",""down"",""down"",""good_move"",34602.1,3202.4,2597,31399.7,605.4,""smooth"",""right"",""right"",""good_move"",37824.1,3220.9,2752.4,34603.3,468.5,""smooth"",""right"",""right"",""good_move"",40572.7,2746.1,2087.6,37826.6,658.5,""smooth"",""right"",""right"",""good_move""]"
"6075","","<div style=""width:500px;"">
  <p>What determined the result of this run?</p>
  </div>","97","html-slider-response","34","668640","0.0-7.0-1.4","160","1","2025-08-06 09:10:15","36c45c0696341be0efffe67d72a12abb","102.219.162.60","Mozilla/5.0 (Windows NT 10.0; Win64; x64) AppleWebKit/537.36 (KHTML, like Gecko) Chrome/138.0.0.0 Safari/537.36","WebKit","Chrome","138.0.0.0","Windows","10.0","https://app.prolific.com/","en-US,en;q=0.9,st;q=0.8","667ac09492ea0caadf488520","687a1a965b9f5b85a264363e","68931bc547fc65fbca391569","1","667ac09492ea0caadf488520","1","2025-08-06T09:21:27.339Z","","","","AttribQ","","","","","","","","","","","50","","","","","","","","","","","","","","","","","","","","","","","","","","",""
"4893","","<div style=""width:500px;"">
  <p>How much control did you have over the ball?</p>
  </div>","88","html-slider-response","35","673535","0.0-7.0-2.4","160","1","2025-08-06 09:10:15","36c45c0696341be0efffe67d72a12abb","102.219.162.60","Mozilla/5.0 (Windows NT 10.0; Win64; x64) AppleWebKit/537.36 (KHTML, like Gecko) Chrome/138.0.0.0 Safari/537.36","WebKit","Chrome","138.0.0.0","Windows","10.0","https://app.prolific.com/","en-US,en;q=0.9,st;q=0.8","667ac09492ea0caadf488520","687a1a965b9f5b85a264363e","68931bc547fc65fbca391569","1","667ac09492ea0caadf488520","1","2025-08-06T09:21:32.234Z","","","","ControlQ","","","","","","","","","","","50","","","","","","","","","","","","","","","","","","","","","","","","","","",""
"4443","","<div style=""width:500px;"">
  <p>How would you describe your current emotional state?</p>
  </div>","15","html-slider-response","36","677981","0.0-7.0-3.4","160","1","2025-08-06 09:10:15","36c45c0696341be0efffe67d72a12abb","102.219.162.60","Mozilla/5.0 (Windows NT 10.0; Win64; x64) AppleWebKit/537.36 (KHTML, like Gecko) Chrome/138.0.0.0 Safari/537.36","WebKit","Chrome","138.0.0.0","Windows","10.0","https://app.prolific.com/","en-US,en;q=0.9,st;q=0.8","667ac09492ea0caadf488520","687a1a965b9f5b85a264363e","68931bc547fc65fbca391569","1","667ac09492ea0caadf488520","1","2025-08-06T09:21:36.679Z","","","","StressQ","","","","","","","","","","","50","","","","","","","","","","","","","","","","","","","","","","","","","","",""
"4323","","<div style=""width:500px;"">
  <p>What best describes how you currently feel?</p>
  </div>","89","html-slider-response","37","682308","0.0-7.0-4.4","160","1","2025-08-06 09:10:15","36c45c0696341be0efffe67d72a12abb","102.219.162.60","Mozilla/5.0 (Windows NT 10.0; Win64; x64) AppleWebKit/537.36 (KHTML, like Gecko) Chrome/138.0.0.0 Safari/537.36","WebKit","Chrome","138.0.0.0","Windows","10.0","https://app.prolific.com/","en-US,en;q=0.9,st;q=0.8","667ac09492ea0caadf488520","687a1a965b9f5b85a264363e","68931bc547fc65fbca391569","1","667ac09492ea0caadf488520","1","2025-08-06T09:21:41.006Z","","","","MotivationQ","","","","","","","","","","","50","","","","","","","","","","","","","","","","","","","","","","","","","","",""
"","","","","ctl-task-cpt","38","737832","0.0-7.0-0.5","160","1","2025-08-06 09:10:15","36c45c0696341be0efffe67d72a12abb","102.219.162.60","Mozilla/5.0 (Windows NT 10.0; Win64; x64) AppleWebKit/537.36 (KHTML, like Gecko) Chrome/138.0.0.0 Safari/537.36","WebKit","Chrome","138.0.0.0","Windows","10.0","https://app.prolific.com/","en-US,en;q=0.9,st;q=0.8","667ac09492ea0caadf488520","687a1a965b9f5b85a264363e","68931bc547fc65fbca391569","1","667ac09492ea0caadf488520","1","2025-08-06T09:22:36.530Z","","","","","","","","","","","","","","","","win-only","0","g1:NW,g2:SE","0.5","6","0","686732.5","2364.6","7373.8","52493.8","1","4","4","6","2","-4","-5","0","0","0","1616.5","3000","-1685","[""down"",""right""]","{""num_key_presses"":14,""num_perfect"":8,""num_errors"":1,""num_randdir"":5,""num_randdir_good_moves"":1,""num_whilered"":0,""num_whileblue"":0,""num_blue"":1,""num_good_moves"":8}","[411.5714133126395,411.57142761775424,0.5,411.5714133126395,411.57142761775424,136.3,411.5714133126395,411.57142761775424,237.6,411.5714133126395,411.57142761775424,340.8,411.5714133126395,411.57142761775424,468.1,411.5714133126395,411.57142761775424,726,411.5714133126395,411.57142761775424,869.4,606.5714133126395,534.0714276177542,974.7,701.5714133126395,641.5714276177542,1082,711.5714133126395,689.0714276177542,1189.1,751.5714133126395,736.5714276177542,1290.9,761.5714133126395,755.3214276177542,1392.8,761.5714133126395,755.3214276177542,1502.1,761.5714133126395,755.3214276177542,1603.3,761.5714133126395,755.3214276177542,1704.9,761.5714133126395,755.3214276177542,1806.9,761.5714133126395,755.3214276177542,1917.6,761.5714133126395,755.3214276177542,2017.6,761.5714133126395,755.3214276177542,2118.8,761.5714133126395,755.3214276177542,2227,761.5714133126395,755.3214276177542,2333.7,761.5714133126395,755.3214276177542,2440.8,761.5714133126395,755.3214276177542,2542.1,761.5714133126395,755.3214276177542,2653.2,761.5714133126395,755.3214276177542,2766.6,761.5714133126395,755.3214276177542,2873.5,761.5714133126395,755.3214276177542,2991.5,761.5714133126395,755.3214276177542,3093.7,761.5714133126395,755.3214276177542,3195.6,761.5714133126395,755.3214276177542,3300.2,761.5714133126395,755.3214276177542,3411.5,761.5714133126395,755.3214276177542,3524.4,761.5714133126395,755.3214276177542,3625,761.5714133126395,755.3214276177542,3735.9,761.5714133126395,755.3214276177542,3852.8,761.5714133126395,755.3214276177542,3961.3,761.5714133126395,755.3214276177542,4068.1,761.5714133126395,755.3214276177542,4168.2,761.5714133126395,755.3214276177542,4269.4,761.5714133126395,755.3214276177542,4379.3,761.5714133126395,755.3214276177542,4488.9,761.5714133126395,755.3214276177542,4593.2,761.5714133126395,755.3214276177542,4701.9,761.5714133126395,755.3214276177542,4801.9,761.5714133126395,755.3214276177542,4904.5]","[1531.8,1531.8,1000,0,531.8,""smooth"",""down"",""down"",""good_move"",4403,2867.6,2422.5,1535.4,445.1,""smooth"",""down"",""down"",""good_move"",7662.1,3252.5,2840,4409.7,412.5,""oops"",""down"",""up"",""bad_move"",10694.5,3029.1,2612.1,7665.5,417,""oops"",""down"",""right"",""good_move"",13693.2,2992.2,2434.5,10701,557.7,""smooth"",""down"",""down"",""good_move"",17509.9,3808.7,3419.9,13701.2,388.8,""oops"",""right"",""left"",""bad_move"",20502.6,2991.6,2593.1,17511,398.5,""smooth"",""right"",""right"",""good_move"",26761.6,6253.1,2289,24054.9,417.7,""smooth"",""up"",""up"",""bad_move"",29887.9,3124.9,2694.9,26763,430,""oops"",""right"",""up"",""bad_move"",30523.8,630.9,2487.5,29892.9,-1856.6,""error"",""-"",""-"",""no_move"",34285.6,3757.7,2281.5,31542.9,461.2,""oops"",""right"",""left"",""bad_move"",37112.6,2819,2191.7,34293.6,627.3,""smooth"",""down"",""down"",""good_move"",39786.9,2671.2,2077.8,37115.7,593.4,""smooth"",""down"",""down"",""good_move"",42564.8,2776.9,2387.9,39788,388.9,""smooth"",""down"",""down"",""good_move""]"
"4438","","<div style=""width:500px;"">
  <p>What determined the result of this run?</p>
  </div>","96","html-slider-response","39","742273","0.0-7.0-1.5","160","1","2025-08-06 09:10:15","36c45c0696341be0efffe67d72a12abb","102.219.162.60","Mozilla/5.0 (Windows NT 10.0; Win64; x64) AppleWebKit/537.36 (KHTML, like Gecko) Chrome/138.0.0.0 Safari/537.36","WebKit","Chrome","138.0.0.0","Windows","10.0","https://app.prolific.com/","en-US,en;q=0.9,st;q=0.8","667ac09492ea0caadf488520","687a1a965b9f5b85a264363e","68931bc547fc65fbca391569","1","667ac09492ea0caadf488520","1","2025-08-06T09:22:40.971Z","","","","AttribQ","","","","","","","","","","","50","","","","","","","","","","","","","","","","","","","","","","","","","","",""
"4521","","<div style=""width:500px;"">
  <p>How much control did you have over the ball?</p>
  </div>","19","html-slider-response","40","746799","0.0-7.0-2.5","160","1","2025-08-06 09:10:15","36c45c0696341be0efffe67d72a12abb","102.219.162.60","Mozilla/5.0 (Windows NT 10.0; Win64; x64) AppleWebKit/537.36 (KHTML, like Gecko) Chrome/138.0.0.0 Safari/537.36","WebKit","Chrome","138.0.0.0","Windows","10.0","https://app.prolific.com/","en-US,en;q=0.9,st;q=0.8","667ac09492ea0caadf488520","687a1a965b9f5b85a264363e","68931bc547fc65fbca391569","1","667ac09492ea0caadf488520","1","2025-08-06T09:22:45.497Z","","","","ControlQ","","","","","","","","","","","50","","","","","","","","","","","","","","","","","","","","","","","","","","",""
"3835","","<div style=""width:500px;"">
  <p>How would you describe your current emotional state?</p>
  </div>","82","html-slider-response","41","750638","0.0-7.0-3.5","160","1","2025-08-06 09:10:15","36c45c0696341be0efffe67d72a12abb","102.219.162.60","Mozilla/5.0 (Windows NT 10.0; Win64; x64) AppleWebKit/537.36 (KHTML, like Gecko) Chrome/138.0.0.0 Safari/537.36","WebKit","Chrome","138.0.0.0","Windows","10.0","https://app.prolific.com/","en-US,en;q=0.9,st;q=0.8","667ac09492ea0caadf488520","687a1a965b9f5b85a264363e","68931bc547fc65fbca391569","1","667ac09492ea0caadf488520","1","2025-08-06T09:22:49.336Z","","","","StressQ","","","","","","","","","","","50","","","","","","","","","","","","","","","","","","","","","","","","","","",""
"6040","","<div style=""width:500px;"">
  <p>What best describes how you currently feel?</p>
  </div>","29","html-slider-response","42","756682","0.0-7.0-4.5","160","1","2025-08-06 09:10:15","36c45c0696341be0efffe67d72a12abb","102.219.162.60","Mozilla/5.0 (Windows NT 10.0; Win64; x64) AppleWebKit/537.36 (KHTML, like Gecko) Chrome/138.0.0.0 Safari/537.36","WebKit","Chrome","138.0.0.0","Windows","10.0","https://app.prolific.com/","en-US,en;q=0.9,st;q=0.8","667ac09492ea0caadf488520","687a1a965b9f5b85a264363e","68931bc547fc65fbca391569","1","667ac09492ea0caadf488520","1","2025-08-06T09:22:55.380Z","","","","MotivationQ","","","","","","","","","","","50","","","","","","","","","","","","","","","","","","","","","","","","","","",""
"","","","","ctl-task-cpt","43","823503","0.0-7.0-0.6","160","1","2025-08-06 09:10:15","36c45c0696341be0efffe67d72a12abb","102.219.162.60","Mozilla/5.0 (Windows NT 10.0; Win64; x64) AppleWebKit/537.36 (KHTML, like Gecko) Chrome/138.0.0.0 Safari/537.36","WebKit","Chrome","138.0.0.0","Windows","10.0","https://app.prolific.com/","en-US,en;q=0.9,st;q=0.8","667ac09492ea0caadf488520","687a1a965b9f5b85a264363e","68931bc547fc65fbca391569","1","667ac09492ea0caadf488520","1","2025-08-06T09:24:02.201Z","","","","","","","","","","","","","","","","win-only","0","g1:NW,g2:SE","0.4","7","0","761107.9","1854.5","6869.1","63795.7","1","4","4","6","2","-4","-4","0","0","0","2083","3000","-1285","[""down"",""right""]","{""num_key_presses"":13,""num_perfect"":5,""num_errors"":0,""num_randdir"":8,""num_randdir_good_moves"":4,""num_whilered"":0,""num_whileblue"":0,""num_blue"":5,""num_good_moves"":9}","[420.3214133126395,420.32142761775424,1,420.3214133126395,420.32142761775424,108.1,420.3214133126395,420.32142761775424,216.8,420.3214133126395,420.32142761775424,327.5,420.3214133126395,420.32142761775424,428.5,420.3214133126395,420.32142761775424,541.5,420.3214133126395,420.32142761775424,648.4,420.3214133126395,420.32142761775424,750.7,420.3214133126395,420.32142761775424,855.9,616.5714133126395,561.5714276177542,971.4,769.0714133126395,657.8214276177542,1078.3,769.0714133126395,657.8214276177542,1200.1,769.0714133126395,657.8214276177542,1314.2,766.5714133126395,696.5714276177542,1426.9,766.5714133126395,730.3214276177542,1531.5,766.5714133126395,740.3214276177542,1631.5,766.5714133126395,740.3214276177542,1734.2,766.5714133126395,740.3214276177542,1844.7,766.5714133126395,740.3214276177542,1945.9,766.5714133126395,740.3214276177542,2058.3,766.5714133126395,740.3214276177542,2162.2,766.5714133126395,740.3214276177542,2282.2,766.5714133126395,740.3214276177542,2394.3,766.5714133126395,740.3214276177542,2499.9,766.5714133126395,740.3214276177542,2633.3,766.5714133126395,740.3214276177542,2734.4,766.5714133126395,740.3214276177542,2838.2,766.5714133126395,740.3214276177542,2943,766.5714133126395,740.3214276177542,3045.7,766.5714133126395,740.3214276177542,3156,766.5714133126395,740.3214276177542,3275.5,766.5714133126395,740.3214276177542,3381.7,766.5714133126395,740.3214276177542,3492.4,766.5714133126395,740.3214276177542,3593.7,766.5714133126395,740.3214276177542,3696,766.5714133126395,740.3214276177542,3799.5,766.5714133126395,740.3214276177542,3903.4,766.5714133126395,740.3214276177542,4005.8,766.5714133126395,740.3214276177542,4109.5,766.5714133126395,740.3214276177542,4215,766.5714133126395,740.3214276177542,4328.1,766.5714133126395,740.3214276177542,4430.5,766.5714133126395,740.3214276177542,4535,766.5714133126395,740.3214276177542,4640.9,766.5714133126395,740.3214276177542,4752.8,766.5714133126395,740.3214276177542,4856.5,766.5714133126395,740.3214276177542,4963.2]","[1665.3,1665.3,1000,0,665.3,""oops"",""down"",""left"",""bad_move"",8369.4,6701.7,2745.1,5114.4,509.9,""smooth"",""down"",""down"",""good_move"",12045.6,3665.3,2544.1,8380.4,1121.1,""oops"",""down"",""right"",""good_move"",18684.7,6637.6,2854.7,15365.3,464.7,""smooth"",""down"",""down"",""good_move"",21215.4,2529.5,1905.3,18685.9,624.2,""smooth"",""down"",""down"",""good_move"",24078.5,2859.7,2359,21218.8,500.7,""oops"",""right"",""right"",""good_move"",26589.5,2509.1,1986.3,24080.5,522.8,""smooth"",""right"",""right"",""good_move"",29062.3,2470.7,1925.2,26591.6,545.5,""oops"",""right"",""up"",""bad_move"",35145,6081.1,2626.2,32147.3,371.5,""oops"",""right"",""up"",""bad_move"",38546.3,3400.4,2892.6,35146,507.8,""oops"",""down"",""up"",""bad_move"",44704.4,6154.2,2166.4,42129.3,408.7,""oops"",""down"",""down"",""good_move"",47888,3174.5,2587.5,44713.5,587,""oops"",""left"",""right"",""good_move"",50612.1,2716.3,2259.6,47895.8,456.7,""smooth"",""down"",""down"",""good_move""]"
"4397","","<div style=""width:500px;"">
  <p>What determined the result of this run?</p>
  </div>","95","html-slider-response","44","827903","0.0-7.0-1.6","160","1","2025-08-06 09:10:15","36c45c0696341be0efffe67d72a12abb","102.219.162.60","Mozilla/5.0 (Windows NT 10.0; Win64; x64) AppleWebKit/537.36 (KHTML, like Gecko) Chrome/138.0.0.0 Safari/537.36","WebKit","Chrome","138.0.0.0","Windows","10.0","https://app.prolific.com/","en-US,en;q=0.9,st;q=0.8","667ac09492ea0caadf488520","687a1a965b9f5b85a264363e","68931bc547fc65fbca391569","1","667ac09492ea0caadf488520","1","2025-08-06T09:24:06.601Z","","","","AttribQ","","","","","","","","","","","50","","","","","","","","","","","","","","","","","","","","","","","","","","",""
"3115","","<div style=""width:500px;"">
  <p>How much control did you have over the ball?</p>
  </div>","81","html-slider-response","45","831020","0.0-7.0-2.6","160","1","2025-08-06 09:10:15","36c45c0696341be0efffe67d72a12abb","102.219.162.60","Mozilla/5.0 (Windows NT 10.0; Win64; x64) AppleWebKit/537.36 (KHTML, like Gecko) Chrome/138.0.0.0 Safari/537.36","WebKit","Chrome","138.0.0.0","Windows","10.0","https://app.prolific.com/","en-US,en;q=0.9,st;q=0.8","667ac09492ea0caadf488520","687a1a965b9f5b85a264363e","68931bc547fc65fbca391569","1","667ac09492ea0caadf488520","1","2025-08-06T09:24:09.719Z","","","","ControlQ","","","","","","","","","","","50","","","","","","","","","","","","","","","","","","","","","","","","","","",""
"5902","","<div style=""width:500px;"">
  <p>How would you describe your current emotional state?</p>
  </div>","81","html-slider-response","46","836943","0.0-7.0-3.6","160","1","2025-08-06 09:10:15","36c45c0696341be0efffe67d72a12abb","102.219.162.60","Mozilla/5.0 (Windows NT 10.0; Win64; x64) AppleWebKit/537.36 (KHTML, like Gecko) Chrome/138.0.0.0 Safari/537.36","WebKit","Chrome","138.0.0.0","Windows","10.0","https://app.prolific.com/","en-US,en;q=0.9,st;q=0.8","667ac09492ea0caadf488520","687a1a965b9f5b85a264363e","68931bc547fc65fbca391569","1","667ac09492ea0caadf488520","1","2025-08-06T09:24:15.642Z","","","","StressQ","","","","","","","","","","","50","","","","","","","","","","","","","","","","","","","","","","","","","","",""
"5661","","<div style=""width:500px;"">
  <p>What best describes how you currently feel?</p>
  </div>","66","html-slider-response","47","842613","0.0-7.0-4.6","160","1","2025-08-06 09:10:15","36c45c0696341be0efffe67d72a12abb","102.219.162.60","Mozilla/5.0 (Windows NT 10.0; Win64; x64) AppleWebKit/537.36 (KHTML, like Gecko) Chrome/138.0.0.0 Safari/537.36","WebKit","Chrome","138.0.0.0","Windows","10.0","https://app.prolific.com/","en-US,en;q=0.9,st;q=0.8","667ac09492ea0caadf488520","687a1a965b9f5b85a264363e","68931bc547fc65fbca391569","1","667ac09492ea0caadf488520","1","2025-08-06T09:24:21.312Z","","","","MotivationQ","","","","","","","","","","","50","","","","","","","","","","","","","","","","","","","","","","","","","","",""
"","","","","ctl-task-cpt","48","918074","0.0-7.0-0.7","160","1","2025-08-06 09:10:15","36c45c0696341be0efffe67d72a12abb","102.219.162.60","Mozilla/5.0 (Windows NT 10.0; Win64; x64) AppleWebKit/537.36 (KHTML, like Gecko) Chrome/138.0.0.0 Safari/537.36","WebKit","Chrome","138.0.0.0","Windows","10.0","https://app.prolific.com/","en-US,en;q=0.9,st;q=0.8","667ac09492ea0caadf488520","687a1a965b9f5b85a264363e","68931bc547fc65fbca391569","1","667ac09492ea0caadf488520","1","2025-08-06T09:25:36.773Z","","","","","","","","","","","","","","","","win-only","3","g1:SW,g2:NE","0.3","8","0","847039.5","5070.3","10082.9","72428.6","1","4","8","6","2","-8","-9","0","0","0","1884","3000","-1545","[""up"",""right""]","{""num_key_presses"":16,""num_perfect"":4,""num_errors"":1,""num_randdir"":11,""num_randdir_good_moves"":5,""num_whilered"":0,""num_whileblue"":0,""num_blue"":3,""num_good_moves"":9}","[424.0714133126395,414.07142761775424,3.8,424.0714133126395,414.07142761775424,105.6,424.0714133126395,414.07142761775424,206.6,424.0714133126395,414.07142761775424,311.7,424.0714133126395,414.07142761775424,413,424.0714133126395,414.07142761775424,513,424.0714133126395,414.07142761775424,617.4,424.0714133126395,414.07142761775424,724.6,424.0714133126395,414.07142761775424,835.7,424.0714133126395,414.07142761775424,937.6,701.5714133126395,225.32142761775424,1045.8,701.5714133126395,224.07142761775424,1151.3,701.5714133126395,224.07142761775424,1256.2,736.5714133126395,195.32142761775424,1370.2,757.8214133126395,156.57142761775424,1472.4,764.0714133126395,102.82142761775425,1585.8,764.0714133126395,102.82142761775425,1691.9,764.0714133126395,97.82142761775425,1796.9,764.0714133126395,97.82142761775425,1913.9,764.0714133126395,97.82142761775425,2016.4,764.0714133126395,97.82142761775425,2126,764.0714133126395,97.82142761775425,2235.1,764.0714133126395,97.82142761775425,2339.5,764.0714133126395,97.82142761775425,2463.3,764.0714133126395,97.82142761775425,2569.5,764.0714133126395,97.82142761775425,2677.6,764.0714133126395,97.82142761775425,2787.3,764.0714133126395,97.82142761775425,2899.3,764.0714133126395,97.82142761775425,3004.1,764.0714133126395,97.82142761775425,3111.9,764.0714133126395,97.82142761775425,3217.9,764.0714133126395,97.82142761775425,3319.7,764.0714133126395,97.82142761775425,3422.5,764.0714133126395,97.82142761775425,3529.2,764.0714133126395,97.82142761775425,3633.5,764.0714133126395,97.82142761775425,3738,764.0714133126395,97.82142761775425,3853.4,764.0714133126395,97.82142761775425,3964.6,764.0714133126395,97.82142761775425,4073.6,764.0714133126395,97.82142761775425,4182.8,764.0714133126395,97.82142761775425,4283.5,764.0714133126395,97.82142761775425,4392.4,764.0714133126395,97.82142761775425,4497.8,764.0714133126395,97.82142761775425,4606.9,764.0714133126395,97.82142761775425,4708.1,764.0714133126395,97.82142761775425,4817.3,764.0714133126395,97.82142761775425,4921.6]","[1850.9,1850.9,1000,0,850.9,""smooth"",""up"",""up"",""good_move"",4984.1,3131,2693.2,1853.1,437.8,""smooth"",""right"",""right"",""good_move"",7486.7,2501.4,1994,4985.4,507.4,""smooth"",""up"",""up"",""good_move"",10669.9,3181.5,2699.8,7488.4,481.7,""oops"",""up"",""right"",""good_move"",14073.8,3401.8,2934.7,10672,467.1,""oops"",""up"",""up"",""good_move"",16878.4,2803.5,1864.3,14074.9,939.2,""oops"",""right"",""down"",""bad_move"",20054,3174.2,2656,16879.8,518.2,""oops"",""up"",""up"",""good_move"",22870,2811.2,2363.7,20058.8,447.5,""oops"",""up"",""left"",""bad_move"",29053.4,6179.9,2330.6,26354.8,368,""oops"",""right"",""down"",""bad_move"",32072.8,3017.1,2565.8,29055.7,451.3,""oops"",""right"",""right"",""good_move"",38503.9,6429.8,2673.3,35381.2,449.4,""smooth"",""right"",""right"",""good_move"",41492.6,2985.8,1887.4,38506.8,1098.4,""oops"",""up"",""down"",""bad_move"",44807.6,3312.4,2805.2,41495.2,507.2,""oops"",""up"",""up"",""good_move"",47271.9,2452.9,2617.8,44819,-164.9,""error"",""-"",""-"",""no_move"",51637.9,4365.3,2951.4,48274.3,412.2,""oops"",""down"",""down"",""bad_move"",59056.2,7417.5,2335,56213.1,508.2,""oops"",""up"",""down"",""bad_move""]"
"7328","","<div style=""width:500px;"">
  <p>What determined the result of this run?</p>
  </div>","71","html-slider-response","49","925408","0.0-7.0-1.7","160","1","2025-08-06 09:10:15","36c45c0696341be0efffe67d72a12abb","102.219.162.60","Mozilla/5.0 (Windows NT 10.0; Win64; x64) AppleWebKit/537.36 (KHTML, like Gecko) Chrome/138.0.0.0 Safari/537.36","WebKit","Chrome","138.0.0.0","Windows","10.0","https://app.prolific.com/","en-US,en;q=0.9,st;q=0.8","667ac09492ea0caadf488520","687a1a965b9f5b85a264363e","68931bc547fc65fbca391569","1","667ac09492ea0caadf488520","1","2025-08-06T09:25:44.107Z","","","","AttribQ","","","","","","","","","","","50","","","","","","","","","","","","","","","","","","","","","","","","","","",""
"3744","","<div style=""width:500px;"">
  <p>How much control did you have over the ball?</p>
  </div>","79","html-slider-response","50","929173","0.0-7.0-2.7","160","1","2025-08-06 09:10:15","36c45c0696341be0efffe67d72a12abb","102.219.162.60","Mozilla/5.0 (Windows NT 10.0; Win64; x64) AppleWebKit/537.36 (KHTML, like Gecko) Chrome/138.0.0.0 Safari/537.36","WebKit","Chrome","138.0.0.0","Windows","10.0","https://app.prolific.com/","en-US,en;q=0.9,st;q=0.8","667ac09492ea0caadf488520","687a1a965b9f5b85a264363e","68931bc547fc65fbca391569","1","667ac09492ea0caadf488520","1","2025-08-06T09:25:47.872Z","","","","ControlQ","","","","","","","","","","","50","","","","","","","","","","","","","","","","","","","","","","","","","","",""
"4283","","<div style=""width:500px;"">
  <p>How would you describe your current emotional state?</p>
  </div>","66","html-slider-response","51","933461","0.0-7.0-3.7","160","1","2025-08-06 09:10:15","36c45c0696341be0efffe67d72a12abb","102.219.162.60","Mozilla/5.0 (Windows NT 10.0; Win64; x64) AppleWebKit/537.36 (KHTML, like Gecko) Chrome/138.0.0.0 Safari/537.36","WebKit","Chrome","138.0.0.0","Windows","10.0","https://app.prolific.com/","en-US,en;q=0.9,st;q=0.8","667ac09492ea0caadf488520","687a1a965b9f5b85a264363e","68931bc547fc65fbca391569","1","667ac09492ea0caadf488520","1","2025-08-06T09:25:52.159Z","","","","StressQ","","","","","","","","","","","50","","","","","","","","","","","","","","","","","","","","","","","","","","",""
"8119","","<div style=""width:500px;"">
  <p>What best describes how you currently feel?</p>
  </div>","74","html-slider-response","52","941583","0.0-7.0-4.7","160","1","2025-08-06 09:10:15","36c45c0696341be0efffe67d72a12abb","102.219.162.60","Mozilla/5.0 (Windows NT 10.0; Win64; x64) AppleWebKit/537.36 (KHTML, like Gecko) Chrome/138.0.0.0 Safari/537.36","WebKit","Chrome","138.0.0.0","Windows","10.0","https://app.prolific.com/","en-US,en;q=0.9,st;q=0.8","667ac09492ea0caadf488520","687a1a965b9f5b85a264363e","68931bc547fc65fbca391569","1","667ac09492ea0caadf488520","1","2025-08-06T09:26:00.282Z","","","","MotivationQ","","","","","","","","","","","50","","","","","","","","","","","","","","","","","","","","","","","","","","",""
"","","","","ctl-task-cpt","53","998772","0.0-7.0-0.8","160","1","2025-08-06 09:10:15","36c45c0696341be0efffe67d72a12abb","102.219.162.60","Mozilla/5.0 (Windows NT 10.0; Win64; x64) AppleWebKit/537.36 (KHTML, like Gecko) Chrome/138.0.0.0 Safari/537.36","WebKit","Chrome","138.0.0.0","Windows","10.0","https://app.prolific.com/","en-US,en;q=0.9,st;q=0.8","667ac09492ea0caadf488520","687a1a965b9f5b85a264363e","68931bc547fc65fbca391569","1","667ac09492ea0caadf488520","1","2025-08-06T09:26:57.470Z","","","","","","","","","","","","","","","","win-only","0","g1:NW,g2:SE","0.4","9","0","946020.9","2743.4","7752","54160.1","1","4","8","6","2","8","8","8","0","0.06060606060606061","1485.8","3000","235","[""down"",""right""]","{""num_key_presses"":12,""num_perfect"":6,""num_errors"":0,""num_randdir"":6,""num_randdir_good_moves"":3,""num_whilered"":0,""num_whileblue"":0,""num_blue"":3,""num_good_moves"":9}","[417.8214133126395,411.57142761775424,1.5,417.8214133126395,411.57142761775424,118.4,417.8214133126395,411.57142761775424,225.2,417.8214133126395,411.57142761775424,339.7,417.8214133126395,411.57142761775424,448,417.8214133126395,411.57142761775424,555.6,417.8214133126395,411.57142761775424,669,417.8214133126395,411.57142761775424,781.4,549.0714133126395,531.5714276177542,887,731.5714133126395,730.3214276177542,991.3,731.5714133126395,730.3214276177542,1099,731.5714133126395,730.3214276177542,1208.6,731.5714133126395,730.3214276177542,1313.5,731.5714133126395,730.3214276177542,1495.1,731.5714133126395,730.3214276177542,1604.2,731.5714133126395,730.3214276177542,1707.4,731.5714133126395,730.3214276177542,1807.4,731.5714133126395,730.3214276177542,1947.1,731.5714133126395,730.3214276177542,2051.9,731.5714133126395,730.3214276177542,2165.9,731.5714133126395,730.3214276177542,2280.6,731.5714133126395,730.3214276177542,2396.8,731.5714133126395,730.3214276177542,2502,731.5714133126395,730.3214276177542,2607.4,731.5714133126395,730.3214276177542,2711.3,731.5714133126395,730.3214276177542,2817.9,731.5714133126395,730.3214276177542,2936.9,731.5714133126395,730.3214276177542,3041.8,731.5714133126395,730.3214276177542,3142.4,731.5714133126395,730.3214276177542,3242.8,731.5714133126395,730.3214276177542,3349.8,731.5714133126395,730.3214276177542,3458.1,731.5714133126395,730.3214276177542,3566.9,731.5714133126395,730.3214276177542,3669.8,731.5714133126395,730.3214276177542,3770.6,731.5714133126395,730.3214276177542,3874.9,731.5714133126395,730.3214276177542,3977.8,731.5714133126395,730.3214276177542,4079.2,731.5714133126395,730.3214276177542,4185.7,731.5714133126395,730.3214276177542,4291.7,731.5714133126395,730.3214276177542,4397,731.5714133126395,730.3214276177542,4507.1,731.5714133126395,730.3214276177542,4616.7,731.5714133126395,730.3214276177542,4725.5,731.5714133126395,730.3214276177542,4837,731.5714133126395,730.3214276177542,4947.1]","[1610.3,1610.3,1000,0,610.3,""smooth"",""down"",""down"",""good_move"",4767.1,3155.1,2455.5,1612,699.6,""oops"",""down"",""left"",""bad_move"",8307.8,3533.9,3054.1,4773.9,479.8,""oops"",""down"",""up"",""bad_move"",11613.7,3303.7,2513.6,8310,790.1,""oops"",""right"",""right"",""good_move"",15005.8,3390.2,2457.5,11615.6,932.7,""oops"",""right"",""down"",""good_move"",17708.9,2700.9,1935.5,15008.1,765.4,""oops"",""right"",""right"",""good_move"",24841,7130.6,2638.7,21726.3,476,""smooth"",""right"",""right"",""good_move"",34198.9,9355.8,2339.5,31433.1,426.3,""smooth"",""right"",""right"",""good_move"",37719.4,3519.7,1628.1,34199.7,1891.6,""oops"",""right"",""up"",""bad_move"",40723.2,2997.4,2286.1,37725.8,711.3,""smooth"",""down"",""down"",""good_move"",44099,3374.8,2729.8,40724.4,645,""smooth"",""down"",""down"",""good_move"",46160.4,2059.6,1343,44100.9,716.5,""smooth"",""down"",""down"",""good_move""]"
"5638","","<div style=""width:500px;"">
  <p>What determined the result of this run?</p>
  </div>","84","html-slider-response","54","1004415","0.0-7.0-1.8","160","1","2025-08-06 09:10:15","36c45c0696341be0efffe67d72a12abb","102.219.162.60","Mozilla/5.0 (Windows NT 10.0; Win64; x64) AppleWebKit/537.36 (KHTML, like Gecko) Chrome/138.0.0.0 Safari/537.36","WebKit","Chrome","138.0.0.0","Windows","10.0","https://app.prolific.com/","en-US,en;q=0.9,st;q=0.8","667ac09492ea0caadf488520","687a1a965b9f5b85a264363e","68931bc547fc65fbca391569","1","667ac09492ea0caadf488520","1","2025-08-06T09:27:03.113Z","","","","AttribQ","","","","","","","","","","","50","","","","","","","","","","","","","","","","","","","","","","","","","","",""
"6714","","<div style=""width:500px;"">
  <p>How much control did you have over the ball?</p>
  </div>","84","html-slider-response","55","1011132","0.0-7.0-2.8","160","1","2025-08-06 09:10:15","36c45c0696341be0efffe67d72a12abb","102.219.162.60","Mozilla/5.0 (Windows NT 10.0; Win64; x64) AppleWebKit/537.36 (KHTML, like Gecko) Chrome/138.0.0.0 Safari/537.36","WebKit","Chrome","138.0.0.0","Windows","10.0","https://app.prolific.com/","en-US,en;q=0.9,st;q=0.8","667ac09492ea0caadf488520","687a1a965b9f5b85a264363e","68931bc547fc65fbca391569","1","667ac09492ea0caadf488520","1","2025-08-06T09:27:09.830Z","","","","ControlQ","","","","","","","","","","","50","","","","","","","","","","","","","","","","","","","","","","","","","","",""
"6282","","<div style=""width:500px;"">
  <p>How would you describe your current emotional state?</p>
  </div>","42","html-slider-response","56","1017417","0.0-7.0-3.8","160","1","2025-08-06 09:10:15","36c45c0696341be0efffe67d72a12abb","102.219.162.60","Mozilla/5.0 (Windows NT 10.0; Win64; x64) AppleWebKit/537.36 (KHTML, like Gecko) Chrome/138.0.0.0 Safari/537.36","WebKit","Chrome","138.0.0.0","Windows","10.0","https://app.prolific.com/","en-US,en;q=0.9,st;q=0.8","667ac09492ea0caadf488520","687a1a965b9f5b85a264363e","68931bc547fc65fbca391569","1","667ac09492ea0caadf488520","1","2025-08-06T09:27:16.115Z","","","","StressQ","","","","","","","","","","","50","","","","","","","","","","","","","","","","","","","","","","","","","","",""
"8494","","<div style=""width:500px;"">
  <p>What best describes how you currently feel?</p>
  </div>","39","html-slider-response","57","1025914","0.0-7.0-4.8","160","1","2025-08-06 09:10:15","36c45c0696341be0efffe67d72a12abb","102.219.162.60","Mozilla/5.0 (Windows NT 10.0; Win64; x64) AppleWebKit/537.36 (KHTML, like Gecko) Chrome/138.0.0.0 Safari/537.36","WebKit","Chrome","138.0.0.0","Windows","10.0","https://app.prolific.com/","en-US,en;q=0.9,st;q=0.8","667ac09492ea0caadf488520","687a1a965b9f5b85a264363e","68931bc547fc65fbca391569","1","667ac09492ea0caadf488520","1","2025-08-06T09:27:24.613Z","","","","MotivationQ","","","","","","","","","","","50","","","","","","","","","","","","","","","","","","","","","","","","","","",""
"","","","","ctl-task-cpt","58","1073337","0.0-7.0-0.9","160","1","2025-08-06 09:10:15","36c45c0696341be0efffe67d72a12abb","102.219.162.60","Mozilla/5.0 (Windows NT 10.0; Win64; x64) AppleWebKit/537.36 (KHTML, like Gecko) Chrome/138.0.0.0 Safari/537.36","WebKit","Chrome","138.0.0.0","Windows","10.0","https://app.prolific.com/","en-US,en;q=0.9,st;q=0.8","667ac09492ea0caadf488520","687a1a965b9f5b85a264363e","68931bc547fc65fbca391569","1","667ac09492ea0caadf488520","1","2025-08-06T09:28:12.035Z","","","","","","","","","","","","","","","","win-only","1","g1:NE,g2:SW","0.5","10","0","1030354.5","4664.3","9677.3","44370","1","4","4","6","2","4","4","12","8","0.09090909090909091","1871.7","3000","1815","[""down"",""left""]","{""num_key_presses"":8,""num_perfect"":3,""num_errors"":0,""num_randdir"":5,""num_randdir_good_moves"":4,""num_whilered"":0,""num_whileblue"":0,""num_blue"":2,""num_good_moves"":7}","[410.3214133126395,406.57142761775424,1.6,410.3214133126395,406.57142761775424,107.1,410.3214133126395,406.57142761775424,224.9,410.3214133126395,406.57142761775424,330.7,410.3214133126395,406.57142761775424,481.2,410.3214133126395,406.57142761775424,583.8,410.3214133126395,406.57142761775424,709.5,410.3214133126395,406.57142761775424,812.3,410.3214133126395,406.57142761775424,913.1,410.3214133126395,406.57142761775424,1024.1,346.5714133126395,459.07142761775424,1137.9,225.3214133126395,577.8214276177542,1242.6,155.3214133126395,642.8214276177542,1352.5,107.8214133126395,689.0714276177542,1464.5,81.5714133126395,716.5714276177542,1567.3,76.5714133126395,721.5714276177542,1671.2,76.5714133126395,721.5714276177542,1783.5,76.5714133126395,721.5714276177542,1891.4,76.5714133126395,721.5714276177542,1992.4,76.5714133126395,721.5714276177542,2101.6,76.5714133126395,721.5714276177542,2209.5,76.5714133126395,721.5714276177542,2317.3,76.5714133126395,721.5714276177542,2421.3,76.5714133126395,721.5714276177542,2531.5,76.5714133126395,721.5714276177542,2635,76.5714133126395,721.5714276177542,2742.5,76.5714133126395,721.5714276177542,2858.7,76.5714133126395,721.5714276177542,2958.9,76.5714133126395,721.5714276177542,3072.5,76.5714133126395,721.5714276177542,3182.4,76.5714133126395,721.5714276177542,3285.9,76.5714133126395,721.5714276177542,3387.4,76.5714133126395,721.5714276177542,3491.3,76.5714133126395,721.5714276177542,3602.1,76.5714133126395,721.5714276177542,3708.9,76.5714133126395,721.5714276177542,3820.2,76.5714133126395,721.5714276177542,3934.1,76.5714133126395,721.5714276177542,4041.9,76.5714133126395,721.5714276177542,4157.5,76.5714133126395,721.5714276177542,4259.1,76.5714133126395,721.5714276177542,4371.2,76.5714133126395,721.5714276177542,4471.8,76.5714133126395,721.5714276177542,4573.3,76.5714133126395,721.5714276177542,4685.8,76.5714133126395,721.5714276177542,4785.9,76.5714133126395,721.5714276177542,4892.5]","[1570.8,1570.8,1000,0,570.8,""oops"",""left"",""down"",""good_move"",4952.3,3379.5,2862.5,1572.8,517,""smooth"",""left"",""left"",""good_move"",8322.9,3369,2888.2,4953.9,480.8,""oops"",""left"",""down"",""good_move"",15358.5,7033.8,2666.4,12251.8,440.3,""smooth"",""left"",""left"",""good_move"",19228.2,3867.9,3142.4,15360.4,725.4,""oops"",""left"",""up"",""bad_move"",23461.5,4230.3,2080.7,19231.2,2149.6,""oops"",""down"",""left"",""good_move"",27848.3,4385.6,2804.5,23462.7,1581.1,""oops"",""down"",""down"",""good_move"",34426.3,6575.1,2744.4,31226.9,455,""smooth"",""down"",""down"",""good_move""]"
"5059","","<div style=""width:500px;"">
  <p>What determined the result of this run?</p>
  </div>","71","html-slider-response","59","1078398","0.0-7.0-1.9","160","1","2025-08-06 09:10:15","36c45c0696341be0efffe67d72a12abb","102.219.162.60","Mozilla/5.0 (Windows NT 10.0; Win64; x64) AppleWebKit/537.36 (KHTML, like Gecko) Chrome/138.0.0.0 Safari/537.36","WebKit","Chrome","138.0.0.0","Windows","10.0","https://app.prolific.com/","en-US,en;q=0.9,st;q=0.8","667ac09492ea0caadf488520","687a1a965b9f5b85a264363e","68931bc547fc65fbca391569","1","667ac09492ea0caadf488520","1","2025-08-06T09:28:17.096Z","","","","AttribQ","","","","","","","","","","","50","","","","","","","","","","","","","","","","","","","","","","","","","","",""
"5043","","<div style=""width:500px;"">
  <p>How much control did you have over the ball?</p>
  </div>","74","html-slider-response","60","1083443","0.0-7.0-2.9","160","1","2025-08-06 09:10:15","36c45c0696341be0efffe67d72a12abb","102.219.162.60","Mozilla/5.0 (Windows NT 10.0; Win64; x64) AppleWebKit/537.36 (KHTML, like Gecko) Chrome/138.0.0.0 Safari/537.36","WebKit","Chrome","138.0.0.0","Windows","10.0","https://app.prolific.com/","en-US,en;q=0.9,st;q=0.8","667ac09492ea0caadf488520","687a1a965b9f5b85a264363e","68931bc547fc65fbca391569","1","667ac09492ea0caadf488520","1","2025-08-06T09:28:22.141Z","","","","ControlQ","","","","","","","","","","","50","","","","","","","","","","","","","","","","","","","","","","","","","","",""
"6293","","<div style=""width:500px;"">
  <p>How would you describe your current emotional state?</p>
  </div>","28","html-slider-response","61","1089741","0.0-7.0-3.9","160","1","2025-08-06 09:10:15","36c45c0696341be0efffe67d72a12abb","102.219.162.60","Mozilla/5.0 (Windows NT 10.0; Win64; x64) AppleWebKit/537.36 (KHTML, like Gecko) Chrome/138.0.0.0 Safari/537.36","WebKit","Chrome","138.0.0.0","Windows","10.0","https://app.prolific.com/","en-US,en;q=0.9,st;q=0.8","667ac09492ea0caadf488520","687a1a965b9f5b85a264363e","68931bc547fc65fbca391569","1","667ac09492ea0caadf488520","1","2025-08-06T09:28:28.440Z","","","","StressQ","","","","","","","","","","","50","","","","","","","","","","","","","","","","","","","","","","","","","","",""
"11616","","<div style=""width:500px;"">
  <p>What best describes how you currently feel?</p>
  </div>","69","html-slider-response","62","1101368","0.0-7.0-4.9","160","1","2025-08-06 09:10:15","36c45c0696341be0efffe67d72a12abb","102.219.162.60","Mozilla/5.0 (Windows NT 10.0; Win64; x64) AppleWebKit/537.36 (KHTML, like Gecko) Chrome/138.0.0.0 Safari/537.36","WebKit","Chrome","138.0.0.0","Windows","10.0","https://app.prolific.com/","en-US,en;q=0.9,st;q=0.8","667ac09492ea0caadf488520","687a1a965b9f5b85a264363e","68931bc547fc65fbca391569","1","667ac09492ea0caadf488520","1","2025-08-06T09:28:40.066Z","","","","MotivationQ","","","","","","","","","","","50","","","","","","","","","","","","","","","","","","","","","","","","","","",""
"","","","","ctl-task-cpt","63","1143694","0.0-7.0-0.10","160","1","2025-08-06 09:10:15","36c45c0696341be0efffe67d72a12abb","102.219.162.60","Mozilla/5.0 (Windows NT 10.0; Win64; x64) AppleWebKit/537.36 (KHTML, like Gecko) Chrome/138.0.0.0 Safari/537.36","WebKit","Chrome","138.0.0.0","Windows","10.0","https://app.prolific.com/","en-US,en;q=0.9,st;q=0.8","667ac09492ea0caadf488520","687a1a965b9f5b85a264363e","68931bc547fc65fbca391569","1","667ac09492ea0caadf488520","1","2025-08-06T09:29:22.392Z","","","","","","","","","","","","","","","","win-only","3","g1:SW,g2:NE","0.6","11","0","1105805.6","2537","7541.4","39284.7","1","4","8","6","2","8","8","20","12","0.15151515151515152","2150.9","3000","1225","[""up"",""right""]","{""num_key_presses"":8,""num_perfect"":4,""num_errors"":0,""num_randdir"":4,""num_randdir_good_moves"":3,""num_whilered"":0,""num_whileblue"":0,""num_blue"":1,""num_good_moves"":7}","[411.5714133126395,416.57142761775424,2,411.5714133126395,416.57142761775424,116.9,411.5714133126395,416.57142761775424,220.1,411.5714133126395,416.57142761775424,331.3,411.5714133126395,416.57142761775424,438.7,411.5714133126395,416.57142761775424,549.8,411.5714133126395,416.57142761775424,655.8,411.5714133126395,416.57142761775424,763.3,411.5714133126395,416.57142761775424,877.5,411.5714133126395,416.57142761775424,978.6,796.5714133126395,19.071427617754253,1113,835.3214133126395,-8.428572382245747,1225,835.3214133126395,-8.428572382245747,1332.3,835.3214133126395,-8.428572382245747,1432.3,760.3214133126395,61.57142761775425,1543.9,760.3214133126395,61.57142761775425,1644.5,751.5714133126395,77.82142761775425,1747.7,751.5714133126395,81.57142761775425,1861.1,751.5714133126395,81.57142761775425,2179.5,751.5714133126395,81.57142761775425,2283.2,751.5714133126395,81.57142761775425,2398.8,751.5714133126395,81.57142761775425,2502.4,751.5714133126395,81.57142761775425,2612.1,751.5714133126395,81.57142761775425,2726.9,751.5714133126395,81.57142761775425,2844,751.5714133126395,81.57142761775425,2954.2,751.5714133126395,81.57142761775425,3070.4,751.5714133126395,81.57142761775425,3180,751.5714133126395,81.57142761775425,3292.7,751.5714133126395,81.57142761775425,3411.9,751.5714133126395,81.57142761775425,3512.1,751.5714133126395,81.57142761775425,3614.6,751.5714133126395,81.57142761775425,3715.3,751.5714133126395,81.57142761775425,3815.7,751.5714133126395,81.57142761775425,3917,751.5714133126395,81.57142761775425,4019,751.5714133126395,81.57142761775425,4126.5,751.5714133126395,81.57142761775425,4232.4,751.5714133126395,81.57142761775425,4344.9,751.5714133126395,81.57142761775425,4446.7,751.5714133126395,81.57142761775425,4549.4,751.5714133126395,81.57142761775425,4652.2,751.5714133126395,81.57142761775425,4762.7,751.5714133126395,81.57142761775425,4865.4,751.5714133126395,81.57142761775425,4983.2]","[2388.7,2388.7,1000,0,1388.7,""oops"",""up"",""down"",""bad_move"",6041,3649.9,3073.9,2391.1,576,""oops"",""up"",""right"",""good_move"",9957.3,3914.9,3401.4,6042.4,513.5,""smooth"",""up"",""up"",""good_move"",14933.4,4969.9,2323.2,9963.6,2646.6,""smooth"",""up"",""up"",""good_move"",18529.8,3594.2,2825.5,14935.6,768.7,""oops"",""right"",""right"",""good_move"",21902.8,3370.2,2191.9,18532.6,1178.3,""oops"",""up"",""up"",""good_move"",28743.5,6834.6,1929.3,26353.4,460.8,""smooth"",""right"",""right"",""good_move"",31460.4,2715.7,1621.1,28744.8,1094.5,""smooth"",""up"",""up"",""good_move""]"
"6078","","<div style=""width:500px;"">
  <p>What determined the result of this run?</p>
  </div>","82","html-slider-response","64","1149775","0.0-7.0-1.10","160","1","2025-08-06 09:10:15","36c45c0696341be0efffe67d72a12abb","102.219.162.60","Mozilla/5.0 (Windows NT 10.0; Win64; x64) AppleWebKit/537.36 (KHTML, like Gecko) Chrome/138.0.0.0 Safari/537.36","WebKit","Chrome","138.0.0.0","Windows","10.0","https://app.prolific.com/","en-US,en;q=0.9,st;q=0.8","667ac09492ea0caadf488520","687a1a965b9f5b85a264363e","68931bc547fc65fbca391569","1","667ac09492ea0caadf488520","1","2025-08-06T09:29:28.473Z","","","","AttribQ","","","","","","","","","","","50","","","","","","","","","","","","","","","","","","","","","","","","","","",""
"12915","","<div style=""width:500px;"">
  <p>How much control did you have over the ball?</p>
  </div>","78","html-slider-response","65","1162697","0.0-7.0-2.10","160","1","2025-08-06 09:10:15","36c45c0696341be0efffe67d72a12abb","102.219.162.60","Mozilla/5.0 (Windows NT 10.0; Win64; x64) AppleWebKit/537.36 (KHTML, like Gecko) Chrome/138.0.0.0 Safari/537.36","WebKit","Chrome","138.0.0.0","Windows","10.0","https://app.prolific.com/","en-US,en;q=0.9,st;q=0.8","667ac09492ea0caadf488520","687a1a965b9f5b85a264363e","68931bc547fc65fbca391569","1","667ac09492ea0caadf488520","1","2025-08-06T09:29:41.399Z","","","","ControlQ","","","","","","","","","","","50","","","","","","","","","","","","","","","","","","","","","","","","","","",""
"8514","","<div style=""width:500px;"">
  <p>How would you describe your current emotional state?</p>
  </div>","29","html-slider-response","66","1171254","0.0-7.0-3.10","160","1","2025-08-06 09:10:15","36c45c0696341be0efffe67d72a12abb","102.219.162.60","Mozilla/5.0 (Windows NT 10.0; Win64; x64) AppleWebKit/537.36 (KHTML, like Gecko) Chrome/138.0.0.0 Safari/537.36","WebKit","Chrome","138.0.0.0","Windows","10.0","https://app.prolific.com/","en-US,en;q=0.9,st;q=0.8","667ac09492ea0caadf488520","687a1a965b9f5b85a264363e","68931bc547fc65fbca391569","1","667ac09492ea0caadf488520","1","2025-08-06T09:29:49.953Z","","","","StressQ","","","","","","","","","","","50","","","","","","","","","","","","","","","","","","","","","","","","","","",""
"6395","","<div style=""width:500px;"">
  <p>What best describes how you currently feel?</p>
  </div>","74","html-slider-response","67","1177664","0.0-7.0-4.10","160","1","2025-08-06 09:10:15","36c45c0696341be0efffe67d72a12abb","102.219.162.60","Mozilla/5.0 (Windows NT 10.0; Win64; x64) AppleWebKit/537.36 (KHTML, like Gecko) Chrome/138.0.0.0 Safari/537.36","WebKit","Chrome","138.0.0.0","Windows","10.0","https://app.prolific.com/","en-US,en;q=0.9,st;q=0.8","667ac09492ea0caadf488520","687a1a965b9f5b85a264363e","68931bc547fc65fbca391569","1","667ac09492ea0caadf488520","1","2025-08-06T09:29:56.362Z","","","","MotivationQ","","","","","","","","","","","50","","","","","","","","","","","","","","","","","","","","","","","","","","",""
"","","","","ctl-task-cpt","68","1222146","0.0-7.0-0.11","160","1","2025-08-06 09:10:15","36c45c0696341be0efffe67d72a12abb","102.219.162.60","Mozilla/5.0 (Windows NT 10.0; Win64; x64) AppleWebKit/537.36 (KHTML, like Gecko) Chrome/138.0.0.0 Safari/537.36","WebKit","Chrome","138.0.0.0","Windows","10.0","https://app.prolific.com/","en-US,en;q=0.9,st;q=0.8","667ac09492ea0caadf488520","687a1a965b9f5b85a264363e","68931bc547fc65fbca391569","1","667ac09492ea0caadf488520","1","2025-08-06T09:30:40.844Z","","","","","","","","","","","","","","","","win-only","0","g1:NW,g2:SE","0.7","12","0","1182102.8","1803.5","6823.1","41442.2","1","4","4","6","2","4","4","24","20","0.18181818181818182","1989.5","3000","1550","[""down"",""right""]","{""num_key_presses"":10,""num_perfect"":7,""num_errors"":0,""num_randdir"":3,""num_randdir_good_moves"":1,""num_whilered"":0,""num_whileblue"":0,""num_blue"":1,""num_good_moves"":8}","[415.3214133126395,411.57142761775424,12.3,415.3214133126395,411.57142761775424,111.9,415.3214133126395,411.57142761775424,225.2,415.3214133126395,411.57142761775424,332.4,415.3214133126395,411.57142761775424,451.8,415.3214133126395,411.57142761775424,554.6,415.3214133126395,411.57142761775424,667.5,596.5714133126395,567.8214276177542,791.5,665.3214133126395,651.5714276177542,894.9,665.3214133126395,651.5714276177542,1019,665.3214133126395,651.5714276177542,1126.9,665.3214133126395,651.5714276177542,1235.2,710.3214133126395,710.3214276177542,1343.5,721.5714133126395,721.5714276177542,1455.5,742.8214133126395,739.0714276177542,1569.6,745.3214133126395,741.5714276177542,1673,745.3214133126395,741.5714276177542,1775.8,745.3214133126395,741.5714276177542,1879.2,745.3214133126395,741.5714276177542,2003.6,745.3214133126395,741.5714276177542,2118.6,745.3214133126395,741.5714276177542,2226.3,745.3214133126395,741.5714276177542,2341.4,745.3214133126395,741.5714276177542,2456.5,745.3214133126395,741.5714276177542,2561.2,745.3214133126395,741.5714276177542,2661.2,745.3214133126395,741.5714276177542,2771.9,745.3214133126395,741.5714276177542,2885.9,745.3214133126395,741.5714276177542,2995.9,745.3214133126395,741.5714276177542,3117.1,745.3214133126395,741.5714276177542,3218.3,745.3214133126395,741.5714276177542,3329.1,745.3214133126395,741.5714276177542,3441.8,745.3214133126395,741.5714276177542,3552.8,745.3214133126395,741.5714276177542,3657.9,745.3214133126395,741.5714276177542,3762.1,745.3214133126395,741.5714276177542,3869.7,745.3214133126395,741.5714276177542,3972.5,745.3214133126395,741.5714276177542,4079.7,745.3214133126395,741.5714276177542,4180.3,745.3214133126395,741.5714276177542,4301.7,745.3214133126395,741.5714276177542,4402.6,745.3214133126395,741.5714276177542,4506.7,745.3214133126395,741.5714276177542,4607.3,745.3214133126395,741.5714276177542,4708.2,745.3214133126395,741.5714276177542,4808.4,745.3214133126395,741.5714276177542,4927.4]","[2025.6,2025.6,1000,0,1025.6,""smooth"",""down"",""down"",""good_move"",4901.9,2871.1,2293,2031,577.9,""oops"",""down"",""left"",""bad_move"",12680,7776.1,2037.7,10122.5,519.8,""smooth"",""down"",""down"",""good_move"",15238.3,2557.2,2053.5,12681.2,503.7,""smooth"",""down"",""down"",""good_move"",18548.1,3306.7,2841,15241.4,465.7,""smooth"",""right"",""right"",""good_move"",21789.8,3240.3,2738,18549.5,502.3,""smooth"",""right"",""right"",""good_move"",24137.9,2346.5,1766.8,21791.4,579.7,""oops"",""right"",""up"",""bad_move"",27908.5,3768.7,2309.4,24139.8,1459.3,""smooth"",""right"",""right"",""good_move"",31190.9,3279.4,2383.5,27911.5,895.9,""oops"",""right"",""down"",""good_move"",34273.8,3081.9,2595,31191.9,486.9,""smooth"",""right"",""right"",""good_move""]"
"5157","","<div style=""width:500px;"">
  <p>What determined the result of this run?</p>
  </div>","66","html-slider-response","69","1227305","0.0-7.0-1.11","160","1","2025-08-06 09:10:15","36c45c0696341be0efffe67d72a12abb","102.219.162.60","Mozilla/5.0 (Windows NT 10.0; Win64; x64) AppleWebKit/537.36 (KHTML, like Gecko) Chrome/138.0.0.0 Safari/537.36","WebKit","Chrome","138.0.0.0","Windows","10.0","https://app.prolific.com/","en-US,en;q=0.9,st;q=0.8","667ac09492ea0caadf488520","687a1a965b9f5b85a264363e","68931bc547fc65fbca391569","1","667ac09492ea0caadf488520","1","2025-08-06T09:30:46.003Z","","","","AttribQ","","","","","","","","","","","50","","","","","","","","","","","","","","","","","","","","","","","","","","",""
"9491","","<div style=""width:500px;"">
  <p>How much control did you have over the ball?</p>
  </div>","78","html-slider-response","70","1236799","0.0-7.0-2.11","160","1","2025-08-06 09:10:15","36c45c0696341be0efffe67d72a12abb","102.219.162.60","Mozilla/5.0 (Windows NT 10.0; Win64; x64) AppleWebKit/537.36 (KHTML, like Gecko) Chrome/138.0.0.0 Safari/537.36","WebKit","Chrome","138.0.0.0","Windows","10.0","https://app.prolific.com/","en-US,en;q=0.9,st;q=0.8","667ac09492ea0caadf488520","687a1a965b9f5b85a264363e","68931bc547fc65fbca391569","1","667ac09492ea0caadf488520","1","2025-08-06T09:30:55.497Z","","","","ControlQ","","","","","","","","","","","50","","","","","","","","","","","","","","","","","","","","","","","","","","",""
"7620","","<div style=""width:500px;"">
  <p>How would you describe your current emotional state?</p>
  </div>","38","html-slider-response","71","1244425","0.0-7.0-3.11","160","1","2025-08-06 09:10:15","36c45c0696341be0efffe67d72a12abb","102.219.162.60","Mozilla/5.0 (Windows NT 10.0; Win64; x64) AppleWebKit/537.36 (KHTML, like Gecko) Chrome/138.0.0.0 Safari/537.36","WebKit","Chrome","138.0.0.0","Windows","10.0","https://app.prolific.com/","en-US,en;q=0.9,st;q=0.8","667ac09492ea0caadf488520","687a1a965b9f5b85a264363e","68931bc547fc65fbca391569","1","667ac09492ea0caadf488520","1","2025-08-06T09:31:03.124Z","","","","StressQ","","","","","","","","","","","50","","","","","","","","","","","","","","","","","","","","","","","","","","",""
"4626","","<div style=""width:500px;"">
  <p>What best describes how you currently feel?</p>
  </div>","90","html-slider-response","72","1249059","0.0-7.0-4.11","160","1","2025-08-06 09:10:15","36c45c0696341be0efffe67d72a12abb","102.219.162.60","Mozilla/5.0 (Windows NT 10.0; Win64; x64) AppleWebKit/537.36 (KHTML, like Gecko) Chrome/138.0.0.0 Safari/537.36","WebKit","Chrome","138.0.0.0","Windows","10.0","https://app.prolific.com/","en-US,en;q=0.9,st;q=0.8","667ac09492ea0caadf488520","687a1a965b9f5b85a264363e","68931bc547fc65fbca391569","1","667ac09492ea0caadf488520","1","2025-08-06T09:31:07.757Z","","","","MotivationQ","","","","","","","","","","","50","","","","","","","","","","","","","","","","","","","","","","","","","","",""
"","","","","ctl-task-cpt","73","1301041","0.0-7.0-0.12","160","1","2025-08-06 09:10:15","36c45c0696341be0efffe67d72a12abb","102.219.162.60","Mozilla/5.0 (Windows NT 10.0; Win64; x64) AppleWebKit/537.36 (KHTML, like Gecko) Chrome/138.0.0.0 Safari/537.36","WebKit","Chrome","138.0.0.0","Windows","10.0","https://app.prolific.com/","en-US,en;q=0.9,st;q=0.8","667ac09492ea0caadf488520","687a1a965b9f5b85a264363e","68931bc547fc65fbca391569","1","667ac09492ea0caadf488520","1","2025-08-06T09:31:59.740Z","","","","","","","","","","","","","","","","win-only","3","g1:SW,g2:NE","0.8","13","0","1253488.4","2216.4","7231.8","48936.8","1","4","8","6","2","8","8","32","24","0.24242424242424243","2029.1","3000","1330","[""up"",""right""]","{""num_key_presses"":10,""num_perfect"":8,""num_errors"":0,""num_randdir"":2,""num_randdir_good_moves"":0,""num_whilered"":0,""num_whileblue"":0,""num_blue"":2,""num_good_moves"":8}","[421.5714133126395,411.57142761775424,1.6,421.5714133126395,411.57142761775424,101.2,421.5714133126395,411.57142761775424,201.9,421.5714133126395,411.57142761775424,312,421.5714133126395,411.57142761775424,429.2,421.5714133126395,411.57142761775424,532.8,421.5714133126395,411.57142761775424,644.8,421.5714133126395,411.57142761775424,762.8,421.5714133126395,411.57142761775424,872.3,421.5714133126395,411.57142761775424,975.9,421.5714133126395,411.57142761775424,1084.1,621.5714133126395,265.32142761775424,1206.2,711.5714133126395,196.57142761775424,1318.5,711.5714133126395,196.57142761775424,1430.6,711.5714133126395,196.57142761775424,1532.9,750.3214133126395,142.82142761775424,1656.5,761.5714133126395,127.82142761775425,1760.9,766.5714133126395,125.32142761775425,1872,766.5714133126395,125.32142761775425,1985.2,766.5714133126395,125.32142761775425,2096.3,766.5714133126395,125.32142761775425,2205.5,766.5714133126395,125.32142761775425,2316.6,766.5714133126395,125.32142761775425,2417.5,766.5714133126395,125.32142761775425,2518.9,766.5714133126395,125.32142761775425,2707.6,766.5714133126395,125.32142761775425,2824.7,766.5714133126395,125.32142761775425,2928,766.5714133126395,125.32142761775425,3034.8,766.5714133126395,125.32142761775425,3142.9,766.5714133126395,125.32142761775425,3243.6,766.5714133126395,125.32142761775425,3351.6,766.5714133126395,125.32142761775425,3460.9,766.5714133126395,125.32142761775425,3575.3,766.5714133126395,125.32142761775425,3683.3,766.5714133126395,125.32142761775425,3797.9,766.5714133126395,125.32142761775425,3916,766.5714133126395,125.32142761775425,4026.5,766.5714133126395,125.32142761775425,4135.4,766.5714133126395,125.32142761775425,4246.6,766.5714133126395,125.32142761775425,4351.8,766.5714133126395,125.32142761775425,4467.3,766.5714133126395,125.32142761775425,4577.5,766.5714133126395,125.32142761775425,4689.5,766.5714133126395,125.32142761775425,4790.8,766.5714133126395,125.32142761775425,4892.1]","[1686.6,1686.7,1000,0,686.7,""smooth"",""right"",""right"",""good_move"",7644,5951.8,2160.6,5025.9,457.5,""smooth"",""up"",""up"",""good_move"",11822.8,4177.2,2590.3,7645.6,1586.9,""smooth"",""right"",""right"",""good_move"",15327.6,3502.6,2970.1,11825.1,532.4,""oops"",""right"",""down"",""bad_move"",18081.7,2752.4,1880.9,15329.3,871.5,""smooth"",""up"",""up"",""good_move"",21661.3,3577.5,2115.8,18083.8,1461.7,""smooth"",""up"",""up"",""good_move"",25629.8,3967.5,1619.5,21662.3,2348,""smooth"",""up"",""up"",""good_move"",33811.4,8180.1,2933.5,30451.2,426.7,""oops"",""right"",""left"",""bad_move"",38061.7,4248.8,3090.7,33813,1158,""smooth"",""right"",""right"",""good_move"",41318.5,3255.1,2765.9,38063.4,489.2,""smooth"",""up"",""right"",""good_move""]"
"4850","","<div style=""width:500px;"">
  <p>What determined the result of this run?</p>
  </div>","99","html-slider-response","74","1305895","0.0-7.0-1.12","160","1","2025-08-06 09:10:15","36c45c0696341be0efffe67d72a12abb","102.219.162.60","Mozilla/5.0 (Windows NT 10.0; Win64; x64) AppleWebKit/537.36 (KHTML, like Gecko) Chrome/138.0.0.0 Safari/537.36","WebKit","Chrome","138.0.0.0","Windows","10.0","https://app.prolific.com/","en-US,en;q=0.9,st;q=0.8","667ac09492ea0caadf488520","687a1a965b9f5b85a264363e","68931bc547fc65fbca391569","1","667ac09492ea0caadf488520","1","2025-08-06T09:32:04.593Z","","","","AttribQ","","","","","","","","","","","50","","","","","","","","","","","","","","","","","","","","","","","","","","",""
"4242","","<div style=""width:500px;"">
  <p>How much control did you have over the ball?</p>
  </div>","92","html-slider-response","75","1310143","0.0-7.0-2.12","160","1","2025-08-06 09:10:15","36c45c0696341be0efffe67d72a12abb","102.219.162.60","Mozilla/5.0 (Windows NT 10.0; Win64; x64) AppleWebKit/537.36 (KHTML, like Gecko) Chrome/138.0.0.0 Safari/537.36","WebKit","Chrome","138.0.0.0","Windows","10.0","https://app.prolific.com/","en-US,en;q=0.9,st;q=0.8","667ac09492ea0caadf488520","687a1a965b9f5b85a264363e","68931bc547fc65fbca391569","1","667ac09492ea0caadf488520","1","2025-08-06T09:32:08.841Z","","","","ControlQ","","","","","","","","","","","50","","","","","","","","","","","","","","","","","","","","","","","","","","",""
"4872","","<div style=""width:500px;"">
  <p>How would you describe your current emotional state?</p>
  </div>","17","html-slider-response","76","1315019","0.0-7.0-3.12","160","1","2025-08-06 09:10:15","36c45c0696341be0efffe67d72a12abb","102.219.162.60","Mozilla/5.0 (Windows NT 10.0; Win64; x64) AppleWebKit/537.36 (KHTML, like Gecko) Chrome/138.0.0.0 Safari/537.36","WebKit","Chrome","138.0.0.0","Windows","10.0","https://app.prolific.com/","en-US,en;q=0.9,st;q=0.8","667ac09492ea0caadf488520","687a1a965b9f5b85a264363e","68931bc547fc65fbca391569","1","667ac09492ea0caadf488520","1","2025-08-06T09:32:13.717Z","","","","StressQ","","","","","","","","","","","50","","","","","","","","","","","","","","","","","","","","","","","","","","",""
"5057","","<div style=""width:500px;"">
  <p>What best describes how you currently feel?</p>
  </div>","90","html-slider-response","77","1320079","0.0-7.0-4.12","160","1","2025-08-06 09:10:15","36c45c0696341be0efffe67d72a12abb","102.219.162.60","Mozilla/5.0 (Windows NT 10.0; Win64; x64) AppleWebKit/537.36 (KHTML, like Gecko) Chrome/138.0.0.0 Safari/537.36","WebKit","Chrome","138.0.0.0","Windows","10.0","https://app.prolific.com/","en-US,en;q=0.9,st;q=0.8","667ac09492ea0caadf488520","687a1a965b9f5b85a264363e","68931bc547fc65fbca391569","1","667ac09492ea0caadf488520","1","2025-08-06T09:32:18.778Z","","","","MotivationQ","","","","","","","","","","","50","","","","","","","","","","","","","","","","","","","","","","","","","","",""
