"rt","response_timestamp","stimulus","response","trial_type","trial_index","time_elapsed","internal_node_id","run_id","condition","recorded_at","source_code_version","ip","user_agent","device","browser","browser_version","platform","platform_version","referer","accept_language","PROLIFIC_PID","STUDY_ID","SESSION_ID","BATCH","prolific_id","batch","realtime","success","question_order","question_id","eventType","responses","item_order","radio_event_ids","radio_event_times","key_event_times","mouse_event_times","straightlining","zigzagging","honeypot","view_history","slider_start","which_type","canvas_config","goals_layout","control_level","trial_number","tutorial_trial_number","trial_start_time","phase1_start_time","phase2_start_time","phase3_start_time","goal_1_value","goal_1_distance","goal_2_value","goal_2_distance","goal_selected","outcome","outcome_total","participant_final_score","participant_initial_score","participant_final_score_prop","goal_choice_rt","allocated_time","allocated_time_remaining","goal_direction","counts","mouse_movements","key_presses"
"5176","1754213060682","<p style='font-size:40px;line-height:1.25'><strong>Welcome to the experiment!</strong></p><p style='font-size:1.1em;line-height:1.25'>Thank you for participanting in our experiment again! You will be asked to play the Dysfunctional Ball Game again. We will briefly recap the rules before we start.</p><p style='font-size:1.1em;line-height:1.25'>Press <strong>Next</strong> to continue.</p>","0","custom-html-button-response","0","5185","0.0-0.0","118","1","2025-08-03 09:24:13","36c45c0696341be0efffe67d72a12abb","37.47.203.238","Mozilla/5.0 (Windows NT 6.2; Win64; x64; rv:138.0) Gecko/20010101 Firefox/138.0","","Firefox","138.0","Windows","6.2","null","pl","667ea46bc52ef1879aec2fbb","687a19d2168e237449fb8af4","6889d9d30a137dc47c009a59","0","667ea46bc52ef1879aec2fbb","0","2025-08-03T09:24:20.682Z","","","","","","","","","","","","","","","","","","","","","","","","","","","","","","","","","","","","","","","","","",""
"1928","","","","fullscreen","1","8115","0.0-1.0","118","1","2025-08-03 09:24:13","36c45c0696341be0efffe67d72a12abb","37.47.203.238","Mozilla/5.0 (Windows NT 6.2; Win64; x64; rv:138.0) Gecko/20010101 Firefox/138.0","","Firefox","138.0","Windows","6.2","null","pl","667ea46bc52ef1879aec2fbb","687a19d2168e237449fb8af4","6889d9d30a137dc47c009a59","0","667ea46bc52ef1879aec2fbb","0","","true","","","","","","","","","","","","","","","","","","","","","","","","","","","","","","","","","","","","","","","","",""
"2961","1754213066573"," <p style='font-size:1.1em;line-height:1.25'>Thank you for closing all other tabs.</p><p style='font-size:1.1em;line-height:1.25'>We will now invite you to fill in some questionnaires, before starting the game.<br>This will take about 5 minutes.<br></p><p style='font-size:1.1em;line-height:1.25'>Press the <strong>Next</strong> button to continue.</p>","0","custom-html-button-response","2","11077","0.0-2.0","118","1","2025-08-03 09:24:13","36c45c0696341be0efffe67d72a12abb","37.47.203.238","Mozilla/5.0 (Windows NT 6.2; Win64; x64; rv:138.0) Gecko/20010101 Firefox/138.0","","Firefox","138.0","Windows","6.2","null","pl","667ea46bc52ef1879aec2fbb","687a19d2168e237449fb8af4","6889d9d30a137dc47c009a59","0","667ea46bc52ef1879aec2fbb","0","2025-08-03T09:24:26.574Z","","","","","","","","","","","","","","","","","","","","","","","","","","","","","","","","","","","","","","","","","",""
"2340","","","{""assigned_sex"":""male""}","survey-multi-choice","3","13418","0.0-3.0-0.0","118","1","2025-08-03 09:24:13","36c45c0696341be0efffe67d72a12abb","37.47.203.238","Mozilla/5.0 (Windows NT 6.2; Win64; x64; rv:138.0) Gecko/20010101 Firefox/138.0","","Firefox","138.0","Windows","6.2","null","pl","667ea46bc52ef1879aec2fbb","687a19d2168e237449fb8af4","6889d9d30a137dc47c009a59","0","667ea46bc52ef1879aec2fbb","0","","","[0]","0","demographics","","","","","","","","","","","","","","","","","","","","","","","","","","","","","","","","","","","","","",""
"4315","1754213073232","<p style='font-size:1.1em;line-height:1.25'>In the following, we will perform a baseline assessment. This means that we will ask you a few questions relating to your experiences over the past month.<br></p><p style='font-size:1.1em;line-height:1.25'>Press the <strong>Next</strong> button to continue.</p>","0","custom-html-button-response","4","17735","0.0-4.0-0.0","118","1","2025-08-03 09:24:13","36c45c0696341be0efffe67d72a12abb","37.47.203.238","Mozilla/5.0 (Windows NT 6.2; Win64; x64; rv:138.0) Gecko/20010101 Firefox/138.0","","Firefox","138.0","Windows","6.2","null","pl","667ea46bc52ef1879aec2fbb","687a19d2168e237449fb8af4","6889d9d30a137dc47c009a59","0","667ea46bc52ef1879aec2fbb","0","2025-08-03T09:24:33.232Z","","","","","","","","","","","","","","","","","","","","","","","","","","","","","","","","","","","","","","","","","",""
"46111","","","","survey-template","5","63848","0.0-4.0-1.0","118","1","2025-08-03 09:24:13","36c45c0696341be0efffe67d72a12abb","37.47.203.238","Mozilla/5.0 (Windows NT 6.2; Win64; x64; rv:138.0) Gecko/20010101 Firefox/138.0","","Firefox","138.0","Windows","6.2","null","pl","667ea46bc52ef1879aec2fbb","687a19d2168e237449fb8af4","6889d9d30a137dc47c009a59","0","667ea46bc52ef1879aec2fbb","0","2025-08-03T09:25:19.345Z","","","","pss","{""Q01"":""1"",""Q02"":""1"",""Q03"":""1"",""Q04"":""1"",""Q05"":""1"",""Q06"":""1"",""Q07"":""1"",""Q08"":""1"",""Q09"":""2"",""Q10"":""1""}","[0,1,2,3,4,5,6,7,8,9]","[""Q01"",""Q01"",""Q02"",""Q02"",""Q03"",""Q04"",""Q04"",""Q05"",""Q05"",""Q05"",""Q06"",""Q06"",""Q07"",""Q08"",""Q09"",""Q09"",""Q09"",""Q10""]","[3584,5715,7877,8276,10732,13840,15499,17586,17987,20356,22887,23773,27547,31934,39432,40576,41056,44775]","[]","[0,3584,4324,5715,7877,8276,10732,13840,15499,17586,17987,20356,22593,22887,23384,23773,27547,31934,39432,40576,41056,44215,44775,45641,46111]","0.5","0.2222222222222222","0","","","","","","","","","","","","","","","","","","","","","","","","","","","","",""
"2814","1754213122160","<p style='font-size:1.1em;line-height:1.25'>Thank you for your answers! Now we will ask you a few more questions relating to your feelings in the last 24 hours.<br></p><p style='font-size:1.1em;line-height:1.25'>Press the <strong>Next</strong> button to continue.</p>","0","custom-html-button-response","6","66663","0.0-4.0-2.0","118","1","2025-08-03 09:24:13","36c45c0696341be0efffe67d72a12abb","37.47.203.238","Mozilla/5.0 (Windows NT 6.2; Win64; x64; rv:138.0) Gecko/20010101 Firefox/138.0","","Firefox","138.0","Windows","6.2","null","pl","667ea46bc52ef1879aec2fbb","687a19d2168e237449fb8af4","6889d9d30a137dc47c009a59","0","667ea46bc52ef1879aec2fbb","0","2025-08-03T09:25:22.160Z","","","","","","","","","","","","","","","","","","","","","","","","","","","","","","","","","","","","","","","","","",""
"47321","","","","survey-template","7","113987","0.0-4.0-3.0","118","1","2025-08-03 09:24:13","36c45c0696341be0efffe67d72a12abb","37.47.203.238","Mozilla/5.0 (Windows NT 6.2; Win64; x64; rv:138.0) Gecko/20010101 Firefox/138.0","","Firefox","138.0","Windows","6.2","null","pl","667ea46bc52ef1879aec2fbb","687a19d2168e237449fb8af4","6889d9d30a137dc47c009a59","0","667ea46bc52ef1879aec2fbb","0","2025-08-03T09:26:09.484Z","","","","drsp","{""Q01"":""0"",""Q02"":""0"",""Q03"":""0"",""Q04"":""0"",""Q05"":""0"",""Q06"":""0"",""Q07"":""0"",""Q08"":""0"",""Q09"":""0"",""Q10"":""0"",""Q11"":""0"",""Q12"":""0"",""Q13"":""5"",""Q14"":""0"",""Q15"":""0"",""Q16"":""0"",""Q17"":""0"",""Q18"":""0"",""Q19"":""0"",""Q20"":""0"",""Q21"":""0"",""Q22"":""0""}","[0,1,2,3,4,5,6,7,8,9,10,11,12,13,14,15,16,17,18,19,20,21]","[""Q01"",""Q02"",""Q03"",""Q05"",""Q04"",""Q06"",""Q07"",""Q08"",""Q09"",""Q10"",""Q11"",""Q12"",""Q13"",""Q13"",""Q14"",""Q15"",""Q16"",""Q17"",""Q18"",""Q19"",""Q20"",""Q21"",""Q22""]","[1805,3513,3898,7901,8299,9904,10201,11870,14624,16865,17485,19506,19926,20867,22558,25134,29312,29897,30904,31816,36296,41600,46363]","[]","[0,1805,2107,2440,2818,3513,3898,7311,7535,7901,8299,9904,10201,10725,10992,11870,14624,16865,17485,19506,19926,20867,22558,25134,29312,29897,30904,31816,36296,41600,46363,47321]","0.9545454545454546","0.09523809523809523","0","","","","","","","","","","","","","","","","","","","","","","","","","","","","",""
"9793","","","","survey-template","8","123783","0.0-4.0-4.0","118","1","2025-08-03 09:24:13","36c45c0696341be0efffe67d72a12abb","37.47.203.238","Mozilla/5.0 (Windows NT 6.2; Win64; x64; rv:138.0) Gecko/20010101 Firefox/138.0","","Firefox","138.0","Windows","6.2","null","pl","667ea46bc52ef1879aec2fbb","687a19d2168e237449fb8af4","6889d9d30a137dc47c009a59","0","667ea46bc52ef1879aec2fbb","0","2025-08-03T09:26:19.280Z","","","","stress","{""Q01"":""0"",""Q02"":""1"",""Q03"":""0""}","[0,1,2]","[""Q01"",""Q02"",""Q03""]","[2827,5590,9231]","[]","[810,2827,5590,5896,6451,9231,9427,9793]","0.6666666666666666","0","0","","","","","","","","","","","","","","","","","","","","","","","","","","","","",""
"38617","","","","instructions","9","162401","0.0-5.0-0.0","118","1","2025-08-03 09:24:13","36c45c0696341be0efffe67d72a12abb","37.47.203.238","Mozilla/5.0 (Windows NT 6.2; Win64; x64; rv:138.0) Gecko/20010101 Firefox/138.0","","Firefox","138.0","Windows","6.2","null","pl","667ea46bc52ef1879aec2fbb","687a19d2168e237449fb8af4","6889d9d30a137dc47c009a59","0","667ea46bc52ef1879aec2fbb","0","","","","","","","","","","","","","","","[{""page_index"":0,""viewing_time"":38617}]","","","","","","","","","","","","","","","","","","","","","","","","","","","",""
"4043","","<p>Before you start with this game please answer the following three questions yourself. </p>
  <p>Through this game, we measure several aspects of your cognitive performance, such as reaction times, multi-tasking capabilities </p>
  <p>and the ability to assess the situation you are in.</p>
  <p></p>
  <p><b>How good do you usually are in such tasks?</b></p>","60","html-slider-response","10","166448","0.0-6.0-0.0","118","1","2025-08-03 09:24:13","36c45c0696341be0efffe67d72a12abb","37.47.203.238","Mozilla/5.0 (Windows NT 6.2; Win64; x64; rv:138.0) Gecko/20010101 Firefox/138.0","","Firefox","138.0","Windows","6.2","null","pl","667ea46bc52ef1879aec2fbb","687a19d2168e237449fb8af4","6889d9d30a137dc47c009a59","0","667ea46bc52ef1879aec2fbb","0","2025-08-03T09:27:01.945Z","","","","PreSkillQ","","","","","","","","","","","50","","","","","","","","","","","","","","","","","","","","","","","","","","",""
"3497","","<div style=""width:500px;"">
  <p>How well do you think you will perform in this task compared to other participants?</p>
  </div>","61","html-slider-response","11","169945","0.0-6.0-1.0","118","1","2025-08-03 09:24:13","36c45c0696341be0efffe67d72a12abb","37.47.203.238","Mozilla/5.0 (Windows NT 6.2; Win64; x64; rv:138.0) Gecko/20010101 Firefox/138.0","","Firefox","138.0","Windows","6.2","null","pl","667ea46bc52ef1879aec2fbb","687a19d2168e237449fb8af4","6889d9d30a137dc47c009a59","0","667ea46bc52ef1879aec2fbb","0","2025-08-03T09:27:05.442Z","","","","PrePerfQ","","","","","","","","","","","50","","","","","","","","","","","","","","","","","","","","","","","","","","",""
"2301","","<div style=""width:500px;"">
  <p>What best describes how you currently feel?</p>
  </div>","75","html-slider-response","12","172245","0.0-6.0-2.0","118","1","2025-08-03 09:24:13","36c45c0696341be0efffe67d72a12abb","37.47.203.238","Mozilla/5.0 (Windows NT 6.2; Win64; x64; rv:138.0) Gecko/20010101 Firefox/138.0","","Firefox","138.0","Windows","6.2","null","pl","667ea46bc52ef1879aec2fbb","687a19d2168e237449fb8af4","6889d9d30a137dc47c009a59","0","667ea46bc52ef1879aec2fbb","0","2025-08-03T09:27:07.742Z","","","","PreMotivationQ","","","","","","","","","","","50","","","","","","","","","","","","","","","","","","","","","","","","","","",""
"","","","","ctl-task-cpt","13","211725","0.0-7.0-0.0","118","1","2025-08-03 09:24:13","36c45c0696341be0efffe67d72a12abb","37.47.203.238","Mozilla/5.0 (Windows NT 6.2; Win64; x64; rv:138.0) Gecko/20010101 Firefox/138.0","","Firefox","138.0","Windows","6.2","null","pl","667ea46bc52ef1879aec2fbb","687a19d2168e237449fb8af4","6889d9d30a137dc47c009a59","0","667ea46bc52ef1879aec2fbb","0","2025-08-03T09:27:47.222Z","","","","","","","","","","","","","","","","win-only","2","g1:SE,g2:NW","1","1","0","176057","2153","7157","36478","1","4","8","6","2","8","5","5","0","0.03787878787878788","1349","3000","995","[""left"",""up""]","{""num_key_presses"":10,""num_perfect"":7,""num_errors"":3,""num_randdir"":0,""num_randdir_good_moves"":0,""num_whilered"":0,""num_whileblue"":1,""num_blue"":2,""num_good_moves"":7}","[559.4285714285714,553.1285683768136,0,559.4285714285714,553.1285683768136,104,559.4285714285714,553.1285683768136,204,559.4285714285714,553.1285683768136,306,490.42857142857144,637.1285683768136,410,131.42857142857144,147.12856837681363,510,92.42857142857143,125.12856837681362,613,94.42857142857143,123.12856837681362,713,95.42857142857143,121.12856837681362,818,96.42857142857143,121.12856837681362,921,96.42857142857143,121.12856837681362,1023,96.42857142857143,121.12856837681362,1126,96.42857142857143,121.12856837681362,1227,96.42857142857143,121.12856837681362,1330,96.42857142857143,120.12856837681362,1430,360.42857142857144,413.12856837681363,1530,1155.4285714285713,651.1285683768136,1630,1230.4285714285713,616.1285683768136,1733,1685.4285714285713,633.1285683768136,1834,1834.4285714285713,522.1285683768136,1935,1834.4285714285713,522.1285683768136,2035,1834.4285714285713,517.1285683768136,2139,1834.4285714285713,452.12856837681363,2239,1834.4285714285713,452.12856837681363,2339,1834.4285714285713,452.12856837681363,2443,1834.4285714285713,452.12856837681363,2544,1834.4285714285713,452.12856837681363,2644,1834.4285714285713,452.12856837681363,2746,1834.4285714285713,452.12856837681363,2850,1834.4285714285713,452.12856837681363,2953,1834.4285714285713,452.12856837681363,3053,1834.4285714285713,452.12856837681363,3157,1834.4285714285713,452.12856837681363,3260,1834.4285714285713,452.12856837681363,3365,1834.4285714285713,452.12856837681363,3465,1834.4285714285713,452.12856837681363,3566,1834.4285714285713,452.12856837681363,3670,1834.4285714285713,452.12856837681363,3772,1834.4285714285713,452.12856837681363,3874,1834.4285714285713,452.12856837681363,3975,1834.4285714285713,452.12856837681363,4075,1834.4285714285713,452.12856837681363,4177,1834.4285714285713,452.12856837681363,4281,1834.4285714285713,452.12856837681363,4382,1834.4285714285713,452.12856837681363,4483,1834.4285714285713,452.12856837681363,4585,1834.4285714285713,452.12856837681363,4687,1834.4285714285713,452.12856837681363,4790,1834.4285714285713,452.12856837681363,4890,1834.4285714285713,452.12856837681363,4993]","[250,250,1000,0,-750,""error"",""-"",""-"",""no_move"",1761,1511,2059.2,1255,-1553.2,""error"",""-"",""-"",""no_move"",5159,3398,2153.3,2763,242.7,""smooth"",""left"",""left"",""good_move"",7771,2612,2323.9,5159,288.1,""smooth"",""up"",""up"",""good_move"",10319,2548,2271.7,7771,276.3,""smooth"",""up"",""up"",""good_move"",13139,2820,2490.4,10319,329.6,""smooth"",""up"",""up"",""good_move"",15464,2325,2117.4,13139,207.6,""smooth"",""left"",""left"",""good_move"",18139,2675,2480,15464,195,""while_blue"",""left"",""down"",""bad_move"",26106,7967,2629.9,23063,413.1,""smooth"",""up"",""up"",""good_move"",29231,3125,2839.4,26106,285.6,""smooth"",""left"",""left"",""good_move""]"
"3100","","<div style=""width:500px;"">
  <p>What determined the result of this run?</p>
  </div>","78","html-slider-response","14","214829","0.0-7.0-1.0","118","1","2025-08-03 09:24:13","36c45c0696341be0efffe67d72a12abb","37.47.203.238","Mozilla/5.0 (Windows NT 6.2; Win64; x64; rv:138.0) Gecko/20010101 Firefox/138.0","","Firefox","138.0","Windows","6.2","null","pl","667ea46bc52ef1879aec2fbb","687a19d2168e237449fb8af4","6889d9d30a137dc47c009a59","0","667ea46bc52ef1879aec2fbb","0","2025-08-03T09:27:50.326Z","","","","AttribQ","","","","","","","","","","","50","","","","","","","","","","","","","","","","","","","","","","","","","","",""
"2536","","<div style=""width:500px;"">
  <p>How much control did you have over the ball?</p>
  </div>","100","html-slider-response","15","217365","0.0-7.0-2.0","118","1","2025-08-03 09:24:13","36c45c0696341be0efffe67d72a12abb","37.47.203.238","Mozilla/5.0 (Windows NT 6.2; Win64; x64; rv:138.0) Gecko/20010101 Firefox/138.0","","Firefox","138.0","Windows","6.2","null","pl","667ea46bc52ef1879aec2fbb","687a19d2168e237449fb8af4","6889d9d30a137dc47c009a59","0","667ea46bc52ef1879aec2fbb","0","2025-08-03T09:27:52.862Z","","","","ControlQ","","","","","","","","","","","50","","","","","","","","","","","","","","","","","","","","","","","","","","",""
"2032","","<div style=""width:500px;"">
  <p>How would you describe your current emotional state?</p>
  </div>","27","html-slider-response","16","219398","0.0-7.0-3.0","118","1","2025-08-03 09:24:13","36c45c0696341be0efffe67d72a12abb","37.47.203.238","Mozilla/5.0 (Windows NT 6.2; Win64; x64; rv:138.0) Gecko/20010101 Firefox/138.0","","Firefox","138.0","Windows","6.2","null","pl","667ea46bc52ef1879aec2fbb","687a19d2168e237449fb8af4","6889d9d30a137dc47c009a59","0","667ea46bc52ef1879aec2fbb","0","2025-08-03T09:27:54.895Z","","","","StressQ","","","","","","","","","","","50","","","","","","","","","","","","","","","","","","","","","","","","","","",""
"1687","","<div style=""width:500px;"">
  <p>What best describes how you currently feel?</p>
  </div>","79","html-slider-response","17","221086","0.0-7.0-4.0","118","1","2025-08-03 09:24:13","36c45c0696341be0efffe67d72a12abb","37.47.203.238","Mozilla/5.0 (Windows NT 6.2; Win64; x64; rv:138.0) Gecko/20010101 Firefox/138.0","","Firefox","138.0","Windows","6.2","null","pl","667ea46bc52ef1879aec2fbb","687a19d2168e237449fb8af4","6889d9d30a137dc47c009a59","0","667ea46bc52ef1879aec2fbb","0","2025-08-03T09:27:56.583Z","","","","MotivationQ","","","","","","","","","","","50","","","","","","","","","","","","","","","","","","","","","","","","","","",""
"","","","","ctl-task-cpt","18","241786","0.0-7.0-0.1","118","1","2025-08-03 09:24:13","36c45c0696341be0efffe67d72a12abb","37.47.203.238","Mozilla/5.0 (Windows NT 6.2; Win64; x64; rv:138.0) Gecko/20010101 Firefox/138.0","","Firefox","138.0","Windows","6.2","null","pl","667ea46bc52ef1879aec2fbb","687a19d2168e237449fb8af4","6889d9d30a137dc47c009a59","0","667ea46bc52ef1879aec2fbb","0","2025-08-03T09:28:17.284Z","","","","","","","","","","","","","","","","win-only","3","g1:SW,g2:NE","0.9","2","0","224897","1350","6354","17699","1","4","4","6","1","1","1","6","5","0.045454545454545456","2044","3000","1750","[""down"",""left""]","{""num_key_presses"":4,""num_perfect"":4,""num_errors"":0,""num_randdir"":0,""num_randdir_good_moves"":0,""num_whilered"":0,""num_whileblue"":0,""num_blue"":1,""num_good_moves"":4}","[549.4285714285714,555.1285683768136,0,549.4285714285714,555.1285683768136,101,555.4285714285714,559.1285683768136,205,555.4285714285714,559.1285683768136,309,559.4285714285714,556.1285683768136,411,494.42857142857144,666.1285683768136,516,494.42857142857144,666.1285683768136,620,494.42857142857144,664.1285683768136,723,272.42857142857144,825.1285683768136,828,263.42857142857144,819.1285683768136,932,845.4285714285714,206.12856837681363,1035,939.4285714285714,131.12856837681363,1140,921.4285714285714,164.12856837681363,1240,974.4285714285714,143.12856837681363,1342,957.4285714285714,164.12856837681363,1446,961.4285714285714,163.12856837681363,1549,712.4285714285714,384.12856837681363,1651,165.42857142857144,915.1285683768136,1753,98.42857142857143,1038.1285683768135,1858,54.42857142857143,1075.1285683768135,1960,76.42857142857143,1049.1285683768135,2064,118.42857142857143,1046.1285683768135,2169,1834.4285714285713,382.12856837681363,2271,1834.4285714285713,205.12856837681363,2374,1834.4285714285713,205.12856837681363,2476,1834.4285714285713,198.12856837681363,2581,1834.4285714285713,213.12856837681363,2684,1834.4285714285713,213.12856837681363,2786,1834.4285714285713,213.12856837681363,2891,1834.4285714285713,213.12856837681363,2996,1834.4285714285713,213.12856837681363,3100,1834.4285714285713,213.12856837681363,3203,1834.4285714285713,213.12856837681363,3306,1834.4285714285713,213.12856837681363,3411,1834.4285714285713,213.12856837681363,3513,1834.4285714285713,213.12856837681363,3617,1834.4285714285713,213.12856837681363,3720,1834.4285714285713,213.12856837681363,3822,1834.4285714285713,213.12856837681363,3923,1834.4285714285713,213.12856837681363,4025,1834.4285714285713,213.12856837681363,4128,1834.4285714285713,213.12856837681363,4233,1834.4285714285713,213.12856837681363,4337,1834.4285714285713,213.12856837681363,4440,1834.4285714285713,213.12856837681363,4545,1834.4285714285713,213.12856837681363,4646,1834.4285714285713,213.12856837681363,4750,1834.4285714285713,213.12856837681363,4852,1834.4285714285713,213.12856837681363,4957]","[5102,5102,2705.2,2005,391.8,""smooth"",""left"",""left"",""good_move"",7205,2103,1700.5,5102,402.5,""smooth"",""left"",""left"",""good_move"",9704,2499,2178.8,7205,320.2,""smooth"",""down"",""down"",""good_move"",11243,1539,1209.1,9704,329.9,""smooth"",""down"",""down"",""good_move""]"
"2160","","<div style=""width:500px;"">
  <p>What determined the result of this run?</p>
  </div>","78","html-slider-response","19","243946","0.0-7.0-1.1","118","1","2025-08-03 09:24:13","36c45c0696341be0efffe67d72a12abb","37.47.203.238","Mozilla/5.0 (Windows NT 6.2; Win64; x64; rv:138.0) Gecko/20010101 Firefox/138.0","","Firefox","138.0","Windows","6.2","null","pl","667ea46bc52ef1879aec2fbb","687a19d2168e237449fb8af4","6889d9d30a137dc47c009a59","0","667ea46bc52ef1879aec2fbb","0","2025-08-03T09:28:19.443Z","","","","AttribQ","","","","","","","","","","","50","","","","","","","","","","","","","","","","","","","","","","","","","","",""
"1602","","<div style=""width:500px;"">
  <p>How much control did you have over the ball?</p>
  </div>","100","html-slider-response","20","245549","0.0-7.0-2.1","118","1","2025-08-03 09:24:13","36c45c0696341be0efffe67d72a12abb","37.47.203.238","Mozilla/5.0 (Windows NT 6.2; Win64; x64; rv:138.0) Gecko/20010101 Firefox/138.0","","Firefox","138.0","Windows","6.2","null","pl","667ea46bc52ef1879aec2fbb","687a19d2168e237449fb8af4","6889d9d30a137dc47c009a59","0","667ea46bc52ef1879aec2fbb","0","2025-08-03T09:28:21.046Z","","","","ControlQ","","","","","","","","","","","50","","","","","","","","","","","","","","","","","","","","","","","","","","",""
"1775","","<div style=""width:500px;"">
  <p>How would you describe your current emotional state?</p>
  </div>","24","html-slider-response","21","247325","0.0-7.0-3.1","118","1","2025-08-03 09:24:13","36c45c0696341be0efffe67d72a12abb","37.47.203.238","Mozilla/5.0 (Windows NT 6.2; Win64; x64; rv:138.0) Gecko/20010101 Firefox/138.0","","Firefox","138.0","Windows","6.2","null","pl","667ea46bc52ef1879aec2fbb","687a19d2168e237449fb8af4","6889d9d30a137dc47c009a59","0","667ea46bc52ef1879aec2fbb","0","2025-08-03T09:28:22.822Z","","","","StressQ","","","","","","","","","","","50","","","","","","","","","","","","","","","","","","","","","","","","","","",""
"2170","","<div style=""width:500px;"">
  <p>What best describes how you currently feel?</p>
  </div>","72","html-slider-response","22","249494","0.0-7.0-4.1","118","1","2025-08-03 09:24:13","36c45c0696341be0efffe67d72a12abb","37.47.203.238","Mozilla/5.0 (Windows NT 6.2; Win64; x64; rv:138.0) Gecko/20010101 Firefox/138.0","","Firefox","138.0","Windows","6.2","null","pl","667ea46bc52ef1879aec2fbb","687a19d2168e237449fb8af4","6889d9d30a137dc47c009a59","0","667ea46bc52ef1879aec2fbb","0","2025-08-03T09:28:24.991Z","","","","MotivationQ","","","","","","","","","","","50","","","","","","","","","","","","","","","","","","","","","","","","","","",""
"","","","","ctl-task-cpt","23","271645","0.0-7.0-0.2","118","1","2025-08-03 09:24:13","36c45c0696341be0efffe67d72a12abb","37.47.203.238","Mozilla/5.0 (Windows NT 6.2; Win64; x64; rv:138.0) Gecko/20010101 Firefox/138.0","","Firefox","138.0","Windows","6.2","null","pl","667ea46bc52ef1879aec2fbb","687a19d2168e237449fb8af4","6889d9d30a137dc47c009a59","0","667ea46bc52ef1879aec2fbb","0","2025-08-03T09:28:47.142Z","","","","","","","","","","","","","","","","win-only","1","g1:NE,g2:SW","0.8","3","0","253305","628","5632","19149","1","4","8","6","2","8","8","14","6","0.10606060606060606","1433","3000","1420","[""down"",""left""]","{""num_key_presses"":6,""num_perfect"":6,""num_errors"":0,""num_randdir"":0,""num_randdir_good_moves"":0,""num_whilered"":0,""num_whileblue"":0,""num_blue"":0,""num_good_moves"":6}","[565.4285714285714,567.1285683768136,0,565.4285714285714,567.1285683768136,100,568.4285714285714,576.1285683768136,206,566.4285714285714,579.1285683768136,311,577.4285714285714,596.1285683768136,416,577.4285714285714,596.1285683768136,518,577.4285714285714,591.1285683768136,622,549.4285714285714,636.1285683768136,725,338.42857142857144,868.1285683768136,829,267.42857142857144,929.1285683768136,933,99.42857142857143,1035.1285683768135,1033,98.42857142857143,1019.1285683768136,1138,98.42857142857143,1019.1285683768136,1241,98.42857142857143,1019.1285683768136,1342,98.42857142857143,1018.1285683768136,1446,110.42857142857143,1016.1285683768136,1550,1834.4285714285713,739.1285683768136,1653,1834.4285714285713,147.12856837681363,1757,1834.4285714285713,147.12856837681363,1861,1834.4285714285713,147.12856837681363,1961,1834.4285714285713,126.12856837681362,2066,1834.4285714285713,125.12856837681362,2171,1834.4285714285713,125.12856837681362,2275,1834.4285714285713,125.12856837681362,2380,1834.4285714285713,125.12856837681362,2483,1834.4285714285713,125.12856837681362,2588,1834.4285714285713,125.12856837681362,2693,1834.4285714285713,125.12856837681362,2798,1834.4285714285713,125.12856837681362,2902,1834.4285714285713,125.12856837681362,3007,1834.4285714285713,125.12856837681362,3110,1834.4285714285713,125.12856837681362,3210,1834.4285714285713,125.12856837681362,3314,1834.4285714285713,125.12856837681362,3418,1834.4285714285713,125.12856837681362,3518,1834.4285714285713,125.12856837681362,3618,1834.4285714285713,125.12856837681362,3722,1834.4285714285713,125.12856837681362,3826,1834.4285714285713,125.12856837681362,3930,1834.4285714285713,125.12856837681362,4035,1834.4285714285713,125.12856837681362,4135,1834.4285714285713,125.12856837681362,4239,1834.4285714285713,125.12856837681362,4343,1834.4285714285713,125.12856837681362,4447,1834.4285714285713,125.12856837681362,4547,1834.4285714285713,125.12856837681362,4652,1834.4285714285713,125.12856837681362,4755,1834.4285714285713,125.12856837681362,4859,1834.4285714285713,125.12856837681362,4964]","[1383,1383,1000,0,383,""smooth"",""down"",""down"",""good_move"",2733,1350,968,1383,382,""smooth"",""left"",""left"",""good_move"",5576,2843,2537.7,2733,305.3,""smooth"",""down"",""down"",""good_move"",8546,2970,2701.7,5576,268.3,""smooth"",""down"",""down"",""good_move"",11303,2757,2449.8,8546,307.2,""smooth"",""left"",""left"",""good_move"",13412,2109,1878.9,11303,230.1,""smooth"",""left"",""left"",""good_move""]"
"2159","","<div style=""width:500px;"">
  <p>What determined the result of this run?</p>
  </div>","80","html-slider-response","24","273806","0.0-7.0-1.2","118","1","2025-08-03 09:24:13","36c45c0696341be0efffe67d72a12abb","37.47.203.238","Mozilla/5.0 (Windows NT 6.2; Win64; x64; rv:138.0) Gecko/20010101 Firefox/138.0","","Firefox","138.0","Windows","6.2","null","pl","667ea46bc52ef1879aec2fbb","687a19d2168e237449fb8af4","6889d9d30a137dc47c009a59","0","667ea46bc52ef1879aec2fbb","0","2025-08-03T09:28:49.303Z","","","","AttribQ","","","","","","","","","","","50","","","","","","","","","","","","","","","","","","","","","","","","","","",""
"1398","","<div style=""width:500px;"">
  <p>How much control did you have over the ball?</p>
  </div>","100","html-slider-response","25","275205","0.0-7.0-2.2","118","1","2025-08-03 09:24:13","36c45c0696341be0efffe67d72a12abb","37.47.203.238","Mozilla/5.0 (Windows NT 6.2; Win64; x64; rv:138.0) Gecko/20010101 Firefox/138.0","","Firefox","138.0","Windows","6.2","null","pl","667ea46bc52ef1879aec2fbb","687a19d2168e237449fb8af4","6889d9d30a137dc47c009a59","0","667ea46bc52ef1879aec2fbb","0","2025-08-03T09:28:50.702Z","","","","ControlQ","","","","","","","","","","","50","","","","","","","","","","","","","","","","","","","","","","","","","","",""
"1321","","<div style=""width:500px;"">
  <p>How would you describe your current emotional state?</p>
  </div>","23","html-slider-response","26","276525","0.0-7.0-3.2","118","1","2025-08-03 09:24:13","36c45c0696341be0efffe67d72a12abb","37.47.203.238","Mozilla/5.0 (Windows NT 6.2; Win64; x64; rv:138.0) Gecko/20010101 Firefox/138.0","","Firefox","138.0","Windows","6.2","null","pl","667ea46bc52ef1879aec2fbb","687a19d2168e237449fb8af4","6889d9d30a137dc47c009a59","0","667ea46bc52ef1879aec2fbb","0","2025-08-03T09:28:52.022Z","","","","StressQ","","","","","","","","","","","50","","","","","","","","","","","","","","","","","","","","","","","","","","",""
"1463","","<div style=""width:500px;"">
  <p>What best describes how you currently feel?</p>
  </div>","81","html-slider-response","27","277990","0.0-7.0-4.2","118","1","2025-08-03 09:24:13","36c45c0696341be0efffe67d72a12abb","37.47.203.238","Mozilla/5.0 (Windows NT 6.2; Win64; x64; rv:138.0) Gecko/20010101 Firefox/138.0","","Firefox","138.0","Windows","6.2","null","pl","667ea46bc52ef1879aec2fbb","687a19d2168e237449fb8af4","6889d9d30a137dc47c009a59","0","667ea46bc52ef1879aec2fbb","0","2025-08-03T09:28:53.487Z","","","","MotivationQ","","","","","","","","","","","50","","","","","","","","","","","","","","","","","","","","","","","","","","",""
"","","","","ctl-task-cpt","28","321302","0.0-7.0-0.3","118","1","2025-08-03 09:24:13","36c45c0696341be0efffe67d72a12abb","37.47.203.238","Mozilla/5.0 (Windows NT 6.2; Win64; x64; rv:138.0) Gecko/20010101 Firefox/138.0","","Firefox","138.0","Windows","6.2","null","pl","667ea46bc52ef1879aec2fbb","687a19d2168e237449fb8af4","6889d9d30a137dc47c009a59","0","667ea46bc52ef1879aec2fbb","0","2025-08-03T09:29:36.799Z","","","","","","","","","","","","","","","","win-only","3","g1:SW,g2:NE","0.7","4","0","281801","643","5647","40310","1","4","4","6","2","4","4","18","14","0.13636363636363635","1694","3000","820","[""up"",""right""]","{""num_key_presses"":8,""num_perfect"":7,""num_errors"":0,""num_randdir"":1,""num_randdir_good_moves"":0,""num_whilered"":0,""num_whileblue"":0,""num_blue"":4,""num_good_moves"":7}","[559.4285714285714,559.1285683768136,0,559.4285714285714,559.1285683768136,105,559.4285714285714,559.1285683768136,209,556.4285714285714,561.1285683768136,313,555.4285714285714,563.1285683768136,416,555.4285714285714,562.1285683768136,517,555.4285714285714,561.1285683768136,620,555.4285714285714,561.1285683768136,720,602.4285714285714,555.1285683768136,820,1010.4285714285714,111.12856837681362,924,1008.4285714285714,110.12856837681362,1028,1008.4285714285714,110.12856837681362,1128,1007.4285714285714,110.12856837681362,1228,1007.4285714285714,110.12856837681362,1333,1007.4285714285714,110.12856837681362,1436,1007.4285714285714,110.12856837681362,1541,1009.4285714285714,108.12856837681362,1641,1009.4285714285714,108.12856837681362,1746,1009.4285714285714,126.12856837681362,1847,1504.4285714285713,389.12856837681363,1950,1834.4285714285713,335.12856837681363,2054,1834.4285714285713,335.12856837681363,2154,1834.4285714285713,335.12856837681363,2259,1834.4285714285713,325.12856837681363,2364,1834.4285714285713,319.12856837681363,2468,1834.4285714285713,319.12856837681363,2568,1834.4285714285713,319.12856837681363,2668,1834.4285714285713,319.12856837681363,2771,1834.4285714285713,319.12856837681363,2871,1834.4285714285713,319.12856837681363,2976,1834.4285714285713,319.12856837681363,3081,1834.4285714285713,319.12856837681363,3185,1834.4285714285713,319.12856837681363,3289,1834.4285714285713,319.12856837681363,3392,1834.4285714285713,319.12856837681363,3496,1834.4285714285713,319.12856837681363,3600,1834.4285714285713,319.12856837681363,3703,1834.4285714285713,319.12856837681363,3808,1834.4285714285713,319.12856837681363,3912,1834.4285714285713,319.12856837681363,4012,1834.4285714285713,319.12856837681363,4116,1834.4285714285713,319.12856837681363,4216,1834.4285714285713,319.12856837681363,4322,1834.4285714285713,319.12856837681363,4426,1834.4285714285713,319.12856837681363,4530,1834.4285714285713,319.12856837681363,4630,1834.4285714285713,319.12856837681363,4735,1834.4285714285713,319.12856837681363,4840,1834.4285714285713,319.12856837681363,4945]","[4539,4539,2194,2006,339,""smooth"",""right"",""right"",""good_move"",6660,2121,1795.4,4539,325.6,""smooth"",""right"",""right"",""good_move"",13210,6549,2371.4,10512,326.6,""smooth"",""right"",""right"",""good_move"",16312,3102,2842.1,13210,259.9,""smooth"",""up"",""up"",""good_move"",23234,6922,3012.6,19851,370.4,""smooth"",""up"",""up"",""good_move"",25676,2442,2111.9,23234,330.1,""oops"",""up"",""left"",""bad_move"",28288,2612,2341.7,25676,270.3,""smooth"",""up"",""up"",""good_move"",34560,6272,2338.8,31866,355.2,""smooth"",""right"",""right"",""good_move""]"
"1865","","<div style=""width:500px;"">
  <p>What determined the result of this run?</p>
  </div>","72","html-slider-response","29","323167","0.0-7.0-1.3","118","1","2025-08-03 09:24:13","36c45c0696341be0efffe67d72a12abb","37.47.203.238","Mozilla/5.0 (Windows NT 6.2; Win64; x64; rv:138.0) Gecko/20010101 Firefox/138.0","","Firefox","138.0","Windows","6.2","null","pl","667ea46bc52ef1879aec2fbb","687a19d2168e237449fb8af4","6889d9d30a137dc47c009a59","0","667ea46bc52ef1879aec2fbb","0","2025-08-03T09:29:38.664Z","","","","AttribQ","","","","","","","","","","","50","","","","","","","","","","","","","","","","","","","","","","","","","","",""
"1828","","<div style=""width:500px;"">
  <p>How much control did you have over the ball?</p>
  </div>","90","html-slider-response","30","324996","0.0-7.0-2.3","118","1","2025-08-03 09:24:13","36c45c0696341be0efffe67d72a12abb","37.47.203.238","Mozilla/5.0 (Windows NT 6.2; Win64; x64; rv:138.0) Gecko/20010101 Firefox/138.0","","Firefox","138.0","Windows","6.2","null","pl","667ea46bc52ef1879aec2fbb","687a19d2168e237449fb8af4","6889d9d30a137dc47c009a59","0","667ea46bc52ef1879aec2fbb","0","2025-08-03T09:29:40.493Z","","","","ControlQ","","","","","","","","","","","50","","","","","","","","","","","","","","","","","","","","","","","","","","",""
"2441","","<div style=""width:500px;"">
  <p>How would you describe your current emotional state?</p>
  </div>","28","html-slider-response","31","327437","0.0-7.0-3.3","118","1","2025-08-03 09:24:13","36c45c0696341be0efffe67d72a12abb","37.47.203.238","Mozilla/5.0 (Windows NT 6.2; Win64; x64; rv:138.0) Gecko/20010101 Firefox/138.0","","Firefox","138.0","Windows","6.2","null","pl","667ea46bc52ef1879aec2fbb","687a19d2168e237449fb8af4","6889d9d30a137dc47c009a59","0","667ea46bc52ef1879aec2fbb","0","2025-08-03T09:29:42.934Z","","","","StressQ","","","","","","","","","","","50","","","","","","","","","","","","","","","","","","","","","","","","","","",""
"1562","","<div style=""width:500px;"">
  <p>What best describes how you currently feel?</p>
  </div>","73","html-slider-response","32","329000","0.0-7.0-4.3","118","1","2025-08-03 09:24:13","36c45c0696341be0efffe67d72a12abb","37.47.203.238","Mozilla/5.0 (Windows NT 6.2; Win64; x64; rv:138.0) Gecko/20010101 Firefox/138.0","","Firefox","138.0","Windows","6.2","null","pl","667ea46bc52ef1879aec2fbb","687a19d2168e237449fb8af4","6889d9d30a137dc47c009a59","0","667ea46bc52ef1879aec2fbb","0","2025-08-03T09:29:44.497Z","","","","MotivationQ","","","","","","","","","","","50","","","","","","","","","","","","","","","","","","","","","","","","","","",""
"","","","","ctl-task-cpt","33","364101","0.0-7.0-0.4","118","1","2025-08-03 09:24:13","36c45c0696341be0efffe67d72a12abb","37.47.203.238","Mozilla/5.0 (Windows NT 6.2; Win64; x64; rv:138.0) Gecko/20010101 Firefox/138.0","","Firefox","138.0","Windows","6.2","null","pl","667ea46bc52ef1879aec2fbb","687a19d2168e237449fb8af4","6889d9d30a137dc47c009a59","0","667ea46bc52ef1879aec2fbb","0","2025-08-03T09:30:19.598Z","","","","","","","","","","","","","","","","win-only","0","g1:NW,g2:SE","0.6","5","0","332812","659","5663","32099","1","4","4","6","2","-4","-4","14","18","0.10606060606060606","1261","3000","-2580","[""down"",""right""]","{""num_key_presses"":8,""num_perfect"":4,""num_errors"":0,""num_randdir"":4,""num_randdir_good_moves"":1,""num_whilered"":0,""num_whileblue"":0,""num_blue"":1,""num_good_moves"":5}","[554.4285714285714,556.1285683768136,0,554.4285714285714,556.1285683768136,102,554.4285714285714,556.1285683768136,207,547.4285714285714,570.1285683768136,312,547.4285714285714,570.1285683768136,412,547.4285714285714,570.1285683768136,512,547.4285714285714,570.1285683768136,616,547.4285714285714,570.1285683768136,721,547.4285714285714,571.1285683768136,826,798.4285714285714,844.1285683768136,931,968.4285714285714,1001.1285683768136,1031,1001.4285714285714,1026.1285683768135,1135,1003.4285714285714,1026.1285683768135,1240,1003.4285714285714,1025.1285683768135,1343,1046.4285714285713,995.1285683768136,1449,1834.4285714285713,618.1285683768136,1554,1834.4285714285713,557.1285683768136,1659,1834.4285714285713,557.1285683768136,1759,1834.4285714285713,557.1285683768136,1864,1834.4285714285713,463.12856837681363,1965,1834.4285714285713,460.12856837681363,2069,1834.4285714285713,460.12856837681363,2171,1834.4285714285713,460.12856837681363,2271,1834.4285714285713,460.12856837681363,2371,1834.4285714285713,460.12856837681363,2476,1834.4285714285713,460.12856837681363,2580,1834.4285714285713,460.12856837681363,2684,1834.4285714285713,460.12856837681363,2785,1834.4285714285713,460.12856837681363,2888,1834.4285714285713,460.12856837681363,2993,1834.4285714285713,460.12856837681363,3093,1834.4285714285713,460.12856837681363,3194,1834.4285714285713,460.12856837681363,3294,1834.4285714285713,460.12856837681363,3398,1834.4285714285713,460.12856837681363,3499,1834.4285714285713,460.12856837681363,3603,1834.4285714285713,460.12856837681363,3703,1834.4285714285713,460.12856837681363,3808,1834.4285714285713,460.12856837681363,3912,1834.4285714285713,460.12856837681363,4017,1834.4285714285713,460.12856837681363,4117,1834.4285714285713,460.12856837681363,4222,1834.4285714285713,460.12856837681363,4326,1834.4285714285713,460.12856837681363,4431,1834.4285714285713,460.12856837681363,4536,1834.4285714285713,460.12856837681363,4641,1834.4285714285713,460.12856837681363,4746,1834.4285714285713,460.12856837681363,4852,1834.4285714285713,460.12856837681363,4957]","[1468,1468,1000,0,468,""oops"",""down"",""down"",""good_move"",7625,6157,2515,4748,362,""oops"",""down"",""up"",""bad_move"",10509,2884,1975.5,7625,908.5,""smooth"",""down"",""down"",""good_move"",13184,2675,2331.3,10509,343.7,""smooth"",""down"",""down"",""good_move"",15431,2247,1939,13184,308,""smooth"",""down"",""down"",""good_move"",18333,2902,2580.6,15431,321.4,""smooth"",""right"",""right"",""good_move"",20894,2560,2313.9,18334,246.1,""oops"",""right"",""up"",""bad_move"",23330,2436,2163.2,20894,272.8,""oops"",""down"",""left"",""bad_move""]"
"3032","","<div style=""width:500px;"">
  <p>What determined the result of this run?</p>
  </div>","19","html-slider-response","34","367134","0.0-7.0-1.4","118","1","2025-08-03 09:24:13","36c45c0696341be0efffe67d72a12abb","37.47.203.238","Mozilla/5.0 (Windows NT 6.2; Win64; x64; rv:138.0) Gecko/20010101 Firefox/138.0","","Firefox","138.0","Windows","6.2","null","pl","667ea46bc52ef1879aec2fbb","687a19d2168e237449fb8af4","6889d9d30a137dc47c009a59","0","667ea46bc52ef1879aec2fbb","0","2025-08-03T09:30:22.631Z","","","","AttribQ","","","","","","","","","","","50","","","","","","","","","","","","","","","","","","","","","","","","","","",""
"1731","","<div style=""width:500px;"">
  <p>How much control did you have over the ball?</p>
  </div>","0","html-slider-response","35","368867","0.0-7.0-2.4","118","1","2025-08-03 09:24:13","36c45c0696341be0efffe67d72a12abb","37.47.203.238","Mozilla/5.0 (Windows NT 6.2; Win64; x64; rv:138.0) Gecko/20010101 Firefox/138.0","","Firefox","138.0","Windows","6.2","null","pl","667ea46bc52ef1879aec2fbb","687a19d2168e237449fb8af4","6889d9d30a137dc47c009a59","0","667ea46bc52ef1879aec2fbb","0","2025-08-03T09:30:24.364Z","","","","ControlQ","","","","","","","","","","","50","","","","","","","","","","","","","","","","","","","","","","","","","","",""
"1962","","<div style=""width:500px;"">
  <p>How would you describe your current emotional state?</p>
  </div>","45","html-slider-response","36","370830","0.0-7.0-3.4","118","1","2025-08-03 09:24:13","36c45c0696341be0efffe67d72a12abb","37.47.203.238","Mozilla/5.0 (Windows NT 6.2; Win64; x64; rv:138.0) Gecko/20010101 Firefox/138.0","","Firefox","138.0","Windows","6.2","null","pl","667ea46bc52ef1879aec2fbb","687a19d2168e237449fb8af4","6889d9d30a137dc47c009a59","0","667ea46bc52ef1879aec2fbb","0","2025-08-03T09:30:26.327Z","","","","StressQ","","","","","","","","","","","50","","","","","","","","","","","","","","","","","","","","","","","","","","",""
"1644","","<div style=""width:500px;"">
  <p>What best describes how you currently feel?</p>
  </div>","57","html-slider-response","37","372476","0.0-7.0-4.4","118","1","2025-08-03 09:24:13","36c45c0696341be0efffe67d72a12abb","37.47.203.238","Mozilla/5.0 (Windows NT 6.2; Win64; x64; rv:138.0) Gecko/20010101 Firefox/138.0","","Firefox","138.0","Windows","6.2","null","pl","667ea46bc52ef1879aec2fbb","687a19d2168e237449fb8af4","6889d9d30a137dc47c009a59","0","667ea46bc52ef1879aec2fbb","0","2025-08-03T09:30:27.973Z","","","","MotivationQ","","","","","","","","","","","50","","","","","","","","","","","","","","","","","","","","","","","","","","",""
"","","","","ctl-task-cpt","38","415635","0.0-7.0-0.5","118","1","2025-08-03 09:24:13","36c45c0696341be0efffe67d72a12abb","37.47.203.238","Mozilla/5.0 (Windows NT 6.2; Win64; x64; rv:138.0) Gecko/20010101 Firefox/138.0","","Firefox","138.0","Windows","6.2","null","pl","667ea46bc52ef1879aec2fbb","687a19d2168e237449fb8af4","6889d9d30a137dc47c009a59","0","667ea46bc52ef1879aec2fbb","0","2025-08-03T09:31:11.132Z","","","","","","","","","","","","","","","","win-only","0","g1:NW,g2:SE","0.5","6","0","376287","584","5588","40158","1","4","8","6","2","-8","-8","6","14","0.045454545454545456","931","3000","-2565","[""down"",""right""]","{""num_key_presses"":9,""num_perfect"":4,""num_errors"":0,""num_randdir"":5,""num_randdir_good_moves"":1,""num_whilered"":0,""num_whileblue"":0,""num_blue"":2,""num_good_moves"":5}","[561.4285714285714,557.1285683768136,0,560.4285714285714,559.1285683768136,105,558.4285714285714,568.1285683768136,209,565.4285714285714,593.1285683768136,310,565.4285714285714,593.1285683768136,416,567.4285714285714,591.1285683768136,520,706.4285714285714,759.1285683768136,626,1046.4285714285713,971.1285683768136,733,1037.4285714285713,1008.1285683768136,833,1034.4285714285713,1009.1285683768136,933,1035.4285714285713,1009.1285683768136,1033,1570.4285714285713,789.1285683768136,1133,1834.4285714285713,633.1285683768136,1238,1834.4285714285713,633.1285683768136,1339,1834.4285714285713,636.1285683768136,1441,1834.4285714285713,611.1285683768136,1542,1834.4285714285713,609.1285683768136,1646,1834.4285714285713,609.1285683768136,1746,1834.4285714285713,609.1285683768136,1846,1834.4285714285713,608.1285683768136,1952,1834.4285714285713,608.1285683768136,2052,1834.4285714285713,608.1285683768136,2157,1834.4285714285713,608.1285683768136,2258,1834.4285714285713,608.1285683768136,2363,1834.4285714285713,608.1285683768136,2464,1834.4285714285713,608.1285683768136,2568,1834.4285714285713,608.1285683768136,2673,1834.4285714285713,608.1285683768136,2779,1834.4285714285713,608.1285683768136,2884,1834.4285714285713,608.1285683768136,2990,1834.4285714285713,608.1285683768136,3095,1834.4285714285713,608.1285683768136,3200,1834.4285714285713,608.1285683768136,3301,1834.4285714285713,608.1285683768136,3401,1834.4285714285713,608.1285683768136,3505,1834.4285714285713,608.1285683768136,3605,1834.4285714285713,608.1285683768136,3705,1834.4285714285713,608.1285683768136,3810,1834.4285714285713,608.1285683768136,3912,1834.4285714285713,608.1285683768136,4017,1834.4285714285713,608.1285683768136,4117,1834.4285714285713,608.1285683768136,4222,1834.4285714285713,608.1285683768136,4322,1834.4285714285713,608.1285683768136,4427,1834.4285714285713,608.1285683768136,4532,1834.4285714285713,608.1285683768136,4638,1834.4285714285713,608.1285683768136,4741,1834.4285714285713,608.1285683768136,4846,1834.4285714285713,608.1285683768136,4952]","[1386,1386,1000,0,386,""oops"",""down"",""left"",""bad_move"",4017,2631,2301.8,1386,329.2,""oops"",""down"",""down"",""good_move"",6552,2535,2188,4017,347,""smooth"",""down"",""down"",""good_move"",9208,2655,2288.9,6553,366.1,""smooth"",""down"",""down"",""good_move"",12147,2939,2653.1,9208,285.9,""oops"",""right"",""left"",""bad_move"",14979,2832,2527.7,12147,304.3,""oops"",""right"",""left"",""bad_move"",17778,2799,2594.7,14979,204.3,""smooth"",""right"",""right"",""good_move"",20440,2662,2413.2,17778,248.8,""smooth"",""right"",""right"",""good_move"",23392,2952,2683,20440,269,""oops"",""right"",""up"",""bad_move""]"
"2563","","<div style=""width:500px;"">
  <p>What determined the result of this run?</p>
  </div>","0","html-slider-response","39","418201","0.0-7.0-1.5","118","1","2025-08-03 09:24:13","36c45c0696341be0efffe67d72a12abb","37.47.203.238","Mozilla/5.0 (Windows NT 6.2; Win64; x64; rv:138.0) Gecko/20010101 Firefox/138.0","","Firefox","138.0","Windows","6.2","null","pl","667ea46bc52ef1879aec2fbb","687a19d2168e237449fb8af4","6889d9d30a137dc47c009a59","0","667ea46bc52ef1879aec2fbb","0","2025-08-03T09:31:13.698Z","","","","AttribQ","","","","","","","","","","","50","","","","","","","","","","","","","","","","","","","","","","","","","","",""
"1067","","<div style=""width:500px;"">
  <p>How much control did you have over the ball?</p>
  </div>","0","html-slider-response","40","419269","0.0-7.0-2.5","118","1","2025-08-03 09:24:13","36c45c0696341be0efffe67d72a12abb","37.47.203.238","Mozilla/5.0 (Windows NT 6.2; Win64; x64; rv:138.0) Gecko/20010101 Firefox/138.0","","Firefox","138.0","Windows","6.2","null","pl","667ea46bc52ef1879aec2fbb","687a19d2168e237449fb8af4","6889d9d30a137dc47c009a59","0","667ea46bc52ef1879aec2fbb","0","2025-08-03T09:31:14.766Z","","","","ControlQ","","","","","","","","","","","50","","","","","","","","","","","","","","","","","","","","","","","","","","",""
"1656","","<div style=""width:500px;"">
  <p>How would you describe your current emotional state?</p>
  </div>","65","html-slider-response","41","420925","0.0-7.0-3.5","118","1","2025-08-03 09:24:13","36c45c0696341be0efffe67d72a12abb","37.47.203.238","Mozilla/5.0 (Windows NT 6.2; Win64; x64; rv:138.0) Gecko/20010101 Firefox/138.0","","Firefox","138.0","Windows","6.2","null","pl","667ea46bc52ef1879aec2fbb","687a19d2168e237449fb8af4","6889d9d30a137dc47c009a59","0","667ea46bc52ef1879aec2fbb","0","2025-08-03T09:31:16.422Z","","","","StressQ","","","","","","","","","","","50","","","","","","","","","","","","","","","","","","","","","","","","","","",""
"2344","","<div style=""width:500px;"">
  <p>What best describes how you currently feel?</p>
  </div>","60","html-slider-response","42","423270","0.0-7.0-4.5","118","1","2025-08-03 09:24:13","36c45c0696341be0efffe67d72a12abb","37.47.203.238","Mozilla/5.0 (Windows NT 6.2; Win64; x64; rv:138.0) Gecko/20010101 Firefox/138.0","","Firefox","138.0","Windows","6.2","null","pl","667ea46bc52ef1879aec2fbb","687a19d2168e237449fb8af4","6889d9d30a137dc47c009a59","0","667ea46bc52ef1879aec2fbb","0","2025-08-03T09:31:18.767Z","","","","MotivationQ","","","","","","","","","","","50","","","","","","","","","","","","","","","","","","","","","","","","","","",""
"","","","","ctl-task-cpt","43","463981","0.0-7.0-0.6","118","1","2025-08-03 09:24:13","36c45c0696341be0efffe67d72a12abb","37.47.203.238","Mozilla/5.0 (Windows NT 6.2; Win64; x64; rv:138.0) Gecko/20010101 Firefox/138.0","","Firefox","138.0","Windows","6.2","null","pl","667ea46bc52ef1879aec2fbb","687a19d2168e237449fb8af4","6889d9d30a137dc47c009a59","0","667ea46bc52ef1879aec2fbb","0","2025-08-03T09:31:59.478Z","","","","","","","","","","","","","","","","win-only","1","g1:NE,g2:SW","0.4","7","0","427081","627","5632","37709","1","4","4","6","2","-4","-4","2","6","0.015151515151515152","1316","3000","-2545","[""down"",""left""]","{""num_key_presses"":8,""num_perfect"":4,""num_errors"":0,""num_randdir"":4,""num_randdir_good_moves"":1,""num_whilered"":0,""num_whileblue"":0,""num_blue"":2,""num_good_moves"":5}","[550.4285714285714,564.1285683768136,0,550.4285714285714,564.1285683768136,102,550.4285714285714,568.1285683768136,207,542.4285714285714,612.1285683768136,308,532.4285714285714,656.1285683768136,409,531.4285714285714,656.1285683768136,512,531.4285714285714,656.1285683768136,612,531.4285714285714,656.1285683768136,712,531.4285714285714,657.1285683768136,814,471.42857142857144,728.1285683768136,916,127.42857142857143,1015.1285683768136,1017,70.42857142857143,1048.1285683768135,1120,69.42857142857143,1056.1285683768135,1220,89.42857142857143,1042.1285683768135,1320,89.42857142857143,1042.1285683768135,1424,839.4285714285714,1006.1285683768136,1525,1834.4285714285713,689.1285683768136,1628,1834.4285714285713,689.1285683768136,1734,1834.4285714285713,689.1285683768136,1834,1834.4285714285713,664.1285683768136,1935,1834.4285714285713,631.1285683768136,2038,1834.4285714285713,631.1285683768136,2138,1834.4285714285713,631.1285683768136,2241,1834.4285714285713,631.1285683768136,2342,1834.4285714285713,631.1285683768136,2444,1834.4285714285713,631.1285683768136,2548,1834.4285714285713,631.1285683768136,2649,1834.4285714285713,631.1285683768136,2750,1834.4285714285713,631.1285683768136,2851,1834.4285714285713,631.1285683768136,2952,1834.4285714285713,631.1285683768136,3052,1834.4285714285713,631.1285683768136,3153,1834.4285714285713,631.1285683768136,3254,1834.4285714285713,631.1285683768136,3355,1834.4285714285713,631.1285683768136,3460,1834.4285714285713,631.1285683768136,3566,1834.4285714285713,631.1285683768136,3672,1834.4285714285713,631.1285683768136,3777,1834.4285714285713,631.1285683768136,3882,1834.4285714285713,631.1285683768136,3982,1834.4285714285713,631.1285683768136,4084,1834.4285714285713,631.1285683768136,4184,1834.4285714285713,631.1285683768136,4285,1834.4285714285713,631.1285683768136,4385,1834.4285714285713,631.1285683768136,4485,1834.4285714285713,631.1285683768136,4585,1834.4285714285713,631.1285683768136,4685,1834.4285714285713,631.1285683768136,4787,1834.4285714285713,631.1285683768136,4887,1834.4285714285713,631.1285683768136,4987]","[1950,1950,1000,0,950,""smooth"",""down"",""down"",""good_move"",5019,3069,2688.7,1950,380.3,""smooth"",""down"",""down"",""good_move"",11510,6491,2505.5,8611,393.5,""smooth"",""down"",""down"",""good_move"",13989,2479,2076.7,11510,402.3,""oops"",""left"",""left"",""good_move"",20878,6889,2778.3,17788,311.7,""smooth"",""left"",""left"",""good_move"",23789,2911,2576.4,20878,334.6,""oops"",""left"",""up"",""bad_move"",26189,2400,2123,23789,277,""oops"",""down"",""right"",""bad_move"",29234,3045,2782.5,26189,262.5,""oops"",""down"",""up"",""bad_move""]"
"1312","","<div style=""width:500px;"">
  <p>What determined the result of this run?</p>
  </div>","0","html-slider-response","44","465294","0.0-7.0-1.6","118","1","2025-08-03 09:24:13","36c45c0696341be0efffe67d72a12abb","37.47.203.238","Mozilla/5.0 (Windows NT 6.2; Win64; x64; rv:138.0) Gecko/20010101 Firefox/138.0","","Firefox","138.0","Windows","6.2","null","pl","667ea46bc52ef1879aec2fbb","687a19d2168e237449fb8af4","6889d9d30a137dc47c009a59","0","667ea46bc52ef1879aec2fbb","0","2025-08-03T09:32:00.791Z","","","","AttribQ","","","","","","","","","","","50","","","","","","","","","","","","","","","","","","","","","","","","","","",""
"1277","","<div style=""width:500px;"">
  <p>How much control did you have over the ball?</p>
  </div>","0","html-slider-response","45","466571","0.0-7.0-2.6","118","1","2025-08-03 09:24:13","36c45c0696341be0efffe67d72a12abb","37.47.203.238","Mozilla/5.0 (Windows NT 6.2; Win64; x64; rv:138.0) Gecko/20010101 Firefox/138.0","","Firefox","138.0","Windows","6.2","null","pl","667ea46bc52ef1879aec2fbb","687a19d2168e237449fb8af4","6889d9d30a137dc47c009a59","0","667ea46bc52ef1879aec2fbb","0","2025-08-03T09:32:02.069Z","","","","ControlQ","","","","","","","","","","","50","","","","","","","","","","","","","","","","","","","","","","","","","","",""
"1899","","<div style=""width:500px;"">
  <p>How would you describe your current emotional state?</p>
  </div>","76","html-slider-response","46","468471","0.0-7.0-3.6","118","1","2025-08-03 09:24:13","36c45c0696341be0efffe67d72a12abb","37.47.203.238","Mozilla/5.0 (Windows NT 6.2; Win64; x64; rv:138.0) Gecko/20010101 Firefox/138.0","","Firefox","138.0","Windows","6.2","null","pl","667ea46bc52ef1879aec2fbb","687a19d2168e237449fb8af4","6889d9d30a137dc47c009a59","0","667ea46bc52ef1879aec2fbb","0","2025-08-03T09:32:03.968Z","","","","StressQ","","","","","","","","","","","50","","","","","","","","","","","","","","","","","","","","","","","","","","",""
"2857","","<div style=""width:500px;"">
  <p>What best describes how you currently feel?</p>
  </div>","33","html-slider-response","47","471329","0.0-7.0-4.6","118","1","2025-08-03 09:24:13","36c45c0696341be0efffe67d72a12abb","37.47.203.238","Mozilla/5.0 (Windows NT 6.2; Win64; x64; rv:138.0) Gecko/20010101 Firefox/138.0","","Firefox","138.0","Windows","6.2","null","pl","667ea46bc52ef1879aec2fbb","687a19d2168e237449fb8af4","6889d9d30a137dc47c009a59","0","667ea46bc52ef1879aec2fbb","0","2025-08-03T09:32:06.826Z","","","","MotivationQ","","","","","","","","","","","50","","","","","","","","","","","","","","","","","","","","","","","","","","",""
"","","","","ctl-task-cpt","48","515884","0.0-7.0-0.7","118","1","2025-08-03 09:24:13","36c45c0696341be0efffe67d72a12abb","37.47.203.238","Mozilla/5.0 (Windows NT 6.2; Win64; x64; rv:138.0) Gecko/20010101 Firefox/138.0","","Firefox","138.0","Windows","6.2","null","pl","667ea46bc52ef1879aec2fbb","687a19d2168e237449fb8af4","6889d9d30a137dc47c009a59","0","667ea46bc52ef1879aec2fbb","0","2025-08-03T09:32:51.381Z","","","","","","","","","","","","","","","","win-only","2","g1:SE,g2:NW","0.3","8","0","475141","951","5952","41552","1","4","8","6","2","-8","-8","0","2","0","1210","3000","-2525","[""left"",""up""]","{""num_key_presses"":10,""num_perfect"":3,""num_errors"":0,""num_randdir"":7,""num_randdir_good_moves"":3,""num_whilered"":0,""num_whileblue"":0,""num_blue"":2,""num_good_moves"":6}","[555.4285714285714,565.1285683768136,0,555.4285714285714,565.1285683768136,100,555.4285714285714,565.1285683768136,203,561.4285714285714,618.1285683768136,306,561.4285714285714,619.1285683768136,409,561.4285714285714,619.1285683768136,512,566.4285714285714,618.1285683768136,615,566.4285714285714,618.1285683768136,717,566.4285714285714,618.1285683768136,819,386.42857142857144,398.12856837681363,921,168.42857142857144,174.12856837681363,1024,166.42857142857144,173.12856837681363,1128,150.42857142857144,156.12856837681363,1233,179.42857142857144,176.12856837681363,1335,1520.4285714285713,389.12856837681363,1438,1834.4285714285713,326.12856837681363,1541,1834.4285714285713,326.12856837681363,1642,1834.4285714285713,317.12856837681363,1745,1834.4285714285713,296.12856837681363,1850,1834.4285714285713,295.12856837681363,1951,1834.4285714285713,295.12856837681363,2052,1834.4285714285713,295.12856837681363,2155,1834.4285714285713,295.12856837681363,2258,1834.4285714285713,295.12856837681363,2362,1834.4285714285713,295.12856837681363,2464,1834.4285714285713,295.12856837681363,2569,1834.4285714285713,295.12856837681363,2672,1834.4285714285713,295.12856837681363,2772,1834.4285714285713,295.12856837681363,2875,1834.4285714285713,295.12856837681363,2976,1834.4285714285713,295.12856837681363,3078,1834.4285714285713,295.12856837681363,3181,1834.4285714285713,295.12856837681363,3284,1834.4285714285713,295.12856837681363,3385,1834.4285714285713,295.12856837681363,3488,1834.4285714285713,295.12856837681363,3589,1834.4285714285713,295.12856837681363,3691,1834.4285714285713,295.12856837681363,3793,1834.4285714285713,295.12856837681363,3897,1834.4285714285713,295.12856837681363,4000,1834.4285714285713,295.12856837681363,4100,1834.4285714285713,295.12856837681363,4204,1834.4285714285713,295.12856837681363,4305,1834.4285714285713,295.12856837681363,4409,1834.4285714285713,295.12856837681363,4512,1834.4285714285713,295.12856837681363,4616,1834.4285714285713,295.12856837681363,4717,1834.4285714285713,295.12856837681363,4819,1834.4285714285713,295.12856837681363,4923]","[1461,1461,1000,0,461,""oops"",""left"",""right"",""bad_move"",4009,2548,2194.4,1461,353.6,""smooth"",""up"",""up"",""good_move"",7393,3383,2984.9,4010,398.1,""oops"",""left"",""up"",""good_move"",10350,2957,2663.3,7393,293.7,""oops"",""up"",""left"",""good_move"",12792,2442,2092.1,10350,349.9,""oops"",""up"",""left"",""good_move"",15478,2686,2182,12792,504,""smooth"",""up"",""up"",""good_move"",18160,2682,2370.4,15478,311.6,""smooth"",""left"",""left"",""good_move"",24323,6163,2286.6,21720,316.4,""oops"",""left"",""down"",""bad_move"",27350,3027,2716.7,24323,310.3,""oops"",""up"",""right"",""bad_move"",30075,2725,2469.8,27350,255.2,""oops"",""left"",""down"",""bad_move""]"
"1279","","<div style=""width:500px;"">
  <p>What determined the result of this run?</p>
  </div>","0","html-slider-response","49","517163","0.0-7.0-1.7","118","1","2025-08-03 09:24:13","36c45c0696341be0efffe67d72a12abb","37.47.203.238","Mozilla/5.0 (Windows NT 6.2; Win64; x64; rv:138.0) Gecko/20010101 Firefox/138.0","","Firefox","138.0","Windows","6.2","null","pl","667ea46bc52ef1879aec2fbb","687a19d2168e237449fb8af4","6889d9d30a137dc47c009a59","0","667ea46bc52ef1879aec2fbb","0","2025-08-03T09:32:52.660Z","","","","AttribQ","","","","","","","","","","","50","","","","","","","","","","","","","","","","","","","","","","","","","","",""
"1230","","<div style=""width:500px;"">
  <p>How much control did you have over the ball?</p>
  </div>","0","html-slider-response","50","518394","0.0-7.0-2.7","118","1","2025-08-03 09:24:13","36c45c0696341be0efffe67d72a12abb","37.47.203.238","Mozilla/5.0 (Windows NT 6.2; Win64; x64; rv:138.0) Gecko/20010101 Firefox/138.0","","Firefox","138.0","Windows","6.2","null","pl","667ea46bc52ef1879aec2fbb","687a19d2168e237449fb8af4","6889d9d30a137dc47c009a59","0","667ea46bc52ef1879aec2fbb","0","2025-08-03T09:32:53.891Z","","","","ControlQ","","","","","","","","","","","50","","","","","","","","","","","","","","","","","","","","","","","","","","",""
"1746","","<div style=""width:500px;"">
  <p>How would you describe your current emotional state?</p>
  </div>","95","html-slider-response","51","520141","0.0-7.0-3.7","118","1","2025-08-03 09:24:13","36c45c0696341be0efffe67d72a12abb","37.47.203.238","Mozilla/5.0 (Windows NT 6.2; Win64; x64; rv:138.0) Gecko/20010101 Firefox/138.0","","Firefox","138.0","Windows","6.2","null","pl","667ea46bc52ef1879aec2fbb","687a19d2168e237449fb8af4","6889d9d30a137dc47c009a59","0","667ea46bc52ef1879aec2fbb","0","2025-08-03T09:32:55.638Z","","","","StressQ","","","","","","","","","","","50","","","","","","","","","","","","","","","","","","","","","","","","","","",""
"1590","","<div style=""width:500px;"">
  <p>What best describes how you currently feel?</p>
  </div>","12","html-slider-response","52","521731","0.0-7.0-4.7","118","1","2025-08-03 09:24:13","36c45c0696341be0efffe67d72a12abb","37.47.203.238","Mozilla/5.0 (Windows NT 6.2; Win64; x64; rv:138.0) Gecko/20010101 Firefox/138.0","","Firefox","138.0","Windows","6.2","null","pl","667ea46bc52ef1879aec2fbb","687a19d2168e237449fb8af4","6889d9d30a137dc47c009a59","0","667ea46bc52ef1879aec2fbb","0","2025-08-03T09:32:57.228Z","","","","MotivationQ","","","","","","","","","","","50","","","","","","","","","","","","","","","","","","","","","","","","","","",""
"","","","","ctl-task-cpt","53","569598","0.0-7.0-0.8","118","1","2025-08-03 09:24:13","36c45c0696341be0efffe67d72a12abb","37.47.203.238","Mozilla/5.0 (Windows NT 6.2; Win64; x64; rv:138.0) Gecko/20010101 Firefox/138.0","","Firefox","138.0","Windows","6.2","null","pl","667ea46bc52ef1879aec2fbb","687a19d2168e237449fb8af4","6889d9d30a137dc47c009a59","0","667ea46bc52ef1879aec2fbb","0","2025-08-03T09:33:45.095Z","","","","","","","","","","","","","","","","win-only","2","g1:SE,g2:NW","0.4","9","0","525543","532","5536","44864","1","4","4","6","2","-4","-4","0","0","0","1810","3000","-2485","[""left"",""up""]","{""num_key_presses"":9,""num_perfect"":4,""num_errors"":0,""num_randdir"":5,""num_randdir_good_moves"":2,""num_whilered"":0,""num_whileblue"":0,""num_blue"":3,""num_good_moves"":6}","[557.4285714285714,551.1285683768136,1,557.4285714285714,550.1285683768136,102,556.4285714285714,550.1285683768136,205,553.4285714285714,569.1285683768136,307,545.4285714285714,587.1285683768136,410,545.4285714285714,587.1285683768136,514,545.4285714285714,587.1285683768136,618,545.4285714285714,586.1285683768136,718,545.4285714285714,586.1285683768136,821,545.4285714285714,586.1285683768136,924,536.4285714285714,619.1285683768136,1028,652.4285714285714,762.1285683768136,1133,819.4285714285714,853.1285683768136,1235,821.4285714285714,852.1285683768136,1339,423.42857142857144,408.12856837681363,1443,112.42857142857143,154.12856837681363,1548,95.42857142857143,136.12856837681363,1651,63.42857142857143,116.12856837681362,1754,63.42857142857143,114.12856837681362,1858,63.42857142857143,114.12856837681362,1959,464.42857142857144,322.12856837681363,2059,1834.4285714285713,353.12856837681363,2165,1834.4285714285713,353.12856837681363,2267,1834.4285714285713,353.12856837681363,2371,1834.4285714285713,376.12856837681363,2476,1834.4285714285713,437.12856837681363,2580,1834.4285714285713,428.12856837681363,2683,1834.4285714285713,428.12856837681363,2787,1834.4285714285713,428.12856837681363,2889,1834.4285714285713,428.12856837681363,2992,1834.4285714285713,428.12856837681363,3096,1834.4285714285713,428.12856837681363,3199,1834.4285714285713,428.12856837681363,3301,1834.4285714285713,428.12856837681363,3405,1834.4285714285713,428.12856837681363,3507,1834.4285714285713,428.12856837681363,3610,1834.4285714285713,428.12856837681363,3714,1834.4285714285713,428.12856837681363,3817,1834.4285714285713,428.12856837681363,3919,1834.4285714285713,428.12856837681363,4021,1834.4285714285713,428.12856837681363,4123,1834.4285714285713,428.12856837681363,4225,1834.4285714285713,428.12856837681363,4327,1834.4285714285713,428.12856837681363,4431,1834.4285714285713,428.12856837681363,4532,1834.4285714285713,428.12856837681363,4635,1834.4285714285713,428.12856837681363,4739,1834.4285714285713,428.12856837681363,4842,1834.4285714285713,428.12856837681363,4943]","[1465,1465,1000,0,465,""oops"",""up"",""down"",""bad_move"",4717,3252,2865.6,1465,386.4,""smooth"",""up"",""up"",""good_move"",7841,3124,2449.4,4717,674.6,""oops"",""left"",""left"",""good_move"",15057,7216,2531.8,12215,310.2,""smooth"",""up"",""up"",""good_move"",21359,6302,2741.5,18286,331.5,""oops"",""up"",""left"",""good_move"",23474,2115,1758,21359,357,""oops"",""left"",""right"",""bad_move"",27049,3575,3237.2,23474,337.8,""smooth"",""up"",""up"",""good_move"",33569,6520,2405.9,30820,343.1,""smooth"",""left"",""left"",""good_move"",36157,2588,2247.9,33569,340.1,""oops"",""up"",""down"",""bad_move""]"
"2390","","<div style=""width:500px;"">
  <p>What determined the result of this run?</p>
  </div>","0","html-slider-response","54","571991","0.0-7.0-1.8","118","1","2025-08-03 09:24:13","36c45c0696341be0efffe67d72a12abb","37.47.203.238","Mozilla/5.0 (Windows NT 6.2; Win64; x64; rv:138.0) Gecko/20010101 Firefox/138.0","","Firefox","138.0","Windows","6.2","null","pl","667ea46bc52ef1879aec2fbb","687a19d2168e237449fb8af4","6889d9d30a137dc47c009a59","0","667ea46bc52ef1879aec2fbb","0","2025-08-03T09:33:47.488Z","","","","AttribQ","","","","","","","","","","","50","","","","","","","","","","","","","","","","","","","","","","","","","","",""
"1473","","<div style=""width:500px;"">
  <p>How much control did you have over the ball?</p>
  </div>","0","html-slider-response","55","573464","0.0-7.0-2.8","118","1","2025-08-03 09:24:13","36c45c0696341be0efffe67d72a12abb","37.47.203.238","Mozilla/5.0 (Windows NT 6.2; Win64; x64; rv:138.0) Gecko/20010101 Firefox/138.0","","Firefox","138.0","Windows","6.2","null","pl","667ea46bc52ef1879aec2fbb","687a19d2168e237449fb8af4","6889d9d30a137dc47c009a59","0","667ea46bc52ef1879aec2fbb","0","2025-08-03T09:33:48.961Z","","","","ControlQ","","","","","","","","","","","50","","","","","","","","","","","","","","","","","","","","","","","","","","",""
"1357","","<div style=""width:500px;"">
  <p>How would you describe your current emotional state?</p>
  </div>","100","html-slider-response","56","574821","0.0-7.0-3.8","118","1","2025-08-03 09:24:13","36c45c0696341be0efffe67d72a12abb","37.47.203.238","Mozilla/5.0 (Windows NT 6.2; Win64; x64; rv:138.0) Gecko/20010101 Firefox/138.0","","Firefox","138.0","Windows","6.2","null","pl","667ea46bc52ef1879aec2fbb","687a19d2168e237449fb8af4","6889d9d30a137dc47c009a59","0","667ea46bc52ef1879aec2fbb","0","2025-08-03T09:33:50.319Z","","","","StressQ","","","","","","","","","","","50","","","","","","","","","","","","","","","","","","","","","","","","","","",""
"2706","","<div style=""width:500px;"">
  <p>What best describes how you currently feel?</p>
  </div>","22","html-slider-response","57","577528","0.0-7.0-4.8","118","1","2025-08-03 09:24:13","36c45c0696341be0efffe67d72a12abb","37.47.203.238","Mozilla/5.0 (Windows NT 6.2; Win64; x64; rv:138.0) Gecko/20010101 Firefox/138.0","","Firefox","138.0","Windows","6.2","null","pl","667ea46bc52ef1879aec2fbb","687a19d2168e237449fb8af4","6889d9d30a137dc47c009a59","0","667ea46bc52ef1879aec2fbb","0","2025-08-03T09:33:53.025Z","","","","MotivationQ","","","","","","","","","","","50","","","","","","","","","","","","","","","","","","","","","","","","","","",""
"","","","","ctl-task-cpt","58","624199","0.0-7.0-0.9","118","1","2025-08-03 09:24:13","36c45c0696341be0efffe67d72a12abb","37.47.203.238","Mozilla/5.0 (Windows NT 6.2; Win64; x64; rv:138.0) Gecko/20010101 Firefox/138.0","","Firefox","138.0","Windows","6.2","null","pl","667ea46bc52ef1879aec2fbb","687a19d2168e237449fb8af4","6889d9d30a137dc47c009a59","0","667ea46bc52ef1879aec2fbb","0","2025-08-03T09:34:39.696Z","","","","","","","","","","","","","","","","win-only","2","g1:SE,g2:NW","0.5","10","0","581340","585","5586","43668","1","4","8","6","2","-8","-8","0","0","0","1366","3000","-2470","[""left"",""up""]","{""num_key_presses"":9,""num_perfect"":5,""num_errors"":0,""num_randdir"":4,""num_randdir_good_moves"":1,""num_whilered"":0,""num_whileblue"":0,""num_blue"":4,""num_good_moves"":6}","[551.4285714285714,555.1285683768136,0,551.4285714285714,555.1285683768136,102,551.4285714285714,555.1285683768136,207,551.4285714285714,555.1285683768136,311,551.4285714285714,555.1285683768136,416,551.4285714285714,555.1285683768136,521,549.4285714285714,632.1285683768136,621,549.4285714285714,632.1285683768136,726,549.4285714285714,630.1285683768136,829,172.42857142857144,265.12856837681363,934,32.42857142857143,147.12856837681363,1035,21.42857142857143,135.12856837681363,1135,28.42857142857143,120.12856837681362,1241,53.42857142857143,108.12856837681362,1345,54.42857142857143,108.12856837681362,1445,105.42857142857143,137.12856837681363,1548,1305.4285714285713,429.12856837681363,1654,1834.4285714285713,438.12856837681363,1755,1834.4285714285713,438.12856837681363,1857,1834.4285714285713,438.12856837681363,1960,1834.4285714285713,374.12856837681363,2061,1834.4285714285713,371.12856837681363,2165,1834.4285714285713,371.12856837681363,2268,1834.4285714285713,371.12856837681363,2368,1834.4285714285713,371.12856837681363,2469,1834.4285714285713,371.12856837681363,2574,1834.4285714285713,371.12856837681363,2678,1834.4285714285713,371.12856837681363,2783,1834.4285714285713,371.12856837681363,2885,1834.4285714285713,371.12856837681363,2990,1834.4285714285713,371.12856837681363,3090,1834.4285714285713,371.12856837681363,3192,1834.4285714285713,371.12856837681363,3294,1834.4285714285713,371.12856837681363,3398,1834.4285714285713,371.12856837681363,3501,1834.4285714285713,371.12856837681363,3603,1834.4285714285713,371.12856837681363,3708,1834.4285714285713,371.12856837681363,3813,1834.4285714285713,371.12856837681363,3916,1834.4285714285713,371.12856837681363,4019,1834.4285714285713,371.12856837681363,4119,1834.4285714285713,371.12856837681363,4223,1834.4285714285713,371.12856837681363,4327,1834.4285714285713,371.12856837681363,4430,1834.4285714285713,371.12856837681363,4534,1834.4285714285713,371.12856837681363,4639,1834.4285714285713,371.12856837681363,4743,1834.4285714285713,371.12856837681363,4843,1834.4285714285713,371.12856837681363,4945]","[1562,1562,1000,0,562,""oops"",""left"",""right"",""bad_move"",4564,3002,2191.8,1562,810.2,""oops"",""left"",""up"",""good_move"",14238,9674,2244.8,11714,279.2,""smooth"",""up"",""up"",""good_move"",17420,3182,2832.4,14238,349.6,""smooth"",""up"",""up"",""good_move"",22294,4874,2315.2,19677,301.8,""smooth"",""left"",""left"",""good_move"",28715,6421,2160.7,26236,318.3,""smooth"",""left"",""left"",""good_move"",30718,2003,1628.6,28715,374.4,""smooth"",""left"",""left"",""good_move"",32722,2004,1719.2,30718,284.8,""oops"",""left"",""right"",""bad_move"",35499,2777,2459.9,32722,317.1,""oops"",""left"",""right"",""bad_move""]"
"1519","","<div style=""width:500px;"">
  <p>What determined the result of this run?</p>
  </div>","0","html-slider-response","59","625720","0.0-7.0-1.9","118","1","2025-08-03 09:24:13","36c45c0696341be0efffe67d72a12abb","37.47.203.238","Mozilla/5.0 (Windows NT 6.2; Win64; x64; rv:138.0) Gecko/20010101 Firefox/138.0","","Firefox","138.0","Windows","6.2","null","pl","667ea46bc52ef1879aec2fbb","687a19d2168e237449fb8af4","6889d9d30a137dc47c009a59","0","667ea46bc52ef1879aec2fbb","0","2025-08-03T09:34:41.217Z","","","","AttribQ","","","","","","","","","","","50","","","","","","","","","","","","","","","","","","","","","","","","","","",""
"1231","","<div style=""width:500px;"">
  <p>How much control did you have over the ball?</p>
  </div>","0","html-slider-response","60","626952","0.0-7.0-2.9","118","1","2025-08-03 09:24:13","36c45c0696341be0efffe67d72a12abb","37.47.203.238","Mozilla/5.0 (Windows NT 6.2; Win64; x64; rv:138.0) Gecko/20010101 Firefox/138.0","","Firefox","138.0","Windows","6.2","null","pl","667ea46bc52ef1879aec2fbb","687a19d2168e237449fb8af4","6889d9d30a137dc47c009a59","0","667ea46bc52ef1879aec2fbb","0","2025-08-03T09:34:42.449Z","","","","ControlQ","","","","","","","","","","","50","","","","","","","","","","","","","","","","","","","","","","","","","","",""
"1353","","<div style=""width:500px;"">
  <p>How would you describe your current emotional state?</p>
  </div>","100","html-slider-response","61","628307","0.0-7.0-3.9","118","1","2025-08-03 09:24:13","36c45c0696341be0efffe67d72a12abb","37.47.203.238","Mozilla/5.0 (Windows NT 6.2; Win64; x64; rv:138.0) Gecko/20010101 Firefox/138.0","","Firefox","138.0","Windows","6.2","null","pl","667ea46bc52ef1879aec2fbb","687a19d2168e237449fb8af4","6889d9d30a137dc47c009a59","0","667ea46bc52ef1879aec2fbb","0","2025-08-03T09:34:43.804Z","","","","StressQ","","","","","","","","","","","50","","","","","","","","","","","","","","","","","","","","","","","","","","",""
"1194","","<div style=""width:500px;"">
  <p>What best describes how you currently feel?</p>
  </div>","11","html-slider-response","62","629503","0.0-7.0-4.9","118","1","2025-08-03 09:24:13","36c45c0696341be0efffe67d72a12abb","37.47.203.238","Mozilla/5.0 (Windows NT 6.2; Win64; x64; rv:138.0) Gecko/20010101 Firefox/138.0","","Firefox","138.0","Windows","6.2","null","pl","667ea46bc52ef1879aec2fbb","687a19d2168e237449fb8af4","6889d9d30a137dc47c009a59","0","667ea46bc52ef1879aec2fbb","0","2025-08-03T09:34:45.000Z","","","","MotivationQ","","","","","","","","","","","50","","","","","","","","","","","","","","","","","","","","","","","","","","",""
"","","","","ctl-task-cpt","63","659784","0.0-7.0-0.10","118","1","2025-08-03 09:24:13","36c45c0696341be0efffe67d72a12abb","37.47.203.238","Mozilla/5.0 (Windows NT 6.2; Win64; x64; rv:138.0) Gecko/20010101 Firefox/138.0","","Firefox","138.0","Windows","6.2","null","pl","667ea46bc52ef1879aec2fbb","687a19d2168e237449fb8af4","6889d9d30a137dc47c009a59","0","667ea46bc52ef1879aec2fbb","0","2025-08-03T09:35:15.281Z","","","","","","","","","","","","","","","","win-only","3","g1:SW,g2:NE","0.6","11","0","633314","1251","6252","27278","1","4","4","6","2","4","4","4","0","0.030303030303030304","1469","3000","1465","[""up"",""right""]","{""num_key_presses"":6,""num_perfect"":5,""num_errors"":0,""num_randdir"":1,""num_randdir_good_moves"":1,""num_whilered"":0,""num_whileblue"":0,""num_blue"":1,""num_good_moves"":6}","[558.4285714285714,559.1285683768136,0,558.4285714285714,559.1285683768136,101,558.4285714285714,559.1285683768136,203,558.4285714285714,559.1285683768136,308,558.4285714285714,560.1285683768136,411,536.4285714285714,614.1285683768136,513,536.4285714285714,614.1285683768136,618,536.4285714285714,614.1285683768136,719,757.4285714285714,214.12856837681363,825,934.4285714285714,-26.871431623186382,926,923.4285714285714,-17.871431623186382,1026,921.4285714285714,48.12856837681362,1127,958.4285714285714,80.12856837681362,1232,972.4285714285714,75.12856837681362,1333,972.4285714285714,75.12856837681362,1433,972.4285714285714,75.12856837681362,1533,1050.4285714285713,107.12856837681362,1634,1834.4285714285713,183.12856837681363,1734,1834.4285714285713,193.12856837681363,1835,1834.4285714285713,193.12856837681363,1936,1834.4285714285713,186.12856837681363,2038,1834.4285714285713,191.12856837681363,2139,1834.4285714285713,191.12856837681363,2240,1834.4285714285713,191.12856837681363,2344,1834.4285714285713,191.12856837681363,2448,1834.4285714285713,191.12856837681363,2548,1834.4285714285713,191.12856837681363,2652,1834.4285714285713,191.12856837681363,2756,1834.4285714285713,191.12856837681363,2856,1834.4285714285713,191.12856837681363,2961,1834.4285714285713,191.12856837681363,3062,1834.4285714285713,191.12856837681363,3162,1834.4285714285713,191.12856837681363,3262,1834.4285714285713,191.12856837681363,3363,1834.4285714285713,191.12856837681363,3468,1834.4285714285713,191.12856837681363,3571,1834.4285714285713,191.12856837681363,3672,1834.4285714285713,191.12856837681363,3772,1834.4285714285713,191.12856837681363,3877,1834.4285714285713,191.12856837681363,3980,1834.4285714285713,191.12856837681363,4085,1834.4285714285713,191.12856837681363,4185,1834.4285714285713,191.12856837681363,4285,1834.4285714285713,191.12856837681363,4390,1834.4285714285713,191.12856837681363,4491,1834.4285714285713,191.12856837681363,4595,1834.4285714285713,191.12856837681363,4696,1834.4285714285713,191.12856837681363,4796,1834.4285714285713,191.12856837681363,4901]","[1489,1489,1000,0,489,""oops"",""right"",""up"",""good_move"",4553,3064,2711.1,1489,352.9,""smooth"",""right"",""right"",""good_move"",7245,2692,2377.8,4553,314.2,""smooth"",""right"",""right"",""good_move"",10354,3109,2845.4,7245,263.6,""smooth"",""up"",""up"",""good_move"",13342,2988,2712.7,10354,275.3,""smooth"",""up"",""up"",""good_move"",20917,7575,3674.6,17023,219.4,""smooth"",""right"",""right"",""good_move""]"
"1823","","<div style=""width:500px;"">
  <p>What determined the result of this run?</p>
  </div>","72","html-slider-response","64","661607","0.0-7.0-1.10","118","1","2025-08-03 09:24:13","36c45c0696341be0efffe67d72a12abb","37.47.203.238","Mozilla/5.0 (Windows NT 6.2; Win64; x64; rv:138.0) Gecko/20010101 Firefox/138.0","","Firefox","138.0","Windows","6.2","null","pl","667ea46bc52ef1879aec2fbb","687a19d2168e237449fb8af4","6889d9d30a137dc47c009a59","0","667ea46bc52ef1879aec2fbb","0","2025-08-03T09:35:17.104Z","","","","AttribQ","","","","","","","","","","","50","","","","","","","","","","","","","","","","","","","","","","","","","","",""
"2887","","<div style=""width:500px;"">
  <p>How much control did you have over the ball?</p>
  </div>","84","html-slider-response","65","664495","0.0-7.0-2.10","118","1","2025-08-03 09:24:13","36c45c0696341be0efffe67d72a12abb","37.47.203.238","Mozilla/5.0 (Windows NT 6.2; Win64; x64; rv:138.0) Gecko/20010101 Firefox/138.0","","Firefox","138.0","Windows","6.2","null","pl","667ea46bc52ef1879aec2fbb","687a19d2168e237449fb8af4","6889d9d30a137dc47c009a59","0","667ea46bc52ef1879aec2fbb","0","2025-08-03T09:35:19.992Z","","","","ControlQ","","","","","","","","","","","50","","","","","","","","","","","","","","","","","","","","","","","","","","",""
"2825","","<div style=""width:500px;"">
  <p>How would you describe your current emotional state?</p>
  </div>","66","html-slider-response","66","667321","0.0-7.0-3.10","118","1","2025-08-03 09:24:13","36c45c0696341be0efffe67d72a12abb","37.47.203.238","Mozilla/5.0 (Windows NT 6.2; Win64; x64; rv:138.0) Gecko/20010101 Firefox/138.0","","Firefox","138.0","Windows","6.2","null","pl","667ea46bc52ef1879aec2fbb","687a19d2168e237449fb8af4","6889d9d30a137dc47c009a59","0","667ea46bc52ef1879aec2fbb","0","2025-08-03T09:35:22.818Z","","","","StressQ","","","","","","","","","","","50","","","","","","","","","","","","","","","","","","","","","","","","","","",""
"1711","","<div style=""width:500px;"">
  <p>What best describes how you currently feel?</p>
  </div>","32","html-slider-response","67","669033","0.0-7.0-4.10","118","1","2025-08-03 09:24:13","36c45c0696341be0efffe67d72a12abb","37.47.203.238","Mozilla/5.0 (Windows NT 6.2; Win64; x64; rv:138.0) Gecko/20010101 Firefox/138.0","","Firefox","138.0","Windows","6.2","null","pl","667ea46bc52ef1879aec2fbb","687a19d2168e237449fb8af4","6889d9d30a137dc47c009a59","0","667ea46bc52ef1879aec2fbb","0","2025-08-03T09:35:24.530Z","","","","MotivationQ","","","","","","","","","","","50","","","","","","","","","","","","","","","","","","","","","","","","","","",""
"","","","","ctl-task-cpt","68","713318","0.0-7.0-0.11","118","1","2025-08-03 09:24:13","36c45c0696341be0efffe67d72a12abb","37.47.203.238","Mozilla/5.0 (Windows NT 6.2; Win64; x64; rv:138.0) Gecko/20010101 Firefox/138.0","","Firefox","138.0","Windows","6.2","null","pl","667ea46bc52ef1879aec2fbb","687a19d2168e237449fb8af4","6889d9d30a137dc47c009a59","0","667ea46bc52ef1879aec2fbb","0","2025-08-03T09:36:08.815Z","","","","","","","","","","","","","","","","win-only","3","g1:SW,g2:NE","0.7","12","0","672844","787","5792","41282","1","4","8","6","2","-8","-9","0","4","0","1324","3000","-2395","[""up"",""right""]","{""num_key_presses"":12,""num_perfect"":7,""num_errors"":1,""num_randdir"":4,""num_randdir_good_moves"":1,""num_whilered"":0,""num_whileblue"":1,""num_blue"":2,""num_good_moves"":7}","[552.4285714285714,563.1285683768136,0,552.4285714285714,563.1285683768136,104,553.4285714285714,565.1285683768136,209,729.4285714285714,609.1285683768136,311,1241.4285714285713,626.1285683768136,415,1241.4285714285713,626.1285683768136,516,1241.4285714285713,626.1285683768136,616,1241.4285714285713,626.1285683768136,717,1766.4285714285713,700.1285683768136,820,1834.4285714285713,549.1285683768136,923,1379.4285714285713,365.12856837681363,1026,1071.4285714285713,196.12856837681363,1129,1052.4285714285713,182.12856837681363,1229,1049.4285714285713,158.12856837681363,1333,1049.4285714285713,157.12856837681363,1436,1578.4285714285713,460.12856837681363,1541,1834.4285714285713,433.12856837681363,1645,1834.4285714285713,424.12856837681363,1745,1834.4285714285713,424.12856837681363,1849,1834.4285714285713,424.12856837681363,1952,1834.4285714285713,424.12856837681363,2053,1834.4285714285713,424.12856837681363,2154,1834.4285714285713,424.12856837681363,2254,1834.4285714285713,424.12856837681363,2358,1834.4285714285713,424.12856837681363,2461,1834.4285714285713,424.12856837681363,2562,1834.4285714285713,424.12856837681363,2668,1834.4285714285713,424.12856837681363,2773,1834.4285714285713,424.12856837681363,2878,1834.4285714285713,424.12856837681363,2978,1834.4285714285713,424.12856837681363,3078,1834.4285714285713,424.12856837681363,3179,1834.4285714285713,424.12856837681363,3285,1834.4285714285713,424.12856837681363,3390,1834.4285714285713,424.12856837681363,3492,1834.4285714285713,424.12856837681363,3598,1834.4285714285713,424.12856837681363,3703,1834.4285714285713,424.12856837681363,3805,1834.4285714285713,424.12856837681363,3910,1834.4285714285713,424.12856837681363,4016,1834.4285714285713,424.12856837681363,4118,1834.4285714285713,424.12856837681363,4218,1834.4285714285713,424.12856837681363,4321,1834.4285714285713,424.12856837681363,4422,1834.4285714285713,424.12856837681363,4523,1834.4285714285713,424.12856837681363,4624,1834.4285714285713,424.12856837681363,4731,1834.4285714285713,424.12856837681363,4832,1834.4285714285713,424.12856837681363,4935]","[4292,4292,1982.4,2006,303.6,""smooth"",""right"",""right"",""good_move"",6920,2628,2279.5,4292,348.5,""smooth"",""right"",""right"",""good_move"",9734,2814,2510.8,6920,303.2,""smooth"",""up"",""up"",""good_move"",12200,2466,2177.6,9734,288.4,""smooth"",""up"",""up"",""good_move"",14342,2142,1898,12200,244,""while_blue"",""up"",""left"",""bad_move"",17180,2838,2495.8,14342,342.2,""smooth"",""left"",""left"",""bad_move"",19307,2127,1656.4,17180,470.6,""smooth"",""up"",""up"",""good_move"",21935,2628,2329.6,19307,298.4,""smooth"",""right"",""right"",""good_move"",24795,2860,2521.6,21935,338.4,""oops"",""right"",""left"",""bad_move"",27353,2558,2218.3,24795,339.7,""oops"",""right"",""right"",""good_move"",29499,2146,1853.5,27353,292.5,""oops"",""right"",""left"",""bad_move"",32652,3153,2936.3,29499,216.7,""oops"",""right"",""down"",""bad_move""]"
"2884","","<div style=""width:500px;"">
  <p>What determined the result of this run?</p>
  </div>","13","html-slider-response","69","716205","0.0-7.0-1.11","118","1","2025-08-03 09:24:13","36c45c0696341be0efffe67d72a12abb","37.47.203.238","Mozilla/5.0 (Windows NT 6.2; Win64; x64; rv:138.0) Gecko/20010101 Firefox/138.0","","Firefox","138.0","Windows","6.2","null","pl","667ea46bc52ef1879aec2fbb","687a19d2168e237449fb8af4","6889d9d30a137dc47c009a59","0","667ea46bc52ef1879aec2fbb","0","2025-08-03T09:36:11.702Z","","","","AttribQ","","","","","","","","","","","50","","","","","","","","","","","","","","","","","","","","","","","","","","",""
"2223","","<div style=""width:500px;"">
  <p>How much control did you have over the ball?</p>
  </div>","0","html-slider-response","70","718429","0.0-7.0-2.11","118","1","2025-08-03 09:24:13","36c45c0696341be0efffe67d72a12abb","37.47.203.238","Mozilla/5.0 (Windows NT 6.2; Win64; x64; rv:138.0) Gecko/20010101 Firefox/138.0","","Firefox","138.0","Windows","6.2","null","pl","667ea46bc52ef1879aec2fbb","687a19d2168e237449fb8af4","6889d9d30a137dc47c009a59","0","667ea46bc52ef1879aec2fbb","0","2025-08-03T09:36:13.926Z","","","","ControlQ","","","","","","","","","","","50","","","","","","","","","","","","","","","","","","","","","","","","","","",""
"1962","","<div style=""width:500px;"">
  <p>How would you describe your current emotional state?</p>
  </div>","100","html-slider-response","71","720392","0.0-7.0-3.11","118","1","2025-08-03 09:24:13","36c45c0696341be0efffe67d72a12abb","37.47.203.238","Mozilla/5.0 (Windows NT 6.2; Win64; x64; rv:138.0) Gecko/20010101 Firefox/138.0","","Firefox","138.0","Windows","6.2","null","pl","667ea46bc52ef1879aec2fbb","687a19d2168e237449fb8af4","6889d9d30a137dc47c009a59","0","667ea46bc52ef1879aec2fbb","0","2025-08-03T09:36:15.889Z","","","","StressQ","","","","","","","","","","","50","","","","","","","","","","","","","","","","","","","","","","","","","","",""
"1222","","<div style=""width:500px;"">
  <p>What best describes how you currently feel?</p>
  </div>","0","html-slider-response","72","721615","0.0-7.0-4.11","118","1","2025-08-03 09:24:13","36c45c0696341be0efffe67d72a12abb","37.47.203.238","Mozilla/5.0 (Windows NT 6.2; Win64; x64; rv:138.0) Gecko/20010101 Firefox/138.0","","Firefox","138.0","Windows","6.2","null","pl","667ea46bc52ef1879aec2fbb","687a19d2168e237449fb8af4","6889d9d30a137dc47c009a59","0","667ea46bc52ef1879aec2fbb","0","2025-08-03T09:36:17.112Z","","","","MotivationQ","","","","","","","","","","","50","","","","","","","","","","","","","","","","","","","","","","","","","","",""
"","","","","ctl-task-cpt","73","750590","0.0-7.0-0.12","118","1","2025-08-03 09:24:13","36c45c0696341be0efffe67d72a12abb","37.47.203.238","Mozilla/5.0 (Windows NT 6.2; Win64; x64; rv:138.0) Gecko/20010101 Firefox/138.0","","Firefox","138.0","Windows","6.2","null","pl","667ea46bc52ef1879aec2fbb","687a19d2168e237449fb8af4","6889d9d30a137dc47c009a59","0","667ea46bc52ef1879aec2fbb","0","2025-08-03T09:36:46.087Z","","","","","","","","","","","","","","","","win-only","1","g1:NE,g2:SW","0.8","13","0","725426","571","5572","25973","1","4","8","6","2","8","8","8","0","0.06060606060606061","1270","3000","1410","[""down"",""left""]","{""num_key_presses"":6,""num_perfect"":6,""num_errors"":0,""num_randdir"":0,""num_randdir_good_moves"":0,""num_whilered"":0,""num_whileblue"":0,""num_blue"":1,""num_good_moves"":6}","[555.4285714285714,543.1285683768136,0,555.4285714285714,543.1285683768136,106,710.4285714285714,580.1285683768136,208,1834.4285714285713,462.12856837681363,309,1834.4285714285713,452.12856837681363,411,1834.4285714285713,452.12856837681363,518,1834.4285714285713,442.12856837681363,620,1834.4285714285713,458.12856837681363,726,927.4285714285714,644.1285683768136,832,243.42857142857144,814.1285683768136,932,232.42857142857144,825.1285683768136,1036,155.42857142857144,907.1285683768136,1142,100.42857142857143,985.1285683768136,1246,99.42857142857143,986.1285683768136,1349,1016.4285714285714,983.1285683768136,1452,1834.4285714285713,500.12856837681363,1556,1834.4285714285713,500.12856837681363,1660,1834.4285714285713,500.12856837681363,1766,1834.4285714285713,499.12856837681363,1867,1834.4285714285713,499.12856837681363,1968,1834.4285714285713,499.12856837681363,2073,1834.4285714285713,499.12856837681363,2176,1834.4285714285713,499.12856837681363,2280,1834.4285714285713,499.12856837681363,2381,1834.4285714285713,499.12856837681363,2482,1834.4285714285713,499.12856837681363,2582,1834.4285714285713,499.12856837681363,2686,1834.4285714285713,499.12856837681363,2788,1834.4285714285713,499.12856837681363,2889,1834.4285714285713,499.12856837681363,2992,1834.4285714285713,499.12856837681363,3097,1834.4285714285713,499.12856837681363,3200,1834.4285714285713,499.12856837681363,3302,1834.4285714285713,499.12856837681363,3406,1834.4285714285713,499.12856837681363,3508,1834.4285714285713,499.12856837681363,3612,1834.4285714285713,499.12856837681363,3713,1834.4285714285713,499.12856837681363,3814,1834.4285714285713,499.12856837681363,3917,1834.4285714285713,499.12856837681363,4022,1834.4285714285713,499.12856837681363,4126,1834.4285714285713,499.12856837681363,4228,1834.4285714285713,499.12856837681363,4328,1834.4285714285713,499.12856837681363,4430,1834.4285714285713,499.12856837681363,4531,1834.4285714285713,499.12856837681363,4632,1834.4285714285713,499.12856837681363,4735,1834.4285714285713,499.12856837681363,4839,1834.4285714285713,499.12856837681363,4943]","[1437,1437,1000,0,437,""smooth"",""down"",""down"",""good_move"",4867,3430,3121.3,1437,308.7,""smooth"",""down"",""down"",""good_move"",11315,6448,2199.9,8766,349.1,""smooth"",""down"",""down"",""good_move"",14560,3245,2921.2,11315,323.8,""smooth"",""left"",""left"",""good_move"",17528,2968,2589.3,14560,378.7,""smooth"",""left"",""left"",""good_move"",20284,2756,2469,17528,287,""smooth"",""left"",""left"",""good_move""]"
"1153","","<div style=""width:500px;"">
  <p>What determined the result of this run?</p>
  </div>","72","html-slider-response","74","751743","0.0-7.0-1.12","118","1","2025-08-03 09:24:13","36c45c0696341be0efffe67d72a12abb","37.47.203.238","Mozilla/5.0 (Windows NT 6.2; Win64; x64; rv:138.0) Gecko/20010101 Firefox/138.0","","Firefox","138.0","Windows","6.2","null","pl","667ea46bc52ef1879aec2fbb","687a19d2168e237449fb8af4","6889d9d30a137dc47c009a59","0","667ea46bc52ef1879aec2fbb","0","2025-08-03T09:36:47.240Z","","","","AttribQ","","","","","","","","","","","50","","","","","","","","","","","","","","","","","","","","","","","","","","",""
"1671","","<div style=""width:500px;"">
  <p>How much control did you have over the ball?</p>
  </div>","100","html-slider-response","75","753415","0.0-7.0-2.12","118","1","2025-08-03 09:24:13","36c45c0696341be0efffe67d72a12abb","37.47.203.238","Mozilla/5.0 (Windows NT 6.2; Win64; x64; rv:138.0) Gecko/20010101 Firefox/138.0","","Firefox","138.0","Windows","6.2","null","pl","667ea46bc52ef1879aec2fbb","687a19d2168e237449fb8af4","6889d9d30a137dc47c009a59","0","667ea46bc52ef1879aec2fbb","0","2025-08-03T09:36:48.912Z","","","","ControlQ","","","","","","","","","","","50","","","","","","","","","","","","","","","","","","","","","","","","","","",""
"2256","","<div style=""width:500px;"">
  <p>How would you describe your current emotional state?</p>
  </div>","100","html-slider-response","76","755671","0.0-7.0-3.12","118","1","2025-08-03 09:24:13","36c45c0696341be0efffe67d72a12abb","37.47.203.238","Mozilla/5.0 (Windows NT 6.2; Win64; x64; rv:138.0) Gecko/20010101 Firefox/138.0","","Firefox","138.0","Windows","6.2","null","pl","667ea46bc52ef1879aec2fbb","687a19d2168e237449fb8af4","6889d9d30a137dc47c009a59","0","667ea46bc52ef1879aec2fbb","0","2025-08-03T09:36:51.168Z","","","","StressQ","","","","","","","","","","","50","","","","","","","","","","","","","","","","","","","","","","","","","","",""
"1218","","<div style=""width:500px;"">
  <p>What best describes how you currently feel?</p>
  </div>","0","html-slider-response","77","756889","0.0-7.0-4.12","118","1","2025-08-03 09:24:13","36c45c0696341be0efffe67d72a12abb","37.47.203.238","Mozilla/5.0 (Windows NT 6.2; Win64; x64; rv:138.0) Gecko/20010101 Firefox/138.0","","Firefox","138.0","Windows","6.2","null","pl","667ea46bc52ef1879aec2fbb","687a19d2168e237449fb8af4","6889d9d30a137dc47c009a59","0","667ea46bc52ef1879aec2fbb","0","2025-08-03T09:36:52.386Z","","","","MotivationQ","","","","","","","","","","","50","","","","","","","","","","","","","","","","","","","","","","","","","","",""
"","","","","ctl-task-cpt","78","784770","0.0-7.0-0.13","118","1","2025-08-03 09:24:13","36c45c0696341be0efffe67d72a12abb","37.47.203.238","Mozilla/5.0 (Windows NT 6.2; Win64; x64; rv:138.0) Gecko/20010101 Firefox/138.0","","Firefox","138.0","Windows","6.2","null","pl","667ea46bc52ef1879aec2fbb","687a19d2168e237449fb8af4","6889d9d30a137dc47c009a59","0","667ea46bc52ef1879aec2fbb","0","2025-08-03T09:37:20.267Z","","","","","","","","","","","","","","","","win-only","0","g1:NW,g2:SE","0.9","14","0","760701","334","5339","24879","1","4","4","6","2","4","4","12","8","0.09090909090909091","1576","3000","1300","[""down"",""right""]","{""num_key_presses"":8,""num_perfect"":7,""num_errors"":0,""num_randdir"":1,""num_randdir_good_moves"":0,""num_whilered"":0,""num_whileblue"":0,""num_blue"":0,""num_good_moves"":7}","[547.4285714285714,560.1285683768136,0,547.4285714285714,560.1285683768136,102,609.4285714285714,604.1285683768136,207,1650.4285714285713,709.1285683768136,312,1834.4285714285713,649.1285683768136,413,1834.4285714285713,649.1285683768136,515,1834.4285714285713,641.1285683768136,621,1834.4285714285713,620.1285683768136,724,1834.4285714285713,620.1285683768136,829,1834.4285714285713,620.1285683768136,935,1834.4285714285713,620.1285683768136,1041,1741.4285714285713,659.1285683768136,1143,1157.4285714285713,979.1285683768136,1246,1098.4285714285713,1001.1285683768136,1349,1041.4285714285713,1099.1285683768135,1451,973.4285714285714,1051.1285683768135,1555,976.4285714285714,1049.1285683768135,1660,999.4285714285714,1018.1285683768136,1766,1020.4285714285714,885.1285683768136,1869,1020.4285714285714,885.1285683768136,1978,1026.4285714285713,854.1285683768136,2081,1027.4285714285713,847.1285683768136,2185,1027.4285714285713,868.1285683768136,2288,1027.4285714285713,852.1285683768136,2390,1027.4285714285713,852.1285683768136,2492,1244.4285714285713,882.1285683768136,2596,1834.4285714285713,612.1285683768136,2700,1834.4285714285713,612.1285683768136,2802,1834.4285714285713,597.1285683768136,2906,1834.4285714285713,589.1285683768136,3012,1834.4285714285713,589.1285683768136,3116,1834.4285714285713,589.1285683768136,3216,1834.4285714285713,589.1285683768136,3322,1834.4285714285713,589.1285683768136,3425,1834.4285714285713,589.1285683768136,3530,1834.4285714285713,589.1285683768136,3634,1834.4285714285713,589.1285683768136,3738,1834.4285714285713,589.1285683768136,3838,1834.4285714285713,589.1285683768136,3943,1834.4285714285713,589.1285683768136,4043,1834.4285714285713,589.1285683768136,4146,1834.4285714285713,589.1285683768136,4247,1834.4285714285713,589.1285683768136,4349,1834.4285714285713,589.1285683768136,4455,1834.4285714285713,589.1285683768136,4555,1834.4285714285713,589.1285683768136,4660,1834.4285714285713,589.1285683768136,4766,1834.4285714285713,589.1285683768136,4866,1834.4285714285713,589.1285683768136,4972]","[1271,1271,1000,0,271,""oops"",""down"",""left"",""bad_move"",4138,2867,2502.2,1271,364.8,""smooth"",""down"",""down"",""good_move"",6780,2642,2336,4138,306,""smooth"",""right"",""right"",""good_move"",8971,2191,1898.6,6780,292.4,""smooth"",""down"",""down"",""good_move"",11305,2334,2074.7,8971,259.3,""smooth"",""down"",""down"",""good_move"",14286,2981,2700.6,11305,280.4,""smooth"",""right"",""right"",""good_move"",17161,2875,2558.3,14286,316.7,""smooth"",""right"",""right"",""good_move"",19419,2258,1996.8,17161,261.2,""smooth"",""right"",""right"",""good_move""]"
"1487","","<div style=""width:500px;"">
  <p>What determined the result of this run?</p>
  </div>","75","html-slider-response","79","786259","0.0-7.0-1.13","118","1","2025-08-03 09:24:13","36c45c0696341be0efffe67d72a12abb","37.47.203.238","Mozilla/5.0 (Windows NT 6.2; Win64; x64; rv:138.0) Gecko/20010101 Firefox/138.0","","Firefox","138.0","Windows","6.2","null","pl","667ea46bc52ef1879aec2fbb","687a19d2168e237449fb8af4","6889d9d30a137dc47c009a59","0","667ea46bc52ef1879aec2fbb","0","2025-08-03T09:37:21.756Z","","","","AttribQ","","","","","","","","","","","50","","","","","","","","","","","","","","","","","","","","","","","","","","",""
"2746","","<div style=""width:500px;"">
  <p>How much control did you have over the ball?</p>
  </div>","84","html-slider-response","80","789007","0.0-7.0-2.13","118","1","2025-08-03 09:24:13","36c45c0696341be0efffe67d72a12abb","37.47.203.238","Mozilla/5.0 (Windows NT 6.2; Win64; x64; rv:138.0) Gecko/20010101 Firefox/138.0","","Firefox","138.0","Windows","6.2","null","pl","667ea46bc52ef1879aec2fbb","687a19d2168e237449fb8af4","6889d9d30a137dc47c009a59","0","667ea46bc52ef1879aec2fbb","0","2025-08-03T09:37:24.504Z","","","","ControlQ","","","","","","","","","","","50","","","","","","","","","","","","","","","","","","","","","","","","","","",""
"2438","","<div style=""width:500px;"">
  <p>How would you describe your current emotional state?</p>
  </div>","72","html-slider-response","81","791445","0.0-7.0-3.13","118","1","2025-08-03 09:24:13","36c45c0696341be0efffe67d72a12abb","37.47.203.238","Mozilla/5.0 (Windows NT 6.2; Win64; x64; rv:138.0) Gecko/20010101 Firefox/138.0","","Firefox","138.0","Windows","6.2","null","pl","667ea46bc52ef1879aec2fbb","687a19d2168e237449fb8af4","6889d9d30a137dc47c009a59","0","667ea46bc52ef1879aec2fbb","0","2025-08-03T09:37:26.942Z","","","","StressQ","","","","","","","","","","","50","","","","","","","","","","","","","","","","","","","","","","","","","","",""
"1766","","<div style=""width:500px;"">
  <p>What best describes how you currently feel?</p>
  </div>","33","html-slider-response","82","793212","0.0-7.0-4.13","118","1","2025-08-03 09:24:13","36c45c0696341be0efffe67d72a12abb","37.47.203.238","Mozilla/5.0 (Windows NT 6.2; Win64; x64; rv:138.0) Gecko/20010101 Firefox/138.0","","Firefox","138.0","Windows","6.2","null","pl","667ea46bc52ef1879aec2fbb","687a19d2168e237449fb8af4","6889d9d30a137dc47c009a59","0","667ea46bc52ef1879aec2fbb","0","2025-08-03T09:37:28.709Z","","","","MotivationQ","","","","","","","","","","","50","","","","","","","","","","","","","","","","","","","","","","","","","","",""
