"rt","response_timestamp","stimulus","response","trial_type","trial_index","time_elapsed","internal_node_id","run_id","condition","recorded_at","source_code_version","ip","user_agent","device","browser","browser_version","platform","platform_version","referer","accept_language","PROLIFIC_PID","STUDY_ID","SESSION_ID","BATCH","prolific_id","batch","realtime","success","question_order","question_id","eventType","responses","item_order","radio_event_ids","radio_event_times","key_event_times","mouse_event_times","straightlining","zigzagging","honeypot","view_history","slider_start","which_type","canvas_config","goals_layout","control_level","trial_number","tutorial_trial_number","trial_start_time","phase1_start_time","phase2_start_time","phase3_start_time","goal_1_value","goal_1_distance","goal_2_value","goal_2_distance","goal_selected","outcome","outcome_total","participant_final_score","participant_initial_score","participant_final_score_prop","goal_choice_rt","allocated_time","allocated_time_remaining","goal_direction","counts","mouse_movements","key_presses"
"10192","1753864746623","<p style='font-size:40px;line-height:1.25'><strong>Welcome to the experiment!</strong></p><p style='font-size:1.1em;line-height:1.25'>Thank you for participanting in our experiment again! You will be asked to play the Dysfunctional Ball Game again. We will briefly recap the rules before we start.</p><p style='font-size:1.1em;line-height:1.25'>Press <strong>Next</strong> to continue.</p>","0","custom-html-button-response","0","10196","0.0-0.0","16","1","2025-07-30 08:38:51","36c45c0696341be0efffe67d72a12abb","105.4.2.135","Mozilla/5.0 (Windows NT 10.0; Win64; x64) AppleWebKit/537.36 (KHTML, like Gecko) Chrome/138.0.0.0 Safari/537.36","WebKit","Chrome","138.0.0.0","Windows","10.0","https://app.prolific.com/","en-GB,en-US;q=0.9,en;q=0.8","66826c452acc243fa7b92f51","687a19d2168e237449fb8af4","6889d9efd98404e6a9477fb2","0","66826c452acc243fa7b92f51","0","2025-07-30T08:39:06.625Z","","","","","","","","","","","","","","","","","","","","","","","","","","","","","","","","","","","","","","","","","",""
"12497","","","","fullscreen","1","23716","0.0-1.0","16","1","2025-07-30 08:38:51","36c45c0696341be0efffe67d72a12abb","105.4.2.135","Mozilla/5.0 (Windows NT 10.0; Win64; x64) AppleWebKit/537.36 (KHTML, like Gecko) Chrome/138.0.0.0 Safari/537.36","WebKit","Chrome","138.0.0.0","Windows","10.0","https://app.prolific.com/","en-GB,en-US;q=0.9,en;q=0.8","66826c452acc243fa7b92f51","687a19d2168e237449fb8af4","6889d9efd98404e6a9477fb2","0","66826c452acc243fa7b92f51","0","","true","","","","","","","","","","","","","","","","","","","","","","","","","","","","","","","","","","","","","","","","",""
"7722","1753864767869"," <p style='font-size:1.1em;line-height:1.25'>Thank you for closing all other tabs.</p><p style='font-size:1.1em;line-height:1.25'>We will now invite you to fill in some questionnaires, before starting the game.<br>This will take about 5 minutes.<br></p><p style='font-size:1.1em;line-height:1.25'>Press the <strong>Next</strong> button to continue.</p>","0","custom-html-button-response","2","31440","0.0-2.0","16","1","2025-07-30 08:38:51","36c45c0696341be0efffe67d72a12abb","105.4.2.135","Mozilla/5.0 (Windows NT 10.0; Win64; x64) AppleWebKit/537.36 (KHTML, like Gecko) Chrome/138.0.0.0 Safari/537.36","WebKit","Chrome","138.0.0.0","Windows","10.0","https://app.prolific.com/","en-GB,en-US;q=0.9,en;q=0.8","66826c452acc243fa7b92f51","687a19d2168e237449fb8af4","6889d9efd98404e6a9477fb2","0","66826c452acc243fa7b92f51","0","2025-07-30T08:39:27.869Z","","","","","","","","","","","","","","","","","","","","","","","","","","","","","","","","","","","","","","","","","",""
"6730","","","{""assigned_sex"":""male""}","survey-multi-choice","3","38172","0.0-3.0-0.0","16","1","2025-07-30 08:38:51","36c45c0696341be0efffe67d72a12abb","105.4.2.135","Mozilla/5.0 (Windows NT 10.0; Win64; x64) AppleWebKit/537.36 (KHTML, like Gecko) Chrome/138.0.0.0 Safari/537.36","WebKit","Chrome","138.0.0.0","Windows","10.0","https://app.prolific.com/","en-GB,en-US;q=0.9,en;q=0.8","66826c452acc243fa7b92f51","687a19d2168e237449fb8af4","6889d9efd98404e6a9477fb2","0","66826c452acc243fa7b92f51","0","","","[0]","0","demographics","","","","","","","","","","","","","","","","","","","","","","","","","","","","","","","","","","","","","",""
"10666","1753864785268","<p style='font-size:1.1em;line-height:1.25'>In the following, we will perform a baseline assessment. This means that we will ask you a few questions relating to your experiences over the past month.<br></p><p style='font-size:1.1em;line-height:1.25'>Press the <strong>Next</strong> button to continue.</p>","0","custom-html-button-response","4","48839","0.0-4.0-0.0","16","1","2025-07-30 08:38:51","36c45c0696341be0efffe67d72a12abb","105.4.2.135","Mozilla/5.0 (Windows NT 10.0; Win64; x64) AppleWebKit/537.36 (KHTML, like Gecko) Chrome/138.0.0.0 Safari/537.36","WebKit","Chrome","138.0.0.0","Windows","10.0","https://app.prolific.com/","en-GB,en-US;q=0.9,en;q=0.8","66826c452acc243fa7b92f51","687a19d2168e237449fb8af4","6889d9efd98404e6a9477fb2","0","66826c452acc243fa7b92f51","0","2025-07-30T08:39:45.269Z","","","","","","","","","","","","","","","","","","","","","","","","","","","","","","","","","","","","","","","","","",""
"114398","","","","survey-template","5","163248","0.0-4.0-1.0","16","1","2025-07-30 08:38:51","36c45c0696341be0efffe67d72a12abb","105.4.2.135","Mozilla/5.0 (Windows NT 10.0; Win64; x64) AppleWebKit/537.36 (KHTML, like Gecko) Chrome/138.0.0.0 Safari/537.36","WebKit","Chrome","138.0.0.0","Windows","10.0","https://app.prolific.com/","en-GB,en-US;q=0.9,en;q=0.8","66826c452acc243fa7b92f51","687a19d2168e237449fb8af4","6889d9efd98404e6a9477fb2","0","66826c452acc243fa7b92f51","0","2025-07-30T08:41:39.677Z","","","","pss","{""Q01"":""2"",""Q02"":""3"",""Q03"":""4"",""Q04"":""1"",""Q05"":""0"",""Q06"":""2"",""Q07"":""2"",""Q08"":""1"",""Q09"":""2"",""Q10"":""2""}","[0,1,2,3,4,5,6,7,8,9]","[""Q01"",""Q02"",""Q03"",""Q04"",""Q05"",""Q06"",""Q07"",""Q10"",""Q08"",""Q09""]","[29240,34801,40001.30000000447,50993.70000000298,56785.10000000149,65200.5,73417.39999999851,99296.80000000447,107688.60000000149,113029.30000000447]","[]","[13.300000004470348,7720.70000000298,29240,34801,40001.30000000447,50993.70000000298,56785.10000000149,65200.5,71673.20000000298,73417.39999999851,90436.60000000149,99296.80000000447,102384.30000000447,107688.60000000149,113029.30000000447,114394.70000000298]","0.5","0.6666666666666666","0","","","","","","","","","","","","","","","","","","","","","","","","","","","","",""
"6221","1753864905899","<p style='font-size:1.1em;line-height:1.25'>Thank you for your answers! Now we will ask you a few more questions relating to your feelings in the last 24 hours.<br></p><p style='font-size:1.1em;line-height:1.25'>Press the <strong>Next</strong> button to continue.</p>","0","custom-html-button-response","6","169471","0.0-4.0-2.0","16","1","2025-07-30 08:38:51","36c45c0696341be0efffe67d72a12abb","105.4.2.135","Mozilla/5.0 (Windows NT 10.0; Win64; x64) AppleWebKit/537.36 (KHTML, like Gecko) Chrome/138.0.0.0 Safari/537.36","WebKit","Chrome","138.0.0.0","Windows","10.0","https://app.prolific.com/","en-GB,en-US;q=0.9,en;q=0.8","66826c452acc243fa7b92f51","687a19d2168e237449fb8af4","6889d9efd98404e6a9477fb2","0","66826c452acc243fa7b92f51","0","2025-07-30T08:41:45.900Z","","","","","","","","","","","","","","","","","","","","","","","","","","","","","","","","","","","","","","","","","",""
"109256.60000000149","","","","survey-template","7","278733","0.0-4.0-3.0","16","1","2025-07-30 08:38:51","36c45c0696341be0efffe67d72a12abb","105.4.2.135","Mozilla/5.0 (Windows NT 10.0; Win64; x64) AppleWebKit/537.36 (KHTML, like Gecko) Chrome/138.0.0.0 Safari/537.36","WebKit","Chrome","138.0.0.0","Windows","10.0","https://app.prolific.com/","en-GB,en-US;q=0.9,en;q=0.8","66826c452acc243fa7b92f51","687a19d2168e237449fb8af4","6889d9efd98404e6a9477fb2","0","66826c452acc243fa7b92f51","0","2025-07-30T08:43:35.162Z","","","","drsp","{""Q01"":""3"",""Q02"":""2"",""Q03"":""3"",""Q04"":""4"",""Q05"":""1"",""Q06"":""3"",""Q07"":""3"",""Q08"":""2"",""Q09"":""3"",""Q10"":""4"",""Q11"":""2"",""Q12"":""2"",""Q13"":""5"",""Q14"":""2"",""Q15"":""1"",""Q16"":""4"",""Q17"":""4"",""Q18"":""4"",""Q19"":""1"",""Q20"":""3"",""Q21"":""2"",""Q22"":""1""}","[0,1,2,3,4,5,6,7,8,9,10,11,12,13,14,15,16,17,18,19,20,21]","[""Q01"",""Q02"",""Q03"",""Q04"",""Q05"",""Q06"",""Q07"",""Q08"",""Q09"",""Q10"",""Q11"",""Q12"",""Q13"",""Q14"",""Q15"",""Q16"",""Q17"",""Q18"",""Q19"",""Q20"",""Q21"",""Q22""]","[5817.70000000298,9250.70000000298,18482.60000000149,21443.70000000298,23907,28499.30000000447,33083.10000000149,39410.90000000596,42930.90000000596,45691,49634.90000000596,53411.30000000447,57554.90000000596,62027.90000000596,69011.20000000298,74610.40000000596,77291.90000000596,79106.80000000447,90010.5,97330.40000000596,103906.60000000149,108147]","[]","[22.400000005960464,5817.70000000298,9250.70000000298,14386.30000000447,16965,18482.60000000149,20546.60000000149,21443.70000000298,23907,28499.30000000447,33083.10000000149,39410.90000000596,42930.90000000596,45691,49634.90000000596,53411.30000000447,57554.90000000596,62027.90000000596,69011.20000000298,74610.40000000596,77291.90000000596,79106.80000000447,85338.20000000298,90010.5,97330.40000000596,103906.60000000149,108147,109250.5]","0.2727272727272727","0.42857142857142855","0","","","","","","","","","","","","","","","","","","","","","","","","","","","","",""
"21023.19999999553","","","","survey-template","8","299758","0.0-4.0-4.0","16","1","2025-07-30 08:38:51","36c45c0696341be0efffe67d72a12abb","105.4.2.135","Mozilla/5.0 (Windows NT 10.0; Win64; x64) AppleWebKit/537.36 (KHTML, like Gecko) Chrome/138.0.0.0 Safari/537.36","WebKit","Chrome","138.0.0.0","Windows","10.0","https://app.prolific.com/","en-GB,en-US;q=0.9,en;q=0.8","66826c452acc243fa7b92f51","687a19d2168e237449fb8af4","6889d9efd98404e6a9477fb2","0","66826c452acc243fa7b92f51","0","2025-07-30T08:43:56.188Z","","","","stress","{""Q01"":""4"",""Q02"":""3"",""Q03"":""3""}","[0,1,2]","[""Q02"",""Q03"",""Q01""]","[9006.69999999553,14086.39999999851,19401.29999999702]","[]","[5853.29999999702,9006.69999999553,14086.39999999851,15629.79999999702,19401.29999999702,21021.69999999553]","0.3333333333333333","0.5","0","","","","","","","","","","","","","","","","","","","","","","","","","","","","",""
"68598","","","","instructions","9","368358","0.0-5.0-0.0","16","1","2025-07-30 08:38:51","36c45c0696341be0efffe67d72a12abb","105.4.2.135","Mozilla/5.0 (Windows NT 10.0; Win64; x64) AppleWebKit/537.36 (KHTML, like Gecko) Chrome/138.0.0.0 Safari/537.36","WebKit","Chrome","138.0.0.0","Windows","10.0","https://app.prolific.com/","en-GB,en-US;q=0.9,en;q=0.8","66826c452acc243fa7b92f51","687a19d2168e237449fb8af4","6889d9efd98404e6a9477fb2","0","66826c452acc243fa7b92f51","0","","","","","","","","","","","","","","","[{""page_index"":0,""viewing_time"":68597}]","","","","","","","","","","","","","","","","","","","","","","","","","","","",""
"21840","","<p>Before you start with this game please answer the following three questions yourself. </p>
  <p>Through this game, we measure several aspects of your cognitive performance, such as reaction times, multi-tasking capabilities </p>
  <p>and the ability to assess the situation you are in.</p>
  <p></p>
  <p><b>How good do you usually are in such tasks?</b></p>","83","html-slider-response","10","390206","0.0-6.0-0.0","16","1","2025-07-30 08:38:51","36c45c0696341be0efffe67d72a12abb","105.4.2.135","Mozilla/5.0 (Windows NT 10.0; Win64; x64) AppleWebKit/537.36 (KHTML, like Gecko) Chrome/138.0.0.0 Safari/537.36","WebKit","Chrome","138.0.0.0","Windows","10.0","https://app.prolific.com/","en-GB,en-US;q=0.9,en;q=0.8","66826c452acc243fa7b92f51","687a19d2168e237449fb8af4","6889d9efd98404e6a9477fb2","0","66826c452acc243fa7b92f51","0","2025-07-30T08:45:26.635Z","","","","PreSkillQ","","","","","","","","","","","50","","","","","","","","","","","","","","","","","","","","","","","","","","",""
"8446","","<div style=""width:500px;"">
  <p>How well do you think you will perform in this task compared to other participants?</p>
  </div>","95","html-slider-response","11","398654","0.0-6.0-1.0","16","1","2025-07-30 08:38:51","36c45c0696341be0efffe67d72a12abb","105.4.2.135","Mozilla/5.0 (Windows NT 10.0; Win64; x64) AppleWebKit/537.36 (KHTML, like Gecko) Chrome/138.0.0.0 Safari/537.36","WebKit","Chrome","138.0.0.0","Windows","10.0","https://app.prolific.com/","en-GB,en-US;q=0.9,en;q=0.8","66826c452acc243fa7b92f51","687a19d2168e237449fb8af4","6889d9efd98404e6a9477fb2","0","66826c452acc243fa7b92f51","0","2025-07-30T08:45:35.083Z","","","","PrePerfQ","","","","","","","","","","","50","","","","","","","","","","","","","","","","","","","","","","","","","","",""
"4829","","<div style=""width:500px;"">
  <p>What best describes how you currently feel?</p>
  </div>","76","html-slider-response","12","403485","0.0-6.0-2.0","16","1","2025-07-30 08:38:51","36c45c0696341be0efffe67d72a12abb","105.4.2.135","Mozilla/5.0 (Windows NT 10.0; Win64; x64) AppleWebKit/537.36 (KHTML, like Gecko) Chrome/138.0.0.0 Safari/537.36","WebKit","Chrome","138.0.0.0","Windows","10.0","https://app.prolific.com/","en-GB,en-US;q=0.9,en;q=0.8","66826c452acc243fa7b92f51","687a19d2168e237449fb8af4","6889d9efd98404e6a9477fb2","0","66826c452acc243fa7b92f51","0","2025-07-30T08:45:39.914Z","","","","PreMotivationQ","","","","","","","","","","","50","","","","","","","","","","","","","","","","","","","","","","","","","","",""
"","","","","ctl-task-cpt","13","429282","0.0-7.0-0.0","16","1","2025-07-30 08:38:51","36c45c0696341be0efffe67d72a12abb","105.4.2.135","Mozilla/5.0 (Windows NT 10.0; Win64; x64) AppleWebKit/537.36 (KHTML, like Gecko) Chrome/138.0.0.0 Safari/537.36","WebKit","Chrome","138.0.0.0","Windows","10.0","https://app.prolific.com/","en-GB,en-US;q=0.9,en;q=0.8","66826c452acc243fa7b92f51","687a19d2168e237449fb8af4","6889d9efd98404e6a9477fb2","0","66826c452acc243fa7b92f51","0","2025-07-30T08:46:05.712Z","","","","","","","","","","","","","","","","win-only","3","g1:SW,g2:NE","1","1","0","408863","2629.9","7630.9","22782","1","4","4","6","2","4","4","4","0","0.030303030303030304","2442.2","3000","665","[""up"",""right""]","{""num_key_presses"":6,""num_perfect"":6,""num_errors"":0,""num_randdir"":0,""num_randdir_good_moves"":0,""num_whilered"":0,""num_whileblue"":0,""num_blue"":0,""num_good_moves"":6}","[419.57142857142856,409.47767857142856,5.5,419.57142857142856,409.47767857142856,101.2,426.57142857142856,411.47767857142856,201.3,507.57142857142856,420.47767857142856,301.8,565.5714285714286,422.47767857142856,408.7,641.5714285714286,423.47767857142856,508.7,740.5714285714286,427.47767857142856,611.2,862.5714285714286,427.47767857142856,716.4,1047.5714285714287,427.47767857142856,825.2,1065.5714285714287,427.47767857142856,931.7,1062.5714285714287,429.47767857142856,1035.9,1060.5714285714287,430.47767857142856,1142,1060.5714285714287,430.47767857142856,1246.3,1060.5714285714287,431.47767857142856,1351.6,975.5714285714286,403.47767857142856,1458.2,901.5714285714286,315.47767857142856,1559,842.5714285714286,236.47767857142856,1661.3,792.5714285714286,182.47767857142856,1766.1,750.5714285714286,134.47767857142856,1867.3,730.5714285714286,103.47767857142857,1976.5,730.5714285714286,85.47767857142857,2081.2,730.5714285714286,74.47767857142857,2182,730.5714285714286,79.47767857142857,2285.9,730.5714285714286,79.47767857142857,2392.3,730.5714285714286,82.47767857142857,2496.1,732.5714285714286,82.47767857142857,2601.4,1281.5714285714287,389.47767857142856,2701.5,1365.5714285714287,443.47767857142856,2802.4,1347.5714285714287,443.47767857142856,2909.7,1347.5714285714287,443.47767857142856,3010.9,1347.5714285714287,443.47767857142856,3111.6,1347.5714285714287,443.47767857142856,3215.6,1347.5714285714287,443.47767857142856,3316.2,1347.5714285714287,443.47767857142856,3425.1,1347.5714285714287,443.47767857142856,3525.4,1347.5714285714287,443.47767857142856,3625.4,1347.5714285714287,443.47767857142856,3725.5,1347.5714285714287,443.47767857142856,3831.8,1347.5714285714287,443.47767857142856,3937.6,1347.5714285714287,443.47767857142856,4041.7,1347.5714285714287,443.47767857142856,4141.8,1347.5714285714287,443.47767857142856,4246.5,1347.5714285714287,443.47767857142856,4351.3,1347.5714285714287,443.47767857142856,4458.4,1347.5714285714287,443.47767857142856,4558.5,1347.5714285714287,443.47767857142856,4661,1347.5714285714287,443.47767857142856,4761.3,1347.5714285714287,443.47767857142856,4866.1,1347.5714285714287,443.47767857142856,4971.3]","[1447.9,1447.9,1000,0,447.9,""smooth"",""up"",""up"",""good_move"",4014.3,2566.3,2047.8,1448,518.5,""smooth"",""up"",""up"",""good_move"",6624.7,2610.3,2138.5,4014.4,471.8,""smooth"",""up"",""up"",""good_move"",9794.7,3163.7,2753.9,6631.1,409.8,""smooth"",""right"",""right"",""good_move"",12761.9,2966.7,2563.1,9795.2,403.6,""smooth"",""right"",""right"",""good_move"",15049.9,2287,1902.6,12762.9,384.4,""smooth"",""right"",""right"",""good_move""]"
"7993","","<div style=""width:500px;"">
  <p>What determined the result of this run?</p>
  </div>","100","html-slider-response","14","437277","0.0-7.0-1.0","16","1","2025-07-30 08:38:51","36c45c0696341be0efffe67d72a12abb","105.4.2.135","Mozilla/5.0 (Windows NT 10.0; Win64; x64) AppleWebKit/537.36 (KHTML, like Gecko) Chrome/138.0.0.0 Safari/537.36","WebKit","Chrome","138.0.0.0","Windows","10.0","https://app.prolific.com/","en-GB,en-US;q=0.9,en;q=0.8","66826c452acc243fa7b92f51","687a19d2168e237449fb8af4","6889d9efd98404e6a9477fb2","0","66826c452acc243fa7b92f51","0","2025-07-30T08:46:13.706Z","","","","AttribQ","","","","","","","","","","","50","","","","","","","","","","","","","","","","","","","","","","","","","","",""
"6121","","<div style=""width:500px;"">
  <p>How much control did you have over the ball?</p>
  </div>","100","html-slider-response","15","443399","0.0-7.0-2.0","16","1","2025-07-30 08:38:51","36c45c0696341be0efffe67d72a12abb","105.4.2.135","Mozilla/5.0 (Windows NT 10.0; Win64; x64) AppleWebKit/537.36 (KHTML, like Gecko) Chrome/138.0.0.0 Safari/537.36","WebKit","Chrome","138.0.0.0","Windows","10.0","https://app.prolific.com/","en-GB,en-US;q=0.9,en;q=0.8","66826c452acc243fa7b92f51","687a19d2168e237449fb8af4","6889d9efd98404e6a9477fb2","0","66826c452acc243fa7b92f51","0","2025-07-30T08:46:19.828Z","","","","ControlQ","","","","","","","","","","","50","","","","","","","","","","","","","","","","","","","","","","","","","","",""
"5854","","<div style=""width:500px;"">
  <p>How would you describe your current emotional state?</p>
  </div>","23","html-slider-response","16","449254","0.0-7.0-3.0","16","1","2025-07-30 08:38:51","36c45c0696341be0efffe67d72a12abb","105.4.2.135","Mozilla/5.0 (Windows NT 10.0; Win64; x64) AppleWebKit/537.36 (KHTML, like Gecko) Chrome/138.0.0.0 Safari/537.36","WebKit","Chrome","138.0.0.0","Windows","10.0","https://app.prolific.com/","en-GB,en-US;q=0.9,en;q=0.8","66826c452acc243fa7b92f51","687a19d2168e237449fb8af4","6889d9efd98404e6a9477fb2","0","66826c452acc243fa7b92f51","0","2025-07-30T08:46:25.683Z","","","","StressQ","","","","","","","","","","","50","","","","","","","","","","","","","","","","","","","","","","","","","","",""
"8799","","<div style=""width:500px;"">
  <p>What best describes how you currently feel?</p>
  </div>","77","html-slider-response","17","458054","0.0-7.0-4.0","16","1","2025-07-30 08:38:51","36c45c0696341be0efffe67d72a12abb","105.4.2.135","Mozilla/5.0 (Windows NT 10.0; Win64; x64) AppleWebKit/537.36 (KHTML, like Gecko) Chrome/138.0.0.0 Safari/537.36","WebKit","Chrome","138.0.0.0","Windows","10.0","https://app.prolific.com/","en-GB,en-US;q=0.9,en;q=0.8","66826c452acc243fa7b92f51","687a19d2168e237449fb8af4","6889d9efd98404e6a9477fb2","0","66826c452acc243fa7b92f51","0","2025-07-30T08:46:34.483Z","","","","MotivationQ","","","","","","","","","","","50","","","","","","","","","","","","","","","","","","","","","","","","","","",""
"","","","","ctl-task-cpt","18","492737","0.0-7.0-0.1","16","1","2025-07-30 08:38:51","36c45c0696341be0efffe67d72a12abb","105.4.2.135","Mozilla/5.0 (Windows NT 10.0; Win64; x64) AppleWebKit/537.36 (KHTML, like Gecko) Chrome/138.0.0.0 Safari/537.36","WebKit","Chrome","138.0.0.0","Windows","10.0","https://app.prolific.com/","en-GB,en-US;q=0.9,en;q=0.8","66826c452acc243fa7b92f51","687a19d2168e237449fb8af4","6889d9efd98404e6a9477fb2","0","66826c452acc243fa7b92f51","0","2025-07-30T08:47:09.166Z","","","","","","","","","","","","","","","","win-only","3","g1:SW,g2:NE","0.9","2","0","463424","1532.4","6535.7","31666.8","1","4","8","6","2","8","8","12","4","0.09090909090909091","1371.6","3000","770","[""up"",""right""]","{""num_key_presses"":6,""num_perfect"":5,""num_errors"":0,""num_randdir"":1,""num_randdir_good_moves"":1,""num_whilered"":0,""num_whileblue"":0,""num_blue"":3,""num_good_moves"":6}","[416.57142857142856,416.47767857142856,0.2,416.57142857142856,416.47767857142856,103,420.57142857142856,411.47767857142856,203.2,563.5714285714286,417.47767857142856,308.6,623.5714285714286,398.47767857142856,411.9,627.5714285714286,323.47767857142856,515.9,632.5714285714286,182.47767857142856,617.7,640.5714285714286,127.47767857142857,717.7,641.5714285714286,127.47767857142857,818,704.5714285714286,80.47767857142857,918.4,725.5714285714286,64.47767857142857,1023.2,725.5714285714286,64.47767857142857,1123.6,725.5714285714286,66.47767857142857,1223.7,725.5714285714286,70.47767857142857,1329.2,723.5714285714286,72.47767857142857,1442.9,723.5714285714286,72.47767857142857,1543.1,753.5714285714286,70.47767857142857,1643.6,1061.5714285714287,168.47767857142856,1745.5,1186.5714285714287,247.47767857142856,1848.2,1375.5714285714287,307.47767857142856,1948.4,1354.5714285714287,319.47767857142856,2048.8,1354.5714285714287,319.47767857142856,2149,1354.5714285714287,319.47767857142856,2254,1354.5714285714287,319.47767857142856,2358.9,1354.5714285714287,319.47767857142856,2459.1,1354.5714285714287,319.47767857142856,2563.4,1354.5714285714287,319.47767857142856,2668.8,1354.5714285714287,319.47767857142856,2773.7,1354.5714285714287,319.47767857142856,2874.2,1354.5714285714287,319.47767857142856,2980.5,1354.5714285714287,319.47767857142856,3082.8,1354.5714285714287,319.47767857142856,3183.1,1354.5714285714287,319.47767857142856,3288.1,1354.5714285714287,319.47767857142856,3388.6,1354.5714285714287,319.47767857142856,3494.2,1354.5714285714287,319.47767857142856,3598.1,1354.5714285714287,319.47767857142856,3698.5,1354.5714285714287,319.47767857142856,3803.5,1354.5714285714287,319.47767857142856,3903.8,1354.5714285714287,319.47767857142856,4004.3,1354.5714285714287,319.47767857142856,4109.3,1354.5714285714287,319.47767857142856,4213.5,1354.5714285714287,319.47767857142856,4314.1,1354.5714285714287,319.47767857142856,4418.3,1354.5714285714287,319.47767857142856,4518.7,1354.5714285714287,319.47767857142856,4619.3,1354.5714285714287,319.47767857142856,4723.1,1354.5714285714287,319.47767857142856,4823.3,1354.5714285714287,319.47767857142856,4928.5]","[1419.8,1419.8,1000,0,419.8,""smooth"",""up"",""up"",""good_move"",4108.6,2688.5,2322.7,1420.1,365.8,""smooth"",""right"",""right"",""good_move"",6977.5,2868.2,2546.3,4109.3,321.9,""smooth"",""up"",""up"",""good_move"",9682.1,2704.2,2393.7,6977.9,310.5,""oops"",""right"",""right"",""good_move"",19016.3,9333.8,2634.9,16021.1,360.3,""smooth"",""right"",""right"",""good_move"",25028.8,6012,1841.3,22700.4,487.1,""smooth"",""up"",""up"",""good_move""]"
"5699","","<div style=""width:500px;"">
  <p>What determined the result of this run?</p>
  </div>","99","html-slider-response","19","498436","0.0-7.0-1.1","16","1","2025-07-30 08:38:51","36c45c0696341be0efffe67d72a12abb","105.4.2.135","Mozilla/5.0 (Windows NT 10.0; Win64; x64) AppleWebKit/537.36 (KHTML, like Gecko) Chrome/138.0.0.0 Safari/537.36","WebKit","Chrome","138.0.0.0","Windows","10.0","https://app.prolific.com/","en-GB,en-US;q=0.9,en;q=0.8","66826c452acc243fa7b92f51","687a19d2168e237449fb8af4","6889d9efd98404e6a9477fb2","0","66826c452acc243fa7b92f51","0","2025-07-30T08:47:14.866Z","","","","AttribQ","","","","","","","","","","","50","","","","","","","","","","","","","","","","","","","","","","","","","","",""
"4600","","<div style=""width:500px;"">
  <p>How much control did you have over the ball?</p>
  </div>","100","html-slider-response","20","503038","0.0-7.0-2.1","16","1","2025-07-30 08:38:51","36c45c0696341be0efffe67d72a12abb","105.4.2.135","Mozilla/5.0 (Windows NT 10.0; Win64; x64) AppleWebKit/537.36 (KHTML, like Gecko) Chrome/138.0.0.0 Safari/537.36","WebKit","Chrome","138.0.0.0","Windows","10.0","https://app.prolific.com/","en-GB,en-US;q=0.9,en;q=0.8","66826c452acc243fa7b92f51","687a19d2168e237449fb8af4","6889d9efd98404e6a9477fb2","0","66826c452acc243fa7b92f51","0","2025-07-30T08:47:19.467Z","","","","ControlQ","","","","","","","","","","","50","","","","","","","","","","","","","","","","","","","","","","","","","","",""
"6904","","<div style=""width:500px;"">
  <p>How would you describe your current emotional state?</p>
  </div>","24","html-slider-response","21","509945","0.0-7.0-3.1","16","1","2025-07-30 08:38:51","36c45c0696341be0efffe67d72a12abb","105.4.2.135","Mozilla/5.0 (Windows NT 10.0; Win64; x64) AppleWebKit/537.36 (KHTML, like Gecko) Chrome/138.0.0.0 Safari/537.36","WebKit","Chrome","138.0.0.0","Windows","10.0","https://app.prolific.com/","en-GB,en-US;q=0.9,en;q=0.8","66826c452acc243fa7b92f51","687a19d2168e237449fb8af4","6889d9efd98404e6a9477fb2","0","66826c452acc243fa7b92f51","0","2025-07-30T08:47:26.374Z","","","","StressQ","","","","","","","","","","","50","","","","","","","","","","","","","","","","","","","","","","","","","","",""
"5284","","<div style=""width:500px;"">
  <p>What best describes how you currently feel?</p>
  </div>","70","html-slider-response","22","515231","0.0-7.0-4.1","16","1","2025-07-30 08:38:51","36c45c0696341be0efffe67d72a12abb","105.4.2.135","Mozilla/5.0 (Windows NT 10.0; Win64; x64) AppleWebKit/537.36 (KHTML, like Gecko) Chrome/138.0.0.0 Safari/537.36","WebKit","Chrome","138.0.0.0","Windows","10.0","https://app.prolific.com/","en-GB,en-US;q=0.9,en;q=0.8","66826c452acc243fa7b92f51","687a19d2168e237449fb8af4","6889d9efd98404e6a9477fb2","0","66826c452acc243fa7b92f51","0","2025-07-30T08:47:31.660Z","","","","MotivationQ","","","","","","","","","","","50","","","","","","","","","","","","","","","","","","","","","","","","","","",""
"","","","","ctl-task-cpt","23","550285","0.0-7.0-0.2","16","1","2025-07-30 08:38:51","36c45c0696341be0efffe67d72a12abb","105.4.2.135","Mozilla/5.0 (Windows NT 10.0; Win64; x64) AppleWebKit/537.36 (KHTML, like Gecko) Chrome/138.0.0.0 Safari/537.36","WebKit","Chrome","138.0.0.0","Windows","10.0","https://app.prolific.com/","en-GB,en-US;q=0.9,en;q=0.8","66826c452acc243fa7b92f51","687a19d2168e237449fb8af4","6889d9efd98404e6a9477fb2","0","66826c452acc243fa7b92f51","0","2025-07-30T08:48:06.714Z","","","","","","","","","","","","","","","","win-only","0","g1:NW,g2:SE","0.8","3","0","520602.3","1718.2","6721","32035.4","1","4","8","6","2","-8","-8","4","12","0.030303030303030304","4492","3000","-2455","[""down"",""right""]","{""num_key_presses"":8,""num_perfect"":6,""num_errors"":0,""num_randdir"":2,""num_randdir_good_moves"":0,""num_whilered"":0,""num_whileblue"":0,""num_blue"":0,""num_good_moves"":6}","[414.57142857142856,417.47767857142856,0.8,412.57142857142856,415.47767857142856,104.2,436.57142857142856,413.47767857142856,207.7,914.5714285714286,456.47767857142856,307.7,1375.5714285714287,550.4776785714286,416.6,1375.5714285714287,569.4776785714286,517.4,1340.5714285714287,573.4776785714286,618.4,1339.5714285714287,574.4776785714286,722.3,1339.5714285714287,574.4776785714286,823.1,1339.5714285714287,574.4776785714286,931.5,1339.5714285714287,574.4776785714286,1032.4,1339.5714285714287,574.4776785714286,1133.9,1339.5714285714287,574.4776785714286,1237.4,1339.5714285714287,574.4776785714286,1337.5,1339.5714285714287,574.4776785714286,1442.8,1339.5714285714287,574.4776785714286,1550,1339.5714285714287,574.4776785714286,1652.7,1339.5714285714287,574.4776785714286,1752.7,1339.5714285714287,574.4776785714286,1852.7,1339.5714285714287,574.4776785714286,1953.3,1339.5714285714287,574.4776785714286,2053.6,1339.5714285714287,574.4776785714286,2157.9,1339.5714285714287,574.4776785714286,2265.1,1339.5714285714287,574.4776785714286,2366.2,1339.5714285714287,574.4776785714286,2466.3,1339.5714285714287,574.4776785714286,2567.7,1339.5714285714287,574.4776785714286,2672.9,1339.5714285714287,574.4776785714286,2782.2,1339.5714285714287,574.4776785714286,2883.1,1339.5714285714287,574.4776785714286,2988,1339.5714285714287,574.4776785714286,3093.9,1375.5714285714287,548.4776785714286,3201,1375.5714285714287,561.4776785714286,3302.9,1347.5714285714287,773.4776785714286,3403.2,1315.5714285714287,800.4776785714286,3507.1,1299.5714285714287,819.4776785714286,3607.9,1294.5714285714287,826.4776785714286,3708.3,992.5714285714286,837.4776785714286,3814.8,768.5714285714286,885.4776785714286,3916.1,766.5714285714286,885.4776785714286,4018.5,679.5714285714286,846.4776785714286,4122.2,665.5714285714286,830.4776785714286,4222.6,698.5714285714286,798.4776785714286,4322.9,701.5714285714286,796.4776785714286,4423.3,701.5714285714286,796.4776785714286,4532.5,701.5714285714286,796.4776785714286,4637.4,861.5714285714286,812.4776785714286,4742.7,1131.5714285714287,794.4776785714286,4843.9,1131.5714285714287,794.4776785714286,4950.2]","[1513.1,1513.1,1000,0.1,513,""smooth"",""down"",""down"",""good_move"",4499.3,2985.4,2494.2,1514,491.1,""smooth"",""down"",""down"",""good_move"",6866.6,2366.7,1863.8,4499.9,502.9,""smooth"",""right"",""right"",""good_move"",10403.6,3536.7,3154.4,6866.9,382.3,""smooth"",""right"",""right"",""good_move"",13414.3,3010.5,2609.1,10403.8,401.4,""oops"",""right"",""up"",""bad_move"",16212.1,2796.8,2389.1,13415.3,407.7,""smooth"",""down"",""down"",""good_move"",19296.9,3084.5,2708.8,16212.4,375.7,""oops"",""down"",""left"",""bad_move"",22946.3,3649.1,3347.3,19297.2,301.8,""smooth"",""down"",""down"",""good_move""]"
"13571","","<div style=""width:500px;"">
  <p>What determined the result of this run?</p>
  </div>","17","html-slider-response","24","563857","0.0-7.0-1.2","16","1","2025-07-30 08:38:51","36c45c0696341be0efffe67d72a12abb","105.4.2.135","Mozilla/5.0 (Windows NT 10.0; Win64; x64) AppleWebKit/537.36 (KHTML, like Gecko) Chrome/138.0.0.0 Safari/537.36","WebKit","Chrome","138.0.0.0","Windows","10.0","https://app.prolific.com/","en-GB,en-US;q=0.9,en;q=0.8","66826c452acc243fa7b92f51","687a19d2168e237449fb8af4","6889d9efd98404e6a9477fb2","0","66826c452acc243fa7b92f51","0","2025-07-30T08:48:20.286Z","","","","AttribQ","","","","","","","","","","","50","","","","","","","","","","","","","","","","","","","","","","","","","","",""
"5285","","<div style=""width:500px;"">
  <p>How much control did you have over the ball?</p>
  </div>","16","html-slider-response","25","569147","0.0-7.0-2.2","16","1","2025-07-30 08:38:51","36c45c0696341be0efffe67d72a12abb","105.4.2.135","Mozilla/5.0 (Windows NT 10.0; Win64; x64) AppleWebKit/537.36 (KHTML, like Gecko) Chrome/138.0.0.0 Safari/537.36","WebKit","Chrome","138.0.0.0","Windows","10.0","https://app.prolific.com/","en-GB,en-US;q=0.9,en;q=0.8","66826c452acc243fa7b92f51","687a19d2168e237449fb8af4","6889d9efd98404e6a9477fb2","0","66826c452acc243fa7b92f51","0","2025-07-30T08:48:25.577Z","","","","ControlQ","","","","","","","","","","","50","","","","","","","","","","","","","","","","","","","","","","","","","","",""
"7905","","<div style=""width:500px;"">
  <p>How would you describe your current emotional state?</p>
  </div>","67","html-slider-response","26","577065","0.0-7.0-3.2","16","1","2025-07-30 08:38:51","36c45c0696341be0efffe67d72a12abb","105.4.2.135","Mozilla/5.0 (Windows NT 10.0; Win64; x64) AppleWebKit/537.36 (KHTML, like Gecko) Chrome/138.0.0.0 Safari/537.36","WebKit","Chrome","138.0.0.0","Windows","10.0","https://app.prolific.com/","en-GB,en-US;q=0.9,en;q=0.8","66826c452acc243fa7b92f51","687a19d2168e237449fb8af4","6889d9efd98404e6a9477fb2","0","66826c452acc243fa7b92f51","0","2025-07-30T08:48:33.497Z","","","","StressQ","","","","","","","","","","","50","","","","","","","","","","","","","","","","","","","","","","","","","","",""
"13000","","<div style=""width:500px;"">
  <p>What best describes how you currently feel?</p>
  </div>","66","html-slider-response","27","590075","0.0-7.0-4.2","16","1","2025-07-30 08:38:51","36c45c0696341be0efffe67d72a12abb","105.4.2.135","Mozilla/5.0 (Windows NT 10.0; Win64; x64) AppleWebKit/537.36 (KHTML, like Gecko) Chrome/138.0.0.0 Safari/537.36","WebKit","Chrome","138.0.0.0","Windows","10.0","https://app.prolific.com/","en-GB,en-US;q=0.9,en;q=0.8","66826c452acc243fa7b92f51","687a19d2168e237449fb8af4","6889d9efd98404e6a9477fb2","0","66826c452acc243fa7b92f51","0","2025-07-30T08:48:46.504Z","","","","MotivationQ","","","","","","","","","","","50","","","","","","","","","","","","","","","","","","","","","","","","","","",""
"","","","","ctl-task-cpt","28","617620","0.0-7.0-0.3","16","1","2025-07-30 08:38:51","36c45c0696341be0efffe67d72a12abb","105.4.2.135","Mozilla/5.0 (Windows NT 10.0; Win64; x64) AppleWebKit/537.36 (KHTML, like Gecko) Chrome/138.0.0.0 Safari/537.36","WebKit","Chrome","138.0.0.0","Windows","10.0","https://app.prolific.com/","en-GB,en-US;q=0.9,en;q=0.8","66826c452acc243fa7b92f51","687a19d2168e237449fb8af4","6889d9efd98404e6a9477fb2","0","66826c452acc243fa7b92f51","0","2025-07-30T08:49:14.049Z","","","","","","","","","","","","","","","","win-only","1","g1:NE,g2:SW","0.7","4","0","595456","3333.2","8336.2","24515.8","1","4","4","6","2","4","4","8","4","0.06060606060606061","2047.4","3000","1045","[""down"",""left""]","{""num_key_presses"":6,""num_perfect"":5,""num_errors"":0,""num_randdir"":1,""num_randdir_good_moves"":1,""num_whilered"":0,""num_whileblue"":0,""num_blue"":0,""num_good_moves"":6}","[416.57142857142856,413.47767857142856,0.2,415.57142857142856,414.47767857142856,107.5,466.57142857142856,413.47767857142856,213.6,958.5714285714286,409.47767857142856,318.1,1084.5714285714287,409.47767857142856,432.1,1291.5714285714287,410.47767857142856,533.6,1348.5714285714287,409.47767857142856,648,1335.5714285714287,422.47767857142856,753.1,1335.5714285714287,422.47767857142856,853.5,1325.5714285714287,422.47767857142856,963.4,571.5714285714286,573.4776785714286,1066,463.57142857142856,644.4776785714286,1167.8,472.57142857142856,711.4776785714286,1280.9,460.57142857142856,711.4776785714286,1382.6,353.57142857142856,717.4776785714286,1487.5,228.57142857142856,725.4776785714286,1587.9,205.57142857142856,725.4776785714286,1694.7,114.57142857142857,743.4776785714286,1799.8,18.57142857142857,763.4776785714286,1902.6,17.57142857142857,763.4776785714286,2002.6,16.57142857142857,763.4776785714286,2103.2,16.57142857142857,763.4776785714286,2203.5,10.57142857142857,759.4776785714286,2317.1,-184.42857142857144,700.4776785714286,2418,-253.42857142857144,686.4776785714286,2520.6,-249.42857142857144,687.4776785714286,2623.2,-248.42857142857144,688.4776785714286,2731.7,-248.42857142857144,688.4776785714286,2832.8,-248.42857142857144,688.4776785714286,2934.4,-248.42857142857144,688.4776785714286,3034.8,-248.42857142857144,688.4776785714286,3137.2,-234.42857142857144,694.4776785714286,3237.3,-228.42857142857144,696.4776785714286,3338.2,-228.42857142857144,697.4776785714286,3447.3,-228.42857142857144,697.4776785714286,3547.4,-228.42857142857144,697.4776785714286,3648.9,-226.42857142857144,697.4776785714286,3749.4,-224.42857142857144,698.4776785714286,3852.7,-224.42857142857144,698.4776785714286,3954,-222.42857142857144,700.4776785714286,4063.3,-222.42857142857144,700.4776785714286,4164.6,-222.42857142857144,700.4776785714286,4268.9,-222.42857142857144,700.4776785714286,4380.1,-221.42857142857144,700.4776785714286,4480.6,-219.42857142857144,701.4776785714286,4582.3,-219.42857142857144,702.4776785714286,4682.6,-219.42857142857144,702.4776785714286,4783.2,-219.42857142857144,702.4776785714286,4889.2,-219.42857142857144,702.4776785714286,4996.6]","[1449.8,1449.8,1000,0,449.8,""smooth"",""down"",""down"",""good_move"",4094.2,2643.6,2251.1,1450.6,392.5,""smooth"",""left"",""left"",""good_move"",6659.6,2565,2166.1,4094.6,398.9,""smooth"",""down"",""down"",""good_move"",9392.5,2732.7,2349.1,6659.8,383.6,""oops"",""left"",""left"",""good_move"",12559.3,3166.4,2781.3,9392.9,385.1,""smooth"",""down"",""down"",""good_move"",16068.4,3508.9,3061.4,12559.5,447.5,""smooth"",""left"",""left"",""good_move""]"
"6859","","<div style=""width:500px;"">
  <p>What determined the result of this run?</p>
  </div>","73","html-slider-response","29","624483","0.0-7.0-1.3","16","1","2025-07-30 08:38:51","36c45c0696341be0efffe67d72a12abb","105.4.2.135","Mozilla/5.0 (Windows NT 10.0; Win64; x64) AppleWebKit/537.36 (KHTML, like Gecko) Chrome/138.0.0.0 Safari/537.36","WebKit","Chrome","138.0.0.0","Windows","10.0","https://app.prolific.com/","en-GB,en-US;q=0.9,en;q=0.8","66826c452acc243fa7b92f51","687a19d2168e237449fb8af4","6889d9efd98404e6a9477fb2","0","66826c452acc243fa7b92f51","0","2025-07-30T08:49:20.912Z","","","","AttribQ","","","","","","","","","","","50","","","","","","","","","","","","","","","","","","","","","","","","","","",""
"7037","","<div style=""width:500px;"">
  <p>How much control did you have over the ball?</p>
  </div>","75","html-slider-response","30","631528","0.0-7.0-2.3","16","1","2025-07-30 08:38:51","36c45c0696341be0efffe67d72a12abb","105.4.2.135","Mozilla/5.0 (Windows NT 10.0; Win64; x64) AppleWebKit/537.36 (KHTML, like Gecko) Chrome/138.0.0.0 Safari/537.36","WebKit","Chrome","138.0.0.0","Windows","10.0","https://app.prolific.com/","en-GB,en-US;q=0.9,en;q=0.8","66826c452acc243fa7b92f51","687a19d2168e237449fb8af4","6889d9efd98404e6a9477fb2","0","66826c452acc243fa7b92f51","0","2025-07-30T08:49:27.957Z","","","","ControlQ","","","","","","","","","","","50","","","","","","","","","","","","","","","","","","","","","","","","","","",""
"11423","","<div style=""width:500px;"">
  <p>How would you describe your current emotional state?</p>
  </div>","5","html-slider-response","31","642960","0.0-7.0-3.3","16","1","2025-07-30 08:38:51","36c45c0696341be0efffe67d72a12abb","105.4.2.135","Mozilla/5.0 (Windows NT 10.0; Win64; x64) AppleWebKit/537.36 (KHTML, like Gecko) Chrome/138.0.0.0 Safari/537.36","WebKit","Chrome","138.0.0.0","Windows","10.0","https://app.prolific.com/","en-GB,en-US;q=0.9,en;q=0.8","66826c452acc243fa7b92f51","687a19d2168e237449fb8af4","6889d9efd98404e6a9477fb2","0","66826c452acc243fa7b92f51","0","2025-07-30T08:49:39.389Z","","","","StressQ","","","","","","","","","","","50","","","","","","","","","","","","","","","","","","","","","","","","","","",""
"6718","","<div style=""width:500px;"">
  <p>What best describes how you currently feel?</p>
  </div>","69","html-slider-response","32","649689","0.0-7.0-4.3","16","1","2025-07-30 08:38:51","36c45c0696341be0efffe67d72a12abb","105.4.2.135","Mozilla/5.0 (Windows NT 10.0; Win64; x64) AppleWebKit/537.36 (KHTML, like Gecko) Chrome/138.0.0.0 Safari/537.36","WebKit","Chrome","138.0.0.0","Windows","10.0","https://app.prolific.com/","en-GB,en-US;q=0.9,en;q=0.8","66826c452acc243fa7b92f51","687a19d2168e237449fb8af4","6889d9efd98404e6a9477fb2","0","66826c452acc243fa7b92f51","0","2025-07-30T08:49:46.118Z","","","","MotivationQ","","","","","","","","","","","50","","","","","","","","","","","","","","","","","","","","","","","","","","",""
"","","","","ctl-task-cpt","33","687601","0.0-7.0-0.4","16","1","2025-07-30 08:38:51","36c45c0696341be0efffe67d72a12abb","105.4.2.135","Mozilla/5.0 (Windows NT 10.0; Win64; x64) AppleWebKit/537.36 (KHTML, like Gecko) Chrome/138.0.0.0 Safari/537.36","WebKit","Chrome","138.0.0.0","Windows","10.0","https://app.prolific.com/","en-GB,en-US;q=0.9,en;q=0.8","66826c452acc243fa7b92f51","687a19d2168e237449fb8af4","6889d9efd98404e6a9477fb2","0","66826c452acc243fa7b92f51","0","2025-07-30T08:50:24.030Z","","","","","","","","","","","","","","","","win-only","0","g1:NW,g2:SE","0.6","5","0","655068.6","2817.4","7821.6","34885.8","1","4","8","6","2","8","8","16","8","0.12121212121212122","1659.9","3000","680","[""down"",""right""]","{""num_key_presses"":8,""num_perfect"":5,""num_errors"":0,""num_randdir"":3,""num_randdir_good_moves"":2,""num_whilered"":0,""num_whileblue"":0,""num_blue"":1,""num_good_moves"":7}","[415.57142857142856,417.47767857142856,0.3,415.57142857142856,417.47767857142856,103.6,415.57142857142856,417.47767857142856,209.1,415.57142857142856,417.47767857142856,319,415.57142857142856,417.47767857142856,423.7,415.57142857142856,417.47767857142856,533.4,523.5714285714286,477.47767857142856,633.6,859.5714285714286,740.4776785714286,735.3,882.5714285714286,758.4776785714286,838.2,894.5714285714286,780.4776785714286,938.5,892.5714285714286,813.4776785714286,1053.3,823.5714285714286,766.4776785714286,1153.9,809.5714285714286,751.4776785714286,1259.8,807.5714285714286,750.4776785714286,1361.9,806.5714285714286,749.4776785714286,1467.4,806.5714285714286,749.4776785714286,1568.7,806.5714285714286,749.4776785714286,1672.2,806.5714285714286,749.4776785714286,1784.1,806.5714285714286,749.4776785714286,1885.2,806.5714285714286,749.4776785714286,1988.3,806.5714285714286,749.4776785714286,2088.4,806.5714285714286,749.4776785714286,2194.3,822.5714285714286,757.4776785714286,2299.5,1022.5714285714286,884.4776785714286,2403.4,1095.5714285714287,930.4776785714286,2509.5,1095.5714285714287,930.4776785714286,2619.2,1095.5714285714287,930.4776785714286,2734.8,1095.5714285714287,930.4776785714286,2838.9,1095.5714285714287,930.4776785714286,2939.4,1095.5714285714287,930.4776785714286,3043.8,1095.5714285714287,930.4776785714286,3152.4,1095.5714285714287,930.4776785714286,3252.7,1095.5714285714287,930.4776785714286,3353.8,1095.5714285714287,930.4776785714286,3453.8,1095.5714285714287,930.4776785714286,3559.8,1095.5714285714287,930.4776785714286,3668.6,1095.5714285714287,930.4776785714286,3773.6,1095.5714285714287,930.4776785714286,3873.8,1095.5714285714287,930.4776785714286,3980.1,1095.5714285714287,930.4776785714286,4084.8,1095.5714285714287,930.4776785714286,4201.2,1095.5714285714287,930.4776785714286,4303.5,1095.5714285714287,930.4776785714286,4403.5,1095.5714285714287,930.4776785714286,4504.5,1095.5714285714287,930.4776785714286,4609.3,1095.5714285714287,930.4776785714286,4721.1,1095.5714285714287,930.4776785714286,4824,1095.5714285714287,930.4776785714286,4929.7]","[5567.4,5567.4,3119.2,2015.1,433.1,""smooth"",""right"",""right"",""good_move"",8948.1,3380.3,2940.2,5567.8,440.1,""oops"",""down"",""left"",""bad_move"",12146.3,3197.6,2776.5,8948.7,421.1,""smooth"",""down"",""down"",""good_move"",15228.1,3081.2,2696.7,12146.9,384.5,""smooth"",""down"",""down"",""good_move"",18428.7,3200.3,2862,15228.4,338.3,""smooth"",""right"",""right"",""good_move"",21213.9,2784.9,2464.9,18429,320,""smooth"",""right"",""right"",""good_move"",23666.2,2452.2,2066.6,21214,385.6,""oops"",""right"",""right"",""good_move"",26948.3,3281.7,2886.6,23666.6,395.1,""oops"",""down"",""down"",""good_move""]"
"12276","","<div style=""width:500px;"">
  <p>What determined the result of this run?</p>
  </div>","100","html-slider-response","34","699878","0.0-7.0-1.4","16","1","2025-07-30 08:38:51","36c45c0696341be0efffe67d72a12abb","105.4.2.135","Mozilla/5.0 (Windows NT 10.0; Win64; x64) AppleWebKit/537.36 (KHTML, like Gecko) Chrome/138.0.0.0 Safari/537.36","WebKit","Chrome","138.0.0.0","Windows","10.0","https://app.prolific.com/","en-GB,en-US;q=0.9,en;q=0.8","66826c452acc243fa7b92f51","687a19d2168e237449fb8af4","6889d9efd98404e6a9477fb2","0","66826c452acc243fa7b92f51","0","2025-07-30T08:50:36.308Z","","","","AttribQ","","","","","","","","","","","50","","","","","","","","","","","","","","","","","","","","","","","","","","",""
"5720","","<div style=""width:500px;"">
  <p>How much control did you have over the ball?</p>
  </div>","96","html-slider-response","35","705600","0.0-7.0-2.4","16","1","2025-07-30 08:38:51","36c45c0696341be0efffe67d72a12abb","105.4.2.135","Mozilla/5.0 (Windows NT 10.0; Win64; x64) AppleWebKit/537.36 (KHTML, like Gecko) Chrome/138.0.0.0 Safari/537.36","WebKit","Chrome","138.0.0.0","Windows","10.0","https://app.prolific.com/","en-GB,en-US;q=0.9,en;q=0.8","66826c452acc243fa7b92f51","687a19d2168e237449fb8af4","6889d9efd98404e6a9477fb2","0","66826c452acc243fa7b92f51","0","2025-07-30T08:50:42.029Z","","","","ControlQ","","","","","","","","","","","50","","","","","","","","","","","","","","","","","","","","","","","","","","",""
"5177","","<div style=""width:500px;"">
  <p>How would you describe your current emotional state?</p>
  </div>","24","html-slider-response","36","710777","0.0-7.0-3.4","16","1","2025-07-30 08:38:51","36c45c0696341be0efffe67d72a12abb","105.4.2.135","Mozilla/5.0 (Windows NT 10.0; Win64; x64) AppleWebKit/537.36 (KHTML, like Gecko) Chrome/138.0.0.0 Safari/537.36","WebKit","Chrome","138.0.0.0","Windows","10.0","https://app.prolific.com/","en-GB,en-US;q=0.9,en;q=0.8","66826c452acc243fa7b92f51","687a19d2168e237449fb8af4","6889d9efd98404e6a9477fb2","0","66826c452acc243fa7b92f51","0","2025-07-30T08:50:47.206Z","","","","StressQ","","","","","","","","","","","50","","","","","","","","","","","","","","","","","","","","","","","","","","",""
"4588","","<div style=""width:500px;"">
  <p>What best describes how you currently feel?</p>
  </div>","70","html-slider-response","37","715366","0.0-7.0-4.4","16","1","2025-07-30 08:38:51","36c45c0696341be0efffe67d72a12abb","105.4.2.135","Mozilla/5.0 (Windows NT 10.0; Win64; x64) AppleWebKit/537.36 (KHTML, like Gecko) Chrome/138.0.0.0 Safari/537.36","WebKit","Chrome","138.0.0.0","Windows","10.0","https://app.prolific.com/","en-GB,en-US;q=0.9,en;q=0.8","66826c452acc243fa7b92f51","687a19d2168e237449fb8af4","6889d9efd98404e6a9477fb2","0","66826c452acc243fa7b92f51","0","2025-07-30T08:50:51.795Z","","","","MotivationQ","","","","","","","","","","","50","","","","","","","","","","","","","","","","","","","","","","","","","","",""
"","","","","ctl-task-cpt","38","749136","0.0-7.0-0.5","16","1","2025-07-30 08:38:51","36c45c0696341be0efffe67d72a12abb","105.4.2.135","Mozilla/5.0 (Windows NT 10.0; Win64; x64) AppleWebKit/537.36 (KHTML, like Gecko) Chrome/138.0.0.0 Safari/537.36","WebKit","Chrome","138.0.0.0","Windows","10.0","https://app.prolific.com/","en-GB,en-US;q=0.9,en;q=0.8","66826c452acc243fa7b92f51","687a19d2168e237449fb8af4","6889d9efd98404e6a9477fb2","0","66826c452acc243fa7b92f51","0","2025-07-30T08:51:25.565Z","","","","","","","","","","","","","","","","win-only","1","g1:NE,g2:SW","0.5","6","0","720735.6","2154.7","7158.1","30763.7","1","4","4","6","1","-1","-1","15","16","0.11363636363636363","1973.9","3000","-2680","[""up"",""right""]","{""num_key_presses"":7,""num_perfect"":4,""num_errors"":0,""num_randdir"":3,""num_randdir_good_moves"":0,""num_whilered"":0,""num_whileblue"":0,""num_blue"":1,""num_good_moves"":4}","[410.57142857142856,425.47767857142856,0.2,410.57142857142856,425.47767857142856,101.8,410.57142857142856,425.47767857142856,205.7,410.57142857142856,425.47767857142856,309.2,410.57142857142856,425.47767857142856,410.8,410.57142857142856,425.47767857142856,514.5,410.57142857142856,425.47767857142856,618.3,638.5714285714286,203.47767857142856,725.3,654.5714285714286,195.47767857142856,831.6,665.5714285714286,190.47767857142856,936.2,683.5714285714286,174.47767857142856,1044.8,692.5714285714286,163.47767857142856,1144.9,714.5714285714286,127.47767857142857,1248.3,723.5714285714286,113.47767857142857,1350.6,732.5714285714286,104.47767857142857,1451.5,735.5714285714286,99.47767857142857,1559.5,735.5714285714286,99.47767857142857,1659.8,735.5714285714286,99.47767857142857,1763.3,735.5714285714286,99.47767857142857,1864.8,735.5714285714286,99.47767857142857,1967.6,735.5714285714286,99.47767857142857,2076.8,735.5714285714286,99.47767857142857,2180.2,735.5714285714286,99.47767857142857,2281.8,735.5714285714286,99.47767857142857,2382.8,735.5714285714286,99.47767857142857,2483.3,735.5714285714286,99.47767857142857,2586.1,735.5714285714286,99.47767857142857,2686.4,735.5714285714286,99.47767857142857,2788.5,735.5714285714286,99.47767857142857,2895.2,735.5714285714286,99.47767857142857,2998.3,735.5714285714286,99.47767857142857,3098.4,735.5714285714286,99.47767857142857,3202.1,735.5714285714286,99.47767857142857,3302.3,735.5714285714286,99.47767857142857,3407.7,735.5714285714286,99.47767857142857,3508.6,735.5714285714286,99.47767857142857,3609.3,735.5714285714286,99.47767857142857,3714.8,735.5714285714286,99.47767857142857,3817.6,735.5714285714286,99.47767857142857,3923.7,735.5714285714286,99.47767857142857,4025.1,735.5714285714286,99.47767857142857,4128.7,735.5714285714286,99.47767857142857,4229.8,735.5714285714286,99.47767857142857,4331.6,735.5714285714286,99.47767857142857,4433.6,735.5714285714286,99.47767857142857,4537.7,735.5714285714286,99.47767857142857,4645.1,735.5714285714286,99.47767857142857,4748.6,735.5714285714286,99.47767857142857,4851.3,735.5714285714286,99.47767857142857,4951.5]","[1627.3,1627.3,1000,0,627.3,""oops"",""up"",""down"",""bad_move"",3770,2142.2,1655.8,1627.8,486.4,""smooth"",""right"",""right"",""good_move"",7260.1,3489.9,3103.1,3770.2,386.8,""smooth"",""right"",""right"",""good_move"",9593,2332.8,1971.4,7260.2,361.4,""oops"",""up"",""down"",""bad_move"",12613,3019.8,2680.3,9593.2,339.5,""smooth"",""up"",""up"",""good_move"",18198.4,5585,2445.8,15347.9,404.7,""oops"",""up"",""left"",""bad_move"",21247.9,3049.1,2470.7,18198.8,578.4,""smooth"",""up"",""up"",""good_move""]"
"13318","","<div style=""width:500px;"">
  <p>What determined the result of this run?</p>
  </div>","67","html-slider-response","39","762455","0.0-7.0-1.5","16","1","2025-07-30 08:38:51","36c45c0696341be0efffe67d72a12abb","105.4.2.135","Mozilla/5.0 (Windows NT 10.0; Win64; x64) AppleWebKit/537.36 (KHTML, like Gecko) Chrome/138.0.0.0 Safari/537.36","WebKit","Chrome","138.0.0.0","Windows","10.0","https://app.prolific.com/","en-GB,en-US;q=0.9,en;q=0.8","66826c452acc243fa7b92f51","687a19d2168e237449fb8af4","6889d9efd98404e6a9477fb2","0","66826c452acc243fa7b92f51","0","2025-07-30T08:51:38.885Z","","","","AttribQ","","","","","","","","","","","50","","","","","","","","","","","","","","","","","","","","","","","","","","",""
"4965","","<div style=""width:500px;"">
  <p>How much control did you have over the ball?</p>
  </div>","17","html-slider-response","40","767421","0.0-7.0-2.5","16","1","2025-07-30 08:38:51","36c45c0696341be0efffe67d72a12abb","105.4.2.135","Mozilla/5.0 (Windows NT 10.0; Win64; x64) AppleWebKit/537.36 (KHTML, like Gecko) Chrome/138.0.0.0 Safari/537.36","WebKit","Chrome","138.0.0.0","Windows","10.0","https://app.prolific.com/","en-GB,en-US;q=0.9,en;q=0.8","66826c452acc243fa7b92f51","687a19d2168e237449fb8af4","6889d9efd98404e6a9477fb2","0","66826c452acc243fa7b92f51","0","2025-07-30T08:51:43.850Z","","","","ControlQ","","","","","","","","","","","50","","","","","","","","","","","","","","","","","","","","","","","","","","",""
"4943","","<div style=""width:500px;"">
  <p>How would you describe your current emotional state?</p>
  </div>","61","html-slider-response","41","772365","0.0-7.0-3.5","16","1","2025-07-30 08:38:51","36c45c0696341be0efffe67d72a12abb","105.4.2.135","Mozilla/5.0 (Windows NT 10.0; Win64; x64) AppleWebKit/537.36 (KHTML, like Gecko) Chrome/138.0.0.0 Safari/537.36","WebKit","Chrome","138.0.0.0","Windows","10.0","https://app.prolific.com/","en-GB,en-US;q=0.9,en;q=0.8","66826c452acc243fa7b92f51","687a19d2168e237449fb8af4","6889d9efd98404e6a9477fb2","0","66826c452acc243fa7b92f51","0","2025-07-30T08:51:48.794Z","","","","StressQ","","","","","","","","","","","50","","","","","","","","","","","","","","","","","","","","","","","","","","",""
"8062","","<div style=""width:500px;"">
  <p>What best describes how you currently feel?</p>
  </div>","72","html-slider-response","42","780428","0.0-7.0-4.5","16","1","2025-07-30 08:38:51","36c45c0696341be0efffe67d72a12abb","105.4.2.135","Mozilla/5.0 (Windows NT 10.0; Win64; x64) AppleWebKit/537.36 (KHTML, like Gecko) Chrome/138.0.0.0 Safari/537.36","WebKit","Chrome","138.0.0.0","Windows","10.0","https://app.prolific.com/","en-GB,en-US;q=0.9,en;q=0.8","66826c452acc243fa7b92f51","687a19d2168e237449fb8af4","6889d9efd98404e6a9477fb2","0","66826c452acc243fa7b92f51","0","2025-07-30T08:51:56.857Z","","","","MotivationQ","","","","","","","","","","","50","","","","","","","","","","","","","","","","","","","","","","","","","","",""
"","","","","ctl-task-cpt","43","830686","0.0-7.0-0.6","16","1","2025-07-30 08:38:51","36c45c0696341be0efffe67d72a12abb","105.4.2.135","Mozilla/5.0 (Windows NT 10.0; Win64; x64) AppleWebKit/537.36 (KHTML, like Gecko) Chrome/138.0.0.0 Safari/537.36","WebKit","Chrome","138.0.0.0","Windows","10.0","https://app.prolific.com/","en-GB,en-US;q=0.9,en;q=0.8","66826c452acc243fa7b92f51","687a19d2168e237449fb8af4","6889d9efd98404e6a9477fb2","0","66826c452acc243fa7b92f51","0","2025-07-30T08:52:47.115Z","","","","","","","","","","","","","","","","win-only","0","g1:NW,g2:SE","0.4","7","0","785797.2","1785.9","6790.3","47238.5","1","4","8","6","2","-8","-9","6","15","0.045454545454545456","1427.9","3000","-2450","[""down"",""right""]","{""num_key_presses"":11,""num_perfect"":4,""num_errors"":1,""num_randdir"":6,""num_randdir_good_moves"":2,""num_whilered"":0,""num_whileblue"":1,""num_blue"":3,""num_good_moves"":6}","[418.57142857142856,421.47767857142856,0.1,418.57142857142856,421.47767857142856,104.6,418.57142857142856,421.47767857142856,204.7,418.57142857142856,421.47767857142856,305.9,418.57142857142856,421.47767857142856,406.1,418.57142857142856,421.47767857142856,507.9,547.5714285714286,558.4776785714286,614.5,664.5714285714286,711.4776785714286,717.1,676.5714285714286,731.4776785714286,821.1,728.5714285714286,750.4776785714286,925.6,751.5714285714286,745.4776785714286,1030.4,760.5714285714286,743.4776785714286,1136.4,760.5714285714286,743.4776785714286,1239.8,760.5714285714286,743.4776785714286,1348.4,760.5714285714286,743.4776785714286,1453.6,760.5714285714286,743.4776785714286,1557.5,760.5714285714286,743.4776785714286,1662.6,760.5714285714286,743.4776785714286,1769.2,760.5714285714286,743.4776785714286,1869.4,760.5714285714286,743.4776785714286,1972.6,760.5714285714286,743.4776785714286,2078.6,760.5714285714286,743.4776785714286,2184.5,760.5714285714286,743.4776785714286,2286.5,760.5714285714286,743.4776785714286,2389.8,760.5714285714286,743.4776785714286,2491.3,760.5714285714286,743.4776785714286,2599.1,760.5714285714286,743.4776785714286,2706.5,760.5714285714286,743.4776785714286,2813.8,760.5714285714286,743.4776785714286,2914.1,760.5714285714286,743.4776785714286,3018.5,760.5714285714286,743.4776785714286,3122.3,760.5714285714286,743.4776785714286,3227.5,975.5714285714286,652.4776785714286,3333.7,1024.5714285714287,660.4776785714286,3435.5,1056.5714285714287,656.4776785714286,3537.1,1063.5714285714287,652.4776785714286,3639.8,1059.5714285714287,653.4776785714286,3747.9,1059.5714285714287,653.4776785714286,3849.1,1059.5714285714287,653.4776785714286,3949.3,1059.5714285714287,653.4776785714286,4055.1,1059.5714285714287,653.4776785714286,4155.6,1059.5714285714287,653.4776785714286,4262.2,1059.5714285714287,653.4776785714286,4362.2,1059.5714285714287,653.4776785714286,4468.2,1059.5714285714287,653.4776785714286,4571.2,1059.5714285714287,653.4776785714286,4675,1059.5714285714287,653.4776785714286,4783.7,1059.5714285714287,653.4776785714286,4884.8,1059.5714285714287,653.4776785714286,4988]","[1477.5,1477.5,1000,0,477.5,""smooth"",""down"",""down"",""good_move"",4111.2,2633.4,2184.1,1477.9,449.2,""smooth"",""down"",""down"",""good_move"",7773.7,3662.5,3283,4111.3,379.5,""oops"",""right"",""left"",""bad_move"",11166.6,3392.3,2979.9,7774.3,412.4,""oops"",""down"",""left"",""bad_move"",14369.8,3202.8,2774.9,11167,427.9,""oops"",""down"",""up"",""bad_move"",17213.5,2843.3,2456.9,14370.2,386.4,""oops"",""right"",""down"",""good_move"",20825.5,3611.7,3185.1,17213.8,426.6,""smooth"",""right"",""right"",""good_move"",23942.4,3116.6,2815.9,20825.9,300.6,""oops"",""right"",""left"",""bad_move"",26830.1,2887.4,2577.4,23942.7,310,""smooth"",""down"",""down"",""good_move"",29040.9,2210.3,1833,26830.7,377.2,""oops"",""right"",""right"",""good_move"",31112.9,2071.7,1889.3,29041.2,182.4,""while_blue"",""right"",""left"",""bad_move""]"
"7722","","<div style=""width:500px;"">
  <p>What determined the result of this run?</p>
  </div>","20","html-slider-response","44","838409","0.0-7.0-1.6","16","1","2025-07-30 08:38:51","36c45c0696341be0efffe67d72a12abb","105.4.2.135","Mozilla/5.0 (Windows NT 10.0; Win64; x64) AppleWebKit/537.36 (KHTML, like Gecko) Chrome/138.0.0.0 Safari/537.36","WebKit","Chrome","138.0.0.0","Windows","10.0","https://app.prolific.com/","en-GB,en-US;q=0.9,en;q=0.8","66826c452acc243fa7b92f51","687a19d2168e237449fb8af4","6889d9efd98404e6a9477fb2","0","66826c452acc243fa7b92f51","0","2025-07-30T08:52:54.838Z","","","","AttribQ","","","","","","","","","","","50","","","","","","","","","","","","","","","","","","","","","","","","","","",""
"4733","","<div style=""width:500px;"">
  <p>How much control did you have over the ball?</p>
  </div>","0","html-slider-response","45","843142","0.0-7.0-2.6","16","1","2025-07-30 08:38:51","36c45c0696341be0efffe67d72a12abb","105.4.2.135","Mozilla/5.0 (Windows NT 10.0; Win64; x64) AppleWebKit/537.36 (KHTML, like Gecko) Chrome/138.0.0.0 Safari/537.36","WebKit","Chrome","138.0.0.0","Windows","10.0","https://app.prolific.com/","en-GB,en-US;q=0.9,en;q=0.8","66826c452acc243fa7b92f51","687a19d2168e237449fb8af4","6889d9efd98404e6a9477fb2","0","66826c452acc243fa7b92f51","0","2025-07-30T08:52:59.571Z","","","","ControlQ","","","","","","","","","","","50","","","","","","","","","","","","","","","","","","","","","","","","","","",""
"6313","","<div style=""width:500px;"">
  <p>How would you describe your current emotional state?</p>
  </div>","34","html-slider-response","46","849458","0.0-7.0-3.6","16","1","2025-07-30 08:38:51","36c45c0696341be0efffe67d72a12abb","105.4.2.135","Mozilla/5.0 (Windows NT 10.0; Win64; x64) AppleWebKit/537.36 (KHTML, like Gecko) Chrome/138.0.0.0 Safari/537.36","WebKit","Chrome","138.0.0.0","Windows","10.0","https://app.prolific.com/","en-GB,en-US;q=0.9,en;q=0.8","66826c452acc243fa7b92f51","687a19d2168e237449fb8af4","6889d9efd98404e6a9477fb2","0","66826c452acc243fa7b92f51","0","2025-07-30T08:53:05.887Z","","","","StressQ","","","","","","","","","","","50","","","","","","","","","","","","","","","","","","","","","","","","","","",""
"4826","","<div style=""width:500px;"">
  <p>What best describes how you currently feel?</p>
  </div>","79","html-slider-response","47","854285","0.0-7.0-4.6","16","1","2025-07-30 08:38:51","36c45c0696341be0efffe67d72a12abb","105.4.2.135","Mozilla/5.0 (Windows NT 10.0; Win64; x64) AppleWebKit/537.36 (KHTML, like Gecko) Chrome/138.0.0.0 Safari/537.36","WebKit","Chrome","138.0.0.0","Windows","10.0","https://app.prolific.com/","en-GB,en-US;q=0.9,en;q=0.8","66826c452acc243fa7b92f51","687a19d2168e237449fb8af4","6889d9efd98404e6a9477fb2","0","66826c452acc243fa7b92f51","0","2025-07-30T08:53:10.714Z","","","","MotivationQ","","","","","","","","","","","50","","","","","","","","","","","","","","","","","","","","","","","","","","",""
"","","","","ctl-task-cpt","48","892465","0.0-7.0-0.7","16","1","2025-07-30 08:38:51","36c45c0696341be0efffe67d72a12abb","105.4.2.135","Mozilla/5.0 (Windows NT 10.0; Win64; x64) AppleWebKit/537.36 (KHTML, like Gecko) Chrome/138.0.0.0 Safari/537.36","WebKit","Chrome","138.0.0.0","Windows","10.0","https://app.prolific.com/","en-GB,en-US;q=0.9,en;q=0.8","66826c452acc243fa7b92f51","687a19d2168e237449fb8af4","6889d9efd98404e6a9477fb2","0","66826c452acc243fa7b92f51","0","2025-07-30T08:53:48.894Z","","","","","","","","","","","","","","","","win-only","1","g1:NE,g2:SW","0.3","8","0","859654.8","1922.6","6929.1","35155.7","1","4","4","6","2","4","4","10","6","0.07575757575757576","1683.4","3000","915","[""down"",""left""]","{""num_key_presses"":8,""num_perfect"":3,""num_errors"":0,""num_randdir"":5,""num_randdir_good_moves"":4,""num_whilered"":0,""num_whileblue"":0,""num_blue"":2,""num_good_moves"":7}","[421.57142857142856,413.47767857142856,0.2,421.57142857142856,413.47767857142856,104.8,421.57142857142856,413.47767857142856,208.5,421.57142857142856,413.47767857142856,309,421.57142857142856,413.47767857142856,416.9,421.57142857142856,413.47767857142856,519,436.57142857142856,415.47767857142856,629.7,462.57142857142856,480.47767857142856,735.7,301.57142857142856,664.4776785714286,839.5,134.57142857142856,714.4776785714286,951.2,98.57142857142857,727.4776785714286,1060.3,72.57142857142857,739.4776785714286,1169,65.57142857142857,740.4776785714286,1269.9,63.57142857142857,739.4776785714286,1376.2,63.57142857142857,739.4776785714286,1476.4,63.57142857142857,739.4776785714286,1578.3,63.57142857142857,739.4776785714286,1690.6,63.57142857142857,739.4776785714286,1807,63.57142857142857,739.4776785714286,1910.5,63.57142857142857,739.4776785714286,2018.7,63.57142857142857,739.4776785714286,2119.2,63.57142857142857,739.4776785714286,2221.1,63.57142857142857,739.4776785714286,2323,63.57142857142857,739.4776785714286,2428.5,63.57142857142857,739.4776785714286,2537.6,63.57142857142857,739.4776785714286,2639.3,63.57142857142857,739.4776785714286,2740.4,-62.42857142857143,735.4776785714286,2847.2,-177.42857142857144,719.4776785714286,2956.3,-182.42857142857144,718.4776785714286,3059.5,-182.42857142857144,718.4776785714286,3163.1,-182.42857142857144,718.4776785714286,3272.4,-182.42857142857144,718.4776785714286,3373.8,-182.42857142857144,718.4776785714286,3478.5,-182.42857142857144,718.4776785714286,3579.4,-182.42857142857144,718.4776785714286,3683.7,-182.42857142857144,718.4776785714286,3788.2,-182.42857142857144,718.4776785714286,3893.3,-182.42857142857144,718.4776785714286,3997.6,-182.42857142857144,718.4776785714286,4098.8,-182.42857142857144,718.4776785714286,4202.2,-182.42857142857144,718.4776785714286,4305.1,-182.42857142857144,718.4776785714286,4409,-182.42857142857144,718.4776785714286,4512.4,-182.42857142857144,718.4776785714286,4619.3,-182.42857142857144,718.4776785714286,4724.8,-182.42857142857144,718.4776785714286,4830.8,-182.42857142857144,718.4776785714286,4937.8]","[1488.9,1488.9,1000,0,488.9,""oops"",""down"",""right"",""bad_move"",4325.1,2835.6,2417.7,1489.5,417.9,""oops"",""down"",""left"",""good_move"",10540.6,6214.8,2040.1,8088.8,411.7,""smooth"",""left"",""left"",""good_move"",13752.4,3211,2784.4,10541.4,426.6,""oops"",""left"",""left"",""good_move"",20371.9,6619.2,2290,17688.6,393.4,""oops"",""down"",""down"",""good_move"",23004.4,2631.7,2072.4,20372.7,559.3,""oops"",""down"",""left"",""good_move"",25350,2345.5,1909.9,23004.5,435.6,""smooth"",""down"",""down"",""good_move"",28085.5,2735.4,2378.3,25350.1,357.1,""smooth"",""down"",""down"",""good_move""]"
"4398","","<div style=""width:500px;"">
  <p>What determined the result of this run?</p>
  </div>","89","html-slider-response","49","896864","0.0-7.0-1.7","16","1","2025-07-30 08:38:51","36c45c0696341be0efffe67d72a12abb","105.4.2.135","Mozilla/5.0 (Windows NT 10.0; Win64; x64) AppleWebKit/537.36 (KHTML, like Gecko) Chrome/138.0.0.0 Safari/537.36","WebKit","Chrome","138.0.0.0","Windows","10.0","https://app.prolific.com/","en-GB,en-US;q=0.9,en;q=0.8","66826c452acc243fa7b92f51","687a19d2168e237449fb8af4","6889d9efd98404e6a9477fb2","0","66826c452acc243fa7b92f51","0","2025-07-30T08:53:53.293Z","","","","AttribQ","","","","","","","","","","","50","","","","","","","","","","","","","","","","","","","","","","","","","","",""
"4456","","<div style=""width:500px;"">
  <p>How much control did you have over the ball?</p>
  </div>","59","html-slider-response","50","901321","0.0-7.0-2.7","16","1","2025-07-30 08:38:51","36c45c0696341be0efffe67d72a12abb","105.4.2.135","Mozilla/5.0 (Windows NT 10.0; Win64; x64) AppleWebKit/537.36 (KHTML, like Gecko) Chrome/138.0.0.0 Safari/537.36","WebKit","Chrome","138.0.0.0","Windows","10.0","https://app.prolific.com/","en-GB,en-US;q=0.9,en;q=0.8","66826c452acc243fa7b92f51","687a19d2168e237449fb8af4","6889d9efd98404e6a9477fb2","0","66826c452acc243fa7b92f51","0","2025-07-30T08:53:57.750Z","","","","ControlQ","","","","","","","","","","","50","","","","","","","","","","","","","","","","","","","","","","","","","","",""
"4985","","<div style=""width:500px;"">
  <p>How would you describe your current emotional state?</p>
  </div>","7","html-slider-response","51","906308","0.0-7.0-3.7","16","1","2025-07-30 08:38:51","36c45c0696341be0efffe67d72a12abb","105.4.2.135","Mozilla/5.0 (Windows NT 10.0; Win64; x64) AppleWebKit/537.36 (KHTML, like Gecko) Chrome/138.0.0.0 Safari/537.36","WebKit","Chrome","138.0.0.0","Windows","10.0","https://app.prolific.com/","en-GB,en-US;q=0.9,en;q=0.8","66826c452acc243fa7b92f51","687a19d2168e237449fb8af4","6889d9efd98404e6a9477fb2","0","66826c452acc243fa7b92f51","0","2025-07-30T08:54:02.737Z","","","","StressQ","","","","","","","","","","","50","","","","","","","","","","","","","","","","","","","","","","","","","","",""
"4572","","<div style=""width:500px;"">
  <p>What best describes how you currently feel?</p>
  </div>","69","html-slider-response","52","910881","0.0-7.0-4.7","16","1","2025-07-30 08:38:51","36c45c0696341be0efffe67d72a12abb","105.4.2.135","Mozilla/5.0 (Windows NT 10.0; Win64; x64) AppleWebKit/537.36 (KHTML, like Gecko) Chrome/138.0.0.0 Safari/537.36","WebKit","Chrome","138.0.0.0","Windows","10.0","https://app.prolific.com/","en-GB,en-US;q=0.9,en;q=0.8","66826c452acc243fa7b92f51","687a19d2168e237449fb8af4","6889d9efd98404e6a9477fb2","0","66826c452acc243fa7b92f51","0","2025-07-30T08:54:07.310Z","","","","MotivationQ","","","","","","","","","","","50","","","","","","","","","","","","","","","","","","","","","","","","","","",""
"","","","","ctl-task-cpt","53","961369","0.0-7.0-0.8","16","1","2025-07-30 08:38:51","36c45c0696341be0efffe67d72a12abb","105.4.2.135","Mozilla/5.0 (Windows NT 10.0; Win64; x64) AppleWebKit/537.36 (KHTML, like Gecko) Chrome/138.0.0.0 Safari/537.36","WebKit","Chrome","138.0.0.0","Windows","10.0","https://app.prolific.com/","en-GB,en-US;q=0.9,en;q=0.8","66826c452acc243fa7b92f51","687a19d2168e237449fb8af4","6889d9efd98404e6a9477fb2","0","66826c452acc243fa7b92f51","0","2025-07-30T08:54:57.798Z","","","","","","","","","","","","","","","","win-only","3","g1:SW,g2:NE","0.4","9","0","916255.8","2465.3","7467.7","47466.9","1","4","4","6","2","4","3","13","10","0.09848484848484848","1643","3000","450","[""up"",""right""]","{""num_key_presses"":14,""num_perfect"":6,""num_errors"":1,""num_randdir"":7,""num_randdir_good_moves"":4,""num_whilered"":0,""num_whileblue"":1,""num_blue"":1,""num_good_moves"":10}","[420.57142857142856,408.47767857142856,0.2,420.57142857142856,408.47767857142856,109,420.57142857142856,408.47767857142856,214.6,420.57142857142856,408.47767857142856,316.9,420.57142857142856,408.47767857142856,417.6,420.57142857142856,408.47767857142856,518.5,420.57142857142856,408.47767857142856,630.3,420.57142857142856,408.47767857142856,736.2,420.57142857142856,408.47767857142856,845.5,559.5714285714286,242.47767857142856,946.2,702.5714285714286,108.47767857142857,1051.8,715.5714285714286,99.47767857142857,1152.8,722.5714285714286,96.47767857142857,1256.3,734.5714285714286,90.47767857142857,1358,735.5714285714286,90.47767857142857,1466.3,735.5714285714286,90.47767857142857,1566.9,735.5714285714286,90.47767857142857,1667.5,735.5714285714286,90.47767857142857,1776.5,735.5714285714286,90.47767857142857,1880.3,735.5714285714286,90.47767857142857,1983.1,735.5714285714286,90.47767857142857,2087.7,735.5714285714286,90.47767857142857,2195,735.5714285714286,90.47767857142857,2301,735.5714285714286,90.47767857142857,2413.4,780.5714285714286,88.47767857142857,2517,878.5714285714286,117.47767857142857,2623.9,908.5714285714286,150.47767857142856,2732.7,918.5714285714286,155.47767857142856,2833,918.5714285714286,155.47767857142856,2933.8,918.5714285714286,155.47767857142856,3035,918.5714285714286,155.47767857142856,3139.4,918.5714285714286,155.47767857142856,3241.8,918.5714285714286,155.47767857142856,3348.7,918.5714285714286,155.47767857142856,3451.1,918.5714285714286,155.47767857142856,3554.8,918.5714285714286,155.47767857142856,3659.8,918.5714285714286,155.47767857142856,3766.2,918.5714285714286,155.47767857142856,3866.9,918.5714285714286,155.47767857142856,3976.1,918.5714285714286,155.47767857142856,4078.1,918.5714285714286,155.47767857142856,4179.5,918.5714285714286,155.47767857142856,4281.7,918.5714285714286,155.47767857142856,4381.7,918.5714285714286,155.47767857142856,4489.5,918.5714285714286,155.47767857142856,4593.4,918.5714285714286,155.47767857142856,4697.8,918.5714285714286,155.47767857142856,4800,918.5714285714286,155.47767857142856,4900.5]","[1571.1,1571.1,1000,0,571.1,""oops"",""up"",""up"",""good_move"",4755.7,3184.2,2759.5,1571.5,424.7,""oops"",""right"",""up"",""good_move"",7426.4,2670.3,2244.9,4756.1,425.4,""smooth"",""right"",""right"",""good_move"",10349.6,2922.8,2503.7,7426.8,419.1,""oops"",""right"",""left"",""bad_move"",12953.2,2602.6,2202.5,10350.6,400.1,""oops"",""up"",""up"",""good_move"",16061.4,3107.6,2756.4,12953.8,351.2,""smooth"",""right"",""right"",""good_move"",19156.2,3094.4,2744.5,16061.8,349.9,""oops"",""right"",""left"",""bad_move"",21803.1,2646.4,2204.5,19156.7,441.9,""oops"",""right"",""down"",""bad_move"",25105.6,3302.2,2968.1,21803.4,334.1,""smooth"",""right"",""right"",""good_move"",28261.3,3155.1,2831.9,25106.2,323.2,""smooth"",""right"",""right"",""good_move"",31260.2,2998.7,2683.9,28261.5,314.8,""while_blue"",""right"",""down"",""bad_move"",34653.8,3393.3,3011.1,31260.5,382.2,""smooth"",""up"",""up"",""good_move"",37193.3,2538.9,2128.5,34654.4,410.4,""oops"",""up"",""right"",""good_move"",39778,2584.1,2164.6,37193.9,419.5,""smooth"",""up"",""up"",""good_move""]"
"4364","","<div style=""width:500px;"">
  <p>What determined the result of this run?</p>
  </div>","78","html-slider-response","54","965734","0.0-7.0-1.8","16","1","2025-07-30 08:38:51","36c45c0696341be0efffe67d72a12abb","105.4.2.135","Mozilla/5.0 (Windows NT 10.0; Win64; x64) AppleWebKit/537.36 (KHTML, like Gecko) Chrome/138.0.0.0 Safari/537.36","WebKit","Chrome","138.0.0.0","Windows","10.0","https://app.prolific.com/","en-GB,en-US;q=0.9,en;q=0.8","66826c452acc243fa7b92f51","687a19d2168e237449fb8af4","6889d9efd98404e6a9477fb2","0","66826c452acc243fa7b92f51","0","2025-07-30T08:55:02.163Z","","","","AttribQ","","","","","","","","","","","50","","","","","","","","","","","","","","","","","","","","","","","","","","",""
"3789","","<div style=""width:500px;"">
  <p>How much control did you have over the ball?</p>
  </div>","38","html-slider-response","55","969524","0.0-7.0-2.8","16","1","2025-07-30 08:38:51","36c45c0696341be0efffe67d72a12abb","105.4.2.135","Mozilla/5.0 (Windows NT 10.0; Win64; x64) AppleWebKit/537.36 (KHTML, like Gecko) Chrome/138.0.0.0 Safari/537.36","WebKit","Chrome","138.0.0.0","Windows","10.0","https://app.prolific.com/","en-GB,en-US;q=0.9,en;q=0.8","66826c452acc243fa7b92f51","687a19d2168e237449fb8af4","6889d9efd98404e6a9477fb2","0","66826c452acc243fa7b92f51","0","2025-07-30T08:55:05.954Z","","","","ControlQ","","","","","","","","","","","50","","","","","","","","","","","","","","","","","","","","","","","","","","",""
"4478","","<div style=""width:500px;"">
  <p>How would you describe your current emotional state?</p>
  </div>","17","html-slider-response","56","974003","0.0-7.0-3.8","16","1","2025-07-30 08:38:51","36c45c0696341be0efffe67d72a12abb","105.4.2.135","Mozilla/5.0 (Windows NT 10.0; Win64; x64) AppleWebKit/537.36 (KHTML, like Gecko) Chrome/138.0.0.0 Safari/537.36","WebKit","Chrome","138.0.0.0","Windows","10.0","https://app.prolific.com/","en-GB,en-US;q=0.9,en;q=0.8","66826c452acc243fa7b92f51","687a19d2168e237449fb8af4","6889d9efd98404e6a9477fb2","0","66826c452acc243fa7b92f51","0","2025-07-30T08:55:10.432Z","","","","StressQ","","","","","","","","","","","50","","","","","","","","","","","","","","","","","","","","","","","","","","",""
"3535","","<div style=""width:500px;"">
  <p>What best describes how you currently feel?</p>
  </div>","75","html-slider-response","57","977539","0.0-7.0-4.8","16","1","2025-07-30 08:38:51","36c45c0696341be0efffe67d72a12abb","105.4.2.135","Mozilla/5.0 (Windows NT 10.0; Win64; x64) AppleWebKit/537.36 (KHTML, like Gecko) Chrome/138.0.0.0 Safari/537.36","WebKit","Chrome","138.0.0.0","Windows","10.0","https://app.prolific.com/","en-GB,en-US;q=0.9,en;q=0.8","66826c452acc243fa7b92f51","687a19d2168e237449fb8af4","6889d9efd98404e6a9477fb2","0","66826c452acc243fa7b92f51","0","2025-07-30T08:55:13.968Z","","","","MotivationQ","","","","","","","","","","","50","","","","","","","","","","","","","","","","","","","","","","","","","","",""
"","","","","ctl-task-cpt","58","1006536","0.0-7.0-0.9","16","1","2025-07-30 08:38:51","36c45c0696341be0efffe67d72a12abb","105.4.2.135","Mozilla/5.0 (Windows NT 10.0; Win64; x64) AppleWebKit/537.36 (KHTML, like Gecko) Chrome/138.0.0.0 Safari/537.36","WebKit","Chrome","138.0.0.0","Windows","10.0","https://app.prolific.com/","en-GB,en-US;q=0.9,en;q=0.8","66826c452acc243fa7b92f51","687a19d2168e237449fb8af4","6889d9efd98404e6a9477fb2","0","66826c452acc243fa7b92f51","0","2025-07-30T08:55:42.965Z","","","","","","","","","","","","","","","","win-only","1","g1:NE,g2:SW","0.5","10","0","982908.4","2113.1","7125.8","25973.3","1","4","8","6","2","8","8","21","13","0.1590909090909091","1765.3","3000","1615","[""down"",""left""]","{""num_key_presses"":6,""num_perfect"":3,""num_errors"":0,""num_randdir"":3,""num_randdir_good_moves"":3,""num_whilered"":0,""num_whileblue"":0,""num_blue"":1,""num_good_moves"":6}","[418.57142857142856,413.47767857142856,0.6,418.57142857142856,413.47767857142856,109.5,418.57142857142856,413.47767857142856,214.6,418.57142857142856,413.47767857142856,316.6,418.57142857142856,413.47767857142856,426.3,418.57142857142856,413.47767857142856,528.3,418.57142857142856,413.47767857142856,630.8,418.57142857142856,413.47767857142856,742.5,142.57142857142856,587.4776785714286,849.3,54.57142857142857,647.4776785714286,958.4,27.57142857142857,679.4776785714286,1060.3,24.57142857142857,683.4776785714286,1165.9,108.57142857142857,731.4776785714286,1282.7,114.57142857142857,740.4776785714286,1390.6,114.57142857142857,743.4776785714286,1495.1,114.57142857142857,743.4776785714286,1595.9,114.57142857142857,743.4776785714286,1699.5,114.57142857142857,743.4776785714286,1812,114.57142857142857,743.4776785714286,1917,114.57142857142857,743.4776785714286,2019.1,114.57142857142857,743.4776785714286,2119.2,7.571428571428569,721.4776785714286,2228.5,-216.42857142857144,659.4776785714286,2332.7,-270.42857142857144,642.4776785714286,2444.6,-277.42857142857144,639.4776785714286,2549.4,-277.42857142857144,639.4776785714286,2653.4,-277.42857142857144,639.4776785714286,2757.5,-277.42857142857144,639.4776785714286,2862,-277.42857142857144,639.4776785714286,2964,-277.42857142857144,639.4776785714286,3066.4,-277.42857142857144,639.4776785714286,3169.4,-277.42857142857144,639.4776785714286,3280.2,-277.42857142857144,639.4776785714286,3381.1,-277.42857142857144,639.4776785714286,3482.2,-277.42857142857144,639.4776785714286,3585.5,-277.42857142857144,639.4776785714286,3695.3,-277.42857142857144,639.4776785714286,3804.4,-277.42857142857144,639.4776785714286,3912.9,-277.42857142857144,639.4776785714286,4020.5,-277.42857142857144,639.4776785714286,4123.2,-277.42857142857144,639.4776785714286,4230.7,-277.42857142857144,639.4776785714286,4337.7,-277.42857142857144,639.4776785714286,4446.4,-277.42857142857144,639.4776785714286,4555.8,-277.42857142857144,639.4776785714286,4664,-277.42857142857144,639.4776785714286,4771.7,-277.42857142857144,639.4776785714286,4881,-277.42857142857144,639.4776785714286,4984.3]","[1524.5,1524.5,1000,0,524.5,""smooth"",""down"",""down"",""good_move"",4076.1,2551,1979.8,1525.1,571.2,""oops"",""down"",""left"",""good_move"",10212.8,6136.1,2296.6,7427.6,488.6,""smooth"",""down"",""down"",""good_move"",12810,2596.4,2158.8,10213.6,437.6,""oops"",""left"",""left"",""good_move"",15641.9,2831.6,2338.5,12810.3,493.1,""oops"",""left"",""left"",""good_move"",18654.6,3012.3,2534.3,15642.3,478,""smooth"",""down"",""down"",""good_move""]"
"5915","","<div style=""width:500px;"">
  <p>What determined the result of this run?</p>
  </div>","99","html-slider-response","59","1012452","0.0-7.0-1.9","16","1","2025-07-30 08:38:51","36c45c0696341be0efffe67d72a12abb","105.4.2.135","Mozilla/5.0 (Windows NT 10.0; Win64; x64) AppleWebKit/537.36 (KHTML, like Gecko) Chrome/138.0.0.0 Safari/537.36","WebKit","Chrome","138.0.0.0","Windows","10.0","https://app.prolific.com/","en-GB,en-US;q=0.9,en;q=0.8","66826c452acc243fa7b92f51","687a19d2168e237449fb8af4","6889d9efd98404e6a9477fb2","0","66826c452acc243fa7b92f51","0","2025-07-30T08:55:48.881Z","","","","AttribQ","","","","","","","","","","","50","","","","","","","","","","","","","","","","","","","","","","","","","","",""
"4826","","<div style=""width:500px;"">
  <p>How much control did you have over the ball?</p>
  </div>","100","html-slider-response","60","1017279","0.0-7.0-2.9","16","1","2025-07-30 08:38:51","36c45c0696341be0efffe67d72a12abb","105.4.2.135","Mozilla/5.0 (Windows NT 10.0; Win64; x64) AppleWebKit/537.36 (KHTML, like Gecko) Chrome/138.0.0.0 Safari/537.36","WebKit","Chrome","138.0.0.0","Windows","10.0","https://app.prolific.com/","en-GB,en-US;q=0.9,en;q=0.8","66826c452acc243fa7b92f51","687a19d2168e237449fb8af4","6889d9efd98404e6a9477fb2","0","66826c452acc243fa7b92f51","0","2025-07-30T08:55:53.708Z","","","","ControlQ","","","","","","","","","","","50","","","","","","","","","","","","","","","","","","","","","","","","","","",""
"4743","","<div style=""width:500px;"">
  <p>How would you describe your current emotional state?</p>
  </div>","2","html-slider-response","61","1022024","0.0-7.0-3.9","16","1","2025-07-30 08:38:51","36c45c0696341be0efffe67d72a12abb","105.4.2.135","Mozilla/5.0 (Windows NT 10.0; Win64; x64) AppleWebKit/537.36 (KHTML, like Gecko) Chrome/138.0.0.0 Safari/537.36","WebKit","Chrome","138.0.0.0","Windows","10.0","https://app.prolific.com/","en-GB,en-US;q=0.9,en;q=0.8","66826c452acc243fa7b92f51","687a19d2168e237449fb8af4","6889d9efd98404e6a9477fb2","0","66826c452acc243fa7b92f51","0","2025-07-30T08:55:58.453Z","","","","StressQ","","","","","","","","","","","50","","","","","","","","","","","","","","","","","","","","","","","","","","",""
"6205","","<div style=""width:500px;"">
  <p>What best describes how you currently feel?</p>
  </div>","99","html-slider-response","62","1028231","0.0-7.0-4.9","16","1","2025-07-30 08:38:51","36c45c0696341be0efffe67d72a12abb","105.4.2.135","Mozilla/5.0 (Windows NT 10.0; Win64; x64) AppleWebKit/537.36 (KHTML, like Gecko) Chrome/138.0.0.0 Safari/537.36","WebKit","Chrome","138.0.0.0","Windows","10.0","https://app.prolific.com/","en-GB,en-US;q=0.9,en;q=0.8","66826c452acc243fa7b92f51","687a19d2168e237449fb8af4","6889d9efd98404e6a9477fb2","0","66826c452acc243fa7b92f51","0","2025-07-30T08:56:04.660Z","","","","MotivationQ","","","","","","","","","","","50","","","","","","","","","","","","","","","","","","","","","","","","","","",""
"","","","","ctl-task-cpt","63","1062199","0.0-7.0-0.10","16","1","2025-07-30 08:38:51","36c45c0696341be0efffe67d72a12abb","105.4.2.135","Mozilla/5.0 (Windows NT 10.0; Win64; x64) AppleWebKit/537.36 (KHTML, like Gecko) Chrome/138.0.0.0 Safari/537.36","WebKit","Chrome","138.0.0.0","Windows","10.0","https://app.prolific.com/","en-GB,en-US;q=0.9,en;q=0.8","66826c452acc243fa7b92f51","687a19d2168e237449fb8af4","6889d9efd98404e6a9477fb2","0","66826c452acc243fa7b92f51","0","2025-07-30T08:56:38.628Z","","","","","","","","","","","","","","","","win-only","2","g1:SE,g2:NW","0.6","11","0","1033600.6","1723.6","6732","30939.5","1","4","8","6","2","8","8","29","21","0.2196969696969697","1791.7","3000","1430","[""left"",""up""]","{""num_key_presses"":8,""num_perfect"":5,""num_errors"":0,""num_randdir"":3,""num_randdir_good_moves"":2,""num_whilered"":0,""num_whileblue"":0,""num_blue"":0,""num_good_moves"":7}","[416.57142857142856,413.47767857142856,0.2,416.57142857142856,413.47767857142856,109.9,416.57142857142856,413.47767857142856,216.8,416.57142857142856,413.47767857142856,317.8,416.57142857142856,413.47767857142856,424.7,416.57142857142856,413.47767857142856,526.7,416.57142857142856,413.47767857142856,629.7,416.57142857142856,413.47767857142856,738,416.57142857142856,413.47767857142856,844.1,24.57142857142857,123.47767857142857,949.8,-47.42857142857143,43.47767857142857,1056.5,-50.42857142857143,33.47767857142857,1167.1,-30.42857142857143,22.47767857142857,1268.1,17.57142857142857,40.47767857142857,1369.1,30.57142857142857,64.47767857142857,1473.3,31.57142857142857,67.47767857142857,1576.2,31.57142857142857,67.47767857142857,1681.4,31.57142857142857,67.47767857142857,1783.4,31.57142857142857,67.47767857142857,1891.5,31.57142857142857,67.47767857142857,1991.9,31.57142857142857,67.47767857142857,2100.2,-7.428571428571431,77.47767857142857,2205.9,-162.42857142857144,123.47767857142857,2313,-185.42857142857144,139.47767857142856,2415.7,-193.42857142857144,142.47767857142856,2526.4,-193.42857142857144,142.47767857142856,2628.9,-193.42857142857144,142.47767857142856,2732.5,-193.42857142857144,142.47767857142856,2843.4,-193.42857142857144,142.47767857142856,2953.2,-193.42857142857144,142.47767857142856,3062.3,-193.42857142857144,142.47767857142856,3174.8,-193.42857142857144,142.47767857142856,3284,-193.42857142857144,142.47767857142856,3384,-193.42857142857144,142.47767857142856,3488,-193.42857142857144,142.47767857142856,3591.1,-193.42857142857144,142.47767857142856,3699.7,-193.42857142857144,142.47767857142856,3806.4,-193.42857142857144,142.47767857142856,3907.6,-193.42857142857144,142.47767857142856,4015.8,-193.42857142857144,142.47767857142856,4121.2,-193.42857142857144,142.47767857142856,4222.3,-193.42857142857144,142.47767857142856,4329.5,-193.42857142857144,142.47767857142856,4433.3,-193.42857142857144,142.47767857142856,4543.3,-193.42857142857144,142.47767857142856,4653.4,-193.42857142857144,142.47767857142856,4762.6,-193.42857142857144,142.47767857142856,4867.7,-193.42857142857144,142.47767857142856,4968.2]","[1528.2,1528.2,1000,0,528.2,""smooth"",""left"",""left"",""good_move"",5453.3,3924.7,3460.8,1528.6,463.9,""oops"",""left"",""right"",""bad_move"",8921.3,3467.6,3020,5453.7,447.6,""oops"",""up"",""up"",""good_move"",12075.7,3153.3,2743.7,8922.4,409.6,""smooth"",""up"",""up"",""good_move"",15169.5,3093.4,2674.4,12076.1,419,""smooth"",""left"",""left"",""good_move"",18225.1,3055.2,2473.5,15169.9,581.7,""oops"",""left"",""left"",""good_move"",21027.9,2802.4,2366.5,18225.5,435.9,""smooth"",""up"",""up"",""good_move"",23981.3,2953.2,2444.6,21028.1,508.6,""smooth"",""left"",""left"",""good_move""]"
"5672","","<div style=""width:500px;"">
  <p>What determined the result of this run?</p>
  </div>","99","html-slider-response","64","1067872","0.0-7.0-1.10","16","1","2025-07-30 08:38:51","36c45c0696341be0efffe67d72a12abb","105.4.2.135","Mozilla/5.0 (Windows NT 10.0; Win64; x64) AppleWebKit/537.36 (KHTML, like Gecko) Chrome/138.0.0.0 Safari/537.36","WebKit","Chrome","138.0.0.0","Windows","10.0","https://app.prolific.com/","en-GB,en-US;q=0.9,en;q=0.8","66826c452acc243fa7b92f51","687a19d2168e237449fb8af4","6889d9efd98404e6a9477fb2","0","66826c452acc243fa7b92f51","0","2025-07-30T08:56:44.301Z","","","","AttribQ","","","","","","","","","","","50","","","","","","","","","","","","","","","","","","","","","","","","","","",""
"3687","","<div style=""width:500px;"">
  <p>How much control did you have over the ball?</p>
  </div>","100","html-slider-response","65","1071561","0.0-7.0-2.10","16","1","2025-07-30 08:38:51","36c45c0696341be0efffe67d72a12abb","105.4.2.135","Mozilla/5.0 (Windows NT 10.0; Win64; x64) AppleWebKit/537.36 (KHTML, like Gecko) Chrome/138.0.0.0 Safari/537.36","WebKit","Chrome","138.0.0.0","Windows","10.0","https://app.prolific.com/","en-GB,en-US;q=0.9,en;q=0.8","66826c452acc243fa7b92f51","687a19d2168e237449fb8af4","6889d9efd98404e6a9477fb2","0","66826c452acc243fa7b92f51","0","2025-07-30T08:56:47.990Z","","","","ControlQ","","","","","","","","","","","50","","","","","","","","","","","","","","","","","","","","","","","","","","",""
"4634","","<div style=""width:500px;"">
  <p>How would you describe your current emotional state?</p>
  </div>","2","html-slider-response","66","1076195","0.0-7.0-3.10","16","1","2025-07-30 08:38:51","36c45c0696341be0efffe67d72a12abb","105.4.2.135","Mozilla/5.0 (Windows NT 10.0; Win64; x64) AppleWebKit/537.36 (KHTML, like Gecko) Chrome/138.0.0.0 Safari/537.36","WebKit","Chrome","138.0.0.0","Windows","10.0","https://app.prolific.com/","en-GB,en-US;q=0.9,en;q=0.8","66826c452acc243fa7b92f51","687a19d2168e237449fb8af4","6889d9efd98404e6a9477fb2","0","66826c452acc243fa7b92f51","0","2025-07-30T08:56:52.624Z","","","","StressQ","","","","","","","","","","","50","","","","","","","","","","","","","","","","","","","","","","","","","","",""
"4689","","<div style=""width:500px;"">
  <p>What best describes how you currently feel?</p>
  </div>","97","html-slider-response","67","1080885","0.0-7.0-4.10","16","1","2025-07-30 08:38:51","36c45c0696341be0efffe67d72a12abb","105.4.2.135","Mozilla/5.0 (Windows NT 10.0; Win64; x64) AppleWebKit/537.36 (KHTML, like Gecko) Chrome/138.0.0.0 Safari/537.36","WebKit","Chrome","138.0.0.0","Windows","10.0","https://app.prolific.com/","en-GB,en-US;q=0.9,en;q=0.8","66826c452acc243fa7b92f51","687a19d2168e237449fb8af4","6889d9efd98404e6a9477fb2","0","66826c452acc243fa7b92f51","0","2025-07-30T08:56:57.314Z","","","","MotivationQ","","","","","","","","","","","50","","","","","","","","","","","","","","","","","","","","","","","","","","",""
"","","","","ctl-task-cpt","68","1151411","0.0-7.0-0.11","16","1","2025-07-30 08:38:51","36c45c0696341be0efffe67d72a12abb","105.4.2.135","Mozilla/5.0 (Windows NT 10.0; Win64; x64) AppleWebKit/537.36 (KHTML, like Gecko) Chrome/138.0.0.0 Safari/537.36","WebKit","Chrome","138.0.0.0","Windows","10.0","https://app.prolific.com/","en-GB,en-US;q=0.9,en;q=0.8","66826c452acc243fa7b92f51","687a19d2168e237449fb8af4","6889d9efd98404e6a9477fb2","0","66826c452acc243fa7b92f51","0","2025-07-30T08:58:07.840Z","","","","","","","","","","","","","","","","win-only","3","g1:SW,g2:NE","0.7","12","0","1086254.8","1929.6","6937.9","67496.5","1","4","4","6","2","4","4","33","29","0.25","1530","3000","900","[""up"",""right""]","{""num_key_presses"":12,""num_perfect"":8,""num_errors"":0,""num_randdir"":4,""num_randdir_good_moves"":1,""num_whilered"":0,""num_whileblue"":0,""num_blue"":7,""num_good_moves"":9}","[417.57142857142856,412.47767857142856,0.1,417.57142857142856,412.47767857142856,105.8,417.57142857142856,412.47767857142856,211.2,417.57142857142856,412.47767857142856,322.5,417.57142857142856,412.47767857142856,432.2,448.57142857142856,399.47767857142856,540.4,604.5714285714286,302.47767857142856,649.4,693.5714285714286,50.47767857142857,750.7,696.5714285714286,46.47767857142857,857.2,706.5714285714286,47.47767857142857,960.1,729.5714285714286,57.47767857142857,1073.5,752.5714285714286,61.47767857142857,1182.4,753.5714285714286,62.47767857142857,1293,753.5714285714286,62.47767857142857,1399.5,753.5714285714286,62.47767857142857,1499.8,753.5714285714286,62.47767857142857,1603.3,753.5714285714286,62.47767857142857,1710.3,753.5714285714286,62.47767857142857,1815.1,753.5714285714286,62.47767857142857,1921.1,842.5714285714286,54.47767857142857,2039.7,904.5714285714286,94.47767857142857,2141.7,988.5714285714286,148.47767857142856,2252,996.5714285714286,151.47767857142856,2360.2,996.5714285714286,151.47767857142856,2471.2,996.5714285714286,151.47767857142856,2579.5,996.5714285714286,151.47767857142856,2684.1,996.5714285714286,151.47767857142856,2789.6,996.5714285714286,151.47767857142856,2893.2,996.5714285714286,151.47767857142856,2999.4,996.5714285714286,151.47767857142856,3108.7,996.5714285714286,151.47767857142856,3219,996.5714285714286,151.47767857142856,3323,996.5714285714286,151.47767857142856,3430.6,996.5714285714286,151.47767857142856,3536.3,996.5714285714286,151.47767857142856,3645.9,996.5714285714286,151.47767857142856,3751.7,996.5714285714286,151.47767857142856,3855.5,996.5714285714286,151.47767857142856,3966.1,996.5714285714286,151.47767857142856,4068.8,996.5714285714286,151.47767857142856,4174.6,996.5714285714286,151.47767857142856,4277.2,996.5714285714286,151.47767857142856,4378.8,996.5714285714286,151.47767857142856,4488.7,996.5714285714286,151.47767857142856,4592.4,996.5714285714286,151.47767857142856,4692.5,996.5714285714286,151.47767857142856,4797,996.5714285714286,151.47767857142856,4904.8]","[1559.6,1559.6,1000,0,559.6,""oops"",""up"",""left"",""bad_move"",5175.2,3615.1,3152,1560.1,463.1,""smooth"",""up"",""up"",""good_move"",7841.3,2665.9,2189.1,5175.4,476.8,""smooth"",""up"",""up"",""good_move"",11191.2,3349.6,2941.8,7841.6,407.8,""smooth"",""right"",""right"",""good_move"",21897.8,10706.3,2512.6,18921.6,463.6,""oops"",""right"",""left"",""bad_move"",24599.1,2700.6,1548.4,21898.5,1152.2,""oops"",""up"",""left"",""bad_move"",42226.2,17626.9,2784.4,39008.7,433.1,""smooth"",""up"",""up"",""good_move"",48219.3,5992.6,2288.7,45508.8,421.8,""smooth"",""right"",""right"",""good_move"",51287.5,3067.9,2658.6,48219.6,409.3,""smooth"",""right"",""right"",""good_move"",54126.5,2838.4,2379.3,51288.2,459.1,""smooth"",""right"",""right"",""good_move"",57316.9,3189.8,2827.7,54127.1,362.1,""oops"",""right"",""right"",""good_move"",60313.7,2996.5,2558.7,57317.2,437.8,""smooth"",""right"",""right"",""good_move""]"
"8197","","<div style=""width:500px;"">
  <p>What determined the result of this run?</p>
  </div>","97","html-slider-response","69","1159609","0.0-7.0-1.11","16","1","2025-07-30 08:38:51","36c45c0696341be0efffe67d72a12abb","105.4.2.135","Mozilla/5.0 (Windows NT 10.0; Win64; x64) AppleWebKit/537.36 (KHTML, like Gecko) Chrome/138.0.0.0 Safari/537.36","WebKit","Chrome","138.0.0.0","Windows","10.0","https://app.prolific.com/","en-GB,en-US;q=0.9,en;q=0.8","66826c452acc243fa7b92f51","687a19d2168e237449fb8af4","6889d9efd98404e6a9477fb2","0","66826c452acc243fa7b92f51","0","2025-07-30T08:58:16.038Z","","","","AttribQ","","","","","","","","","","","50","","","","","","","","","","","","","","","","","","","","","","","","","","",""
"6419","","<div style=""width:500px;"">
  <p>How much control did you have over the ball?</p>
  </div>","99","html-slider-response","70","1166029","0.0-7.0-2.11","16","1","2025-07-30 08:38:51","36c45c0696341be0efffe67d72a12abb","105.4.2.135","Mozilla/5.0 (Windows NT 10.0; Win64; x64) AppleWebKit/537.36 (KHTML, like Gecko) Chrome/138.0.0.0 Safari/537.36","WebKit","Chrome","138.0.0.0","Windows","10.0","https://app.prolific.com/","en-GB,en-US;q=0.9,en;q=0.8","66826c452acc243fa7b92f51","687a19d2168e237449fb8af4","6889d9efd98404e6a9477fb2","0","66826c452acc243fa7b92f51","0","2025-07-30T08:58:22.458Z","","","","ControlQ","","","","","","","","","","","50","","","","","","","","","","","","","","","","","","","","","","","","","","",""
"6990","","<div style=""width:500px;"">
  <p>How would you describe your current emotional state?</p>
  </div>","2","html-slider-response","71","1173020","0.0-7.0-3.11","16","1","2025-07-30 08:38:51","36c45c0696341be0efffe67d72a12abb","105.4.2.135","Mozilla/5.0 (Windows NT 10.0; Win64; x64) AppleWebKit/537.36 (KHTML, like Gecko) Chrome/138.0.0.0 Safari/537.36","WebKit","Chrome","138.0.0.0","Windows","10.0","https://app.prolific.com/","en-GB,en-US;q=0.9,en;q=0.8","66826c452acc243fa7b92f51","687a19d2168e237449fb8af4","6889d9efd98404e6a9477fb2","0","66826c452acc243fa7b92f51","0","2025-07-30T08:58:29.449Z","","","","StressQ","","","","","","","","","","","50","","","","","","","","","","","","","","","","","","","","","","","","","","",""
"5189","","<div style=""width:500px;"">
  <p>What best describes how you currently feel?</p>
  </div>","99","html-slider-response","72","1178210","0.0-7.0-4.11","16","1","2025-07-30 08:38:51","36c45c0696341be0efffe67d72a12abb","105.4.2.135","Mozilla/5.0 (Windows NT 10.0; Win64; x64) AppleWebKit/537.36 (KHTML, like Gecko) Chrome/138.0.0.0 Safari/537.36","WebKit","Chrome","138.0.0.0","Windows","10.0","https://app.prolific.com/","en-GB,en-US;q=0.9,en;q=0.8","66826c452acc243fa7b92f51","687a19d2168e237449fb8af4","6889d9efd98404e6a9477fb2","0","66826c452acc243fa7b92f51","0","2025-07-30T08:58:34.639Z","","","","MotivationQ","","","","","","","","","","","50","","","","","","","","","","","","","","","","","","","","","","","","","","",""
"","","","","ctl-task-cpt","73","1214116","0.0-7.0-0.12","16","1","2025-07-30 08:38:51","36c45c0696341be0efffe67d72a12abb","105.4.2.135","Mozilla/5.0 (Windows NT 10.0; Win64; x64) AppleWebKit/537.36 (KHTML, like Gecko) Chrome/138.0.0.0 Safari/537.36","WebKit","Chrome","138.0.0.0","Windows","10.0","https://app.prolific.com/","en-GB,en-US;q=0.9,en;q=0.8","66826c452acc243fa7b92f51","687a19d2168e237449fb8af4","6889d9efd98404e6a9477fb2","0","66826c452acc243fa7b92f51","0","2025-07-30T08:59:10.545Z","","","","","","","","","","","","","","","","win-only","1","g1:NE,g2:SW","0.8","13","0","1183579.3","2629.8","7634","32879.9","1","4","8","6","2","8","8","41","33","0.3106060606060606","1779.6","3000","1495","[""down"",""left""]","{""num_key_presses"":8,""num_perfect"":7,""num_errors"":0,""num_randdir"":1,""num_randdir_good_moves"":0,""num_whilered"":0,""num_whileblue"":0,""num_blue"":1,""num_good_moves"":7}","[408.57142857142856,416.47767857142856,0.1,408.57142857142856,416.47767857142856,107.4,408.57142857142856,416.47767857142856,211.5,408.57142857142856,416.47767857142856,316.9,408.57142857142856,416.47767857142856,418.2,408.57142857142856,416.47767857142856,519.5,408.57142857142856,416.47767857142856,620.6,408.57142857142856,416.47767857142856,721.3,372.57142857142856,456.47767857142856,825.6,122.57142857142857,704.4776785714286,939.3,73.57142857142857,726.4776785714286,1055,30.57142857142857,739.4776785714286,1155,25.57142857142857,747.4776785714286,1256.7,39.57142857142857,752.4776785714286,1365.2,47.57142857142857,752.4776785714286,1473,48.57142857142857,752.4776785714286,1573.1,48.57142857142857,752.4776785714286,1676.6,48.57142857142857,752.4776785714286,1778.2,48.57142857142857,752.4776785714286,1883.8,48.57142857142857,752.4776785714286,1993.2,48.57142857142857,752.4776785714286,2100.6,48.57142857142857,752.4776785714286,2207.1,-74.42857142857143,737.4776785714286,2320.8,-109.42857142857143,716.4776785714286,2430.3,-119.42857142857143,712.4776785714286,2533.5,-119.42857142857143,712.4776785714286,2643.3,-119.42857142857143,712.4776785714286,2757.6,-119.42857142857143,712.4776785714286,2871.3,-119.42857142857143,712.4776785714286,2971.7,-119.42857142857143,712.4776785714286,3077.1,-119.42857142857143,712.4776785714286,3179.5,-119.42857142857143,712.4776785714286,3282,-119.42857142857143,712.4776785714286,3389.8,-119.42857142857143,712.4776785714286,3491.2,-119.42857142857143,712.4776785714286,3605.7,-119.42857142857143,712.4776785714286,3718.5,-119.42857142857143,712.4776785714286,3821.7,-119.42857142857143,712.4776785714286,3923,-119.42857142857143,712.4776785714286,4028.6,-119.42857142857143,712.4776785714286,4137.5,-119.42857142857143,712.4776785714286,4240.1,-119.42857142857143,712.4776785714286,4352.6,-119.42857142857143,712.4776785714286,4460.6,-119.42857142857143,712.4776785714286,4569.6,-119.42857142857143,712.4776785714286,4676.2,-119.42857142857143,712.4776785714286,4786.5,-119.42857142857143,712.4776785714286,4892.1]","[1526.6,1526.6,1000,0,526.6,""smooth"",""down"",""down"",""good_move"",4128,2601,2127.1,1527,473.9,""smooth"",""left"",""left"",""good_move"",10730.1,6601.8,2386.2,7852.4,491.5,""smooth"",""down"",""down"",""good_move"",13466.5,2736.3,2241.3,10730.2,495,""smooth"",""left"",""left"",""good_move"",16113.4,2646.6,1891.1,13466.8,755.5,""oops"",""left"",""up"",""bad_move"",19309.7,3195.8,2789.5,16113.9,406.3,""smooth"",""down"",""down"",""good_move"",21788.6,2478.6,2022,19310,456.6,""smooth"",""down"",""down"",""good_move"",25008.9,3219.5,2604.4,21789.4,615.1,""smooth"",""left"",""left"",""good_move""]"
"4749","","<div style=""width:500px;"">
  <p>What determined the result of this run?</p>
  </div>","99","html-slider-response","74","1218866","0.0-7.0-1.12","16","1","2025-07-30 08:38:51","36c45c0696341be0efffe67d72a12abb","105.4.2.135","Mozilla/5.0 (Windows NT 10.0; Win64; x64) AppleWebKit/537.36 (KHTML, like Gecko) Chrome/138.0.0.0 Safari/537.36","WebKit","Chrome","138.0.0.0","Windows","10.0","https://app.prolific.com/","en-GB,en-US;q=0.9,en;q=0.8","66826c452acc243fa7b92f51","687a19d2168e237449fb8af4","6889d9efd98404e6a9477fb2","0","66826c452acc243fa7b92f51","0","2025-07-30T08:59:15.295Z","","","","AttribQ","","","","","","","","","","","50","","","","","","","","","","","","","","","","","","","","","","","","","","",""
"4103","","<div style=""width:500px;"">
  <p>How much control did you have over the ball?</p>
  </div>","100","html-slider-response","75","1222971","0.0-7.0-2.12","16","1","2025-07-30 08:38:51","36c45c0696341be0efffe67d72a12abb","105.4.2.135","Mozilla/5.0 (Windows NT 10.0; Win64; x64) AppleWebKit/537.36 (KHTML, like Gecko) Chrome/138.0.0.0 Safari/537.36","WebKit","Chrome","138.0.0.0","Windows","10.0","https://app.prolific.com/","en-GB,en-US;q=0.9,en;q=0.8","66826c452acc243fa7b92f51","687a19d2168e237449fb8af4","6889d9efd98404e6a9477fb2","0","66826c452acc243fa7b92f51","0","2025-07-30T08:59:19.400Z","","","","ControlQ","","","","","","","","","","","50","","","","","","","","","","","","","","","","","","","","","","","","","","",""
"3666","","<div style=""width:500px;"">
  <p>How would you describe your current emotional state?</p>
  </div>","1","html-slider-response","76","1226638","0.0-7.0-3.12","16","1","2025-07-30 08:38:51","36c45c0696341be0efffe67d72a12abb","105.4.2.135","Mozilla/5.0 (Windows NT 10.0; Win64; x64) AppleWebKit/537.36 (KHTML, like Gecko) Chrome/138.0.0.0 Safari/537.36","WebKit","Chrome","138.0.0.0","Windows","10.0","https://app.prolific.com/","en-GB,en-US;q=0.9,en;q=0.8","66826c452acc243fa7b92f51","687a19d2168e237449fb8af4","6889d9efd98404e6a9477fb2","0","66826c452acc243fa7b92f51","0","2025-07-30T08:59:23.067Z","","","","StressQ","","","","","","","","","","","50","","","","","","","","","","","","","","","","","","","","","","","","","","",""
"4470","","<div style=""width:500px;"">
  <p>What best describes how you currently feel?</p>
  </div>","100","html-slider-response","77","1231109","0.0-7.0-4.12","16","1","2025-07-30 08:38:51","36c45c0696341be0efffe67d72a12abb","105.4.2.135","Mozilla/5.0 (Windows NT 10.0; Win64; x64) AppleWebKit/537.36 (KHTML, like Gecko) Chrome/138.0.0.0 Safari/537.36","WebKit","Chrome","138.0.0.0","Windows","10.0","https://app.prolific.com/","en-GB,en-US;q=0.9,en;q=0.8","66826c452acc243fa7b92f51","687a19d2168e237449fb8af4","6889d9efd98404e6a9477fb2","0","66826c452acc243fa7b92f51","0","2025-07-30T08:59:27.538Z","","","","MotivationQ","","","","","","","","","","","50","","","","","","","","","","","","","","","","","","","","","","","","","","",""
