"rt","response_timestamp","stimulus","response","trial_type","trial_index","time_elapsed","internal_node_id","run_id","condition","recorded_at","source_code_version","ip","user_agent","device","browser","browser_version","platform","platform_version","referer","accept_language","PROLIFIC_PID","STUDY_ID","SESSION_ID","BATCH","prolific_id","batch","realtime","success","question_order","question_id","eventType","responses","item_order","radio_event_ids","radio_event_times","key_event_times","mouse_event_times","straightlining","zigzagging","honeypot","view_history","slider_start","which_type","canvas_config","goals_layout","control_level","trial_number","tutorial_trial_number","trial_start_time","phase1_start_time","phase2_start_time","phase3_start_time","goal_1_value","goal_1_distance","goal_2_value","goal_2_distance","goal_selected","outcome","outcome_total","participant_final_score","participant_initial_score","participant_final_score_prop","goal_choice_rt","allocated_time","allocated_time_remaining","goal_direction","counts","mouse_movements","key_presses"
"1935","1754470407311","<p style='font-size:40px;line-height:1.25'><strong>Welcome to the experiment!</strong></p><p style='font-size:1.1em;line-height:1.25'>Thank you for participanting in our experiment again! You will be asked to play the Dysfunctional Ball Game again. We will briefly recap the rules before we start.</p><p style='font-size:1.1em;line-height:1.25'>Press <strong>Next</strong> to continue.</p>","0","custom-html-button-response","0","1939","0.0-0.0","139","1","2025-08-06 08:53:24","36c45c0696341be0efffe67d72a12abb","86.1.241.155","Mozilla/5.0 (Macintosh; Intel Mac OS X 10_15_7) AppleWebKit/537.36 (KHTML, like Gecko) Chrome/138.0.0.0 Safari/537.36","Macintosh","Chrome","138.0.0.0","OS X","10_15_7","https://app.prolific.com/","en-GB,en-US;q=0.9,en;q=0.8","668daa061b4a36bcfd2591c6","687a1a965b9f5b85a264363e","68931756d7c3cd2750be9539","1","668daa061b4a36bcfd2591c6","1","2025-08-06T08:53:27.313Z","","","","","","","","","","","","","","","","","","","","","","","","","","","","","","","","","","","","","","","","","",""
"2938","","","","fullscreen","1","5883","0.0-1.0","139","1","2025-08-06 08:53:24","36c45c0696341be0efffe67d72a12abb","86.1.241.155","Mozilla/5.0 (Macintosh; Intel Mac OS X 10_15_7) AppleWebKit/537.36 (KHTML, like Gecko) Chrome/138.0.0.0 Safari/537.36","Macintosh","Chrome","138.0.0.0","OS X","10_15_7","https://app.prolific.com/","en-GB,en-US;q=0.9,en;q=0.8","668daa061b4a36bcfd2591c6","687a1a965b9f5b85a264363e","68931756d7c3cd2750be9539","1","668daa061b4a36bcfd2591c6","1","","true","","","","","","","","","","","","","","","","","","","","","","","","","","","","","","","","","","","","","","","","",""
"2323","1754470413581"," <p style='font-size:1.1em;line-height:1.25'>Thank you for closing all other tabs.</p><p style='font-size:1.1em;line-height:1.25'>We will now invite you to fill in some questionnaires, before starting the game.<br>This will take about 5 minutes.<br></p><p style='font-size:1.1em;line-height:1.25'>Press the <strong>Next</strong> button to continue.</p>","0","custom-html-button-response","2","8208","0.0-2.0","139","1","2025-08-06 08:53:24","36c45c0696341be0efffe67d72a12abb","86.1.241.155","Mozilla/5.0 (Macintosh; Intel Mac OS X 10_15_7) AppleWebKit/537.36 (KHTML, like Gecko) Chrome/138.0.0.0 Safari/537.36","Macintosh","Chrome","138.0.0.0","OS X","10_15_7","https://app.prolific.com/","en-GB,en-US;q=0.9,en;q=0.8","668daa061b4a36bcfd2591c6","687a1a965b9f5b85a264363e","68931756d7c3cd2750be9539","1","668daa061b4a36bcfd2591c6","1","2025-08-06T08:53:33.582Z","","","","","","","","","","","","","","","","","","","","","","","","","","","","","","","","","","","","","","","","","",""
"3116","","","{""assigned_sex"":""female""}","survey-multi-choice","3","11327","0.0-3.0-0.0","139","1","2025-08-06 08:53:24","36c45c0696341be0efffe67d72a12abb","86.1.241.155","Mozilla/5.0 (Macintosh; Intel Mac OS X 10_15_7) AppleWebKit/537.36 (KHTML, like Gecko) Chrome/138.0.0.0 Safari/537.36","Macintosh","Chrome","138.0.0.0","OS X","10_15_7","https://app.prolific.com/","en-GB,en-US;q=0.9,en;q=0.8","668daa061b4a36bcfd2591c6","687a1a965b9f5b85a264363e","68931756d7c3cd2750be9539","1","668daa061b4a36bcfd2591c6","1","","","[0]","0","demographics","","","","","","","","","","","","","","","","","","","","","","","","","","","","","","","","","","","","","",""
"10040","1754470426741","<p style='font-size:1.1em;line-height:1.25'>In the following, we will perform a baseline assessment. This means that we will ask you a few questions relating to your experiences over the past month.<br></p><p style='font-size:1.1em;line-height:1.25'>Press the <strong>Next</strong> button to continue.</p>","0","custom-html-button-response","4","21367","0.0-4.0-0.0","139","1","2025-08-06 08:53:24","36c45c0696341be0efffe67d72a12abb","86.1.241.155","Mozilla/5.0 (Macintosh; Intel Mac OS X 10_15_7) AppleWebKit/537.36 (KHTML, like Gecko) Chrome/138.0.0.0 Safari/537.36","Macintosh","Chrome","138.0.0.0","OS X","10_15_7","https://app.prolific.com/","en-GB,en-US;q=0.9,en;q=0.8","668daa061b4a36bcfd2591c6","687a1a965b9f5b85a264363e","68931756d7c3cd2750be9539","1","668daa061b4a36bcfd2591c6","1","2025-08-06T08:53:46.742Z","","","","","","","","","","","","","","","","","","","","","","","","","","","","","","","","","","","","","","","","","",""
"134547.60000000894","","","","survey-template","5","155918","0.0-4.0-1.0","139","1","2025-08-06 08:53:24","36c45c0696341be0efffe67d72a12abb","86.1.241.155","Mozilla/5.0 (Macintosh; Intel Mac OS X 10_15_7) AppleWebKit/537.36 (KHTML, like Gecko) Chrome/138.0.0.0 Safari/537.36","Macintosh","Chrome","138.0.0.0","OS X","10_15_7","https://app.prolific.com/","en-GB,en-US;q=0.9,en;q=0.8","668daa061b4a36bcfd2591c6","687a1a965b9f5b85a264363e","68931756d7c3cd2750be9539","1","668daa061b4a36bcfd2591c6","1","2025-08-06T08:56:01.292Z","","","","pss","{""Q01"":""2"",""Q02"":""2"",""Q03"":""3"",""Q04"":""2"",""Q05"":""2"",""Q06"":""2"",""Q07"":""2"",""Q08"":""2"",""Q09"":""3"",""Q10"":""1""}","[0,1,2,3,4,5,6,7,8,9]","[""Q01"",""Q02"",""Q04"",""Q05"",""Q06"",""Q07"",""Q08"",""Q09"",""Q10"",""Q03""]","[4063.2000000029802,6472.70000000298,12523.90000000596,15570.79999999702,118188.20000000298,120259.70000000298,122378.90000000596,126949.70000000298,129255.90000000596,133377]","[]","[0.20000000298023224,4063.2000000029802,6472.70000000298,8738.10000000894,12523.90000000596,15570.79999999702,118188.20000000298,120259.70000000298,122378.90000000596,126949.70000000298,129255.90000000596,130236.40000000596,133377,134542.10000000894]","0.7","0.3333333333333333","0","","","","","","","","","","","","","","","","","","","","","","","","","","","","",""
"2234","1754470563527","<p style='font-size:1.1em;line-height:1.25'>Thank you for your answers! Now we will ask you a few more questions relating to your feelings in the last 24 hours.<br></p><p style='font-size:1.1em;line-height:1.25'>Press the <strong>Next</strong> button to continue.</p>","0","custom-html-button-response","6","158154","0.0-4.0-2.0","139","1","2025-08-06 08:53:24","36c45c0696341be0efffe67d72a12abb","86.1.241.155","Mozilla/5.0 (Macintosh; Intel Mac OS X 10_15_7) AppleWebKit/537.36 (KHTML, like Gecko) Chrome/138.0.0.0 Safari/537.36","Macintosh","Chrome","138.0.0.0","OS X","10_15_7","https://app.prolific.com/","en-GB,en-US;q=0.9,en;q=0.8","668daa061b4a36bcfd2591c6","687a1a965b9f5b85a264363e","68931756d7c3cd2750be9539","1","668daa061b4a36bcfd2591c6","1","2025-08-06T08:56:03.528Z","","","","","","","","","","","","","","","","","","","","","","","","","","","","","","","","","","","","","","","","","",""
"72743.5","","","","survey-template","7","230901","0.0-4.0-3.0","139","1","2025-08-06 08:53:24","36c45c0696341be0efffe67d72a12abb","86.1.241.155","Mozilla/5.0 (Macintosh; Intel Mac OS X 10_15_7) AppleWebKit/537.36 (KHTML, like Gecko) Chrome/138.0.0.0 Safari/537.36","Macintosh","Chrome","138.0.0.0","OS X","10_15_7","https://app.prolific.com/","en-GB,en-US;q=0.9,en;q=0.8","668daa061b4a36bcfd2591c6","687a1a965b9f5b85a264363e","68931756d7c3cd2750be9539","1","668daa061b4a36bcfd2591c6","1","2025-08-06T08:57:16.275Z","","","","drsp","{""Q01"":""2"",""Q02"":""1"",""Q03"":""0"",""Q04"":""2"",""Q05"":""0"",""Q06"":""1"",""Q07"":""1"",""Q08"":""0"",""Q09"":""3"",""Q10"":""3"",""Q11"":""3"",""Q12"":""4"",""Q13"":""5"",""Q14"":""4"",""Q15"":""4"",""Q16"":""2"",""Q17"":""1"",""Q18"":""1"",""Q19"":""3"",""Q20"":""2"",""Q21"":""2"",""Q22"":""2""}","[0,1,2,3,4,5,6,7,8,9,10,11,12,13,14,15,16,17,18,19,20,21]","[""Q01"",""Q02"",""Q03"",""Q04"",""Q06"",""Q07"",""Q08"",""Q08"",""Q09"",""Q10"",""Q11"",""Q12"",""Q13"",""Q14"",""Q15"",""Q16"",""Q17"",""Q18"",""Q19"",""Q20"",""Q21"",""Q22"",""Q05""]","[3438.4000000059605,4731.29999999702,6266.79999999702,7451.70000000298,11255.5,12761.79999999702,16136.90000000596,18316,19982.29999999702,25100,26694.29999999702,28637.20000000298,30314.59999999404,32048,43259.29999999702,47425.90000000596,50314.70000000298,51538.20000000298,53661.20000000298,60156,63153.09999999404,65184,69758.09999999404]","[]","[0.09999999403953552,3438.4000000059605,4731.29999999702,6266.79999999702,7451.70000000298,8883.40000000596,11255.5,12761.79999999702,14524.5,16136.90000000596,18316,19982.29999999702,22170.20000000298,23699.59999999404,24629.59999999404,25100,25984.79999999702,26694.29999999702,28637.20000000298,30314.59999999404,32048,43259.29999999702,47425.90000000596,50314.70000000298,51538.20000000298,53661.20000000298,60156,63153.09999999404,64655.59999999404,65184,66120.79999999702,69758.09999999404,72735]","0.2727272727272727","0.42857142857142855","0","","","","","","","","","","","","","","","","","","","","","","","","","","","","",""
"7982","","","","survey-template","8","238885","0.0-4.0-4.0","139","1","2025-08-06 08:53:24","36c45c0696341be0efffe67d72a12abb","86.1.241.155","Mozilla/5.0 (Macintosh; Intel Mac OS X 10_15_7) AppleWebKit/537.36 (KHTML, like Gecko) Chrome/138.0.0.0 Safari/537.36","Macintosh","Chrome","138.0.0.0","OS X","10_15_7","https://app.prolific.com/","en-GB,en-US;q=0.9,en;q=0.8","668daa061b4a36bcfd2591c6","687a1a965b9f5b85a264363e","68931756d7c3cd2750be9539","1","668daa061b4a36bcfd2591c6","1","2025-08-06T08:57:24.259Z","","","","stress","{""Q01"":""2"",""Q02"":""2"",""Q03"":""1""}","[0,1,2]","[""Q01"",""Q02"",""Q03""]","[3541.7000000029802,4985,7028.9000000059605]","[]","[3541.7000000029802,4985,7028.9000000059605,7980.0999999940395]","0.3333333333333333","0.5","0","","","","","","","","","","","","","","","","","","","","","","","","","","","","",""
"8836","","","","instructions","9","247722","0.0-5.0-0.0","139","1","2025-08-06 08:53:24","36c45c0696341be0efffe67d72a12abb","86.1.241.155","Mozilla/5.0 (Macintosh; Intel Mac OS X 10_15_7) AppleWebKit/537.36 (KHTML, like Gecko) Chrome/138.0.0.0 Safari/537.36","Macintosh","Chrome","138.0.0.0","OS X","10_15_7","https://app.prolific.com/","en-GB,en-US;q=0.9,en;q=0.8","668daa061b4a36bcfd2591c6","687a1a965b9f5b85a264363e","68931756d7c3cd2750be9539","1","668daa061b4a36bcfd2591c6","1","","","","","","","","","","","","","","","[{""page_index"":0,""viewing_time"":8836}]","","","","","","","","","","","","","","","","","","","","","","","","","","","",""
"3056","","<p>Before you start with this game please answer the following three questions yourself. </p>
  <p>Through this game, we measure several aspects of your cognitive performance, such as reaction times, multi-tasking capabilities </p>
  <p>and the ability to assess the situation you are in.</p>
  <p></p>
  <p><b>How good do you usually are in such tasks?</b></p>","50","html-slider-response","10","250781","0.0-6.0-0.0","139","1","2025-08-06 08:53:24","36c45c0696341be0efffe67d72a12abb","86.1.241.155","Mozilla/5.0 (Macintosh; Intel Mac OS X 10_15_7) AppleWebKit/537.36 (KHTML, like Gecko) Chrome/138.0.0.0 Safari/537.36","Macintosh","Chrome","138.0.0.0","OS X","10_15_7","https://app.prolific.com/","en-GB,en-US;q=0.9,en;q=0.8","668daa061b4a36bcfd2591c6","687a1a965b9f5b85a264363e","68931756d7c3cd2750be9539","1","668daa061b4a36bcfd2591c6","1","2025-08-06T08:57:36.156Z","","","","PreSkillQ","","","","","","","","","","","50","","","","","","","","","","","","","","","","","","","","","","","","","","",""
"4458","","<div style=""width:500px;"">
  <p>How well do you think you will perform in this task compared to other participants?</p>
  </div>","49","html-slider-response","11","255241","0.0-6.0-1.0","139","1","2025-08-06 08:53:24","36c45c0696341be0efffe67d72a12abb","86.1.241.155","Mozilla/5.0 (Macintosh; Intel Mac OS X 10_15_7) AppleWebKit/537.36 (KHTML, like Gecko) Chrome/138.0.0.0 Safari/537.36","Macintosh","Chrome","138.0.0.0","OS X","10_15_7","https://app.prolific.com/","en-GB,en-US;q=0.9,en;q=0.8","668daa061b4a36bcfd2591c6","687a1a965b9f5b85a264363e","68931756d7c3cd2750be9539","1","668daa061b4a36bcfd2591c6","1","2025-08-06T08:57:40.615Z","","","","PrePerfQ","","","","","","","","","","","50","","","","","","","","","","","","","","","","","","","","","","","","","","",""
"3114","","<div style=""width:500px;"">
  <p>What best describes how you currently feel?</p>
  </div>","50","html-slider-response","12","258357","0.0-6.0-2.0","139","1","2025-08-06 08:53:24","36c45c0696341be0efffe67d72a12abb","86.1.241.155","Mozilla/5.0 (Macintosh; Intel Mac OS X 10_15_7) AppleWebKit/537.36 (KHTML, like Gecko) Chrome/138.0.0.0 Safari/537.36","Macintosh","Chrome","138.0.0.0","OS X","10_15_7","https://app.prolific.com/","en-GB,en-US;q=0.9,en;q=0.8","668daa061b4a36bcfd2591c6","687a1a965b9f5b85a264363e","68931756d7c3cd2750be9539","1","668daa061b4a36bcfd2591c6","1","2025-08-06T08:57:43.731Z","","","","PreMotivationQ","","","","","","","","","","","50","","","","","","","","","","","","","","","","","","","","","","","","","","",""
"","","","","ctl-task-cpt","13","292171","0.0-7.0-0.0","139","1","2025-08-06 08:53:24","36c45c0696341be0efffe67d72a12abb","86.1.241.155","Mozilla/5.0 (Macintosh; Intel Mac OS X 10_15_7) AppleWebKit/537.36 (KHTML, like Gecko) Chrome/138.0.0.0 Safari/537.36","Macintosh","Chrome","138.0.0.0","OS X","10_15_7","https://app.prolific.com/","en-GB,en-US;q=0.9,en;q=0.8","668daa061b4a36bcfd2591c6","687a1a965b9f5b85a264363e","68931756d7c3cd2750be9539","1","668daa061b4a36bcfd2591c6","1","2025-08-06T08:58:17.545Z","","","","","","","","","","","","","","","","win-only","0","g1:NW,g2:SE","1","1","0","259408.4","1942.3","6947.1","30799.4","1","4","8","6","2","8","8","8","0","0.06060606060606061","3229.5","3000","1150","[""down"",""right""]","{""num_key_presses"":6,""num_perfect"":6,""num_errors"":0,""num_randdir"":0,""num_randdir_good_moves"":0,""num_whilered"":0,""num_whileblue"":0,""num_blue"":3,""num_good_moves"":6}","[812,811.796875,0.3,812,811.796875,555.9,812,811.796875,663.2,812,811.796875,764,812,811.796875,869.7,812,811.796875,973,812,811.796875,1073.4,812,811.796875,1173.5,812,811.796875,1301.6,812,811.796875,1409.9,812,811.796875,1513.7,812,811.796875,1619.6,812,811.796875,1738.3,812,811.796875,1838.8,812,811.796875,1958.5,812,811.796875,2064.2,812,811.796875,2170.5,812,811.796875,2273.4,812,811.796875,2374.1,812,811.796875,2479.2,812,811.796875,2593.1,1140,1239.796875,2694.2,1258,1537.796875,2802.4,1258,1537.796875,2903.9,1326,1509.796875,3011.5,1512,1481.796875,3115.7,1520,1483.796875,3219.9,1520,1483.796875,3324.7,1520,1483.796875,3448,1520,1483.796875,3560.6,1520,1483.796875,3664.1,1520,1483.796875,3766.1,1520,1483.796875,3870.9,1520,1483.796875,3977.2,1520,1483.796875,4090.2,1520,1483.796875,4209.5,1520,1483.796875,4320.1,1520,1483.796875,4439.7,1520,1483.796875,4557.5,1520,1483.796875,4676.4,1520,1483.796875,4778.2,1520,1483.796875,4879,1520,1483.796875,4979.8]","[4883.1,4883.1,2187.1,2018,678,""smooth"",""right"",""right"",""good_move"",7446.5,2563.2,2106.1,4883.4,457,""smooth"",""right"",""right"",""good_move"",10365.4,2918.7,2413.6,7446.7,505.1,""smooth"",""right"",""right"",""good_move"",13246.5,2880.8,2495.8,10365.7,385,""smooth"",""down"",""down"",""good_move"",17912.8,4665.7,1413.2,16074.2,425.4,""smooth"",""down"",""down"",""good_move"",23728.9,5815.9,2164.4,21129.4,435.2,""smooth"",""down"",""down"",""good_move""]"
"26679","","<div style=""width:500px;"">
  <p>What determined the result of this run?</p>
  </div>","0","html-slider-response","14","318851","0.0-7.0-1.0","139","1","2025-08-06 08:53:24","36c45c0696341be0efffe67d72a12abb","86.1.241.155","Mozilla/5.0 (Macintosh; Intel Mac OS X 10_15_7) AppleWebKit/537.36 (KHTML, like Gecko) Chrome/138.0.0.0 Safari/537.36","Macintosh","Chrome","138.0.0.0","OS X","10_15_7","https://app.prolific.com/","en-GB,en-US;q=0.9,en;q=0.8","668daa061b4a36bcfd2591c6","687a1a965b9f5b85a264363e","68931756d7c3cd2750be9539","1","668daa061b4a36bcfd2591c6","1","2025-08-06T08:58:44.225Z","","","","AttribQ","","","","","","","","","","","50","","","","","","","","","","","","","","","","","","","","","","","","","","",""
"3123","","<div style=""width:500px;"">
  <p>How much control did you have over the ball?</p>
  </div>","52","html-slider-response","15","321975","0.0-7.0-2.0","139","1","2025-08-06 08:53:24","36c45c0696341be0efffe67d72a12abb","86.1.241.155","Mozilla/5.0 (Macintosh; Intel Mac OS X 10_15_7) AppleWebKit/537.36 (KHTML, like Gecko) Chrome/138.0.0.0 Safari/537.36","Macintosh","Chrome","138.0.0.0","OS X","10_15_7","https://app.prolific.com/","en-GB,en-US;q=0.9,en;q=0.8","668daa061b4a36bcfd2591c6","687a1a965b9f5b85a264363e","68931756d7c3cd2750be9539","1","668daa061b4a36bcfd2591c6","1","2025-08-06T08:58:47.349Z","","","","ControlQ","","","","","","","","","","","50","","","","","","","","","","","","","","","","","","","","","","","","","","",""
"2494","","<div style=""width:500px;"">
  <p>How would you describe your current emotional state?</p>
  </div>","50","html-slider-response","16","324470","0.0-7.0-3.0","139","1","2025-08-06 08:53:24","36c45c0696341be0efffe67d72a12abb","86.1.241.155","Mozilla/5.0 (Macintosh; Intel Mac OS X 10_15_7) AppleWebKit/537.36 (KHTML, like Gecko) Chrome/138.0.0.0 Safari/537.36","Macintosh","Chrome","138.0.0.0","OS X","10_15_7","https://app.prolific.com/","en-GB,en-US;q=0.9,en;q=0.8","668daa061b4a36bcfd2591c6","687a1a965b9f5b85a264363e","68931756d7c3cd2750be9539","1","668daa061b4a36bcfd2591c6","1","2025-08-06T08:58:49.845Z","","","","StressQ","","","","","","","","","","","50","","","","","","","","","","","","","","","","","","","","","","","","","","",""
"23772","","<div style=""width:500px;"">
  <p>What best describes how you currently feel?</p>
  </div>","49","html-slider-response","17","348245","0.0-7.0-4.0","139","1","2025-08-06 08:53:24","36c45c0696341be0efffe67d72a12abb","86.1.241.155","Mozilla/5.0 (Macintosh; Intel Mac OS X 10_15_7) AppleWebKit/537.36 (KHTML, like Gecko) Chrome/138.0.0.0 Safari/537.36","Macintosh","Chrome","138.0.0.0","OS X","10_15_7","https://app.prolific.com/","en-GB,en-US;q=0.9,en;q=0.8","668daa061b4a36bcfd2591c6","687a1a965b9f5b85a264363e","68931756d7c3cd2750be9539","1","668daa061b4a36bcfd2591c6","1","2025-08-06T08:59:13.619Z","","","","MotivationQ","","","","","","","","","","","50","","","","","","","","","","","","","","","","","","","","","","","","","","",""
"","","","","ctl-task-cpt","18","386320","0.0-7.0-0.1","139","1","2025-08-06 08:53:24","36c45c0696341be0efffe67d72a12abb","86.1.241.155","Mozilla/5.0 (Macintosh; Intel Mac OS X 10_15_7) AppleWebKit/537.36 (KHTML, like Gecko) Chrome/138.0.0.0 Safari/537.36","Macintosh","Chrome","138.0.0.0","OS X","10_15_7","https://app.prolific.com/","en-GB,en-US;q=0.9,en;q=0.8","668daa061b4a36bcfd2591c6","687a1a965b9f5b85a264363e","68931756d7c3cd2750be9539","1","668daa061b4a36bcfd2591c6","1","2025-08-06T08:59:51.694Z","","","","","","","","","","","","","","","","win-only","0","g1:NW,g2:SE","0.9","2","0","349295.7","1459.5","6481.9","35048.3","1","4","4","6","2","4","4","12","8","0.09090909090909091","1425.6","3000","440","[""down"",""right""]","{""num_key_presses"":8,""num_perfect"":7,""num_errors"":0,""num_randdir"":1,""num_randdir_good_moves"":0,""num_whilered"":0,""num_whileblue"":0,""num_blue"":2,""num_good_moves"":7}","[814,811.796875,0.2,814,811.796875,101.7,814,811.796875,206.2,814,811.796875,309.7,814,811.796875,413.2,814,811.796875,516.8,814,811.796875,617.6,814,811.796875,717.8,814,811.796875,826.8,814,811.796875,927.3,1456,1301.796875,1034.7,1614,1483.796875,1140,1614,1483.796875,1241.4,1614,1483.796875,1347.2,1580,1475.796875,1455.5,1580,1475.796875,1557.1,1580,1475.796875,1659,1580,1475.796875,1761.8,1580,1475.796875,1865.9,1580,1475.796875,1972.6,1580,1475.796875,2085.8,1580,1475.796875,2187.1,1580,1475.796875,2290.7,1580,1475.796875,2403.7,1580,1475.796875,2507.5,1580,1475.796875,2618.4,1580,1475.796875,2720.6,1580,1475.796875,2825.3,1580,1475.796875,2927.8,1580,1475.796875,3034.1,1580,1475.796875,3137.2,1580,1475.796875,3245.8,1580,1475.796875,3346.4,1580,1475.796875,3460.2,1580,1475.796875,3563.9,1580,1475.796875,3675,1580,1475.796875,3776.9,1580,1475.796875,3880.5,1580,1475.796875,3981.7,1580,1475.796875,4081.9,1580,1475.796875,4181.9,1580,1475.796875,4289.8,1580,1475.796875,4392.2,1580,1475.796875,4498.1,1580,1475.796875,4610.3,1580,1475.796875,4710.9,1580,1475.796875,4815.8,1580,1475.796875,4918.5]","[1515,1515,1000,0,515,""smooth"",""right"",""right"",""good_move"",4745.4,3230.2,2856.9,1515.2,373.3,""smooth"",""right"",""right"",""good_move"",6583.2,1837.7,1343.9,4745.6,493.7,""smooth"",""right"",""right"",""good_move"",10322.5,3739.2,3386.1,6583.3,353.1,""oops"",""down"",""left"",""bad_move"",20290.9,9968.1,2847.3,17039.3,404.3,""smooth"",""down"",""down"",""good_move"",23470.2,3179,2749.6,20291.2,429.4,""smooth"",""down"",""down"",""good_move"",26137.9,2667.5,2198.9,23470.4,468.6,""smooth"",""down"",""down"",""good_move"",28453.6,2315.5,1767.7,26138.1,547.9,""smooth"",""right"",""right"",""good_move""]"
"2943","","<div style=""width:500px;"">
  <p>What determined the result of this run?</p>
  </div>","50","html-slider-response","19","389265","0.0-7.0-1.1","139","1","2025-08-06 08:53:24","36c45c0696341be0efffe67d72a12abb","86.1.241.155","Mozilla/5.0 (Macintosh; Intel Mac OS X 10_15_7) AppleWebKit/537.36 (KHTML, like Gecko) Chrome/138.0.0.0 Safari/537.36","Macintosh","Chrome","138.0.0.0","OS X","10_15_7","https://app.prolific.com/","en-GB,en-US;q=0.9,en;q=0.8","668daa061b4a36bcfd2591c6","687a1a965b9f5b85a264363e","68931756d7c3cd2750be9539","1","668daa061b4a36bcfd2591c6","1","2025-08-06T08:59:54.639Z","","","","AttribQ","","","","","","","","","","","50","","","","","","","","","","","","","","","","","","","","","","","","","","",""
"3784","","<div style=""width:500px;"">
  <p>How much control did you have over the ball?</p>
  </div>","50","html-slider-response","20","393049","0.0-7.0-2.1","139","1","2025-08-06 08:53:24","36c45c0696341be0efffe67d72a12abb","86.1.241.155","Mozilla/5.0 (Macintosh; Intel Mac OS X 10_15_7) AppleWebKit/537.36 (KHTML, like Gecko) Chrome/138.0.0.0 Safari/537.36","Macintosh","Chrome","138.0.0.0","OS X","10_15_7","https://app.prolific.com/","en-GB,en-US;q=0.9,en;q=0.8","668daa061b4a36bcfd2591c6","687a1a965b9f5b85a264363e","68931756d7c3cd2750be9539","1","668daa061b4a36bcfd2591c6","1","2025-08-06T08:59:58.423Z","","","","ControlQ","","","","","","","","","","","50","","","","","","","","","","","","","","","","","","","","","","","","","","",""
"1976","","<div style=""width:500px;"">
  <p>How would you describe your current emotional state?</p>
  </div>","50","html-slider-response","21","395026","0.0-7.0-3.1","139","1","2025-08-06 08:53:24","36c45c0696341be0efffe67d72a12abb","86.1.241.155","Mozilla/5.0 (Macintosh; Intel Mac OS X 10_15_7) AppleWebKit/537.36 (KHTML, like Gecko) Chrome/138.0.0.0 Safari/537.36","Macintosh","Chrome","138.0.0.0","OS X","10_15_7","https://app.prolific.com/","en-GB,en-US;q=0.9,en;q=0.8","668daa061b4a36bcfd2591c6","687a1a965b9f5b85a264363e","68931756d7c3cd2750be9539","1","668daa061b4a36bcfd2591c6","1","2025-08-06T09:00:00.400Z","","","","StressQ","","","","","","","","","","","50","","","","","","","","","","","","","","","","","","","","","","","","","","",""
"2217","","<div style=""width:500px;"">
  <p>What best describes how you currently feel?</p>
  </div>","50","html-slider-response","22","397245","0.0-7.0-4.1","139","1","2025-08-06 08:53:24","36c45c0696341be0efffe67d72a12abb","86.1.241.155","Mozilla/5.0 (Macintosh; Intel Mac OS X 10_15_7) AppleWebKit/537.36 (KHTML, like Gecko) Chrome/138.0.0.0 Safari/537.36","Macintosh","Chrome","138.0.0.0","OS X","10_15_7","https://app.prolific.com/","en-GB,en-US;q=0.9,en;q=0.8","668daa061b4a36bcfd2591c6","687a1a965b9f5b85a264363e","68931756d7c3cd2750be9539","1","668daa061b4a36bcfd2591c6","1","2025-08-06T09:00:02.619Z","","","","MotivationQ","","","","","","","","","","","50","","","","","","","","","","","","","","","","","","","","","","","","","","",""
"","","","","ctl-task-cpt","23","453376","0.0-7.0-0.2","139","1","2025-08-06 08:53:24","36c45c0696341be0efffe67d72a12abb","86.1.241.155","Mozilla/5.0 (Macintosh; Intel Mac OS X 10_15_7) AppleWebKit/537.36 (KHTML, like Gecko) Chrome/138.0.0.0 Safari/537.36","Macintosh","Chrome","138.0.0.0","OS X","10_15_7","https://app.prolific.com/","en-GB,en-US;q=0.9,en;q=0.8","668daa061b4a36bcfd2591c6","687a1a965b9f5b85a264363e","68931756d7c3cd2750be9539","1","668daa061b4a36bcfd2591c6","1","2025-08-06T09:00:58.750Z","","","","","","","","","","","","","","","","win-only","0","g1:NW,g2:SE","0.8","3","0","398299","4730.6","9731.7","53111","1","4","4","6","2","4","4","16","12","0.12121212121212122","1216.8","3000","555","[""down"",""right""]","{""num_key_presses"":10,""num_perfect"":8,""num_errors"":0,""num_randdir"":2,""num_randdir_good_moves"":0,""num_whilered"":0,""num_whileblue"":0,""num_blue"":4,""num_good_moves"":8}","[814,827.796875,0.3,814,827.796875,100.7,814,827.796875,205.9,814,827.796875,308.8,814,827.796875,413.4,814,827.796875,515.6,814,827.796875,615.9,814,827.796875,719.1,1108,1059.796875,820.1,1498,1505.796875,922.6,1516,1555.796875,1025.1,1516,1555.796875,1126.5,1512,1551.796875,1229.3,1512,1551.796875,1330.2,1512,1551.796875,1433,1512,1551.796875,1534.6,1512,1551.796875,1647.4,1512,1551.796875,1752.6,1512,1551.796875,1854,1512,1551.796875,1956.2,1512,1551.796875,2071.6,1512,1551.796875,2178.1,1512,1551.796875,2290.5,1512,1551.796875,2391.7,1512,1551.796875,2495.7,1512,1551.796875,2605.7,1512,1551.796875,2705.9,1512,1551.796875,2810.5,1512,1551.796875,2911.7,1512,1551.796875,3016,1512,1551.796875,3116.6,1512,1551.796875,3219.2,1512,1551.796875,3324,1512,1551.796875,3425.7,1512,1551.796875,3536.9,1512,1551.796875,3648.3,1512,1551.796875,3751,1512,1551.796875,3857.1,1512,1551.796875,3975.4,1512,1551.796875,4092,1512,1551.796875,4196.7,1512,1551.796875,4299.5,1512,1551.796875,4400.5,1512,1551.796875,4501.1,1512,1551.796875,4603.5,1512,1551.796875,4713.5,1512,1551.796875,4829.9,1512,1551.796875,4930.5]","[9380,9380,2486.6,6506.7,386.7,""smooth"",""right"",""right"",""good_move"",12356.8,2976.4,2552.2,9380.4,424.2,""oops"",""right"",""up"",""bad_move"",19322.7,6965.6,2476.3,16409.6,436.8,""smooth"",""right"",""right"",""good_move"",26271.3,6948.5,3059.1,22794.7,417.5,""smooth"",""right"",""right"",""good_move"",29385,3113.6,2686.4,26271.4,427.2,""oops"",""down"",""up"",""bad_move"",32604.9,3219.6,2849.2,29385.3,370.4,""smooth"",""down"",""down"",""good_move"",34905,2299.8,1899.4,32605.2,400.4,""smooth"",""down"",""down"",""good_move"",37830,2924.9,2583.4,34905.1,341.5,""smooth"",""down"",""down"",""good_move"",40134.3,2304.1,1923.3,37830.2,380.9,""smooth"",""down"",""down"",""good_move"",43261,3126.5,2779.3,40134.5,347.2,""smooth"",""down"",""down"",""good_move""]"
"4495","","<div style=""width:500px;"">
  <p>What determined the result of this run?</p>
  </div>","50","html-slider-response","24","457871","0.0-7.0-1.2","139","1","2025-08-06 08:53:24","36c45c0696341be0efffe67d72a12abb","86.1.241.155","Mozilla/5.0 (Macintosh; Intel Mac OS X 10_15_7) AppleWebKit/537.36 (KHTML, like Gecko) Chrome/138.0.0.0 Safari/537.36","Macintosh","Chrome","138.0.0.0","OS X","10_15_7","https://app.prolific.com/","en-GB,en-US;q=0.9,en;q=0.8","668daa061b4a36bcfd2591c6","687a1a965b9f5b85a264363e","68931756d7c3cd2750be9539","1","668daa061b4a36bcfd2591c6","1","2025-08-06T09:01:03.246Z","","","","AttribQ","","","","","","","","","","","50","","","","","","","","","","","","","","","","","","","","","","","","","","",""
"1802","","<div style=""width:500px;"">
  <p>How much control did you have over the ball?</p>
  </div>","50","html-slider-response","25","459674","0.0-7.0-2.2","139","1","2025-08-06 08:53:24","36c45c0696341be0efffe67d72a12abb","86.1.241.155","Mozilla/5.0 (Macintosh; Intel Mac OS X 10_15_7) AppleWebKit/537.36 (KHTML, like Gecko) Chrome/138.0.0.0 Safari/537.36","Macintosh","Chrome","138.0.0.0","OS X","10_15_7","https://app.prolific.com/","en-GB,en-US;q=0.9,en;q=0.8","668daa061b4a36bcfd2591c6","687a1a965b9f5b85a264363e","68931756d7c3cd2750be9539","1","668daa061b4a36bcfd2591c6","1","2025-08-06T09:01:05.048Z","","","","ControlQ","","","","","","","","","","","50","","","","","","","","","","","","","","","","","","","","","","","","","","",""
"2733","","<div style=""width:500px;"">
  <p>How would you describe your current emotional state?</p>
  </div>","0","html-slider-response","26","462408","0.0-7.0-3.2","139","1","2025-08-06 08:53:24","36c45c0696341be0efffe67d72a12abb","86.1.241.155","Mozilla/5.0 (Macintosh; Intel Mac OS X 10_15_7) AppleWebKit/537.36 (KHTML, like Gecko) Chrome/138.0.0.0 Safari/537.36","Macintosh","Chrome","138.0.0.0","OS X","10_15_7","https://app.prolific.com/","en-GB,en-US;q=0.9,en;q=0.8","668daa061b4a36bcfd2591c6","687a1a965b9f5b85a264363e","68931756d7c3cd2750be9539","1","668daa061b4a36bcfd2591c6","1","2025-08-06T09:01:07.782Z","","","","StressQ","","","","","","","","","","","50","","","","","","","","","","","","","","","","","","","","","","","","","","",""
"6492","","<div style=""width:500px;"">
  <p>What best describes how you currently feel?</p>
  </div>","50","html-slider-response","27","468900","0.0-7.0-4.2","139","1","2025-08-06 08:53:24","36c45c0696341be0efffe67d72a12abb","86.1.241.155","Mozilla/5.0 (Macintosh; Intel Mac OS X 10_15_7) AppleWebKit/537.36 (KHTML, like Gecko) Chrome/138.0.0.0 Safari/537.36","Macintosh","Chrome","138.0.0.0","OS X","10_15_7","https://app.prolific.com/","en-GB,en-US;q=0.9,en;q=0.8","668daa061b4a36bcfd2591c6","687a1a965b9f5b85a264363e","68931756d7c3cd2750be9539","1","668daa061b4a36bcfd2591c6","1","2025-08-06T09:01:14.274Z","","","","MotivationQ","","","","","","","","","","","50","","","","","","","","","","","","","","","","","","","","","","","","","","",""
"","","","","ctl-task-cpt","28","499576","0.0-7.0-0.3","139","1","2025-08-06 08:53:24","36c45c0696341be0efffe67d72a12abb","86.1.241.155","Mozilla/5.0 (Macintosh; Intel Mac OS X 10_15_7) AppleWebKit/537.36 (KHTML, like Gecko) Chrome/138.0.0.0 Safari/537.36","Macintosh","Chrome","138.0.0.0","OS X","10_15_7","https://app.prolific.com/","en-GB,en-US;q=0.9,en;q=0.8","668daa061b4a36bcfd2591c6","687a1a965b9f5b85a264363e","68931756d7c3cd2750be9539","1","668daa061b4a36bcfd2591c6","1","2025-08-06T09:01:44.950Z","","","","","","","","","","","","","","","","win-only","2","g1:SE,g2:NW","0.7","4","0","469953.1","944.9","5948.7","27649.1","1","4","8","6","2","8","8","24","16","0.18181818181818182","1156.3","3000","705","[""left"",""up""]","{""num_key_presses"":8,""num_perfect"":7,""num_errors"":0,""num_randdir"":1,""num_randdir_good_moves"":0,""num_whilered"":0,""num_whileblue"":0,""num_blue"":0,""num_good_moves"":7}","[812,811.796875,0.2,812,811.796875,102.7,812,811.796875,208,812,811.796875,309.1,812,811.796875,411.2,812,811.796875,515.8,812,811.796875,615.9,628,727.796875,732.5,244,173.796875,841.7,218,107.796875,945.5,218,105.796875,1048,218,105.796875,1152.8,218,105.796875,1255.6,218,105.796875,1357.9,218,105.796875,1463.4,218,105.796875,1565.5,218,105.796875,1673.5,218,105.796875,1783.4,218,105.796875,1887,218,105.796875,1990.6,218,105.796875,2095.2,218,105.796875,2200.7,218,105.796875,2304,218,105.796875,2433.1,218,105.796875,2533.9,218,105.796875,2635.7,218,105.796875,2739.3,218,105.796875,2840.6,218,105.796875,2949.8,218,105.796875,3051.9,218,105.796875,3155.6,218,105.796875,3266.4,218,105.796875,3373.4,218,105.796875,3475.5,218,105.796875,3583.3,218,105.796875,3686,218,105.796875,3786.6,218,105.796875,3890.4,218,105.796875,3997.7,218,105.796875,4102,218,105.796875,4206.8,218,105.796875,4310.9,218,105.796875,4411.1,218,105.796875,4516,218,105.796875,4624.1,218,105.796875,4724.6,218,105.796875,4832.1,218,105.796875,4935.1]","[1592.4,1592.5,1000,0,592.5,""smooth"",""left"",""left"",""good_move"",5247.7,3654.9,3233,1592.8,421.9,""smooth"",""left"",""left"",""good_move"",8042.8,2794.9,2270.4,5247.9,524.5,""oops"",""left"",""right"",""bad_move"",10488,2444.9,2073.2,8043.1,371.7,""smooth"",""up"",""up"",""good_move"",13825.4,3337.1,2968.9,10488.3,368.2,""smooth"",""up"",""up"",""good_move"",16359.9,2534.4,1909.9,13825.7,624.4,""smooth"",""left"",""left"",""good_move"",19001.7,2641.5,2255,16360.2,386.5,""smooth"",""up"",""up"",""good_move"",21540,2537.8,2146.4,19002.2,391.4,""smooth"",""left"",""left"",""good_move""]"
"2537","","<div style=""width:500px;"">
  <p>What determined the result of this run?</p>
  </div>","50","html-slider-response","29","502115","0.0-7.0-1.3","139","1","2025-08-06 08:53:24","36c45c0696341be0efffe67d72a12abb","86.1.241.155","Mozilla/5.0 (Macintosh; Intel Mac OS X 10_15_7) AppleWebKit/537.36 (KHTML, like Gecko) Chrome/138.0.0.0 Safari/537.36","Macintosh","Chrome","138.0.0.0","OS X","10_15_7","https://app.prolific.com/","en-GB,en-US;q=0.9,en;q=0.8","668daa061b4a36bcfd2591c6","687a1a965b9f5b85a264363e","68931756d7c3cd2750be9539","1","668daa061b4a36bcfd2591c6","1","2025-08-06T09:01:47.489Z","","","","AttribQ","","","","","","","","","","","50","","","","","","","","","","","","","","","","","","","","","","","","","","",""
"3824","","<div style=""width:500px;"">
  <p>How much control did you have over the ball?</p>
  </div>","51","html-slider-response","30","505939","0.0-7.0-2.3","139","1","2025-08-06 08:53:24","36c45c0696341be0efffe67d72a12abb","86.1.241.155","Mozilla/5.0 (Macintosh; Intel Mac OS X 10_15_7) AppleWebKit/537.36 (KHTML, like Gecko) Chrome/138.0.0.0 Safari/537.36","Macintosh","Chrome","138.0.0.0","OS X","10_15_7","https://app.prolific.com/","en-GB,en-US;q=0.9,en;q=0.8","668daa061b4a36bcfd2591c6","687a1a965b9f5b85a264363e","68931756d7c3cd2750be9539","1","668daa061b4a36bcfd2591c6","1","2025-08-06T09:01:51.313Z","","","","ControlQ","","","","","","","","","","","50","","","","","","","","","","","","","","","","","","","","","","","","","","",""
"2161","","<div style=""width:500px;"">
  <p>How would you describe your current emotional state?</p>
  </div>","0","html-slider-response","31","508103","0.0-7.0-3.3","139","1","2025-08-06 08:53:24","36c45c0696341be0efffe67d72a12abb","86.1.241.155","Mozilla/5.0 (Macintosh; Intel Mac OS X 10_15_7) AppleWebKit/537.36 (KHTML, like Gecko) Chrome/138.0.0.0 Safari/537.36","Macintosh","Chrome","138.0.0.0","OS X","10_15_7","https://app.prolific.com/","en-GB,en-US;q=0.9,en;q=0.8","668daa061b4a36bcfd2591c6","687a1a965b9f5b85a264363e","68931756d7c3cd2750be9539","1","668daa061b4a36bcfd2591c6","1","2025-08-06T09:01:53.477Z","","","","StressQ","","","","","","","","","","","50","","","","","","","","","","","","","","","","","","","","","","","","","","",""
"2653","","<div style=""width:500px;"">
  <p>What best describes how you currently feel?</p>
  </div>","50","html-slider-response","32","510757","0.0-7.0-4.3","139","1","2025-08-06 08:53:24","36c45c0696341be0efffe67d72a12abb","86.1.241.155","Mozilla/5.0 (Macintosh; Intel Mac OS X 10_15_7) AppleWebKit/537.36 (KHTML, like Gecko) Chrome/138.0.0.0 Safari/537.36","Macintosh","Chrome","138.0.0.0","OS X","10_15_7","https://app.prolific.com/","en-GB,en-US;q=0.9,en;q=0.8","668daa061b4a36bcfd2591c6","687a1a965b9f5b85a264363e","68931756d7c3cd2750be9539","1","668daa061b4a36bcfd2591c6","1","2025-08-06T09:01:56.131Z","","","","MotivationQ","","","","","","","","","","","50","","","","","","","","","","","","","","","","","","","","","","","","","","",""
"","","","","ctl-task-cpt","33","544156","0.0-7.0-0.4","139","1","2025-08-06 08:53:24","36c45c0696341be0efffe67d72a12abb","86.1.241.155","Mozilla/5.0 (Macintosh; Intel Mac OS X 10_15_7) AppleWebKit/537.36 (KHTML, like Gecko) Chrome/138.0.0.0 Safari/537.36","Macintosh","Chrome","138.0.0.0","OS X","10_15_7","https://app.prolific.com/","en-GB,en-US;q=0.9,en;q=0.8","668daa061b4a36bcfd2591c6","687a1a965b9f5b85a264363e","68931756d7c3cd2750be9539","1","668daa061b4a36bcfd2591c6","1","2025-08-06T09:02:29.530Z","","","","","","","","","","","","","","","","win-only","3","g1:SW,g2:NE","0.6","5","0","511811.5","1089.6","6091.4","30372.6","1","4","4","6","2","4","4","28","24","0.21212121212121213","1129.6","3000","1230","[""up"",""right""]","{""num_key_presses"":8,""num_perfect"":5,""num_errors"":0,""num_randdir"":3,""num_randdir_good_moves"":2,""num_whilered"":0,""num_whileblue"":0,""num_blue"":1,""num_good_moves"":7}","[810,821.796875,0.1,810,821.796875,112.2,810,821.796875,229.6,810,821.796875,340,810,821.796875,444.7,810,821.796875,555.1,810,821.796875,656.1,830,807.796875,762.2,1354,337.796875,866.2,1470,195.796875,967.5,1494,161.796875,1069,1494,157.796875,1176.3,1494,157.796875,1284.4,1494,157.796875,1386.2,1494,157.796875,1487.5,1494,157.796875,1591.7,1494,157.796875,1700.1,1494,157.796875,1812.9,1494,157.796875,1926,1494,157.796875,2032.7,1494,157.796875,2141.7,1494,157.796875,2250.1,1494,157.796875,2351.8,1494,157.796875,2455.6,1494,157.796875,2556.2,1494,157.796875,2656.3,1494,157.796875,2756.3,1494,157.796875,2867.9,1494,157.796875,2969.7,1494,157.796875,3079.4,1494,157.796875,3181.9,1494,157.796875,3299.3,1494,157.796875,3403.1,1494,157.796875,3518.6,1494,157.796875,3621.7,1494,157.796875,3727.3,1494,157.796875,3831.5,1494,157.796875,3935.9,1494,157.796875,4038.5,1494,157.796875,4143.6,1494,157.796875,4245.4,1494,157.796875,4352.5,1494,157.796875,4463.9,1494,157.796875,4578.6,1494,157.796875,4690.6,1494,157.796875,4791.9,1494,157.796875,4900.6]","[1463.5,1463.5,1000,0,463.5,""smooth"",""right"",""right"",""good_move"",4310.5,2846.7,2424,1463.8,422.7,""oops"",""right"",""right"",""good_move"",6728.3,2417.6,1784.8,4310.7,632.8,""smooth"",""right"",""right"",""good_move"",13330.5,6602,3126,9795.1,409.4,""smooth"",""up"",""up"",""good_move"",16001.4,2670.7,2306.6,13330.7,364.1,""oops"",""up"",""up"",""good_move"",19032.2,3030.5,2660.6,16001.7,369.9,""oops"",""up"",""left"",""bad_move"",21638.1,2605.7,2213.5,19032.4,392.2,""smooth"",""up"",""up"",""good_move"",24102.6,2464.4,2088.9,21638.3,375.5,""smooth"",""right"",""right"",""good_move""]"
"3634","","<div style=""width:500px;"">
  <p>What determined the result of this run?</p>
  </div>","50","html-slider-response","34","547791","0.0-7.0-1.4","139","1","2025-08-06 08:53:24","36c45c0696341be0efffe67d72a12abb","86.1.241.155","Mozilla/5.0 (Macintosh; Intel Mac OS X 10_15_7) AppleWebKit/537.36 (KHTML, like Gecko) Chrome/138.0.0.0 Safari/537.36","Macintosh","Chrome","138.0.0.0","OS X","10_15_7","https://app.prolific.com/","en-GB,en-US;q=0.9,en;q=0.8","668daa061b4a36bcfd2591c6","687a1a965b9f5b85a264363e","68931756d7c3cd2750be9539","1","668daa061b4a36bcfd2591c6","1","2025-08-06T09:02:33.165Z","","","","AttribQ","","","","","","","","","","","50","","","","","","","","","","","","","","","","","","","","","","","","","","",""
"1870","","<div style=""width:500px;"">
  <p>How much control did you have over the ball?</p>
  </div>","50","html-slider-response","35","549661","0.0-7.0-2.4","139","1","2025-08-06 08:53:24","36c45c0696341be0efffe67d72a12abb","86.1.241.155","Mozilla/5.0 (Macintosh; Intel Mac OS X 10_15_7) AppleWebKit/537.36 (KHTML, like Gecko) Chrome/138.0.0.0 Safari/537.36","Macintosh","Chrome","138.0.0.0","OS X","10_15_7","https://app.prolific.com/","en-GB,en-US;q=0.9,en;q=0.8","668daa061b4a36bcfd2591c6","687a1a965b9f5b85a264363e","68931756d7c3cd2750be9539","1","668daa061b4a36bcfd2591c6","1","2025-08-06T09:02:35.035Z","","","","ControlQ","","","","","","","","","","","50","","","","","","","","","","","","","","","","","","","","","","","","","","",""
"6864","","<div style=""width:500px;"">
  <p>How would you describe your current emotional state?</p>
  </div>","0","html-slider-response","36","556526","0.0-7.0-3.4","139","1","2025-08-06 08:53:24","36c45c0696341be0efffe67d72a12abb","86.1.241.155","Mozilla/5.0 (Macintosh; Intel Mac OS X 10_15_7) AppleWebKit/537.36 (KHTML, like Gecko) Chrome/138.0.0.0 Safari/537.36","Macintosh","Chrome","138.0.0.0","OS X","10_15_7","https://app.prolific.com/","en-GB,en-US;q=0.9,en;q=0.8","668daa061b4a36bcfd2591c6","687a1a965b9f5b85a264363e","68931756d7c3cd2750be9539","1","668daa061b4a36bcfd2591c6","1","2025-08-06T09:02:41.900Z","","","","StressQ","","","","","","","","","","","50","","","","","","","","","","","","","","","","","","","","","","","","","","",""
"1766","","<div style=""width:500px;"">
  <p>What best describes how you currently feel?</p>
  </div>","50","html-slider-response","37","558293","0.0-7.0-4.4","139","1","2025-08-06 08:53:24","36c45c0696341be0efffe67d72a12abb","86.1.241.155","Mozilla/5.0 (Macintosh; Intel Mac OS X 10_15_7) AppleWebKit/537.36 (KHTML, like Gecko) Chrome/138.0.0.0 Safari/537.36","Macintosh","Chrome","138.0.0.0","OS X","10_15_7","https://app.prolific.com/","en-GB,en-US;q=0.9,en;q=0.8","668daa061b4a36bcfd2591c6","687a1a965b9f5b85a264363e","68931756d7c3cd2750be9539","1","668daa061b4a36bcfd2591c6","1","2025-08-06T09:02:43.667Z","","","","MotivationQ","","","","","","","","","","","50","","","","","","","","","","","","","","","","","","","","","","","","","","",""
"","","","","ctl-task-cpt","38","598243","0.0-7.0-0.5","139","1","2025-08-06 08:53:24","36c45c0696341be0efffe67d72a12abb","86.1.241.155","Mozilla/5.0 (Macintosh; Intel Mac OS X 10_15_7) AppleWebKit/537.36 (KHTML, like Gecko) Chrome/138.0.0.0 Safari/537.36","Macintosh","Chrome","138.0.0.0","OS X","10_15_7","https://app.prolific.com/","en-GB,en-US;q=0.9,en;q=0.8","668daa061b4a36bcfd2591c6","687a1a965b9f5b85a264363e","68931756d7c3cd2750be9539","1","668daa061b4a36bcfd2591c6","1","2025-08-06T09:03:23.617Z","","","","","","","","","","","","","","","","win-only","2","g1:SE,g2:NW","0.5","6","0","559347.1","800","5805.7","36921.5","1","4","8","6","2","8","8","36","28","0.2727272727272727","1085.3","3000","1035","[""left"",""up""]","{""num_key_presses"":10,""num_perfect"":5,""num_errors"":0,""num_randdir"":5,""num_randdir_good_moves"":3,""num_whilered"":0,""num_whileblue"":0,""num_blue"":1,""num_good_moves"":8}","[822,807.796875,0.2,822,807.796875,101.7,822,807.796875,205.4,822,807.796875,314,822,807.796875,426.5,822,807.796875,543.3,820,807.796875,646.3,538,625.796875,746.9,186,177.796875,861.5,186,177.796875,967,184,173.796875,1068.6,184,173.796875,1172.3,184,173.796875,1272.6,184,173.796875,1380.3,184,173.796875,1494,184,173.796875,1601.1,184,173.796875,1707.9,184,173.796875,1823.3,184,173.796875,1924.8,184,173.796875,2058.4,184,173.796875,2164.1,184,173.796875,2268.8,184,173.796875,2389.7,184,173.796875,2504.4,184,173.796875,2613.4,184,173.796875,2715.5,184,173.796875,2828.8,184,173.796875,2935.1,184,173.796875,3038.4,184,173.796875,3140.5,184,173.796875,3240.5,184,173.796875,3340.9,184,173.796875,3449.1,184,173.796875,3558.1,184,173.796875,3675.4,184,173.796875,3789.1,184,173.796875,3891.6,184,173.796875,4008.9,184,173.796875,4118.2,184,173.796875,4227.1,184,173.796875,4335.5,184,173.796875,4436.2,184,173.796875,4541.6,184,173.796875,4645.1,184,173.796875,4754.9,184,173.796875,4855.1,184,173.796875,4973.6]","[1435.6,1435.7,1000,0,435.7,""smooth"",""left"",""left"",""good_move"",4383.5,2947.2,2515.2,1436.3,432,""oops"",""left"",""down"",""bad_move"",7661.9,3278,2768.8,4383.9,509.2,""oops"",""left"",""up"",""good_move"",10349.3,2687.1,2180.9,7662.2,506.2,""smooth"",""left"",""left"",""good_move"",12921.6,2572.1,2128.8,10349.5,443.3,""oops"",""left"",""right"",""bad_move"",16327.7,3405.8,3010.9,12922,394.8,""smooth"",""up"",""up"",""good_move"",19475.3,3147.4,2658,16327.9,489.4,""oops"",""up"",""left"",""good_move"",25514.9,6039.4,2324.1,22765.6,425.2,""smooth"",""up"",""up"",""good_move"",27739.2,2224.1,1735.2,25515.1,488.9,""oops"",""up"",""up"",""good_move"",30907.3,3168,2828.9,27739.3,339.1,""smooth"",""left"",""left"",""good_move""]"
"2620","","<div style=""width:500px;"">
  <p>What determined the result of this run?</p>
  </div>","50","html-slider-response","39","600863","0.0-7.0-1.5","139","1","2025-08-06 08:53:24","36c45c0696341be0efffe67d72a12abb","86.1.241.155","Mozilla/5.0 (Macintosh; Intel Mac OS X 10_15_7) AppleWebKit/537.36 (KHTML, like Gecko) Chrome/138.0.0.0 Safari/537.36","Macintosh","Chrome","138.0.0.0","OS X","10_15_7","https://app.prolific.com/","en-GB,en-US;q=0.9,en;q=0.8","668daa061b4a36bcfd2591c6","687a1a965b9f5b85a264363e","68931756d7c3cd2750be9539","1","668daa061b4a36bcfd2591c6","1","2025-08-06T09:03:26.237Z","","","","AttribQ","","","","","","","","","","","50","","","","","","","","","","","","","","","","","","","","","","","","","","",""
"1906","","<div style=""width:500px;"">
  <p>How much control did you have over the ball?</p>
  </div>","50","html-slider-response","40","602770","0.0-7.0-2.5","139","1","2025-08-06 08:53:24","36c45c0696341be0efffe67d72a12abb","86.1.241.155","Mozilla/5.0 (Macintosh; Intel Mac OS X 10_15_7) AppleWebKit/537.36 (KHTML, like Gecko) Chrome/138.0.0.0 Safari/537.36","Macintosh","Chrome","138.0.0.0","OS X","10_15_7","https://app.prolific.com/","en-GB,en-US;q=0.9,en;q=0.8","668daa061b4a36bcfd2591c6","687a1a965b9f5b85a264363e","68931756d7c3cd2750be9539","1","668daa061b4a36bcfd2591c6","1","2025-08-06T09:03:28.144Z","","","","ControlQ","","","","","","","","","","","50","","","","","","","","","","","","","","","","","","","","","","","","","","",""
"2321","","<div style=""width:500px;"">
  <p>How would you describe your current emotional state?</p>
  </div>","0","html-slider-response","41","605092","0.0-7.0-3.5","139","1","2025-08-06 08:53:24","36c45c0696341be0efffe67d72a12abb","86.1.241.155","Mozilla/5.0 (Macintosh; Intel Mac OS X 10_15_7) AppleWebKit/537.36 (KHTML, like Gecko) Chrome/138.0.0.0 Safari/537.36","Macintosh","Chrome","138.0.0.0","OS X","10_15_7","https://app.prolific.com/","en-GB,en-US;q=0.9,en;q=0.8","668daa061b4a36bcfd2591c6","687a1a965b9f5b85a264363e","68931756d7c3cd2750be9539","1","668daa061b4a36bcfd2591c6","1","2025-08-06T09:03:30.466Z","","","","StressQ","","","","","","","","","","","50","","","","","","","","","","","","","","","","","","","","","","","","","","",""
"2033","","<div style=""width:500px;"">
  <p>What best describes how you currently feel?</p>
  </div>","50","html-slider-response","42","607126","0.0-7.0-4.5","139","1","2025-08-06 08:53:24","36c45c0696341be0efffe67d72a12abb","86.1.241.155","Mozilla/5.0 (Macintosh; Intel Mac OS X 10_15_7) AppleWebKit/537.36 (KHTML, like Gecko) Chrome/138.0.0.0 Safari/537.36","Macintosh","Chrome","138.0.0.0","OS X","10_15_7","https://app.prolific.com/","en-GB,en-US;q=0.9,en;q=0.8","668daa061b4a36bcfd2591c6","687a1a965b9f5b85a264363e","68931756d7c3cd2750be9539","1","668daa061b4a36bcfd2591c6","1","2025-08-06T09:03:32.500Z","","","","MotivationQ","","","","","","","","","","","50","","","","","","","","","","","","","","","","","","","","","","","","","","",""
"","","","","ctl-task-cpt","43","690884","0.0-7.0-0.6","139","1","2025-08-06 08:53:24","36c45c0696341be0efffe67d72a12abb","86.1.241.155","Mozilla/5.0 (Macintosh; Intel Mac OS X 10_15_7) AppleWebKit/537.36 (KHTML, like Gecko) Chrome/138.0.0.0 Safari/537.36","Macintosh","Chrome","138.0.0.0","OS X","10_15_7","https://app.prolific.com/","en-GB,en-US;q=0.9,en;q=0.8","668daa061b4a36bcfd2591c6","687a1a965b9f5b85a264363e","68931756d7c3cd2750be9539","1","668daa061b4a36bcfd2591c6","1","2025-08-06T09:04:56.258Z","","","","","","","","","","","","","","","","win-only","3","g1:SW,g2:NE","0.4","7","0","608181","787","5791.8","80736.4","1","4","4","6","2","-4","-4","32","36","0.24242424242424243","999.9","3000","-1145","[""up"",""right""]","{""num_key_presses"":21,""num_perfect"":8,""num_errors"":0,""num_randdir"":13,""num_randdir_good_moves"":5,""num_whilered"":0,""num_whileblue"":0,""num_blue"":4,""num_good_moves"":12}","[810,823.796875,0.3,810,823.796875,101.2,810,823.796875,201.8,810,823.796875,308,810,823.796875,425.6,810,823.796875,540.2,852,777.796875,644.3,1446,225.796875,746.5,1474,175.796875,860,1472,155.796875,1000.6,1472,153.796875,1112.7,1472,153.796875,1225.3,1472,153.796875,1327,1472,153.796875,1433.3,1472,153.796875,1537.7,1472,153.796875,1653.7,1472,153.796875,1758.4,1472,153.796875,1878.7,1472,153.796875,1979.4,1472,153.796875,2079.8,1472,153.796875,2184.4,1472,153.796875,2302.3,1472,153.796875,2402.3,1472,153.796875,2504.8,1472,153.796875,2606.5,1472,153.796875,2717.9,1472,153.796875,2819.6,1472,153.796875,2927.3,1472,153.796875,3042.1,1472,153.796875,3142.2,1472,153.796875,3265,1472,153.796875,3369.4,1472,153.796875,3470.9,1472,153.796875,3574.2,1472,153.796875,3690.1,1472,153.796875,3800,1472,153.796875,3916.4,1472,153.796875,4018.6,1472,153.796875,4132.7,1472,153.796875,4246.8,1472,153.796875,4349.7,1472,153.796875,4451.2,1472,153.796875,4570.2,1472,153.796875,4698.5,1472,153.796875,4799.2,1472,153.796875,4902.1]","[1420.1,1420.4,1000,0,420.4,""smooth"",""right"",""right"",""good_move"",4249.4,2828.5,2376.6,1420.9,452,""smooth"",""right"",""right"",""good_move"",7177,2927.4,2457.6,4249.6,469.8,""smooth"",""right"",""right"",""good_move"",10127.8,2950.5,2605.6,7177.3,344.9,""oops"",""up"",""down"",""bad_move"",12916.7,2788.2,2399.7,10128.5,388.5,""oops"",""up"",""down"",""bad_move"",15836,2919.1,2502.4,12916.9,416.7,""oops"",""up"",""up"",""good_move"",26906.9,11070.6,2458.2,24097,351.7,""oops"",""up"",""down"",""bad_move"",29359,2451.9,1947.8,26907.1,504.1,""smooth"",""left"",""left"",""bad_move"",32039.4,2680.1,1889.1,29359.3,791,""oops"",""up"",""left"",""bad_move"",34788.6,2749,2359.3,32039.6,389.7,""oops"",""up"",""right"",""good_move"",37060.9,2271.9,1766.5,34789,505.4,""smooth"",""up"",""up"",""good_move"",40615.7,3554.5,3170.4,37061.2,384.1,""oops"",""up"",""up"",""good_move"",43856,3240.1,2907.3,40615.9,332.8,""oops"",""up"",""left"",""bad_move"",47247.9,3391.6,3028.5,43856.3,363.1,""smooth"",""up"",""up"",""good_move"",49996.6,2748.5,2025.4,47248.1,723.1,""smooth"",""up"",""up"",""good_move"",52694.4,2697.7,2062.1,49996.8,635.6,""smooth"",""right"",""right"",""good_move"",55992.6,3297.8,2902,52694.8,395.8,""oops"",""up"",""left"",""bad_move"",58713.2,2720.4,2344.1,55992.8,376.3,""oops"",""up"",""up"",""good_move"",64248.6,5535.3,1846,62009.1,393.6,""oops"",""right"",""left"",""bad_move"",70211.7,5962.6,2221.1,67535.3,455.3,""oops"",""right"",""right"",""good_move"",72886.7,2674.7,2259.8,70212,414.9,""oops"",""right"",""down"",""bad_move""]"
"2958","","<div style=""width:500px;"">
  <p>What determined the result of this run?</p>
  </div>","0","html-slider-response","44","693844","0.0-7.0-1.6","139","1","2025-08-06 08:53:24","36c45c0696341be0efffe67d72a12abb","86.1.241.155","Mozilla/5.0 (Macintosh; Intel Mac OS X 10_15_7) AppleWebKit/537.36 (KHTML, like Gecko) Chrome/138.0.0.0 Safari/537.36","Macintosh","Chrome","138.0.0.0","OS X","10_15_7","https://app.prolific.com/","en-GB,en-US;q=0.9,en;q=0.8","668daa061b4a36bcfd2591c6","687a1a965b9f5b85a264363e","68931756d7c3cd2750be9539","1","668daa061b4a36bcfd2591c6","1","2025-08-06T09:04:59.218Z","","","","AttribQ","","","","","","","","","","","50","","","","","","","","","","","","","","","","","","","","","","","","","","",""
"2304","","<div style=""width:500px;"">
  <p>How much control did you have over the ball?</p>
  </div>","0","html-slider-response","45","696149","0.0-7.0-2.6","139","1","2025-08-06 08:53:24","36c45c0696341be0efffe67d72a12abb","86.1.241.155","Mozilla/5.0 (Macintosh; Intel Mac OS X 10_15_7) AppleWebKit/537.36 (KHTML, like Gecko) Chrome/138.0.0.0 Safari/537.36","Macintosh","Chrome","138.0.0.0","OS X","10_15_7","https://app.prolific.com/","en-GB,en-US;q=0.9,en;q=0.8","668daa061b4a36bcfd2591c6","687a1a965b9f5b85a264363e","68931756d7c3cd2750be9539","1","668daa061b4a36bcfd2591c6","1","2025-08-06T09:05:01.523Z","","","","ControlQ","","","","","","","","","","","50","","","","","","","","","","","","","","","","","","","","","","","","","","",""
"1930","","<div style=""width:500px;"">
  <p>How would you describe your current emotional state?</p>
  </div>","100","html-slider-response","46","698080","0.0-7.0-3.6","139","1","2025-08-06 08:53:24","36c45c0696341be0efffe67d72a12abb","86.1.241.155","Mozilla/5.0 (Macintosh; Intel Mac OS X 10_15_7) AppleWebKit/537.36 (KHTML, like Gecko) Chrome/138.0.0.0 Safari/537.36","Macintosh","Chrome","138.0.0.0","OS X","10_15_7","https://app.prolific.com/","en-GB,en-US;q=0.9,en;q=0.8","668daa061b4a36bcfd2591c6","687a1a965b9f5b85a264363e","68931756d7c3cd2750be9539","1","668daa061b4a36bcfd2591c6","1","2025-08-06T09:05:03.454Z","","","","StressQ","","","","","","","","","","","50","","","","","","","","","","","","","","","","","","","","","","","","","","",""
"2793","","<div style=""width:500px;"">
  <p>What best describes how you currently feel?</p>
  </div>","0","html-slider-response","47","700874","0.0-7.0-4.6","139","1","2025-08-06 08:53:24","36c45c0696341be0efffe67d72a12abb","86.1.241.155","Mozilla/5.0 (Macintosh; Intel Mac OS X 10_15_7) AppleWebKit/537.36 (KHTML, like Gecko) Chrome/138.0.0.0 Safari/537.36","Macintosh","Chrome","138.0.0.0","OS X","10_15_7","https://app.prolific.com/","en-GB,en-US;q=0.9,en;q=0.8","668daa061b4a36bcfd2591c6","687a1a965b9f5b85a264363e","68931756d7c3cd2750be9539","1","668daa061b4a36bcfd2591c6","1","2025-08-06T09:05:06.248Z","","","","MotivationQ","","","","","","","","","","","50","","","","","","","","","","","","","","","","","","","","","","","","","","",""
"","","","","ctl-task-cpt","48","791310","0.0-7.0-0.7","139","1","2025-08-06 08:53:24","36c45c0696341be0efffe67d72a12abb","86.1.241.155","Mozilla/5.0 (Macintosh; Intel Mac OS X 10_15_7) AppleWebKit/537.36 (KHTML, like Gecko) Chrome/138.0.0.0 Safari/537.36","Macintosh","Chrome","138.0.0.0","OS X","10_15_7","https://app.prolific.com/","en-GB,en-US;q=0.9,en;q=0.8","668daa061b4a36bcfd2591c6","687a1a965b9f5b85a264363e","68931756d7c3cd2750be9539","1","668daa061b4a36bcfd2591c6","1","2025-08-06T09:06:36.684Z","","","","","","","","","","","","","","","","win-only","2","g1:SE,g2:NW","0.3","8","0","701931.2","961.2","5982.6","87409.3","1","4","8","6","2","-8","-10","22","32","0.16666666666666666","1100.3","3000","-990","[""left"",""up""]","{""num_key_presses"":21,""num_perfect"":6,""num_errors"":2,""num_randdir"":13,""num_randdir_good_moves"":5,""num_whilered"":0,""num_whileblue"":1,""num_blue"":6,""num_good_moves"":11}","[812,807.796875,0.1,812,807.796875,102,812,807.796875,206.3,812,807.796875,317.9,812,807.796875,420.3,780,785.796875,622.1,384,395.796875,729.8,362,287.796875,848.1,362,287.796875,957.5,198,149.796875,1063,194,147.796875,1226.2,194,147.796875,1350.8,194,147.796875,1462.8,194,147.796875,1581,194,147.796875,1691.4,194,147.796875,1795.9,194,147.796875,1902.5,194,147.796875,2021.3,194,191.796875,2141.6,388,883.796875,2242.5,578,1159.796875,2346.7,578,1159.796875,2454.3,578,1159.796875,2562.6,578,1159.796875,2679.6,578,1159.796875,2783.7,578,1159.796875,2883.7,578,1159.796875,2999.3,578,1159.796875,3103.9,578,1159.796875,3230.3,578,1159.796875,3341.3,578,1159.796875,3450.9,578,1159.796875,3556.5,578,1159.796875,3676.4,578,1159.796875,3785.4,578,1159.796875,3900.1,578,1159.796875,4010.8,578,1159.796875,4124.5,578,1159.796875,4226.1,578,1159.796875,4361.5,578,1159.796875,4470.5,578,1159.796875,4581,578,1159.796875,4696.1,578,1159.796875,4819.8,578,1159.796875,4932.3]","[1463.3,1463.3,1000,0,463.3,""oops"",""left"",""left"",""good_move"",4571.7,3107.9,1953.3,1463.8,1154.6,""oops"",""left"",""down"",""bad_move"",7049.6,2477.7,1999.5,4571.9,478.2,""smooth"",""left"",""left"",""good_move"",9945.4,2895.7,2332,7049.9,563.6,""smooth"",""left"",""left"",""good_move"",13118.1,3172.3,2822,9945.8,350.3,""while_blue"",""up"",""down"",""bad_move"",16975.7,3857.3,3385.8,13118.4,471.5,""oops"",""up"",""up"",""good_move"",23270.5,6294.6,2048.4,20738.4,483.7,""oops"",""up"",""down"",""bad_move"",27083.2,3812.6,3416,23270.7,396.6,""oops"",""up"",""right"",""bad_move"",29821.3,2737.7,2199.1,27083.6,538.6,""smooth"",""up"",""up"",""good_move"",33208.6,3387,2318.5,29821.6,1068.5,""oops"",""up"",""down"",""bad_move"",36377.5,3168.7,2618.2,33208.8,550.5,""oops"",""right"",""right"",""bad_move"",39451.4,3073.7,2330.4,39043.2,-1922.2,""error"",""-"",""-"",""no_move"",43918.9,4467.3,2697.3,40471.6,750,""oops"",""up"",""left"",""good_move"",47070.3,3151,2178.2,43919.3,972.8,""smooth"",""up"",""up"",""good_move"",53023,5952.3,1655.1,50917.7,450.2,""smooth"",""up"",""up"",""good_move"",56368.3,3345,2865.2,53023.3,479.8,""oops"",""up"",""left"",""good_move"",63305.5,6937,2885.2,60024.4,395.9,""oops"",""up"",""down"",""bad_move"",70358.5,7052.4,2867.9,67054.6,436,""oops"",""up"",""down"",""bad_move"",72477,2118.2,1455.8,70358.8,662.4,""oops"",""up"",""up"",""good_move"",75732.3,3254.9,2761.4,72477.4,493.5,""smooth"",""up"",""up"",""good_move"",78802.9,3070.4,2533.6,75732.5,536.8,""oops"",""up"",""right"",""bad_move""]"
"3192","","<div style=""width:500px;"">
  <p>What determined the result of this run?</p>
  </div>","0","html-slider-response","49","794503","0.0-7.0-1.7","139","1","2025-08-06 08:53:24","36c45c0696341be0efffe67d72a12abb","86.1.241.155","Mozilla/5.0 (Macintosh; Intel Mac OS X 10_15_7) AppleWebKit/537.36 (KHTML, like Gecko) Chrome/138.0.0.0 Safari/537.36","Macintosh","Chrome","138.0.0.0","OS X","10_15_7","https://app.prolific.com/","en-GB,en-US;q=0.9,en;q=0.8","668daa061b4a36bcfd2591c6","687a1a965b9f5b85a264363e","68931756d7c3cd2750be9539","1","668daa061b4a36bcfd2591c6","1","2025-08-06T09:06:39.877Z","","","","AttribQ","","","","","","","","","","","50","","","","","","","","","","","","","","","","","","","","","","","","","","",""
"2218","","<div style=""width:500px;"">
  <p>How much control did you have over the ball?</p>
  </div>","0","html-slider-response","50","796722","0.0-7.0-2.7","139","1","2025-08-06 08:53:24","36c45c0696341be0efffe67d72a12abb","86.1.241.155","Mozilla/5.0 (Macintosh; Intel Mac OS X 10_15_7) AppleWebKit/537.36 (KHTML, like Gecko) Chrome/138.0.0.0 Safari/537.36","Macintosh","Chrome","138.0.0.0","OS X","10_15_7","https://app.prolific.com/","en-GB,en-US;q=0.9,en;q=0.8","668daa061b4a36bcfd2591c6","687a1a965b9f5b85a264363e","68931756d7c3cd2750be9539","1","668daa061b4a36bcfd2591c6","1","2025-08-06T09:06:42.096Z","","","","ControlQ","","","","","","","","","","","50","","","","","","","","","","","","","","","","","","","","","","","","","","",""
"3434","","<div style=""width:500px;"">
  <p>How would you describe your current emotional state?</p>
  </div>","100","html-slider-response","51","800156","0.0-7.0-3.7","139","1","2025-08-06 08:53:24","36c45c0696341be0efffe67d72a12abb","86.1.241.155","Mozilla/5.0 (Macintosh; Intel Mac OS X 10_15_7) AppleWebKit/537.36 (KHTML, like Gecko) Chrome/138.0.0.0 Safari/537.36","Macintosh","Chrome","138.0.0.0","OS X","10_15_7","https://app.prolific.com/","en-GB,en-US;q=0.9,en;q=0.8","668daa061b4a36bcfd2591c6","687a1a965b9f5b85a264363e","68931756d7c3cd2750be9539","1","668daa061b4a36bcfd2591c6","1","2025-08-06T09:06:45.530Z","","","","StressQ","","","","","","","","","","","50","","","","","","","","","","","","","","","","","","","","","","","","","","",""
"2076","","<div style=""width:500px;"">
  <p>What best describes how you currently feel?</p>
  </div>","0","html-slider-response","52","802234","0.0-7.0-4.7","139","1","2025-08-06 08:53:24","36c45c0696341be0efffe67d72a12abb","86.1.241.155","Mozilla/5.0 (Macintosh; Intel Mac OS X 10_15_7) AppleWebKit/537.36 (KHTML, like Gecko) Chrome/138.0.0.0 Safari/537.36","Macintosh","Chrome","138.0.0.0","OS X","10_15_7","https://app.prolific.com/","en-GB,en-US;q=0.9,en;q=0.8","668daa061b4a36bcfd2591c6","687a1a965b9f5b85a264363e","68931756d7c3cd2750be9539","1","668daa061b4a36bcfd2591c6","1","2025-08-06T09:06:47.608Z","","","","MotivationQ","","","","","","","","","","","50","","","","","","","","","","","","","","","","","","","","","","","","","","",""
"","","","","ctl-task-cpt","53","872308","0.0-7.0-0.8","139","1","2025-08-06 08:53:24","36c45c0696341be0efffe67d72a12abb","86.1.241.155","Mozilla/5.0 (Macintosh; Intel Mac OS X 10_15_7) AppleWebKit/537.36 (KHTML, like Gecko) Chrome/138.0.0.0 Safari/537.36","Macintosh","Chrome","138.0.0.0","OS X","10_15_7","https://app.prolific.com/","en-GB,en-US;q=0.9,en;q=0.8","668daa061b4a36bcfd2591c6","687a1a965b9f5b85a264363e","68931756d7c3cd2750be9539","1","668daa061b4a36bcfd2591c6","1","2025-08-06T09:07:57.682Z","","","","","","","","","","","","","","","","win-only","0","g1:NW,g2:SE","0.4","9","0","803293.4","1491.4","6499.8","67037.1","1","4","4","6","2","4","3","25","22","0.1893939393939394","1117.5","3000","1325","[""down"",""right""]","{""num_key_presses"":13,""num_perfect"":6,""num_errors"":1,""num_randdir"":6,""num_randdir_good_moves"":3,""num_whilered"":0,""num_whileblue"":0,""num_blue"":6,""num_good_moves"":9}","[806,807.796875,0.2,806,807.796875,104.2,806,807.796875,216.1,806,807.796875,324.3,806,807.796875,436.3,806,807.796875,545.4,1328,1451.796875,686.1,1434,1655.796875,810.2,1422,1645.796875,913.1,1426,1561.796875,1022,1448,1495.796875,1128.7,1448,1495.796875,1246.5,1448,1495.796875,1362,1448,1495.796875,1475.7,1448,1495.796875,1578.9,1448,1495.796875,1686.2,1448,1495.796875,1795.8,1448,1495.796875,1901.9,1448,1495.796875,2020.1,1448,1495.796875,2138.6,1448,1495.796875,2239.3,1448,1495.796875,2349.1,1448,1495.796875,2474.9,1448,1495.796875,2596.1,1448,1495.796875,2706.9,1448,1495.796875,2810.8,1448,1495.796875,2913,1448,1495.796875,3026.5,1448,1495.796875,3142.9,1448,1495.796875,3260.8,1448,1495.796875,3382.6,1448,1495.796875,3487.5,1448,1495.796875,3590,1448,1495.796875,3698.1,1448,1495.796875,3826,1448,1495.796875,3932.2,1448,1495.796875,4034.2,1448,1495.796875,4143.8,1448,1495.796875,4247.9,1448,1495.796875,4378.2,1448,1495.796875,4506,1448,1495.796875,4617.5,1448,1495.796875,4722.3,1448,1495.796875,4828.7,1448,1495.796875,4938.5]","[4918.9,4918.9,2336.5,2023.6,558.8,""oops"",""right"",""right"",""good_move"",8486.1,3566.9,3153.7,4919.2,413.2,""oops"",""right"",""up"",""bad_move"",12348.3,3861.7,2824.9,8486.6,1036.8,""smooth"",""right"",""right"",""good_move"",14808.5,2460.1,1938.7,12348.4,521.4,""oops"",""right"",""down"",""good_move"",18410,3601.1,2964.2,14808.9,636.9,""smooth"",""right"",""right"",""good_move"",21266.7,2856.6,2128.8,18410.1,727.8,""oops"",""down"",""up"",""bad_move"",23364.4,2097,2588.5,21267.4,-491.5,""error"",""-"",""-"",""no_move"",27201.3,3836.7,2323,24429.5,448.8,""smooth"",""down"",""down"",""good_move"",30682,3480.3,2753.5,27201.7,726.8,""smooth"",""down"",""down"",""good_move"",34098.1,3415.6,2660.9,30682.5,754.7,""oops"",""down"",""down"",""good_move"",39802.2,5703.9,2184.4,37142.1,475.7,""oops"",""down"",""left"",""bad_move"",53544.4,13742,2061.6,50788.2,694.6,""smooth"",""down"",""down"",""good_move"",60105.8,6561.4,2276.2,57236.9,592.7,""smooth"",""right"",""right"",""good_move""]"
"2347","","<div style=""width:500px;"">
  <p>What determined the result of this run?</p>
  </div>","50","html-slider-response","54","874657","0.0-7.0-1.8","139","1","2025-08-06 08:53:24","36c45c0696341be0efffe67d72a12abb","86.1.241.155","Mozilla/5.0 (Macintosh; Intel Mac OS X 10_15_7) AppleWebKit/537.36 (KHTML, like Gecko) Chrome/138.0.0.0 Safari/537.36","Macintosh","Chrome","138.0.0.0","OS X","10_15_7","https://app.prolific.com/","en-GB,en-US;q=0.9,en;q=0.8","668daa061b4a36bcfd2591c6","687a1a965b9f5b85a264363e","68931756d7c3cd2750be9539","1","668daa061b4a36bcfd2591c6","1","2025-08-06T09:08:00.031Z","","","","AttribQ","","","","","","","","","","","50","","","","","","","","","","","","","","","","","","","","","","","","","","",""
"1932","","<div style=""width:500px;"">
  <p>How much control did you have over the ball?</p>
  </div>","50","html-slider-response","55","876590","0.0-7.0-2.8","139","1","2025-08-06 08:53:24","36c45c0696341be0efffe67d72a12abb","86.1.241.155","Mozilla/5.0 (Macintosh; Intel Mac OS X 10_15_7) AppleWebKit/537.36 (KHTML, like Gecko) Chrome/138.0.0.0 Safari/537.36","Macintosh","Chrome","138.0.0.0","OS X","10_15_7","https://app.prolific.com/","en-GB,en-US;q=0.9,en;q=0.8","668daa061b4a36bcfd2591c6","687a1a965b9f5b85a264363e","68931756d7c3cd2750be9539","1","668daa061b4a36bcfd2591c6","1","2025-08-06T09:08:01.964Z","","","","ControlQ","","","","","","","","","","","50","","","","","","","","","","","","","","","","","","","","","","","","","","",""
"2138","","<div style=""width:500px;"">
  <p>How would you describe your current emotional state?</p>
  </div>","0","html-slider-response","56","878729","0.0-7.0-3.8","139","1","2025-08-06 08:53:24","36c45c0696341be0efffe67d72a12abb","86.1.241.155","Mozilla/5.0 (Macintosh; Intel Mac OS X 10_15_7) AppleWebKit/537.36 (KHTML, like Gecko) Chrome/138.0.0.0 Safari/537.36","Macintosh","Chrome","138.0.0.0","OS X","10_15_7","https://app.prolific.com/","en-GB,en-US;q=0.9,en;q=0.8","668daa061b4a36bcfd2591c6","687a1a965b9f5b85a264363e","68931756d7c3cd2750be9539","1","668daa061b4a36bcfd2591c6","1","2025-08-06T09:08:04.103Z","","","","StressQ","","","","","","","","","","","50","","","","","","","","","","","","","","","","","","","","","","","","","","",""
"3293","","<div style=""width:500px;"">
  <p>What best describes how you currently feel?</p>
  </div>","0","html-slider-response","57","882023","0.0-7.0-4.8","139","1","2025-08-06 08:53:24","36c45c0696341be0efffe67d72a12abb","86.1.241.155","Mozilla/5.0 (Macintosh; Intel Mac OS X 10_15_7) AppleWebKit/537.36 (KHTML, like Gecko) Chrome/138.0.0.0 Safari/537.36","Macintosh","Chrome","138.0.0.0","OS X","10_15_7","https://app.prolific.com/","en-GB,en-US;q=0.9,en;q=0.8","668daa061b4a36bcfd2591c6","687a1a965b9f5b85a264363e","68931756d7c3cd2750be9539","1","668daa061b4a36bcfd2591c6","1","2025-08-06T09:08:07.397Z","","","","MotivationQ","","","","","","","","","","","50","","","","","","","","","","","","","","","","","","","","","","","","","","",""
"","","","","ctl-task-cpt","58","975989","0.0-7.0-0.9","139","1","2025-08-06 08:53:24","36c45c0696341be0efffe67d72a12abb","86.1.241.155","Mozilla/5.0 (Macintosh; Intel Mac OS X 10_15_7) AppleWebKit/537.36 (KHTML, like Gecko) Chrome/138.0.0.0 Safari/537.36","Macintosh","Chrome","138.0.0.0","OS X","10_15_7","https://app.prolific.com/","en-GB,en-US;q=0.9,en;q=0.8","668daa061b4a36bcfd2591c6","687a1a965b9f5b85a264363e","68931756d7c3cd2750be9539","1","668daa061b4a36bcfd2591c6","1","2025-08-06T09:09:41.363Z","","","","","","","","","","","","","","","","win-only","1","g1:NE,g2:SW","0.5","10","0","883082.6","1107.1","6114.6","90931.4","1","4","8","6","2","8","8","33","25","0.25","1153.7","3000","635","[""down"",""left""]","{""num_key_presses"":18,""num_perfect"":10,""num_errors"":0,""num_randdir"":8,""num_randdir_good_moves"":3,""num_whilered"":0,""num_whileblue"":0,""num_blue"":7,""num_good_moves"":12}","[818,813.796875,0.2,818,813.796875,100.1,818,813.796875,287.2,818,813.796875,401.6,818,813.796875,510.1,818,813.796875,628.4,818,813.796875,736.3,158,1545.796875,944.5,158,1533.796875,1051,172,1493.796875,1166.9,172,1493.796875,1276.4,172,1493.796875,1379.9,172,1493.796875,1559,172,1493.796875,1673.3,172,1493.796875,1794,172,1493.796875,1908.1,172,1493.796875,2020.5,172,1493.796875,2241.3,172,1493.796875,2366.4,172,1493.796875,2491.5,172,1493.796875,2599,172,1493.796875,2701.3,172,1493.796875,2904.6,172,1493.796875,3027.8,172,1493.796875,3131.4,172,1493.796875,3232.8,172,1493.796875,3333.5,172,1493.796875,3506.5,172,1493.796875,3621.4,172,1493.796875,3738.6,172,1493.796875,3840.7,172,1493.796875,3944.9,172,1493.796875,4091.7,172,1493.796875,4204.6,172,1493.796875,4318.4,172,1493.796875,4424.7,172,1493.796875,4533.4,172,1493.796875,4637.7,172,1493.796875,4838.2,172,1493.796875,4947.8]","[1665.2,1665.2,1000,0,665.2,""smooth"",""down"",""down"",""good_move"",4956.7,3290.9,2831.8,1665.8,459.1,""oops"",""down"",""right"",""bad_move"",15410.4,10453.4,2607,12245.7,557.7,""smooth"",""down"",""down"",""good_move"",24850,9439.4,1981.2,22406.1,462.7,""smooth"",""down"",""down"",""good_move"",27631.9,2781.7,2131.7,24850.2,650,""smooth"",""left"",""left"",""good_move"",31483.3,3851,2280.7,27632.3,1570.3,""oops"",""left"",""right"",""bad_move"",34820.5,3336.9,2865.1,31483.6,471.8,""smooth"",""left"",""left"",""good_move"",38857.2,4036.5,3151.8,34820.7,884.7,""oops"",""left"",""left"",""good_move"",43165.2,4307.8,2710.3,38857.4,1597.5,""oops"",""left"",""right"",""bad_move"",45587.6,2421.9,1993,43165.7,428.9,""oops"",""left"",""left"",""good_move"",49594,4006.2,2327.5,45587.9,1678.7,""smooth"",""up"",""up"",""bad_move"",59761.5,10166.9,1976.9,57191.3,593.3,""smooth"",""left"",""left"",""good_move"",63905.1,4143.2,2368.3,59761.9,1774.9,""oops"",""down"",""down"",""good_move"",66394.6,2489.2,2036.6,63905.4,452.6,""oops"",""left"",""right"",""bad_move"",69446.4,3051.6,2571.2,66394.8,480.4,""oops"",""left"",""up"",""bad_move"",76743.9,7297.1,2083.9,74005.2,654.8,""smooth"",""down"",""down"",""good_move"",80099.8,3355.7,2799.7,76744.2,555.9,""smooth"",""left"",""left"",""good_move"",84334.9,4234.6,2978.7,80100.3,1255.9,""smooth"",""left"",""left"",""good_move""]"
"2141","","<div style=""width:500px;"">
  <p>What determined the result of this run?</p>
  </div>","0","html-slider-response","59","978131","0.0-7.0-1.9","139","1","2025-08-06 08:53:24","36c45c0696341be0efffe67d72a12abb","86.1.241.155","Mozilla/5.0 (Macintosh; Intel Mac OS X 10_15_7) AppleWebKit/537.36 (KHTML, like Gecko) Chrome/138.0.0.0 Safari/537.36","Macintosh","Chrome","138.0.0.0","OS X","10_15_7","https://app.prolific.com/","en-GB,en-US;q=0.9,en;q=0.8","668daa061b4a36bcfd2591c6","687a1a965b9f5b85a264363e","68931756d7c3cd2750be9539","1","668daa061b4a36bcfd2591c6","1","2025-08-06T09:09:43.505Z","","","","AttribQ","","","","","","","","","","","50","","","","","","","","","","","","","","","","","","","","","","","","","","",""
"1664","","<div style=""width:500px;"">
  <p>How much control did you have over the ball?</p>
  </div>","50","html-slider-response","60","979797","0.0-7.0-2.9","139","1","2025-08-06 08:53:24","36c45c0696341be0efffe67d72a12abb","86.1.241.155","Mozilla/5.0 (Macintosh; Intel Mac OS X 10_15_7) AppleWebKit/537.36 (KHTML, like Gecko) Chrome/138.0.0.0 Safari/537.36","Macintosh","Chrome","138.0.0.0","OS X","10_15_7","https://app.prolific.com/","en-GB,en-US;q=0.9,en;q=0.8","668daa061b4a36bcfd2591c6","687a1a965b9f5b85a264363e","68931756d7c3cd2750be9539","1","668daa061b4a36bcfd2591c6","1","2025-08-06T09:09:45.171Z","","","","ControlQ","","","","","","","","","","","50","","","","","","","","","","","","","","","","","","","","","","","","","","",""
"2233","","<div style=""width:500px;"">
  <p>How would you describe your current emotional state?</p>
  </div>","0","html-slider-response","61","982032","0.0-7.0-3.9","139","1","2025-08-06 08:53:24","36c45c0696341be0efffe67d72a12abb","86.1.241.155","Mozilla/5.0 (Macintosh; Intel Mac OS X 10_15_7) AppleWebKit/537.36 (KHTML, like Gecko) Chrome/138.0.0.0 Safari/537.36","Macintosh","Chrome","138.0.0.0","OS X","10_15_7","https://app.prolific.com/","en-GB,en-US;q=0.9,en;q=0.8","668daa061b4a36bcfd2591c6","687a1a965b9f5b85a264363e","68931756d7c3cd2750be9539","1","668daa061b4a36bcfd2591c6","1","2025-08-06T09:09:47.406Z","","","","StressQ","","","","","","","","","","","50","","","","","","","","","","","","","","","","","","","","","","","","","","",""
"2107","","<div style=""width:500px;"">
  <p>What best describes how you currently feel?</p>
  </div>","0","html-slider-response","62","984141","0.0-7.0-4.9","139","1","2025-08-06 08:53:24","36c45c0696341be0efffe67d72a12abb","86.1.241.155","Mozilla/5.0 (Macintosh; Intel Mac OS X 10_15_7) AppleWebKit/537.36 (KHTML, like Gecko) Chrome/138.0.0.0 Safari/537.36","Macintosh","Chrome","138.0.0.0","OS X","10_15_7","https://app.prolific.com/","en-GB,en-US;q=0.9,en;q=0.8","668daa061b4a36bcfd2591c6","687a1a965b9f5b85a264363e","68931756d7c3cd2750be9539","1","668daa061b4a36bcfd2591c6","1","2025-08-06T09:09:49.515Z","","","","MotivationQ","","","","","","","","","","","50","","","","","","","","","","","","","","","","","","","","","","","","","","",""
"","","","","ctl-task-cpt","63","1045360","0.0-7.0-0.10","139","1","2025-08-06 08:53:24","36c45c0696341be0efffe67d72a12abb","86.1.241.155","Mozilla/5.0 (Macintosh; Intel Mac OS X 10_15_7) AppleWebKit/537.36 (KHTML, like Gecko) Chrome/138.0.0.0 Safari/537.36","Macintosh","Chrome","138.0.0.0","OS X","10_15_7","https://app.prolific.com/","en-GB,en-US;q=0.9,en;q=0.8","668daa061b4a36bcfd2591c6","687a1a965b9f5b85a264363e","68931756d7c3cd2750be9539","1","668daa061b4a36bcfd2591c6","1","2025-08-06T09:10:50.734Z","","","","","","","","","","","","","","","","win-only","0","g1:NW,g2:SE","0.6","11","0","985201.6","872.6","5888.6","58196.5","1","4","4","6","2","4","4","37","33","0.2803030303030303","1069.5","3000","1675","[""down"",""right""]","{""num_key_presses"":12,""num_perfect"":6,""num_errors"":0,""num_randdir"":6,""num_randdir_good_moves"":3,""num_whilered"":0,""num_whileblue"":0,""num_blue"":4,""num_good_moves"":9}","[816,821.796875,0.3,816,821.796875,100.3,816,821.796875,202.3,816,821.796875,335.8,816,821.796875,447.5,816,821.796875,559.4,816,821.796875,662.7,1246,1245.796875,774.1,1452,1523.796875,890.4,1480,1537.796875,1027.5,1482,1531.796875,1143.6,1482,1531.796875,1262.2,1482,1531.796875,1362.4,1482,1531.796875,1470.5,1482,1531.796875,1589.4,1378,1247.796875,1701.9,1260,987.796875,1806.2,1256,981.796875,1918.8,1256,981.796875,2025.1,1256,981.796875,2148.4,1256,981.796875,2277.1,1256,981.796875,2386.1,1256,981.796875,2493.9,1256,981.796875,2606.7,1256,981.796875,2718.1,1256,981.796875,2819.7,1256,981.796875,2949.6,1256,981.796875,3061.7,1256,981.796875,3163,1256,981.796875,3267.9,1256,981.796875,3408.3,1256,981.796875,3533.5,1256,981.796875,3653.4,1256,981.796875,3754.5,1256,981.796875,3864.5,1256,981.796875,3971.3,1256,981.796875,4107.7,1256,981.796875,4245.9,1256,981.796875,4352.9,1256,981.796875,4464.5,1256,981.796875,4573.4,1256,981.796875,4673.7,1256,981.796875,4787.1,1256,981.796875,4897.5,1256,981.796875,4999.2]","[4692.7,4692.7,2204.6,2007.5,480.6,""smooth"",""down"",""down"",""good_move"",10594.8,5901.6,2487.7,7580.6,526.5,""oops"",""down"",""left"",""bad_move"",19203.8,8608.7,3162.5,15547.3,494,""smooth"",""down"",""down"",""good_move"",25182.6,5978.1,2194,22458.7,529.9,""oops"",""right"",""up"",""bad_move"",29757,4573.9,2935.2,25183.1,1638.7,""smooth"",""right"",""right"",""good_move"",32933.8,3176.4,2579.8,29757.4,596.6,""smooth"",""right"",""right"",""good_move"",35853,2919,2314.3,32934,604.7,""smooth"",""right"",""right"",""good_move"",38627.4,2774.1,2351,35853.4,423,""smooth"",""down"",""down"",""good_move"",41505.8,2878.2,2367.1,38627.6,511.1,""oops"",""down"",""up"",""bad_move"",46173.5,4667.5,1943.6,41506,2723.9,""oops"",""right"",""down"",""good_move"",49292.6,3118.9,2296.3,46173.8,822.5,""oops"",""right"",""down"",""good_move"",52038.4,2745.5,2124.1,49292.9,621.4,""oops"",""right"",""right"",""good_move""]"
"2037","","<div style=""width:500px;"">
  <p>What determined the result of this run?</p>
  </div>","0","html-slider-response","64","1047399","0.0-7.0-1.10","139","1","2025-08-06 08:53:24","36c45c0696341be0efffe67d72a12abb","86.1.241.155","Mozilla/5.0 (Macintosh; Intel Mac OS X 10_15_7) AppleWebKit/537.36 (KHTML, like Gecko) Chrome/138.0.0.0 Safari/537.36","Macintosh","Chrome","138.0.0.0","OS X","10_15_7","https://app.prolific.com/","en-GB,en-US;q=0.9,en;q=0.8","668daa061b4a36bcfd2591c6","687a1a965b9f5b85a264363e","68931756d7c3cd2750be9539","1","668daa061b4a36bcfd2591c6","1","2025-08-06T09:10:52.773Z","","","","AttribQ","","","","","","","","","","","50","","","","","","","","","","","","","","","","","","","","","","","","","","",""
"2418","","<div style=""width:500px;"">
  <p>How much control did you have over the ball?</p>
  </div>","50","html-slider-response","65","1049818","0.0-7.0-2.10","139","1","2025-08-06 08:53:24","36c45c0696341be0efffe67d72a12abb","86.1.241.155","Mozilla/5.0 (Macintosh; Intel Mac OS X 10_15_7) AppleWebKit/537.36 (KHTML, like Gecko) Chrome/138.0.0.0 Safari/537.36","Macintosh","Chrome","138.0.0.0","OS X","10_15_7","https://app.prolific.com/","en-GB,en-US;q=0.9,en;q=0.8","668daa061b4a36bcfd2591c6","687a1a965b9f5b85a264363e","68931756d7c3cd2750be9539","1","668daa061b4a36bcfd2591c6","1","2025-08-06T09:10:55.192Z","","","","ControlQ","","","","","","","","","","","50","","","","","","","","","","","","","","","","","","","","","","","","","","",""
"2225","","<div style=""width:500px;"">
  <p>How would you describe your current emotional state?</p>
  </div>","50","html-slider-response","66","1052045","0.0-7.0-3.10","139","1","2025-08-06 08:53:24","36c45c0696341be0efffe67d72a12abb","86.1.241.155","Mozilla/5.0 (Macintosh; Intel Mac OS X 10_15_7) AppleWebKit/537.36 (KHTML, like Gecko) Chrome/138.0.0.0 Safari/537.36","Macintosh","Chrome","138.0.0.0","OS X","10_15_7","https://app.prolific.com/","en-GB,en-US;q=0.9,en;q=0.8","668daa061b4a36bcfd2591c6","687a1a965b9f5b85a264363e","68931756d7c3cd2750be9539","1","668daa061b4a36bcfd2591c6","1","2025-08-06T09:10:57.419Z","","","","StressQ","","","","","","","","","","","50","","","","","","","","","","","","","","","","","","","","","","","","","","",""
"1964","","<div style=""width:500px;"">
  <p>What best describes how you currently feel?</p>
  </div>","0","html-slider-response","67","1054010","0.0-7.0-4.10","139","1","2025-08-06 08:53:24","36c45c0696341be0efffe67d72a12abb","86.1.241.155","Mozilla/5.0 (Macintosh; Intel Mac OS X 10_15_7) AppleWebKit/537.36 (KHTML, like Gecko) Chrome/138.0.0.0 Safari/537.36","Macintosh","Chrome","138.0.0.0","OS X","10_15_7","https://app.prolific.com/","en-GB,en-US;q=0.9,en;q=0.8","668daa061b4a36bcfd2591c6","687a1a965b9f5b85a264363e","68931756d7c3cd2750be9539","1","668daa061b4a36bcfd2591c6","1","2025-08-06T09:10:59.384Z","","","","MotivationQ","","","","","","","","","","","50","","","","","","","","","","","","","","","","","","","","","","","","","","",""
"","","","","ctl-task-cpt","68","1093025","0.0-7.0-0.11","139","1","2025-08-06 08:53:24","36c45c0696341be0efffe67d72a12abb","86.1.241.155","Mozilla/5.0 (Macintosh; Intel Mac OS X 10_15_7) AppleWebKit/537.36 (KHTML, like Gecko) Chrome/138.0.0.0 Safari/537.36","Macintosh","Chrome","138.0.0.0","OS X","10_15_7","https://app.prolific.com/","en-GB,en-US;q=0.9,en;q=0.8","668daa061b4a36bcfd2591c6","687a1a965b9f5b85a264363e","68931756d7c3cd2750be9539","1","668daa061b4a36bcfd2591c6","1","2025-08-06T09:11:38.399Z","","","","","","","","","","","","","","","","win-only","2","g1:SE,g2:NW","0.7","12","0","1055071.8","754.5","5764.6","35990.8","1","4","8","6","2","8","8","45","37","0.3409090909090909","1239.7","3000","2405","[""left"",""up""]","{""num_key_presses"":6,""num_perfect"":6,""num_errors"":0,""num_randdir"":0,""num_randdir_good_moves"":0,""num_whilered"":0,""num_whileblue"":0,""num_blue"":1,""num_good_moves"":6}","[812,809.796875,0.2,812,809.796875,194.7,812,809.796875,305,812,809.796875,407.8,812,809.796875,516.6,906,917.796875,621.8,896,925.796875,738.2,364,229.796875,977.8,364,229.796875,1078.7,224,163.796875,1180.1,190,147.796875,1284.3,190,147.796875,1384.7,190,147.796875,1661.7,250,203.796875,1780.8,688,801.796875,1891.9,686,803.796875,2154.1,686,803.796875,2261.5,686,803.796875,2365.4,686,803.796875,2471.9,686,803.796875,2575,686,803.796875,2692.8,686,803.796875,2886.5,686,803.796875,3020.5,686,803.796875,3123.2,686,803.796875,3349.2,686,803.796875,3476.3,686,803.796875,3576.8,686,803.796875,3680.9,686,803.796875,3790,686,803.796875,4081.3,686,803.796875,4185.8,686,803.796875,4295.7,686,803.796875,4403.4,686,803.796875,4685.3,686,803.796875,4791.3,686,803.796875,4900.4]","[1797.6,1797.6,1000,0,797.6,""smooth"",""left"",""left"",""good_move"",6630.5,4832.3,2709.9,1798.2,2122.4,""smooth"",""left"",""left"",""good_move"",11652.6,5021.9,2201.9,6630.7,2820,""smooth"",""up"",""up"",""good_move"",16513.6,4860.8,2425.6,11652.9,2435.2,""smooth"",""up"",""up"",""good_move"",24857.8,8343.6,2609,21763.6,485.2,""smooth"",""up"",""up"",""good_move"",29775.8,4917.5,2783.5,24858.3,2134,""smooth"",""left"",""left"",""good_move""]"
"2519","","<div style=""width:500px;"">
  <p>What determined the result of this run?</p>
  </div>","0","html-slider-response","69","1095545","0.0-7.0-1.11","139","1","2025-08-06 08:53:24","36c45c0696341be0efffe67d72a12abb","86.1.241.155","Mozilla/5.0 (Macintosh; Intel Mac OS X 10_15_7) AppleWebKit/537.36 (KHTML, like Gecko) Chrome/138.0.0.0 Safari/537.36","Macintosh","Chrome","138.0.0.0","OS X","10_15_7","https://app.prolific.com/","en-GB,en-US;q=0.9,en;q=0.8","668daa061b4a36bcfd2591c6","687a1a965b9f5b85a264363e","68931756d7c3cd2750be9539","1","668daa061b4a36bcfd2591c6","1","2025-08-06T09:11:40.919Z","","","","AttribQ","","","","","","","","","","","50","","","","","","","","","","","","","","","","","","","","","","","","","","",""
"1630","","<div style=""width:500px;"">
  <p>How much control did you have over the ball?</p>
  </div>","50","html-slider-response","70","1097176","0.0-7.0-2.11","139","1","2025-08-06 08:53:24","36c45c0696341be0efffe67d72a12abb","86.1.241.155","Mozilla/5.0 (Macintosh; Intel Mac OS X 10_15_7) AppleWebKit/537.36 (KHTML, like Gecko) Chrome/138.0.0.0 Safari/537.36","Macintosh","Chrome","138.0.0.0","OS X","10_15_7","https://app.prolific.com/","en-GB,en-US;q=0.9,en;q=0.8","668daa061b4a36bcfd2591c6","687a1a965b9f5b85a264363e","68931756d7c3cd2750be9539","1","668daa061b4a36bcfd2591c6","1","2025-08-06T09:11:42.551Z","","","","ControlQ","","","","","","","","","","","50","","","","","","","","","","","","","","","","","","","","","","","","","","",""
"2100","","<div style=""width:500px;"">
  <p>How would you describe your current emotional state?</p>
  </div>","51","html-slider-response","71","1099278","0.0-7.0-3.11","139","1","2025-08-06 08:53:24","36c45c0696341be0efffe67d72a12abb","86.1.241.155","Mozilla/5.0 (Macintosh; Intel Mac OS X 10_15_7) AppleWebKit/537.36 (KHTML, like Gecko) Chrome/138.0.0.0 Safari/537.36","Macintosh","Chrome","138.0.0.0","OS X","10_15_7","https://app.prolific.com/","en-GB,en-US;q=0.9,en;q=0.8","668daa061b4a36bcfd2591c6","687a1a965b9f5b85a264363e","68931756d7c3cd2750be9539","1","668daa061b4a36bcfd2591c6","1","2025-08-06T09:11:44.652Z","","","","StressQ","","","","","","","","","","","50","","","","","","","","","","","","","","","","","","","","","","","","","","",""
"1856","","<div style=""width:500px;"">
  <p>What best describes how you currently feel?</p>
  </div>","0","html-slider-response","72","1101135","0.0-7.0-4.11","139","1","2025-08-06 08:53:24","36c45c0696341be0efffe67d72a12abb","86.1.241.155","Mozilla/5.0 (Macintosh; Intel Mac OS X 10_15_7) AppleWebKit/537.36 (KHTML, like Gecko) Chrome/138.0.0.0 Safari/537.36","Macintosh","Chrome","138.0.0.0","OS X","10_15_7","https://app.prolific.com/","en-GB,en-US;q=0.9,en;q=0.8","668daa061b4a36bcfd2591c6","687a1a965b9f5b85a264363e","68931756d7c3cd2750be9539","1","668daa061b4a36bcfd2591c6","1","2025-08-06T09:11:46.509Z","","","","MotivationQ","","","","","","","","","","","50","","","","","","","","","","","","","","","","","","","","","","","","","","",""
"","","","","ctl-task-cpt","73","1152169","0.0-7.0-0.12","139","1","2025-08-06 08:53:24","36c45c0696341be0efffe67d72a12abb","86.1.241.155","Mozilla/5.0 (Macintosh; Intel Mac OS X 10_15_7) AppleWebKit/537.36 (KHTML, like Gecko) Chrome/138.0.0.0 Safari/537.36","Macintosh","Chrome","138.0.0.0","OS X","10_15_7","https://app.prolific.com/","en-GB,en-US;q=0.9,en;q=0.8","668daa061b4a36bcfd2591c6","687a1a965b9f5b85a264363e","68931756d7c3cd2750be9539","1","668daa061b4a36bcfd2591c6","1","2025-08-06T09:12:37.543Z","","","","","","","","","","","","","","","","win-only","3","g1:SW,g2:NE","0.8","13","0","1102199.1","1070.6","6084.9","48005.4","1","4","8","6","2","8","7","52","45","0.3939393939393939","1107.1","3000","2025","[""up"",""right""]","{""num_key_presses"":9,""num_perfect"":7,""num_errors"":1,""num_randdir"":1,""num_randdir_good_moves"":0,""num_whilered"":0,""num_whileblue"":0,""num_blue"":3,""num_good_moves"":7}","[834,809.796875,0.4,834,809.796875,125.6,834,809.796875,226.4,834,809.796875,329.2,834,809.796875,438,834,809.796875,585.9,834,809.796875,694.8,1350,415.796875,814.1,1574,243.796875,928.4,1584,199.796875,1044.7,1566,185.796875,1152.7,1566,185.796875,1293.5,1542,221.796875,1420.4,1306,499.796875,1523.8,1282,537.796875,1631.2,1282,537.796875,1739.1,1282,537.796875,1897.2,1282,537.796875,1998.1,1282,537.796875,2106.5,1282,537.796875,2210.1,1282,537.796875,2423.4,1282,537.796875,2541.9,1282,537.796875,2656.9,1282,537.796875,2759.7,1282,537.796875,2860.9,1282,537.796875,3080.6,1282,537.796875,3195.1,1282,537.796875,3315.2,1282,537.796875,3430.3,1282,537.796875,3535.8,1282,537.796875,3822.2,1282,537.796875,3937.9,1282,537.796875,4039.8,1282,537.796875,4143.5,1282,537.796875,4366.9,1282,537.796875,4479.3,1282,537.796875,4598.4,1282,537.796875,4712.6,1282,537.796875,4982.4]","[5266.1,5266.2,2623.7,2037.6,604.9,""smooth"",""right"",""right"",""good_move"",7711.2,2444.6,1772.4,5266.7,672.1,""smooth"",""right"",""right"",""good_move"",10632.5,2921.1,2208,7711.4,713.1,""smooth"",""right"",""right"",""good_move"",13629.9,2997.3,2460.2,10632.7,537.1,""smooth"",""up"",""up"",""good_move"",18814.7,5184.4,2288.6,13630.4,2895.7,""smooth"",""up"",""up"",""good_move"",23705.7,4890.8,1674.4,18814.9,3216.4,""oops"",""up"",""left"",""bad_move"",25095.2,1388.9,2448.1,23706.3,-1059.2,""error"",""-"",""-"",""no_move"",29592.8,4497.4,1915.7,26097.5,1579.6,""smooth"",""up"",""up"",""good_move"",41526.9,11933.9,2310.1,38342.5,874.3,""smooth"",""right"",""right"",""good_move""]"
"3919","","<div style=""width:500px;"">
  <p>What determined the result of this run?</p>
  </div>","0","html-slider-response","74","1156091","0.0-7.0-1.12","139","1","2025-08-06 08:53:24","36c45c0696341be0efffe67d72a12abb","86.1.241.155","Mozilla/5.0 (Macintosh; Intel Mac OS X 10_15_7) AppleWebKit/537.36 (KHTML, like Gecko) Chrome/138.0.0.0 Safari/537.36","Macintosh","Chrome","138.0.0.0","OS X","10_15_7","https://app.prolific.com/","en-GB,en-US;q=0.9,en;q=0.8","668daa061b4a36bcfd2591c6","687a1a965b9f5b85a264363e","68931756d7c3cd2750be9539","1","668daa061b4a36bcfd2591c6","1","2025-08-06T09:12:41.465Z","","","","AttribQ","","","","","","","","","","","50","","","","","","","","","","","","","","","","","","","","","","","","","","",""
"1447","","<div style=""width:500px;"">
  <p>How much control did you have over the ball?</p>
  </div>","50","html-slider-response","75","1157540","0.0-7.0-2.12","139","1","2025-08-06 08:53:24","36c45c0696341be0efffe67d72a12abb","86.1.241.155","Mozilla/5.0 (Macintosh; Intel Mac OS X 10_15_7) AppleWebKit/537.36 (KHTML, like Gecko) Chrome/138.0.0.0 Safari/537.36","Macintosh","Chrome","138.0.0.0","OS X","10_15_7","https://app.prolific.com/","en-GB,en-US;q=0.9,en;q=0.8","668daa061b4a36bcfd2591c6","687a1a965b9f5b85a264363e","68931756d7c3cd2750be9539","1","668daa061b4a36bcfd2591c6","1","2025-08-06T09:12:42.914Z","","","","ControlQ","","","","","","","","","","","50","","","","","","","","","","","","","","","","","","","","","","","","","","",""
"1736","","<div style=""width:500px;"">
  <p>How would you describe your current emotional state?</p>
  </div>","51","html-slider-response","76","1159277","0.0-7.0-3.12","139","1","2025-08-06 08:53:24","36c45c0696341be0efffe67d72a12abb","86.1.241.155","Mozilla/5.0 (Macintosh; Intel Mac OS X 10_15_7) AppleWebKit/537.36 (KHTML, like Gecko) Chrome/138.0.0.0 Safari/537.36","Macintosh","Chrome","138.0.0.0","OS X","10_15_7","https://app.prolific.com/","en-GB,en-US;q=0.9,en;q=0.8","668daa061b4a36bcfd2591c6","687a1a965b9f5b85a264363e","68931756d7c3cd2750be9539","1","668daa061b4a36bcfd2591c6","1","2025-08-06T09:12:44.651Z","","","","StressQ","","","","","","","","","","","50","","","","","","","","","","","","","","","","","","","","","","","","","","",""
"1459","","<div style=""width:500px;"">
  <p>What best describes how you currently feel?</p>
  </div>","0","html-slider-response","77","1160737","0.0-7.0-4.12","139","1","2025-08-06 08:53:24","36c45c0696341be0efffe67d72a12abb","86.1.241.155","Mozilla/5.0 (Macintosh; Intel Mac OS X 10_15_7) AppleWebKit/537.36 (KHTML, like Gecko) Chrome/138.0.0.0 Safari/537.36","Macintosh","Chrome","138.0.0.0","OS X","10_15_7","https://app.prolific.com/","en-GB,en-US;q=0.9,en;q=0.8","668daa061b4a36bcfd2591c6","687a1a965b9f5b85a264363e","68931756d7c3cd2750be9539","1","668daa061b4a36bcfd2591c6","1","2025-08-06T09:12:46.111Z","","","","MotivationQ","","","","","","","","","","","50","","","","","","","","","","","","","","","","","","","","","","","","","","",""
"","","","","ctl-task-cpt","78","1190774","0.0-7.0-0.13","139","1","2025-08-06 08:53:24","36c45c0696341be0efffe67d72a12abb","86.1.241.155","Mozilla/5.0 (Macintosh; Intel Mac OS X 10_15_7) AppleWebKit/537.36 (KHTML, like Gecko) Chrome/138.0.0.0 Safari/537.36","Macintosh","Chrome","138.0.0.0","OS X","10_15_7","https://app.prolific.com/","en-GB,en-US;q=0.9,en;q=0.8","668daa061b4a36bcfd2591c6","687a1a965b9f5b85a264363e","68931756d7c3cd2750be9539","1","668daa061b4a36bcfd2591c6","1","2025-08-06T09:13:16.148Z","","","","","","","","","","","","","","","","win-only","0","g1:NW,g2:SE","0.9","14","0","1161802.4","684.5","5691.2","26968.1","1","4","4","6","2","4","4","56","52","0.42424242424242425","2449.5","3000","2355","[""down"",""right""]","{""num_key_presses"":6,""num_perfect"":5,""num_errors"":0,""num_randdir"":1,""num_randdir_good_moves"":1,""num_whilered"":0,""num_whileblue"":0,""num_blue"":1,""num_good_moves"":6}","[822,797.796875,0.2,822,797.796875,114.6,822,797.796875,217.2,822,797.796875,465.6,926,869.796875,595.7,1558,1629.796875,699.8,1578,1649.796875,806,1584,1641.796875,914.5,1570,1611.796875,1046.7,1556,1587.796875,1163.2,1544,1567.796875,1276.5,1544,1565.796875,1390.4,1544,1565.796875,1493,1544,1565.796875,1596.4,1544,1565.796875,1701.5,1496,1469.796875,1808,1484,1443.796875,1922.2,1552,1545.796875,2035.3,1546,1539.796875,2137.8,1540,1529.796875,2241.1,1538,1521.796875,2384.6,1536,1519.796875,2499.2,1536,1519.796875,2616.4,1536,1519.796875,2723,1536,1519.796875,2835.7,1536,1519.796875,2976.5,1536,1519.796875,3084.9,1536,1519.796875,3211.6,1536,1519.796875,3324.5,1536,1519.796875,3438.5,1536,1519.796875,3659.3,1536,1519.796875,3784.7,1536,1519.796875,3901.5,1536,1519.796875,4002.6,1536,1519.796875,4301.8,1536,1519.796875,4430,1536,1519.796875,4540.3,1536,1519.796875,4644.1,1536,1519.796875,4757.7,1536,1519.796875,4900.2]","[5143.8,5143.8,2206,2314.1,623.7,""smooth"",""down"",""down"",""good_move"",8075.6,2931.4,2243,5144.2,688.4,""smooth"",""down"",""down"",""good_move"",10897,2821.2,2175.4,8075.8,645.8,""smooth"",""down"",""down"",""good_move"",14415.7,3518.4,2914.4,10897.3,604,""smooth"",""right"",""right"",""good_move"",17509.7,3093.5,2441,14416.2,652.5,""oops"",""right"",""right"",""good_move"",20704.5,3194.6,2614.3,17509.9,580.3,""smooth"",""right"",""right"",""good_move""]"
"2129","","<div style=""width:500px;"">
  <p>What determined the result of this run?</p>
  </div>","0","html-slider-response","79","1192905","0.0-7.0-1.13","139","1","2025-08-06 08:53:24","36c45c0696341be0efffe67d72a12abb","86.1.241.155","Mozilla/5.0 (Macintosh; Intel Mac OS X 10_15_7) AppleWebKit/537.36 (KHTML, like Gecko) Chrome/138.0.0.0 Safari/537.36","Macintosh","Chrome","138.0.0.0","OS X","10_15_7","https://app.prolific.com/","en-GB,en-US;q=0.9,en;q=0.8","668daa061b4a36bcfd2591c6","687a1a965b9f5b85a264363e","68931756d7c3cd2750be9539","1","668daa061b4a36bcfd2591c6","1","2025-08-06T09:13:18.279Z","","","","AttribQ","","","","","","","","","","","50","","","","","","","","","","","","","","","","","","","","","","","","","","",""
"1956","","<div style=""width:500px;"">
  <p>How much control did you have over the ball?</p>
  </div>","35","html-slider-response","80","1194863","0.0-7.0-2.13","139","1","2025-08-06 08:53:24","36c45c0696341be0efffe67d72a12abb","86.1.241.155","Mozilla/5.0 (Macintosh; Intel Mac OS X 10_15_7) AppleWebKit/537.36 (KHTML, like Gecko) Chrome/138.0.0.0 Safari/537.36","Macintosh","Chrome","138.0.0.0","OS X","10_15_7","https://app.prolific.com/","en-GB,en-US;q=0.9,en;q=0.8","668daa061b4a36bcfd2591c6","687a1a965b9f5b85a264363e","68931756d7c3cd2750be9539","1","668daa061b4a36bcfd2591c6","1","2025-08-06T09:13:20.237Z","","","","ControlQ","","","","","","","","","","","50","","","","","","","","","","","","","","","","","","","","","","","","","","",""
"1722","","<div style=""width:500px;"">
  <p>How would you describe your current emotional state?</p>
  </div>","50","html-slider-response","81","1196587","0.0-7.0-3.13","139","1","2025-08-06 08:53:24","36c45c0696341be0efffe67d72a12abb","86.1.241.155","Mozilla/5.0 (Macintosh; Intel Mac OS X 10_15_7) AppleWebKit/537.36 (KHTML, like Gecko) Chrome/138.0.0.0 Safari/537.36","Macintosh","Chrome","138.0.0.0","OS X","10_15_7","https://app.prolific.com/","en-GB,en-US;q=0.9,en;q=0.8","668daa061b4a36bcfd2591c6","687a1a965b9f5b85a264363e","68931756d7c3cd2750be9539","1","668daa061b4a36bcfd2591c6","1","2025-08-06T09:13:21.961Z","","","","StressQ","","","","","","","","","","","50","","","","","","","","","","","","","","","","","","","","","","","","","","",""
"2021","","<div style=""width:500px;"">
  <p>What best describes how you currently feel?</p>
  </div>","0","html-slider-response","82","1198609","0.0-7.0-4.13","139","1","2025-08-06 08:53:24","36c45c0696341be0efffe67d72a12abb","86.1.241.155","Mozilla/5.0 (Macintosh; Intel Mac OS X 10_15_7) AppleWebKit/537.36 (KHTML, like Gecko) Chrome/138.0.0.0 Safari/537.36","Macintosh","Chrome","138.0.0.0","OS X","10_15_7","https://app.prolific.com/","en-GB,en-US;q=0.9,en;q=0.8","668daa061b4a36bcfd2591c6","687a1a965b9f5b85a264363e","68931756d7c3cd2750be9539","1","668daa061b4a36bcfd2591c6","1","2025-08-06T09:13:23.984Z","","","","MotivationQ","","","","","","","","","","","50","","","","","","","","","","","","","","","","","","","","","","","","","","",""
"","","","","ctl-task-cpt","83","1235805","0.0-7.0-0.14","139","1","2025-08-06 08:53:24","36c45c0696341be0efffe67d72a12abb","86.1.241.155","Mozilla/5.0 (Macintosh; Intel Mac OS X 10_15_7) AppleWebKit/537.36 (KHTML, like Gecko) Chrome/138.0.0.0 Safari/537.36","Macintosh","Chrome","138.0.0.0","OS X","10_15_7","https://app.prolific.com/","en-GB,en-US;q=0.9,en;q=0.8","668daa061b4a36bcfd2591c6","687a1a965b9f5b85a264363e","68931756d7c3cd2750be9539","1","668daa061b4a36bcfd2591c6","1","2025-08-06T09:14:01.179Z","","","","","","","","","","","","","","","","win-only","0","g1:NW,g2:SE","1","15","0","1199674.5","705.2","5714.2","34176.4","1","4","8","6","2","8","8","64","56","0.48484848484848486","1080.8","3000","2405","[""down"",""right""]","{""num_key_presses"":6,""num_perfect"":6,""num_errors"":0,""num_randdir"":0,""num_randdir_good_moves"":0,""num_whilered"":0,""num_whileblue"":0,""num_blue"":3,""num_good_moves"":6}","[814,801.796875,0.2,814,801.796875,111.6,814,801.796875,409,814,801.796875,516.5,814,801.796875,622.6,1472,1551.796875,857.6,1492,1553.796875,958,1492,1539.796875,1103.3,1492,1539.796875,1208.5,1492,1539.796875,1321.9,1492,1539.796875,1424.8,1492,1539.796875,1535.3,1492,1539.796875,1650.5,1492,1539.796875,1753,1492,1539.796875,1868.1,1492,1539.796875,1974.7,1492,1539.796875,2127.2,1492,1539.796875,2235,1492,1539.796875,2348.4,1492,1539.796875,2467,1492,1539.796875,2567.9,1492,1539.796875,2685.3,1492,1539.796875,2796.2,1492,1539.796875,2913.3,1492,1539.796875,3013.4,1492,1539.796875,3131,1492,1539.796875,3246.5,1492,1539.796875,3351.9,1492,1539.796875,3469.9,1492,1539.796875,3618.4,1492,1539.796875,3726.3,1492,1539.796875,3834.4,1492,1539.796875,3947.5,1492,1539.796875,4071.1,1492,1539.796875,4177.7,1492,1539.796875,4292.1,1492,1539.796875,4392.6,1484,1531.796875,4501.8,1368,973.796875,4623,1368,707.796875,4743.2,1368,705.796875,4847.2,1368,705.796875,4962.2]","[12095.1,12095.1,2639.6,8890.3,565.2,""smooth"",""right"",""right"",""good_move"",15368.4,3272.9,2389.5,12095.5,883.4,""smooth"",""right"",""right"",""good_move"",18015.8,2647.2,1952.2,15368.6,695,""smooth"",""right"",""right"",""good_move"",21469.8,3453.9,2876.8,18015.9,577.1,""smooth"",""down"",""down"",""good_move"",24578.5,3108.2,2459.3,21470.3,648.9,""smooth"",""down"",""down"",""good_move"",27909.6,3330.6,2778.4,24579,552.2,""smooth"",""down"",""down"",""good_move""]"
"2764","","<div style=""width:500px;"">
  <p>What determined the result of this run?</p>
  </div>","0","html-slider-response","84","1238570","0.0-7.0-1.14","139","1","2025-08-06 08:53:24","36c45c0696341be0efffe67d72a12abb","86.1.241.155","Mozilla/5.0 (Macintosh; Intel Mac OS X 10_15_7) AppleWebKit/537.36 (KHTML, like Gecko) Chrome/138.0.0.0 Safari/537.36","Macintosh","Chrome","138.0.0.0","OS X","10_15_7","https://app.prolific.com/","en-GB,en-US;q=0.9,en;q=0.8","668daa061b4a36bcfd2591c6","687a1a965b9f5b85a264363e","68931756d7c3cd2750be9539","1","668daa061b4a36bcfd2591c6","1","2025-08-06T09:14:03.944Z","","","","AttribQ","","","","","","","","","","","50","","","","","","","","","","","","","","","","","","","","","","","","","","",""
"1734","","<div style=""width:500px;"">
  <p>How much control did you have over the ball?</p>
  </div>","51","html-slider-response","85","1240306","0.0-7.0-2.14","139","1","2025-08-06 08:53:24","36c45c0696341be0efffe67d72a12abb","86.1.241.155","Mozilla/5.0 (Macintosh; Intel Mac OS X 10_15_7) AppleWebKit/537.36 (KHTML, like Gecko) Chrome/138.0.0.0 Safari/537.36","Macintosh","Chrome","138.0.0.0","OS X","10_15_7","https://app.prolific.com/","en-GB,en-US;q=0.9,en;q=0.8","668daa061b4a36bcfd2591c6","687a1a965b9f5b85a264363e","68931756d7c3cd2750be9539","1","668daa061b4a36bcfd2591c6","1","2025-08-06T09:14:05.680Z","","","","ControlQ","","","","","","","","","","","50","","","","","","","","","","","","","","","","","","","","","","","","","","",""
"2121","","<div style=""width:500px;"">
  <p>How would you describe your current emotional state?</p>
  </div>","0","html-slider-response","86","1242427","0.0-7.0-3.14","139","1","2025-08-06 08:53:24","36c45c0696341be0efffe67d72a12abb","86.1.241.155","Mozilla/5.0 (Macintosh; Intel Mac OS X 10_15_7) AppleWebKit/537.36 (KHTML, like Gecko) Chrome/138.0.0.0 Safari/537.36","Macintosh","Chrome","138.0.0.0","OS X","10_15_7","https://app.prolific.com/","en-GB,en-US;q=0.9,en;q=0.8","668daa061b4a36bcfd2591c6","687a1a965b9f5b85a264363e","68931756d7c3cd2750be9539","1","668daa061b4a36bcfd2591c6","1","2025-08-06T09:14:07.801Z","","","","StressQ","","","","","","","","","","","50","","","","","","","","","","","","","","","","","","","","","","","","","","",""
"2190","","<div style=""width:500px;"">
  <p>What best describes how you currently feel?</p>
  </div>","0","html-slider-response","87","1244619","0.0-7.0-4.14","139","1","2025-08-06 08:53:24","36c45c0696341be0efffe67d72a12abb","86.1.241.155","Mozilla/5.0 (Macintosh; Intel Mac OS X 10_15_7) AppleWebKit/537.36 (KHTML, like Gecko) Chrome/138.0.0.0 Safari/537.36","Macintosh","Chrome","138.0.0.0","OS X","10_15_7","https://app.prolific.com/","en-GB,en-US;q=0.9,en;q=0.8","668daa061b4a36bcfd2591c6","687a1a965b9f5b85a264363e","68931756d7c3cd2750be9539","1","668daa061b4a36bcfd2591c6","1","2025-08-06T09:14:09.993Z","","","","MotivationQ","","","","","","","","","","","50","","","","","","","","","","","","","","","","","","","","","","","","","","",""
