"rt","response_timestamp","stimulus","response","trial_type","trial_index","time_elapsed","internal_node_id","run_id","condition","recorded_at","source_code_version","ip","user_agent","device","browser","browser_version","platform","platform_version","referer","accept_language","PROLIFIC_PID","STUDY_ID","SESSION_ID","BATCH","prolific_id","batch","realtime","success","question_order","question_id","eventType","responses","item_order","radio_event_ids","radio_event_times","key_event_times","mouse_event_times","straightlining","zigzagging","honeypot","view_history","slider_start","which_type","canvas_config","goals_layout","control_level","trial_number","tutorial_trial_number","trial_start_time","phase1_start_time","phase2_start_time","phase3_start_time","goal_1_value","goal_1_distance","goal_2_value","goal_2_distance","goal_selected","outcome","outcome_total","participant_final_score","participant_initial_score","participant_final_score_prop","goal_choice_rt","allocated_time","allocated_time_remaining","goal_direction","counts","mouse_movements","key_presses"
"18229","1754475037626","<p style='font-size:40px;line-height:1.25'><strong>Welcome to the experiment!</strong></p><p style='font-size:1.1em;line-height:1.25'>Thank you for participanting in our experiment again! You will be asked to play the Dysfunctional Ball Game again. We will briefly recap the rules before we start.</p><p style='font-size:1.1em;line-height:1.25'>Press <strong>Next</strong> to continue.</p>","0","custom-html-button-response","0","18300","0.0-0.0","175","1","2025-08-06 10:09:49","36c45c0696341be0efffe67d72a12abb","197.184.95.12","Mozilla/5.0 (Windows NT 10.0; Win64; x64) AppleWebKit/537.36 (KHTML, like Gecko) Chrome/139.0.0.0 Safari/537.36","WebKit","Chrome","139.0.0.0","Windows","10.0","https://app.prolific.com/","en-US,en;q=0.8","668ffb93b25dcfcfbe1836a4","687a1a965b9f5b85a264363e","6893288cefe31bc8114e94a7","1","668ffb93b25dcfcfbe1836a4","1","2025-08-06T10:10:37.628Z","","","","","","","","","","","","","","","","","","","","","","","","","","","","","","","","","","","","","","","","","",""
"12925","","","","fullscreen","1","32335","0.0-1.0","175","1","2025-08-06 10:09:49","36c45c0696341be0efffe67d72a12abb","197.184.95.12","Mozilla/5.0 (Windows NT 10.0; Win64; x64) AppleWebKit/537.36 (KHTML, like Gecko) Chrome/139.0.0.0 Safari/537.36","WebKit","Chrome","139.0.0.0","Windows","10.0","https://app.prolific.com/","en-US,en;q=0.8","668ffb93b25dcfcfbe1836a4","687a1a965b9f5b85a264363e","6893288cefe31bc8114e94a7","1","668ffb93b25dcfcfbe1836a4","1","","true","","","","","","","","","","","","","","","","","","","","","","","","","","","","","","","","","","","","","","","","",""
"8987","1754475060695"," <p style='font-size:1.1em;line-height:1.25'>Thank you for closing all other tabs.</p><p style='font-size:1.1em;line-height:1.25'>We will now invite you to fill in some questionnaires, before starting the game.<br>This will take about 5 minutes.<br></p><p style='font-size:1.1em;line-height:1.25'>Press the <strong>Next</strong> button to continue.</p>","0","custom-html-button-response","2","41368","0.0-2.0","175","1","2025-08-06 10:09:49","36c45c0696341be0efffe67d72a12abb","197.184.95.12","Mozilla/5.0 (Windows NT 10.0; Win64; x64) AppleWebKit/537.36 (KHTML, like Gecko) Chrome/139.0.0.0 Safari/537.36","WebKit","Chrome","139.0.0.0","Windows","10.0","https://app.prolific.com/","en-US,en;q=0.8","668ffb93b25dcfcfbe1836a4","687a1a965b9f5b85a264363e","6893288cefe31bc8114e94a7","1","668ffb93b25dcfcfbe1836a4","1","2025-08-06T10:11:00.696Z","","","","","","","","","","","","","","","","","","","","","","","","","","","","","","","","","","","","","","","","","",""
"4386","","","{""assigned_sex"":""female""}","survey-multi-choice","3","45787","0.0-3.0-0.0","175","1","2025-08-06 10:09:49","36c45c0696341be0efffe67d72a12abb","197.184.95.12","Mozilla/5.0 (Windows NT 10.0; Win64; x64) AppleWebKit/537.36 (KHTML, like Gecko) Chrome/139.0.0.0 Safari/537.36","WebKit","Chrome","139.0.0.0","Windows","10.0","https://app.prolific.com/","en-US,en;q=0.8","668ffb93b25dcfcfbe1836a4","687a1a965b9f5b85a264363e","6893288cefe31bc8114e94a7","1","668ffb93b25dcfcfbe1836a4","1","","","[0]","0","demographics","","","","","","","","","","","","","","","","","","","","","","","","","","","","","","","","","","","","","",""
"12007","1754475077123","<p style='font-size:1.1em;line-height:1.25'>In the following, we will perform a baseline assessment. This means that we will ask you a few questions relating to your experiences over the past month.<br></p><p style='font-size:1.1em;line-height:1.25'>Press the <strong>Next</strong> button to continue.</p>","0","custom-html-button-response","4","57795","0.0-4.0-0.0","175","1","2025-08-06 10:09:49","36c45c0696341be0efffe67d72a12abb","197.184.95.12","Mozilla/5.0 (Windows NT 10.0; Win64; x64) AppleWebKit/537.36 (KHTML, like Gecko) Chrome/139.0.0.0 Safari/537.36","WebKit","Chrome","139.0.0.0","Windows","10.0","https://app.prolific.com/","en-US,en;q=0.8","668ffb93b25dcfcfbe1836a4","687a1a965b9f5b85a264363e","6893288cefe31bc8114e94a7","1","668ffb93b25dcfcfbe1836a4","1","2025-08-06T10:11:17.123Z","","","","","","","","","","","","","","","","","","","","","","","","","","","","","","","","","","","","","","","","","",""
"109491.60000000149","","","","survey-template","5","167451","0.0-4.0-1.0","175","1","2025-08-06 10:09:49","36c45c0696341be0efffe67d72a12abb","197.184.95.12","Mozilla/5.0 (Windows NT 10.0; Win64; x64) AppleWebKit/537.36 (KHTML, like Gecko) Chrome/139.0.0.0 Safari/537.36","WebKit","Chrome","139.0.0.0","Windows","10.0","https://app.prolific.com/","en-US,en;q=0.8","668ffb93b25dcfcfbe1836a4","687a1a965b9f5b85a264363e","6893288cefe31bc8114e94a7","1","668ffb93b25dcfcfbe1836a4","1","2025-08-06T10:13:06.779Z","","","","pss","{""Q01"":""2"",""Q02"":""2"",""Q03"":""3"",""Q04"":""1"",""Q05"":""1"",""Q06"":""2"",""Q07"":""1"",""Q08"":""1"",""Q09"":""2"",""Q10"":""2""}","[0,1,2,3,4,5,6,7,8,9]","[""Q01"",""Q02"",""Q03"",""Q03"",""Q04"",""Q05"",""Q06"",""Q07"",""Q08"",""Q09"",""Q10""]","[18255.60000000149,24585.89999999851,32039.5,38234.70000000298,46652.79999999702,53955.29999999702,65093.20000000298,75831.89999999851,82638,97619.39999999851,107722.39999999851]","[]","[1,18255.60000000149,24585.89999999851,32039.5,38234.70000000298,46652.79999999702,53955.29999999702,65093.20000000298,75831.89999999851,82638,97619.39999999851,107722.39999999851,109489.20000000298]","0.5","0.4444444444444444","0","","","","","","","","","","","","","","","","","","","","","","","","","","","","",""
"8487","1754475195267","<p style='font-size:1.1em;line-height:1.25'>Thank you for your answers! Now we will ask you a few more questions relating to your feelings in the last 24 hours.<br></p><p style='font-size:1.1em;line-height:1.25'>Press the <strong>Next</strong> button to continue.</p>","0","custom-html-button-response","6","175939","0.0-4.0-2.0","175","1","2025-08-06 10:09:49","36c45c0696341be0efffe67d72a12abb","197.184.95.12","Mozilla/5.0 (Windows NT 10.0; Win64; x64) AppleWebKit/537.36 (KHTML, like Gecko) Chrome/139.0.0.0 Safari/537.36","WebKit","Chrome","139.0.0.0","Windows","10.0","https://app.prolific.com/","en-US,en;q=0.8","668ffb93b25dcfcfbe1836a4","687a1a965b9f5b85a264363e","6893288cefe31bc8114e94a7","1","668ffb93b25dcfcfbe1836a4","1","2025-08-06T10:13:15.267Z","","","","","","","","","","","","","","","","","","","","","","","","","","","","","","","","","","","","","","","","","",""
"122178.39999999851","","","","survey-template","7","298123","0.0-4.0-3.0","175","1","2025-08-06 10:09:49","36c45c0696341be0efffe67d72a12abb","197.184.95.12","Mozilla/5.0 (Windows NT 10.0; Win64; x64) AppleWebKit/537.36 (KHTML, like Gecko) Chrome/139.0.0.0 Safari/537.36","WebKit","Chrome","139.0.0.0","Windows","10.0","https://app.prolific.com/","en-US,en;q=0.8","668ffb93b25dcfcfbe1836a4","687a1a965b9f5b85a264363e","6893288cefe31bc8114e94a7","1","668ffb93b25dcfcfbe1836a4","1","2025-08-06T10:15:17.451Z","","","","drsp","{""Q01"":""1"",""Q02"":""1"",""Q03"":""1"",""Q04"":""1"",""Q05"":""1"",""Q06"":""1"",""Q07"":""3"",""Q08"":""0"",""Q09"":""0"",""Q10"":""0"",""Q11"":""1"",""Q12"":""1"",""Q13"":""5"",""Q14"":""2"",""Q15"":""3"",""Q16"":""2"",""Q17"":""1"",""Q18"":""1"",""Q19"":""3"",""Q20"":""2"",""Q21"":""2"",""Q22"":""1""}","[0,1,2,3,4,5,6,7,8,9,10,11,12,13,14,15,16,17,18,19,20,21]","[""Q01"",""Q02"",""Q03"",""Q04"",""Q05"",""Q06"",""Q07"",""Q07"",""Q08"",""Q09"",""Q10"",""Q11"",""Q12"",""Q13"",""Q14"",""Q15"",""Q16"",""Q17"",""Q18"",""Q19"",""Q20"",""Q21"",""Q22""]","[4649.70000000298,9291.10000000149,11729.20000000298,13439.20000000298,17722.79999999702,24280.39999999851,26905.5,29756.60000000149,31949.60000000149,37440.5,40442.20000000298,43973.29999999702,46362.20000000298,57974.60000000149,61208,64100.39999999851,71116.39999999851,74833.20000000298,77468.89999999851,95437.60000000149,106785.20000000298,113274.5,120625.5]","[]","[1.7999999970197678,4649.70000000298,9291.10000000149,11729.20000000298,13439.20000000298,17722.79999999702,24280.39999999851,26905.5,29756.60000000149,31949.60000000149,37440.5,40442.20000000298,43973.29999999702,46362.20000000298,57974.60000000149,61208,64100.39999999851,71116.39999999851,74833.20000000298,77468.89999999851,95437.60000000149,106785.20000000298,113274.5,120625.5,122172.20000000298]","0.5","0.2857142857142857","0","","","","","","","","","","","","","","","","","","","","","","","","","","","","",""
"33479.89999999851","","","","survey-template","8","331619","0.0-4.0-4.0","175","1","2025-08-06 10:09:49","36c45c0696341be0efffe67d72a12abb","197.184.95.12","Mozilla/5.0 (Windows NT 10.0; Win64; x64) AppleWebKit/537.36 (KHTML, like Gecko) Chrome/139.0.0.0 Safari/537.36","WebKit","Chrome","139.0.0.0","Windows","10.0","https://app.prolific.com/","en-US,en;q=0.8","668ffb93b25dcfcfbe1836a4","687a1a965b9f5b85a264363e","6893288cefe31bc8114e94a7","1","668ffb93b25dcfcfbe1836a4","1","2025-08-06T10:15:50.947Z","","","","stress","{""Q01"":""1"",""Q02"":""2"",""Q03"":""2""}","[0,1,2]","[""Q01"",""Q02"",""Q03"",""Q03""]","[16576.80000000447,19037.10000000149,24920,31345.30000000447]","[]","[16576.80000000447,19037.10000000149,24920,31345.30000000447,33478.70000000298]","0.3333333333333333","0.5","0","","","","","","","","","","","","","","","","","","","","","","","","","","","","",""
"72942","","","","instructions","9","404563","0.0-5.0-0.0","175","1","2025-08-06 10:09:49","36c45c0696341be0efffe67d72a12abb","197.184.95.12","Mozilla/5.0 (Windows NT 10.0; Win64; x64) AppleWebKit/537.36 (KHTML, like Gecko) Chrome/139.0.0.0 Safari/537.36","WebKit","Chrome","139.0.0.0","Windows","10.0","https://app.prolific.com/","en-US,en;q=0.8","668ffb93b25dcfcfbe1836a4","687a1a965b9f5b85a264363e","6893288cefe31bc8114e94a7","1","668ffb93b25dcfcfbe1836a4","1","","","","","","","","","","","","","","","[{""page_index"":0,""viewing_time"":72942}]","","","","","","","","","","","","","","","","","","","","","","","","","","","",""
"17524","","<p>Before you start with this game please answer the following three questions yourself. </p>
  <p>Through this game, we measure several aspects of your cognitive performance, such as reaction times, multi-tasking capabilities </p>
  <p>and the ability to assess the situation you are in.</p>
  <p></p>
  <p><b>How good do you usually are in such tasks?</b></p>","68","html-slider-response","10","422286","0.0-6.0-0.0","175","1","2025-08-06 10:09:49","36c45c0696341be0efffe67d72a12abb","197.184.95.12","Mozilla/5.0 (Windows NT 10.0; Win64; x64) AppleWebKit/537.36 (KHTML, like Gecko) Chrome/139.0.0.0 Safari/537.36","WebKit","Chrome","139.0.0.0","Windows","10.0","https://app.prolific.com/","en-US,en;q=0.8","668ffb93b25dcfcfbe1836a4","687a1a965b9f5b85a264363e","6893288cefe31bc8114e94a7","1","668ffb93b25dcfcfbe1836a4","1","2025-08-06T10:17:21.614Z","","","","PreSkillQ","","","","","","","","","","","50","","","","","","","","","","","","","","","","","","","","","","","","","","",""
"10339","","<div style=""width:500px;"">
  <p>How well do you think you will perform in this task compared to other participants?</p>
  </div>","54","html-slider-response","11","432628","0.0-6.0-1.0","175","1","2025-08-06 10:09:49","36c45c0696341be0efffe67d72a12abb","197.184.95.12","Mozilla/5.0 (Windows NT 10.0; Win64; x64) AppleWebKit/537.36 (KHTML, like Gecko) Chrome/139.0.0.0 Safari/537.36","WebKit","Chrome","139.0.0.0","Windows","10.0","https://app.prolific.com/","en-US,en;q=0.8","668ffb93b25dcfcfbe1836a4","687a1a965b9f5b85a264363e","6893288cefe31bc8114e94a7","1","668ffb93b25dcfcfbe1836a4","1","2025-08-06T10:17:31.956Z","","","","PrePerfQ","","","","","","","","","","","50","","","","","","","","","","","","","","","","","","","","","","","","","","",""
"13174","","<div style=""width:500px;"">
  <p>What best describes how you currently feel?</p>
  </div>","100","html-slider-response","12","445803","0.0-6.0-2.0","175","1","2025-08-06 10:09:49","36c45c0696341be0efffe67d72a12abb","197.184.95.12","Mozilla/5.0 (Windows NT 10.0; Win64; x64) AppleWebKit/537.36 (KHTML, like Gecko) Chrome/139.0.0.0 Safari/537.36","WebKit","Chrome","139.0.0.0","Windows","10.0","https://app.prolific.com/","en-US,en;q=0.8","668ffb93b25dcfcfbe1836a4","687a1a965b9f5b85a264363e","6893288cefe31bc8114e94a7","1","668ffb93b25dcfcfbe1836a4","1","2025-08-06T10:17:45.132Z","","","","PreMotivationQ","","","","","","","","","","","50","","","","","","","","","","","","","","","","","","","","","","","","","","",""
"","","","","ctl-task-cpt","13","480860","0.0-7.0-0.0","175","1","2025-08-06 10:09:49","36c45c0696341be0efffe67d72a12abb","197.184.95.12","Mozilla/5.0 (Windows NT 10.0; Win64; x64) AppleWebKit/537.36 (KHTML, like Gecko) Chrome/139.0.0.0 Safari/537.36","WebKit","Chrome","139.0.0.0","Windows","10.0","https://app.prolific.com/","en-US,en;q=0.8","668ffb93b25dcfcfbe1836a4","687a1a965b9f5b85a264363e","6893288cefe31bc8114e94a7","1","668ffb93b25dcfcfbe1836a4","1","2025-08-06T10:18:20.188Z","","","","","","","","","","","","","","","","win-only","1","g1:NE,g2:SW","1","1","0","479163.2","5380.7","10381.4","31254.9","1","4","8","6","2","8","8","8","0","0.06060606060606061","5000.6","3000","555","[""down"",""left""]","{""num_key_presses"":6,""num_perfect"":6,""num_errors"":0,""num_randdir"":0,""num_randdir_good_moves"":0,""num_whilered"":0,""num_whileblue"":0,""num_blue"":1,""num_good_moves"":6}","[415.57142857142856,418.47767857142856,1106.2,415.57142857142856,418.47767857142856,1179.4,415.57142857142856,418.47767857142856,1328.7,415.57142857142856,418.47767857142856,1431.7,415.57142857142856,418.47767857142856,1535.4,415.57142857142856,418.47767857142856,1637.5,415.57142857142856,418.47767857142856,1741,415.57142857142856,418.47767857142856,1846.2,415.57142857142856,418.47767857142856,1950.9,415.57142857142856,418.47767857142856,2051.1,415.57142857142856,418.47767857142856,2152.2,415.57142857142856,418.47767857142856,2255,415.57142857142856,418.47767857142856,2368,415.57142857142856,418.47767857142856,2469.9,415.57142857142856,418.47767857142856,2571.2,415.57142857142856,418.47767857142856,2683.3,415.57142857142856,418.47767857142856,2788.6,415.57142857142856,418.47767857142856,2899.3,415.57142857142856,418.47767857142856,3005.3,415.57142857142856,418.47767857142856,3116,415.57142857142856,418.47767857142856,3222.4,415.57142857142856,418.47767857142856,3326.2,415.57142857142856,418.47767857142856,3426.7,415.57142857142856,418.47767857142856,3531.9,415.57142857142856,418.47767857142856,3635.4,415.57142857142856,418.47767857142856,3735.6,415.57142857142856,418.47767857142856,3837,415.57142857142856,418.47767857142856,3941.4,415.57142857142856,418.47767857142856,4048.8,415.57142857142856,418.47767857142856,4150.1,415.57142857142856,418.47767857142856,4251.5,415.57142857142856,418.47767857142856,4366.4,415.57142857142856,418.47767857142856,4470,415.57142857142856,418.47767857142856,4571.3,415.57142857142856,418.47767857142856,4679.5,415.57142857142856,418.47767857142856,4780.3,415.57142857142856,418.47767857142856,4886.3,415.57142857142856,418.47767857142856,4990.5]","[1661.4,1661.4,1000,0,661.4,""smooth"",""down"",""down"",""good_move"",5168.7,3506.9,2922,1661.8,584.9,""smooth"",""down"",""down"",""good_move"",7871.2,2702.1,2291.8,5169.1,410.3,""smooth"",""down"",""down"",""good_move"",11588.4,3716.9,3269.2,7871.5,447.7,""smooth"",""left"",""left"",""good_move"",17640.3,6051.4,2765.1,14250.4,624.9,""smooth"",""left"",""left"",""good_move"",20751,3110.3,2658.6,17640.7,451.7,""smooth"",""left"",""left"",""good_move""]"
"12667","","<div style=""width:500px;"">
  <p>What determined the result of this run?</p>
  </div>","100","html-slider-response","14","493528","0.0-7.0-1.0","175","1","2025-08-06 10:09:49","36c45c0696341be0efffe67d72a12abb","197.184.95.12","Mozilla/5.0 (Windows NT 10.0; Win64; x64) AppleWebKit/537.36 (KHTML, like Gecko) Chrome/139.0.0.0 Safari/537.36","WebKit","Chrome","139.0.0.0","Windows","10.0","https://app.prolific.com/","en-US,en;q=0.8","668ffb93b25dcfcfbe1836a4","687a1a965b9f5b85a264363e","6893288cefe31bc8114e94a7","1","668ffb93b25dcfcfbe1836a4","1","2025-08-06T10:18:32.857Z","","","","AttribQ","","","","","","","","","","","50","","","","","","","","","","","","","","","","","","","","","","","","","","",""
"4550","","<div style=""width:500px;"">
  <p>How much control did you have over the ball?</p>
  </div>","100","html-slider-response","15","498080","0.0-7.0-2.0","175","1","2025-08-06 10:09:49","36c45c0696341be0efffe67d72a12abb","197.184.95.12","Mozilla/5.0 (Windows NT 10.0; Win64; x64) AppleWebKit/537.36 (KHTML, like Gecko) Chrome/139.0.0.0 Safari/537.36","WebKit","Chrome","139.0.0.0","Windows","10.0","https://app.prolific.com/","en-US,en;q=0.8","668ffb93b25dcfcfbe1836a4","687a1a965b9f5b85a264363e","6893288cefe31bc8114e94a7","1","668ffb93b25dcfcfbe1836a4","1","2025-08-06T10:18:37.408Z","","","","ControlQ","","","","","","","","","","","50","","","","","","","","","","","","","","","","","","","","","","","","","","",""
"8454","","<div style=""width:500px;"">
  <p>How would you describe your current emotional state?</p>
  </div>","0","html-slider-response","16","506535","0.0-7.0-3.0","175","1","2025-08-06 10:09:49","36c45c0696341be0efffe67d72a12abb","197.184.95.12","Mozilla/5.0 (Windows NT 10.0; Win64; x64) AppleWebKit/537.36 (KHTML, like Gecko) Chrome/139.0.0.0 Safari/537.36","WebKit","Chrome","139.0.0.0","Windows","10.0","https://app.prolific.com/","en-US,en;q=0.8","668ffb93b25dcfcfbe1836a4","687a1a965b9f5b85a264363e","6893288cefe31bc8114e94a7","1","668ffb93b25dcfcfbe1836a4","1","2025-08-06T10:18:45.863Z","","","","StressQ","","","","","","","","","","","50","","","","","","","","","","","","","","","","","","","","","","","","","","",""
"6168","","<div style=""width:500px;"">
  <p>What best describes how you currently feel?</p>
  </div>","100","html-slider-response","17","512705","0.0-7.0-4.0","175","1","2025-08-06 10:09:49","36c45c0696341be0efffe67d72a12abb","197.184.95.12","Mozilla/5.0 (Windows NT 10.0; Win64; x64) AppleWebKit/537.36 (KHTML, like Gecko) Chrome/139.0.0.0 Safari/537.36","WebKit","Chrome","139.0.0.0","Windows","10.0","https://app.prolific.com/","en-US,en;q=0.8","668ffb93b25dcfcfbe1836a4","687a1a965b9f5b85a264363e","6893288cefe31bc8114e94a7","1","668ffb93b25dcfcfbe1836a4","1","2025-08-06T10:18:52.033Z","","","","MotivationQ","","","","","","","","","","","50","","","","","","","","","","","","","","","","","","","","","","","","","","",""
"","","","","ctl-task-cpt","18","535457","0.0-7.0-0.1","175","1","2025-08-06 10:09:49","36c45c0696341be0efffe67d72a12abb","197.184.95.12","Mozilla/5.0 (Windows NT 10.0; Win64; x64) AppleWebKit/537.36 (KHTML, like Gecko) Chrome/139.0.0.0 Safari/537.36","WebKit","Chrome","139.0.0.0","Windows","10.0","https://app.prolific.com/","en-US,en;q=0.8","668ffb93b25dcfcfbe1836a4","687a1a965b9f5b85a264363e","6893288cefe31bc8114e94a7","1","668ffb93b25dcfcfbe1836a4","1","2025-08-06T10:19:14.785Z","","","","","","","","","","","","","","","","win-only","2","g1:SE,g2:NW","0.9","2","0","545272.3","1957.2","6962.4","19746","1","4","4","6","1","1","1","9","8","0.06818181818181818","5005.1","3000","445","[""down"",""right""]","{""num_key_presses"":4,""num_perfect"":4,""num_errors"":0,""num_randdir"":0,""num_randdir_good_moves"":0,""num_whilered"":0,""num_whileblue"":0,""num_blue"":0,""num_good_moves"":4}","[423.57142857142856,418.47767857142856,0.3,423.57142857142856,418.47767857142856,100.6,423.57142857142856,418.47767857142856,204.6,423.57142857142856,418.47767857142856,315,423.57142857142856,418.47767857142856,418.7,423.57142857142856,418.47767857142856,519.8,423.57142857142856,418.47767857142856,624.7,423.57142857142856,418.47767857142856,724.8,423.57142857142856,418.47767857142856,829.8,423.57142857142856,418.47767857142856,934.4,423.57142857142856,418.47767857142856,1038.5,423.57142857142856,418.47767857142856,1139.1,423.57142857142856,418.47767857142856,1239.1,423.57142857142856,418.47767857142856,1343.9,423.57142857142856,418.47767857142856,1444.9,423.57142857142856,418.47767857142856,1549,423.57142857142856,418.47767857142856,1654.4,423.57142857142856,418.47767857142856,1758.1,423.57142857142856,418.47767857142856,1861.9,423.57142857142856,418.47767857142856,1964.4,423.57142857142856,418.47767857142856,2068.3,423.57142857142856,418.47767857142856,2168.3,423.57142857142856,418.47767857142856,2273.6,423.57142857142856,418.47767857142856,2377.9,423.57142857142856,418.47767857142856,2478.9,423.57142857142856,418.47767857142856,2579.7,423.57142857142856,418.47767857142856,2683.7,423.57142857142856,418.47767857142856,2791.9,423.57142857142856,418.47767857142856,2894.5,423.57142857142856,418.47767857142856,2995.1,423.57142857142856,418.47767857142856,3101.2,423.57142857142856,418.47767857142856,3207.7,423.57142857142856,418.47767857142856,3314,423.57142857142856,418.47767857142856,3415.1,423.57142857142856,418.47767857142856,3519.7,423.57142857142856,418.47767857142856,3624.2,423.57142857142856,418.47767857142856,3724.3,423.57142857142856,418.47767857142856,3828.3,423.57142857142856,418.47767857142856,3941.9,423.57142857142856,418.47767857142856,4043.8,423.57142857142856,418.47767857142856,4157.1,423.57142857142856,418.47767857142856,4265.6,423.57142857142856,418.47767857142856,4368.9,423.57142857142856,418.47767857142856,4471.3,423.57142857142856,418.47767857142856,4576.7,423.57142857142856,418.47767857142856,4678.7,423.57142857142856,418.47767857142856,4793.5,423.57142857142856,418.47767857142856,4898.3,423.57142857142856,418.47767857142856,4998.5]","[2267.4,2267.4,1000,0,1267.4,""smooth"",""down"",""down"",""good_move"",6500,4232.2,3161.6,2267.9,1070.5,""smooth"",""down"",""down"",""good_move"",9685.7,3185.4,2713.6,6500.3,471.8,""smooth"",""right"",""right"",""good_move"",12637.7,2951.3,2533.9,9686.5,417.3,""smooth"",""right"",""right"",""good_move""]"
"4601","","<div style=""width:500px;"">
  <p>What determined the result of this run?</p>
  </div>","100","html-slider-response","19","540060","0.0-7.0-1.1","175","1","2025-08-06 10:09:49","36c45c0696341be0efffe67d72a12abb","197.184.95.12","Mozilla/5.0 (Windows NT 10.0; Win64; x64) AppleWebKit/537.36 (KHTML, like Gecko) Chrome/139.0.0.0 Safari/537.36","WebKit","Chrome","139.0.0.0","Windows","10.0","https://app.prolific.com/","en-US,en;q=0.8","668ffb93b25dcfcfbe1836a4","687a1a965b9f5b85a264363e","6893288cefe31bc8114e94a7","1","668ffb93b25dcfcfbe1836a4","1","2025-08-06T10:19:19.388Z","","","","AttribQ","","","","","","","","","","","50","","","","","","","","","","","","","","","","","","","","","","","","","","",""
"4285","","<div style=""width:500px;"">
  <p>How much control did you have over the ball?</p>
  </div>","100","html-slider-response","20","544347","0.0-7.0-2.1","175","1","2025-08-06 10:09:49","36c45c0696341be0efffe67d72a12abb","197.184.95.12","Mozilla/5.0 (Windows NT 10.0; Win64; x64) AppleWebKit/537.36 (KHTML, like Gecko) Chrome/139.0.0.0 Safari/537.36","WebKit","Chrome","139.0.0.0","Windows","10.0","https://app.prolific.com/","en-US,en;q=0.8","668ffb93b25dcfcfbe1836a4","687a1a965b9f5b85a264363e","6893288cefe31bc8114e94a7","1","668ffb93b25dcfcfbe1836a4","1","2025-08-06T10:19:23.675Z","","","","ControlQ","","","","","","","","","","","50","","","","","","","","","","","","","","","","","","","","","","","","","","",""
"3947","","<div style=""width:500px;"">
  <p>How would you describe your current emotional state?</p>
  </div>","0","html-slider-response","21","548295","0.0-7.0-3.1","175","1","2025-08-06 10:09:49","36c45c0696341be0efffe67d72a12abb","197.184.95.12","Mozilla/5.0 (Windows NT 10.0; Win64; x64) AppleWebKit/537.36 (KHTML, like Gecko) Chrome/139.0.0.0 Safari/537.36","WebKit","Chrome","139.0.0.0","Windows","10.0","https://app.prolific.com/","en-US,en;q=0.8","668ffb93b25dcfcfbe1836a4","687a1a965b9f5b85a264363e","6893288cefe31bc8114e94a7","1","668ffb93b25dcfcfbe1836a4","1","2025-08-06T10:19:27.623Z","","","","StressQ","","","","","","","","","","","50","","","","","","","","","","","","","","","","","","","","","","","","","","",""
"6811","","<div style=""width:500px;"">
  <p>What best describes how you currently feel?</p>
  </div>","100","html-slider-response","22","555108","0.0-7.0-4.1","175","1","2025-08-06 10:09:49","36c45c0696341be0efffe67d72a12abb","197.184.95.12","Mozilla/5.0 (Windows NT 10.0; Win64; x64) AppleWebKit/537.36 (KHTML, like Gecko) Chrome/139.0.0.0 Safari/537.36","WebKit","Chrome","139.0.0.0","Windows","10.0","https://app.prolific.com/","en-US,en;q=0.8","668ffb93b25dcfcfbe1836a4","687a1a965b9f5b85a264363e","6893288cefe31bc8114e94a7","1","668ffb93b25dcfcfbe1836a4","1","2025-08-06T10:19:34.436Z","","","","MotivationQ","","","","","","","","","","","50","","","","","","","","","","","","","","","","","","","","","","","","","","",""
"","","","","ctl-task-cpt","23","593393","0.0-7.0-0.2","175","1","2025-08-06 10:09:49","36c45c0696341be0efffe67d72a12abb","197.184.95.12","Mozilla/5.0 (Windows NT 10.0; Win64; x64) AppleWebKit/537.36 (KHTML, like Gecko) Chrome/139.0.0.0 Safari/537.36","WebKit","Chrome","139.0.0.0","Windows","10.0","https://app.prolific.com/","en-US,en;q=0.8","668ffb93b25dcfcfbe1836a4","687a1a965b9f5b85a264363e","6893288cefe31bc8114e94a7","1","668ffb93b25dcfcfbe1836a4","1","2025-08-06T10:20:12.721Z","","","","","","","","","","","","","","","","win-only","3","g1:SW,g2:NE","0.8","3","0","587674.2","1642.2","6657","35276.7","1","4","4","6","2","4","2","11","9","0.08333333333333333","5014.8","3000","945","[""up"",""right""]","{""num_key_presses"":8,""num_perfect"":5,""num_errors"":2,""num_randdir"":1,""num_randdir_good_moves"":1,""num_whilered"":0,""num_whileblue"":0,""num_blue"":2,""num_good_moves"":6}","[425.57142857142856,418.47767857142856,0.2,425.57142857142856,418.47767857142856,103.4,425.57142857142856,418.47767857142856,218.3,425.57142857142856,418.47767857142856,323.1,425.57142857142856,418.47767857142856,423.6,425.57142857142856,418.47767857142856,524.1,425.57142857142856,418.47767857142856,633.7,425.57142857142856,418.47767857142856,751.9,425.57142857142856,418.47767857142856,853.2,425.57142857142856,418.47767857142856,953.5,425.57142857142856,418.47767857142856,1054.6,425.57142857142856,418.47767857142856,1169.1,425.57142857142856,418.47767857142856,1280.9,425.57142857142856,418.47767857142856,1382,425.57142857142856,418.47767857142856,1485.5,425.57142857142856,418.47767857142856,1591.2,425.57142857142856,418.47767857142856,1695.7,425.57142857142856,418.47767857142856,1799.5,425.57142857142856,418.47767857142856,1915,425.57142857142856,418.47767857142856,2021.5,425.57142857142856,418.47767857142856,2124.6,425.57142857142856,418.47767857142856,2229,425.57142857142856,418.47767857142856,2335.6,425.57142857142856,418.47767857142856,2439.1,425.57142857142856,418.47767857142856,2545.6,425.57142857142856,418.47767857142856,2649,425.57142857142856,418.47767857142856,2753.6,425.57142857142856,418.47767857142856,2858.2,425.57142857142856,418.47767857142856,2959.5,425.57142857142856,418.47767857142856,3060.4,425.57142857142856,418.47767857142856,3163.7,425.57142857142856,418.47767857142856,3264.2,425.57142857142856,418.47767857142856,3384,425.57142857142856,418.47767857142856,3489.1,425.57142857142856,418.47767857142856,3594,425.57142857142856,418.47767857142856,3698.9,425.57142857142856,418.47767857142856,3803.6,425.57142857142856,418.47767857142856,3911.2,425.57142857142856,418.47767857142856,4013.6,425.57142857142856,418.47767857142856,4131,425.57142857142856,418.47767857142856,4234.1,425.57142857142856,418.47767857142856,4338.1,425.57142857142856,418.47767857142856,4444.9,425.57142857142856,418.47767857142856,4549.3,425.57142857142856,418.47767857142856,4653.5,425.57142857142856,418.47767857142856,4753.8,425.57142857142856,418.47767857142856,4859.6,425.57142857142856,418.47767857142856,4977]","[802.6,802.6,1000,0,-197.4,""error"",""-"",""-"",""no_move"",5094.5,4291.5,2754.7,1812.6,527.2,""oops"",""right"",""up"",""good_move"",8333.8,3238.8,2551.5,5095,687.3,""smooth"",""right"",""right"",""good_move"",11315.1,2980.8,2465,8334.3,515.8,""smooth"",""right"",""right"",""good_move"",14895.8,3580.4,3185.4,14315.3,-2604.9,""error"",""-"",""-"",""no_move"",18058.6,3162.5,1637.3,15897.4,523.9,""smooth"",""right"",""right"",""good_move"",21798,3739.3,3256.6,18058.7,482.7,""smooth"",""up"",""up"",""good_move"",28486.3,6687.9,2479.6,25543.9,462.8,""smooth"",""up"",""up"",""good_move""]"
"5381","","<div style=""width:500px;"">
  <p>What determined the result of this run?</p>
  </div>","100","html-slider-response","24","598775","0.0-7.0-1.2","175","1","2025-08-06 10:09:49","36c45c0696341be0efffe67d72a12abb","197.184.95.12","Mozilla/5.0 (Windows NT 10.0; Win64; x64) AppleWebKit/537.36 (KHTML, like Gecko) Chrome/139.0.0.0 Safari/537.36","WebKit","Chrome","139.0.0.0","Windows","10.0","https://app.prolific.com/","en-US,en;q=0.8","668ffb93b25dcfcfbe1836a4","687a1a965b9f5b85a264363e","6893288cefe31bc8114e94a7","1","668ffb93b25dcfcfbe1836a4","1","2025-08-06T10:20:18.103Z","","","","AttribQ","","","","","","","","","","","50","","","","","","","","","","","","","","","","","","","","","","","","","","",""
"5292","","<div style=""width:500px;"">
  <p>How much control did you have over the ball?</p>
  </div>","79","html-slider-response","25","604068","0.0-7.0-2.2","175","1","2025-08-06 10:09:49","36c45c0696341be0efffe67d72a12abb","197.184.95.12","Mozilla/5.0 (Windows NT 10.0; Win64; x64) AppleWebKit/537.36 (KHTML, like Gecko) Chrome/139.0.0.0 Safari/537.36","WebKit","Chrome","139.0.0.0","Windows","10.0","https://app.prolific.com/","en-US,en;q=0.8","668ffb93b25dcfcfbe1836a4","687a1a965b9f5b85a264363e","6893288cefe31bc8114e94a7","1","668ffb93b25dcfcfbe1836a4","1","2025-08-06T10:20:23.396Z","","","","ControlQ","","","","","","","","","","","50","","","","","","","","","","","","","","","","","","","","","","","","","","",""
"4062","","<div style=""width:500px;"">
  <p>How would you describe your current emotional state?</p>
  </div>","0","html-slider-response","26","608132","0.0-7.0-3.2","175","1","2025-08-06 10:09:49","36c45c0696341be0efffe67d72a12abb","197.184.95.12","Mozilla/5.0 (Windows NT 10.0; Win64; x64) AppleWebKit/537.36 (KHTML, like Gecko) Chrome/139.0.0.0 Safari/537.36","WebKit","Chrome","139.0.0.0","Windows","10.0","https://app.prolific.com/","en-US,en;q=0.8","668ffb93b25dcfcfbe1836a4","687a1a965b9f5b85a264363e","6893288cefe31bc8114e94a7","1","668ffb93b25dcfcfbe1836a4","1","2025-08-06T10:20:27.460Z","","","","StressQ","","","","","","","","","","","50","","","","","","","","","","","","","","","","","","","","","","","","","","",""
"4935","","<div style=""width:500px;"">
  <p>What best describes how you currently feel?</p>
  </div>","100","html-slider-response","27","613068","0.0-7.0-4.2","175","1","2025-08-06 10:09:49","36c45c0696341be0efffe67d72a12abb","197.184.95.12","Mozilla/5.0 (Windows NT 10.0; Win64; x64) AppleWebKit/537.36 (KHTML, like Gecko) Chrome/139.0.0.0 Safari/537.36","WebKit","Chrome","139.0.0.0","Windows","10.0","https://app.prolific.com/","en-US,en;q=0.8","668ffb93b25dcfcfbe1836a4","687a1a965b9f5b85a264363e","6893288cefe31bc8114e94a7","1","668ffb93b25dcfcfbe1836a4","1","2025-08-06T10:20:32.396Z","","","","MotivationQ","","","","","","","","","","","50","","","","","","","","","","","","","","","","","","","","","","","","","","",""
"","","","","ctl-task-cpt","28","646658","0.0-7.0-0.3","175","1","2025-08-06 10:09:49","36c45c0696341be0efffe67d72a12abb","197.184.95.12","Mozilla/5.0 (Windows NT 10.0; Win64; x64) AppleWebKit/537.36 (KHTML, like Gecko) Chrome/139.0.0.0 Safari/537.36","WebKit","Chrome","139.0.0.0","Windows","10.0","https://app.prolific.com/","en-US,en;q=0.8","668ffb93b25dcfcfbe1836a4","687a1a965b9f5b85a264363e","6893288cefe31bc8114e94a7","1","668ffb93b25dcfcfbe1836a4","1","2025-08-06T10:21:05.987Z","","","","","","","","","","","","","","","","win-only","0","g1:NW,g2:SE","0.7","4","0","645634.7","2640","7641.4","30570.9","1","4","8","6","1","-1","-1","10","11","0.07575757575757576","5001.4","3000","-2890","[""left"",""up""]","{""num_key_presses"":5,""num_perfect"":4,""num_errors"":0,""num_randdir"":1,""num_randdir_good_moves"":0,""num_whilered"":0,""num_whileblue"":0,""num_blue"":2,""num_good_moves"":4}","[415.57142857142856,420.47767857142856,0.4,415.57142857142856,420.47767857142856,101.2,415.57142857142856,420.47767857142856,201.8,415.57142857142856,420.47767857142856,301.9,415.57142857142856,420.47767857142856,403.1,415.57142857142856,420.47767857142856,505.8,415.57142857142856,420.47767857142856,610.9,415.57142857142856,420.47767857142856,711.6,415.57142857142856,420.47767857142856,814.4,415.57142857142856,420.47767857142856,914.5,415.57142857142856,420.47767857142856,1014.7,415.57142857142856,420.47767857142856,1116.1,415.57142857142856,420.47767857142856,1216.8,415.57142857142856,420.47767857142856,1320.9,415.57142857142856,420.47767857142856,1429.3,415.57142857142856,420.47767857142856,1530.9,415.57142857142856,420.47767857142856,1636.1,415.57142857142856,420.47767857142856,1740.9,415.57142857142856,420.47767857142856,1845.3,415.57142857142856,420.47767857142856,1945.4,415.57142857142856,420.47767857142856,2045.8,415.57142857142856,420.47767857142856,2150.8,415.57142857142856,420.47767857142856,2256.2,415.57142857142856,420.47767857142856,2362.2,415.57142857142856,420.47767857142856,2465.4,415.57142857142856,420.47767857142856,2565.8,415.57142857142856,420.47767857142856,2671.3,415.57142857142856,420.47767857142856,2775.3,415.57142857142856,420.47767857142856,2876,415.57142857142856,420.47767857142856,2981.4,415.57142857142856,420.47767857142856,3086.2,415.57142857142856,420.47767857142856,3187.3,415.57142857142856,420.47767857142856,3290.3,415.57142857142856,420.47767857142856,3390.7,415.57142857142856,420.47767857142856,3497,415.57142857142856,420.47767857142856,3597.1,415.57142857142856,420.47767857142856,3701,415.57142857142856,420.47767857142856,3805.9,415.57142857142856,420.47767857142856,3906.3,415.57142857142856,420.47767857142856,4014.7,415.57142857142856,420.47767857142856,4116.8,415.57142857142856,420.47767857142856,4221.3,415.57142857142856,420.47767857142856,4325.5,415.57142857142856,420.47767857142856,4426.4,415.57142857142856,420.47767857142856,4527.1,415.57142857142856,420.47767857142856,4631.2,415.57142857142856,420.47767857142856,4736.5,415.57142857142856,420.47767857142856,4842,415.57142857142856,420.47767857142856,4949.5]","[1490.8,1490.8,1000,0,490.8,""smooth"",""up"",""up"",""good_move"",4360.2,2869.1,2357.3,1491.1,511.8,""oops"",""up"",""right"",""bad_move"",7665.4,3304.7,2723.3,4360.7,581.4,""smooth"",""up"",""up"",""good_move"",17384.5,9718.8,2148.5,14740.5,495.5,""smooth"",""left"",""left"",""good_move"",20021.3,2636.4,1931.1,17384.9,705.3,""smooth"",""left"",""left"",""good_move""]"
"7742","","<div style=""width:500px;"">
  <p>What determined the result of this run?</p>
  </div>","74","html-slider-response","29","654402","0.0-7.0-1.3","175","1","2025-08-06 10:09:49","36c45c0696341be0efffe67d72a12abb","197.184.95.12","Mozilla/5.0 (Windows NT 10.0; Win64; x64) AppleWebKit/537.36 (KHTML, like Gecko) Chrome/139.0.0.0 Safari/537.36","WebKit","Chrome","139.0.0.0","Windows","10.0","https://app.prolific.com/","en-US,en;q=0.8","668ffb93b25dcfcfbe1836a4","687a1a965b9f5b85a264363e","6893288cefe31bc8114e94a7","1","668ffb93b25dcfcfbe1836a4","1","2025-08-06T10:21:13.730Z","","","","AttribQ","","","","","","","","","","","50","","","","","","","","","","","","","","","","","","","","","","","","","","",""
"7918","","<div style=""width:500px;"">
  <p>How much control did you have over the ball?</p>
  </div>","46","html-slider-response","30","662322","0.0-7.0-2.3","175","1","2025-08-06 10:09:49","36c45c0696341be0efffe67d72a12abb","197.184.95.12","Mozilla/5.0 (Windows NT 10.0; Win64; x64) AppleWebKit/537.36 (KHTML, like Gecko) Chrome/139.0.0.0 Safari/537.36","WebKit","Chrome","139.0.0.0","Windows","10.0","https://app.prolific.com/","en-US,en;q=0.8","668ffb93b25dcfcfbe1836a4","687a1a965b9f5b85a264363e","6893288cefe31bc8114e94a7","1","668ffb93b25dcfcfbe1836a4","1","2025-08-06T10:21:21.651Z","","","","ControlQ","","","","","","","","","","","50","","","","","","","","","","","","","","","","","","","","","","","","","","",""
"3514","","<div style=""width:500px;"">
  <p>How would you describe your current emotional state?</p>
  </div>","0","html-slider-response","31","665838","0.0-7.0-3.3","175","1","2025-08-06 10:09:49","36c45c0696341be0efffe67d72a12abb","197.184.95.12","Mozilla/5.0 (Windows NT 10.0; Win64; x64) AppleWebKit/537.36 (KHTML, like Gecko) Chrome/139.0.0.0 Safari/537.36","WebKit","Chrome","139.0.0.0","Windows","10.0","https://app.prolific.com/","en-US,en;q=0.8","668ffb93b25dcfcfbe1836a4","687a1a965b9f5b85a264363e","6893288cefe31bc8114e94a7","1","668ffb93b25dcfcfbe1836a4","1","2025-08-06T10:21:25.166Z","","","","StressQ","","","","","","","","","","","50","","","","","","","","","","","","","","","","","","","","","","","","","","",""
"3071","","<div style=""width:500px;"">
  <p>What best describes how you currently feel?</p>
  </div>","100","html-slider-response","32","668910","0.0-7.0-4.3","175","1","2025-08-06 10:09:49","36c45c0696341be0efffe67d72a12abb","197.184.95.12","Mozilla/5.0 (Windows NT 10.0; Win64; x64) AppleWebKit/537.36 (KHTML, like Gecko) Chrome/139.0.0.0 Safari/537.36","WebKit","Chrome","139.0.0.0","Windows","10.0","https://app.prolific.com/","en-US,en;q=0.8","668ffb93b25dcfcfbe1836a4","687a1a965b9f5b85a264363e","6893288cefe31bc8114e94a7","1","668ffb93b25dcfcfbe1836a4","1","2025-08-06T10:21:28.238Z","","","","MotivationQ","","","","","","","","","","","50","","","","","","","","","","","","","","","","","","","","","","","","","","",""
"","","","","ctl-task-cpt","33","697653","0.0-7.0-0.4","175","1","2025-08-06 10:09:49","36c45c0696341be0efffe67d72a12abb","197.184.95.12","Mozilla/5.0 (Windows NT 10.0; Win64; x64) AppleWebKit/537.36 (KHTML, like Gecko) Chrome/139.0.0.0 Safari/537.36","WebKit","Chrome","139.0.0.0","Windows","10.0","https://app.prolific.com/","en-US,en;q=0.8","668ffb93b25dcfcfbe1836a4","687a1a965b9f5b85a264363e","6893288cefe31bc8114e94a7","1","668ffb93b25dcfcfbe1836a4","1","2025-08-06T10:21:56.981Z","","","","","","","","","","","","","","","","win-only","0","g1:NW,g2:SE","0.6","5","0","701475.9","2390.8","7391.4","25721","1","4","4","6","2","4","4","14","10","0.10606060606060606","5000.5","3000","220","[""down"",""right""]","{""num_key_presses"":6,""num_perfect"":5,""num_errors"":0,""num_randdir"":1,""num_randdir_good_moves"":1,""num_whilered"":0,""num_whileblue"":0,""num_blue"":0,""num_good_moves"":6}","[419.57142857142856,425.47767857142856,0.3,419.57142857142856,425.47767857142856,100.7,419.57142857142856,425.47767857142856,200.8,419.57142857142856,425.47767857142856,304.7,419.57142857142856,425.47767857142856,406.1,419.57142857142856,425.47767857142856,511,419.57142857142856,425.47767857142856,612.6,419.57142857142856,425.47767857142856,714.9,419.57142857142856,425.47767857142856,815.2,419.57142857142856,425.47767857142856,919.6,419.57142857142856,425.47767857142856,1019.7,419.57142857142856,425.47767857142856,1120.6,419.57142857142856,425.47767857142856,1226.6,419.57142857142856,425.47767857142856,1330.1,419.57142857142856,425.47767857142856,1431.1,419.57142857142856,425.47767857142856,1534.5,419.57142857142856,425.47767857142856,1635,419.57142857142856,425.47767857142856,1739.9,419.57142857142856,425.47767857142856,1844.9,419.57142857142856,425.47767857142856,1945.3,419.57142857142856,425.47767857142856,2045.8,419.57142857142856,425.47767857142856,2150.1,419.57142857142856,425.47767857142856,2250.9,419.57142857142856,425.47767857142856,2351.9,419.57142857142856,425.47767857142856,2455.4,419.57142857142856,425.47767857142856,2559.9,419.57142857142856,425.47767857142856,2661.2,419.57142857142856,425.47767857142856,2766,419.57142857142856,425.47767857142856,2869.5,419.57142857142856,425.47767857142856,2971,419.57142857142856,425.47767857142856,3071.1,419.57142857142856,425.47767857142856,3173.6,419.57142857142856,425.47767857142856,3277.7,419.57142857142856,425.47767857142856,3380.9,419.57142857142856,425.47767857142856,3490.7,419.57142857142856,425.47767857142856,3594.1,419.57142857142856,425.47767857142856,3695.7,419.57142857142856,425.47767857142856,3796.2,419.57142857142856,425.47767857142856,3900,419.57142857142856,425.47767857142856,4000.1,419.57142857142856,425.47767857142856,4106.2,419.57142857142856,425.47767857142856,4206.7,419.57142857142856,425.47767857142856,4309.1,419.57142857142856,425.47767857142856,4410.1,419.57142857142856,425.47767857142856,4510.7,419.57142857142856,425.47767857142856,4610.8,419.57142857142856,425.47767857142856,4715.6,419.57142857142856,425.47767857142856,4819.8,419.57142857142856,425.47767857142856,4920.1]","[1503.8,1503.8,1000,0,503.8,""oops"",""down"",""down"",""good_move"",5068.9,3564.3,3047.1,1504.6,517.2,""smooth"",""down"",""down"",""good_move"",8819.4,3750.1,3234.9,5069.3,515.2,""smooth"",""down"",""down"",""good_move"",12205.1,3385.4,2864.1,8819.7,521.4,""smooth"",""right"",""right"",""good_move"",15569.8,3364.1,2938.8,12205.7,425.3,""smooth"",""right"",""right"",""good_move"",18238.1,2668,2248.6,15570.1,419.4,""smooth"",""right"",""right"",""good_move""]"
"7964","","<div style=""width:500px;"">
  <p>What determined the result of this run?</p>
  </div>","100","html-slider-response","34","705619","0.0-7.0-1.4","175","1","2025-08-06 10:09:49","36c45c0696341be0efffe67d72a12abb","197.184.95.12","Mozilla/5.0 (Windows NT 10.0; Win64; x64) AppleWebKit/537.36 (KHTML, like Gecko) Chrome/139.0.0.0 Safari/537.36","WebKit","Chrome","139.0.0.0","Windows","10.0","https://app.prolific.com/","en-US,en;q=0.8","668ffb93b25dcfcfbe1836a4","687a1a965b9f5b85a264363e","6893288cefe31bc8114e94a7","1","668ffb93b25dcfcfbe1836a4","1","2025-08-06T10:22:04.947Z","","","","AttribQ","","","","","","","","","","","50","","","","","","","","","","","","","","","","","","","","","","","","","","",""
"4515","","<div style=""width:500px;"">
  <p>How much control did you have over the ball?</p>
  </div>","100","html-slider-response","35","710136","0.0-7.0-2.4","175","1","2025-08-06 10:09:49","36c45c0696341be0efffe67d72a12abb","197.184.95.12","Mozilla/5.0 (Windows NT 10.0; Win64; x64) AppleWebKit/537.36 (KHTML, like Gecko) Chrome/139.0.0.0 Safari/537.36","WebKit","Chrome","139.0.0.0","Windows","10.0","https://app.prolific.com/","en-US,en;q=0.8","668ffb93b25dcfcfbe1836a4","687a1a965b9f5b85a264363e","6893288cefe31bc8114e94a7","1","668ffb93b25dcfcfbe1836a4","1","2025-08-06T10:22:09.464Z","","","","ControlQ","","","","","","","","","","","50","","","","","","","","","","","","","","","","","","","","","","","","","","",""
"4656","","<div style=""width:500px;"">
  <p>How would you describe your current emotional state?</p>
  </div>","0","html-slider-response","36","714793","0.0-7.0-3.4","175","1","2025-08-06 10:09:49","36c45c0696341be0efffe67d72a12abb","197.184.95.12","Mozilla/5.0 (Windows NT 10.0; Win64; x64) AppleWebKit/537.36 (KHTML, like Gecko) Chrome/139.0.0.0 Safari/537.36","WebKit","Chrome","139.0.0.0","Windows","10.0","https://app.prolific.com/","en-US,en;q=0.8","668ffb93b25dcfcfbe1836a4","687a1a965b9f5b85a264363e","6893288cefe31bc8114e94a7","1","668ffb93b25dcfcfbe1836a4","1","2025-08-06T10:22:14.121Z","","","","StressQ","","","","","","","","","","","50","","","","","","","","","","","","","","","","","","","","","","","","","","",""
"4434","","<div style=""width:500px;"">
  <p>What best describes how you currently feel?</p>
  </div>","100","html-slider-response","37","719228","0.0-7.0-4.4","175","1","2025-08-06 10:09:49","36c45c0696341be0efffe67d72a12abb","197.184.95.12","Mozilla/5.0 (Windows NT 10.0; Win64; x64) AppleWebKit/537.36 (KHTML, like Gecko) Chrome/139.0.0.0 Safari/537.36","WebKit","Chrome","139.0.0.0","Windows","10.0","https://app.prolific.com/","en-US,en;q=0.8","668ffb93b25dcfcfbe1836a4","687a1a965b9f5b85a264363e","6893288cefe31bc8114e94a7","1","668ffb93b25dcfcfbe1836a4","1","2025-08-06T10:22:18.556Z","","","","MotivationQ","","","","","","","","","","","50","","","","","","","","","","","","","","","","","","","","","","","","","","",""
"","","","","ctl-task-cpt","38","748579","0.0-7.0-0.5","175","1","2025-08-06 10:09:49","36c45c0696341be0efffe67d72a12abb","197.184.95.12","Mozilla/5.0 (Windows NT 10.0; Win64; x64) AppleWebKit/537.36 (KHTML, like Gecko) Chrome/139.0.0.0 Safari/537.36","WebKit","Chrome","139.0.0.0","Windows","10.0","https://app.prolific.com/","en-US,en;q=0.8","668ffb93b25dcfcfbe1836a4","687a1a965b9f5b85a264363e","6893288cefe31bc8114e94a7","1","668ffb93b25dcfcfbe1836a4","1","2025-08-06T10:22:47.907Z","","","","","","","","","","","","","","","","win-only","0","g1:NW,g2:SE","0.5","6","0","751793.6","1579.3","6581.4","26332.5","1","4","8","6","2","-8","-8","6","14","0.045454545454545456","5002.1","3000","-2930","[""down"",""right""]","{""num_key_presses"":5,""num_perfect"":3,""num_errors"":0,""num_randdir"":2,""num_randdir_good_moves"":1,""num_whilered"":0,""num_whileblue"":0,""num_blue"":1,""num_good_moves"":4}","[418.57142857142856,413.47767857142856,0.2,418.57142857142856,413.47767857142856,101.4,418.57142857142856,413.47767857142856,203,418.57142857142856,413.47767857142856,306.8,418.57142857142856,413.47767857142856,414.2,418.57142857142856,413.47767857142856,516.7,418.57142857142856,413.47767857142856,621.4,418.57142857142856,413.47767857142856,722.2,418.57142857142856,413.47767857142856,826.2,418.57142857142856,413.47767857142856,928.9,418.57142857142856,413.47767857142856,1032.4,418.57142857142856,413.47767857142856,1136.4,418.57142857142856,413.47767857142856,1237.2,418.57142857142856,413.47767857142856,1341.4,418.57142857142856,413.47767857142856,1442.3,418.57142857142856,413.47767857142856,1547.9,418.57142857142856,413.47767857142856,1649.5,418.57142857142856,413.47767857142856,1751.3,418.57142857142856,413.47767857142856,1852.9,418.57142857142856,413.47767857142856,1956.3,418.57142857142856,413.47767857142856,2057.3,418.57142857142856,413.47767857142856,2162.3,418.57142857142856,413.47767857142856,2267,418.57142857142856,413.47767857142856,2372.3,418.57142857142856,413.47767857142856,2477.8,418.57142857142856,413.47767857142856,2577.9,418.57142857142856,413.47767857142856,2687.3,418.57142857142856,413.47767857142856,2798,418.57142857142856,413.47767857142856,2901.4,418.57142857142856,413.47767857142856,3002.1,418.57142857142856,413.47767857142856,3106.1,418.57142857142856,413.47767857142856,3209.5,418.57142857142856,413.47767857142856,3316.2,418.57142857142856,413.47767857142856,3417.1,418.57142857142856,413.47767857142856,3521.6,418.57142857142856,413.47767857142856,3622.5,418.57142857142856,413.47767857142856,3723.1,418.57142857142856,413.47767857142856,3829.2,418.57142857142856,413.47767857142856,3929.5,418.57142857142856,413.47767857142856,4031.1,418.57142857142856,413.47767857142856,4132.3,418.57142857142856,413.47767857142856,4236.6,418.57142857142856,413.47767857142856,4343.1,418.57142857142856,413.47767857142856,4448.1,418.57142857142856,413.47767857142856,4552,418.57142857142856,413.47767857142856,4652.2,418.57142857142856,413.47767857142856,4752.4,418.57142857142856,413.47767857142856,4862.2,418.57142857142856,413.47767857142856,4962.7]","[1441.3,1441.3,1000,0,441.3,""oops"",""down"",""right"",""good_move"",3889.2,2447.5,1725.8,1441.7,721.7,""smooth"",""right"",""right"",""good_move"",6985.1,3095.6,2632.9,3889.5,462.7,""oops"",""right"",""left"",""bad_move"",13231.3,6245.9,2573.7,10084.5,573.2,""smooth"",""down"",""down"",""good_move"",16179.8,2948,2357.3,13231.8,590.7,""smooth"",""down"",""down"",""good_move""]"
"7306","","<div style=""width:500px;"">
  <p>What determined the result of this run?</p>
  </div>","37","html-slider-response","39","755887","0.0-7.0-1.5","175","1","2025-08-06 10:09:49","36c45c0696341be0efffe67d72a12abb","197.184.95.12","Mozilla/5.0 (Windows NT 10.0; Win64; x64) AppleWebKit/537.36 (KHTML, like Gecko) Chrome/139.0.0.0 Safari/537.36","WebKit","Chrome","139.0.0.0","Windows","10.0","https://app.prolific.com/","en-US,en;q=0.8","668ffb93b25dcfcfbe1836a4","687a1a965b9f5b85a264363e","6893288cefe31bc8114e94a7","1","668ffb93b25dcfcfbe1836a4","1","2025-08-06T10:22:55.215Z","","","","AttribQ","","","","","","","","","","","50","","","","","","","","","","","","","","","","","","","","","","","","","","",""
"35859","","<div style=""width:500px;"">
  <p>How much control did you have over the ball?</p>
  </div>","46","html-slider-response","40","791748","0.0-7.0-2.5","175","1","2025-08-06 10:09:49","36c45c0696341be0efffe67d72a12abb","197.184.95.12","Mozilla/5.0 (Windows NT 10.0; Win64; x64) AppleWebKit/537.36 (KHTML, like Gecko) Chrome/139.0.0.0 Safari/537.36","WebKit","Chrome","139.0.0.0","Windows","10.0","https://app.prolific.com/","en-US,en;q=0.8","668ffb93b25dcfcfbe1836a4","687a1a965b9f5b85a264363e","6893288cefe31bc8114e94a7","1","668ffb93b25dcfcfbe1836a4","1","2025-08-06T10:23:31.076Z","","","","ControlQ","","","","","","","","","","","50","","","","","","","","","","","","","","","","","","","","","","","","","","",""
"5706","","<div style=""width:500px;"">
  <p>How would you describe your current emotional state?</p>
  </div>","0","html-slider-response","41","797456","0.0-7.0-3.5","175","1","2025-08-06 10:09:49","36c45c0696341be0efffe67d72a12abb","197.184.95.12","Mozilla/5.0 (Windows NT 10.0; Win64; x64) AppleWebKit/537.36 (KHTML, like Gecko) Chrome/139.0.0.0 Safari/537.36","WebKit","Chrome","139.0.0.0","Windows","10.0","https://app.prolific.com/","en-US,en;q=0.8","668ffb93b25dcfcfbe1836a4","687a1a965b9f5b85a264363e","6893288cefe31bc8114e94a7","1","668ffb93b25dcfcfbe1836a4","1","2025-08-06T10:23:36.784Z","","","","StressQ","","","","","","","","","","","50","","","","","","","","","","","","","","","","","","","","","","","","","","",""
"4209","","<div style=""width:500px;"">
  <p>What best describes how you currently feel?</p>
  </div>","100","html-slider-response","42","801667","0.0-7.0-4.5","175","1","2025-08-06 10:09:49","36c45c0696341be0efffe67d72a12abb","197.184.95.12","Mozilla/5.0 (Windows NT 10.0; Win64; x64) AppleWebKit/537.36 (KHTML, like Gecko) Chrome/139.0.0.0 Safari/537.36","WebKit","Chrome","139.0.0.0","Windows","10.0","https://app.prolific.com/","en-US,en;q=0.8","668ffb93b25dcfcfbe1836a4","687a1a965b9f5b85a264363e","6893288cefe31bc8114e94a7","1","668ffb93b25dcfcfbe1836a4","1","2025-08-06T10:23:40.995Z","","","","MotivationQ","","","","","","","","","","","50","","","","","","","","","","","","","","","","","","","","","","","","","","",""
"","","","","ctl-task-cpt","43","821513","0.0-7.0-0.6","175","1","2025-08-06 10:09:49","36c45c0696341be0efffe67d72a12abb","197.184.95.12","Mozilla/5.0 (Windows NT 10.0; Win64; x64) AppleWebKit/537.36 (KHTML, like Gecko) Chrome/139.0.0.0 Safari/537.36","WebKit","Chrome","139.0.0.0","Windows","10.0","https://app.prolific.com/","en-US,en;q=0.8","668ffb93b25dcfcfbe1836a4","687a1a965b9f5b85a264363e","6893288cefe31bc8114e94a7","1","668ffb93b25dcfcfbe1836a4","1","2025-08-06T10:24:00.841Z","","","","","","","","","","","","","","","","win-only","1","g1:NE,g2:SW","0.4","7","0","834232.9","1647.8","6652.3","16820.7","1","4","4","6","1","1","1","7","6","0.05303030303030303","5004.5","3000","1650","[""up"",""right""]","{""num_key_presses"":4,""num_perfect"":1,""num_errors"":0,""num_randdir"":3,""num_randdir_good_moves"":3,""num_whilered"":0,""num_whileblue"":0,""num_blue"":0,""num_good_moves"":4}","[422.57142857142856,407.47767857142856,0.3,422.57142857142856,407.47767857142856,104.2,422.57142857142856,407.47767857142856,208.6,422.57142857142856,407.47767857142856,309.3,422.57142857142856,407.47767857142856,414.8,422.57142857142856,407.47767857142856,517.9,422.57142857142856,407.47767857142856,618.6,422.57142857142856,407.47767857142856,718.6,422.57142857142856,407.47767857142856,818.8,422.57142857142856,407.47767857142856,923.1,422.57142857142856,407.47767857142856,1024,422.57142857142856,407.47767857142856,1128.1,422.57142857142856,407.47767857142856,1228.7,422.57142857142856,407.47767857142856,1333.3,422.57142857142856,407.47767857142856,1438.9,422.57142857142856,407.47767857142856,1539,422.57142857142856,407.47767857142856,1645.8,422.57142857142856,407.47767857142856,1748.2,422.57142857142856,407.47767857142856,1849.9,422.57142857142856,407.47767857142856,1951.1,422.57142857142856,407.47767857142856,2052.9,422.57142857142856,407.47767857142856,2153.4,422.57142857142856,407.47767857142856,2257.8,422.57142857142856,407.47767857142856,2359,422.57142857142856,407.47767857142856,2460.9,422.57142857142856,407.47767857142856,2565.7,422.57142857142856,407.47767857142856,2668.5,422.57142857142856,407.47767857142856,2773.4,422.57142857142856,407.47767857142856,2875.4,422.57142857142856,407.47767857142856,2977.7,422.57142857142856,407.47767857142856,3081.8,422.57142857142856,407.47767857142856,3183.5,422.57142857142856,407.47767857142856,3287.8,422.57142857142856,407.47767857142856,3388.6,422.57142857142856,407.47767857142856,3496.6,422.57142857142856,407.47767857142856,3599.1,422.57142857142856,407.47767857142856,3702.8,422.57142857142856,407.47767857142856,3803.6,422.57142857142856,407.47767857142856,3907.6,422.57142857142856,407.47767857142856,4008.2,422.57142857142856,407.47767857142856,4111.8,422.57142857142856,407.47767857142856,4213.1,422.57142857142856,407.47767857142856,4313.2,422.57142857142856,407.47767857142856,4417.8,422.57142857142856,407.47767857142856,4519.1,422.57142857142856,407.47767857142856,4623.2,422.57142857142856,407.47767857142856,4725.3,422.57142857142856,407.47767857142856,4829.6,422.57142857142856,407.47767857142856,4932.8]","[1118.7,1118.7,1000,0,118.7,""oops"",""up"",""right"",""good_move"",4160.5,3041.2,2456.7,1119.3,584.5,""oops"",""right"",""up"",""good_move"",7489.8,3329,2849.1,4160.8,479.9,""smooth"",""right"",""right"",""good_move"",10078.6,2588.6,2157.6,7490,431,""oops"",""up"",""up"",""good_move""]"
"7243","","<div style=""width:500px;"">
  <p>What determined the result of this run?</p>
  </div>","100","html-slider-response","44","828757","0.0-7.0-1.6","175","1","2025-08-06 10:09:49","36c45c0696341be0efffe67d72a12abb","197.184.95.12","Mozilla/5.0 (Windows NT 10.0; Win64; x64) AppleWebKit/537.36 (KHTML, like Gecko) Chrome/139.0.0.0 Safari/537.36","WebKit","Chrome","139.0.0.0","Windows","10.0","https://app.prolific.com/","en-US,en;q=0.8","668ffb93b25dcfcfbe1836a4","687a1a965b9f5b85a264363e","6893288cefe31bc8114e94a7","1","668ffb93b25dcfcfbe1836a4","1","2025-08-06T10:24:08.085Z","","","","AttribQ","","","","","","","","","","","50","","","","","","","","","","","","","","","","","","","","","","","","","","",""
"4576","","<div style=""width:500px;"">
  <p>How much control did you have over the ball?</p>
  </div>","62","html-slider-response","45","833334","0.0-7.0-2.6","175","1","2025-08-06 10:09:49","36c45c0696341be0efffe67d72a12abb","197.184.95.12","Mozilla/5.0 (Windows NT 10.0; Win64; x64) AppleWebKit/537.36 (KHTML, like Gecko) Chrome/139.0.0.0 Safari/537.36","WebKit","Chrome","139.0.0.0","Windows","10.0","https://app.prolific.com/","en-US,en;q=0.8","668ffb93b25dcfcfbe1836a4","687a1a965b9f5b85a264363e","6893288cefe31bc8114e94a7","1","668ffb93b25dcfcfbe1836a4","1","2025-08-06T10:24:12.663Z","","","","ControlQ","","","","","","","","","","","50","","","","","","","","","","","","","","","","","","","","","","","","","","",""
"5701","","<div style=""width:500px;"">
  <p>How would you describe your current emotional state?</p>
  </div>","0","html-slider-response","46","839037","0.0-7.0-3.6","175","1","2025-08-06 10:09:49","36c45c0696341be0efffe67d72a12abb","197.184.95.12","Mozilla/5.0 (Windows NT 10.0; Win64; x64) AppleWebKit/537.36 (KHTML, like Gecko) Chrome/139.0.0.0 Safari/537.36","WebKit","Chrome","139.0.0.0","Windows","10.0","https://app.prolific.com/","en-US,en;q=0.8","668ffb93b25dcfcfbe1836a4","687a1a965b9f5b85a264363e","6893288cefe31bc8114e94a7","1","668ffb93b25dcfcfbe1836a4","1","2025-08-06T10:24:18.365Z","","","","StressQ","","","","","","","","","","","50","","","","","","","","","","","","","","","","","","","","","","","","","","",""
"4979","","<div style=""width:500px;"">
  <p>What best describes how you currently feel?</p>
  </div>","100","html-slider-response","47","844018","0.0-7.0-4.6","175","1","2025-08-06 10:09:49","36c45c0696341be0efffe67d72a12abb","197.184.95.12","Mozilla/5.0 (Windows NT 10.0; Win64; x64) AppleWebKit/537.36 (KHTML, like Gecko) Chrome/139.0.0.0 Safari/537.36","WebKit","Chrome","139.0.0.0","Windows","10.0","https://app.prolific.com/","en-US,en;q=0.8","668ffb93b25dcfcfbe1836a4","687a1a965b9f5b85a264363e","6893288cefe31bc8114e94a7","1","668ffb93b25dcfcfbe1836a4","1","2025-08-06T10:24:23.346Z","","","","MotivationQ","","","","","","","","","","","50","","","","","","","","","","","","","","","","","","","","","","","","","","",""
"","","","","ctl-task-cpt","48","878349","0.0-7.0-0.7","175","1","2025-08-06 10:09:49","36c45c0696341be0efffe67d72a12abb","197.184.95.12","Mozilla/5.0 (Windows NT 10.0; Win64; x64) AppleWebKit/537.36 (KHTML, like Gecko) Chrome/139.0.0.0 Safari/537.36","WebKit","Chrome","139.0.0.0","Windows","10.0","https://app.prolific.com/","en-US,en;q=0.8","668ffb93b25dcfcfbe1836a4","687a1a965b9f5b85a264363e","6893288cefe31bc8114e94a7","1","668ffb93b25dcfcfbe1836a4","1","2025-08-06T10:24:57.677Z","","","","","","","","","","","","","","","","win-only","0","g1:NW,g2:SE","0.3","8","0","876583.3","1540.1","6543.9","31316.1","1","4","8","6","2","-8","-8","0","7","0","5003.8","3000","-2800","[""down"",""right""]","{""num_key_presses"":7,""num_perfect"":1,""num_errors"":0,""num_randdir"":6,""num_randdir_good_moves"":3,""num_whilered"":0,""num_whileblue"":0,""num_blue"":1,""num_good_moves"":4}","[417.57142857142856,411.47767857142856,0.3,417.57142857142856,411.47767857142856,102.6,417.57142857142856,411.47767857142856,206.2,417.57142857142856,411.47767857142856,306.7,417.57142857142856,411.47767857142856,407.5,417.57142857142856,411.47767857142856,508.4,417.57142857142856,411.47767857142856,612,417.57142857142856,411.47767857142856,716.8,417.57142857142856,411.47767857142856,826.2,417.57142857142856,411.47767857142856,930.6,417.57142857142856,411.47767857142856,1031.1,417.57142857142856,411.47767857142856,1132.2,417.57142857142856,411.47767857142856,1237.1,417.57142857142856,411.47767857142856,1337.1,417.57142857142856,411.47767857142856,1437.6,417.57142857142856,411.47767857142856,1541,417.57142857142856,411.47767857142856,1646.8,417.57142857142856,411.47767857142856,1747.3,417.57142857142856,411.47767857142856,1850.8,417.57142857142856,411.47767857142856,1951.6,417.57142857142856,411.47767857142856,2057,417.57142857142856,411.47767857142856,2161.4,417.57142857142856,411.47767857142856,2266.6,417.57142857142856,411.47767857142856,2366.6,417.57142857142856,411.47767857142856,2470.8,417.57142857142856,411.47767857142856,2573.6,417.57142857142856,411.47767857142856,2674.7,417.57142857142856,411.47767857142856,2777.6,417.57142857142856,411.47767857142856,2883.3,417.57142857142856,411.47767857142856,2991.5,417.57142857142856,411.47767857142856,3095.5,417.57142857142856,411.47767857142856,3196.4,417.57142857142856,411.47767857142856,3302.7,417.57142857142856,411.47767857142856,3406.3,417.57142857142856,411.47767857142856,3511.4,417.57142857142856,411.47767857142856,3612.5,417.57142857142856,411.47767857142856,3716.7,417.57142857142856,411.47767857142856,3816.9,417.57142857142856,411.47767857142856,3925.3,417.57142857142856,411.47767857142856,4026.4,417.57142857142856,411.47767857142856,4131,417.57142857142856,411.47767857142856,4231.4,417.57142857142856,411.47767857142856,4336.1,417.57142857142856,411.47767857142856,4436.5,417.57142857142856,411.47767857142856,4542.6,417.57142857142856,411.47767857142856,4647,417.57142857142856,411.47767857142856,4747,417.57142857142856,411.47767857142856,4852.2,417.57142857142856,411.47767857142856,4955.3]","[1393.9,1393.9,1000,0,393.9,""oops"",""down"",""right"",""good_move"",4094,2699.3,2224.4,1394.7,474.9,""smooth"",""down"",""down"",""good_move"",7037.5,2943.1,2479.9,4094.4,463.2,""oops"",""down"",""right"",""good_move"",13135.6,6097.8,1874.5,10829.1,432,""oops"",""down"",""left"",""bad_move"",16162.5,3026.5,2591.3,13136,435.2,""oops"",""down"",""right"",""good_move"",18736.4,2572.2,2112.9,16164.3,459.3,""oops"",""down"",""left"",""bad_move"",22096.2,3359.6,2992.4,18736.6,367.2,""oops"",""right"",""up"",""bad_move""]"
"4593","","<div style=""width:500px;"">
  <p>What determined the result of this run?</p>
  </div>","0","html-slider-response","49","882944","0.0-7.0-1.7","175","1","2025-08-06 10:09:49","36c45c0696341be0efffe67d72a12abb","197.184.95.12","Mozilla/5.0 (Windows NT 10.0; Win64; x64) AppleWebKit/537.36 (KHTML, like Gecko) Chrome/139.0.0.0 Safari/537.36","WebKit","Chrome","139.0.0.0","Windows","10.0","https://app.prolific.com/","en-US,en;q=0.8","668ffb93b25dcfcfbe1836a4","687a1a965b9f5b85a264363e","6893288cefe31bc8114e94a7","1","668ffb93b25dcfcfbe1836a4","1","2025-08-06T10:25:02.272Z","","","","AttribQ","","","","","","","","","","","50","","","","","","","","","","","","","","","","","","","","","","","","","","",""
"4866","","<div style=""width:500px;"">
  <p>How much control did you have over the ball?</p>
  </div>","0","html-slider-response","50","887811","0.0-7.0-2.7","175","1","2025-08-06 10:09:49","36c45c0696341be0efffe67d72a12abb","197.184.95.12","Mozilla/5.0 (Windows NT 10.0; Win64; x64) AppleWebKit/537.36 (KHTML, like Gecko) Chrome/139.0.0.0 Safari/537.36","WebKit","Chrome","139.0.0.0","Windows","10.0","https://app.prolific.com/","en-US,en;q=0.8","668ffb93b25dcfcfbe1836a4","687a1a965b9f5b85a264363e","6893288cefe31bc8114e94a7","1","668ffb93b25dcfcfbe1836a4","1","2025-08-06T10:25:07.139Z","","","","ControlQ","","","","","","","","","","","50","","","","","","","","","","","","","","","","","","","","","","","","","","",""
"4433","","<div style=""width:500px;"">
  <p>How would you describe your current emotional state?</p>
  </div>","7","html-slider-response","51","892246","0.0-7.0-3.7","175","1","2025-08-06 10:09:49","36c45c0696341be0efffe67d72a12abb","197.184.95.12","Mozilla/5.0 (Windows NT 10.0; Win64; x64) AppleWebKit/537.36 (KHTML, like Gecko) Chrome/139.0.0.0 Safari/537.36","WebKit","Chrome","139.0.0.0","Windows","10.0","https://app.prolific.com/","en-US,en;q=0.8","668ffb93b25dcfcfbe1836a4","687a1a965b9f5b85a264363e","6893288cefe31bc8114e94a7","1","668ffb93b25dcfcfbe1836a4","1","2025-08-06T10:25:11.574Z","","","","StressQ","","","","","","","","","","","50","","","","","","","","","","","","","","","","","","","","","","","","","","",""
"5865","","<div style=""width:500px;"">
  <p>What best describes how you currently feel?</p>
  </div>","81","html-slider-response","52","898112","0.0-7.0-4.7","175","1","2025-08-06 10:09:49","36c45c0696341be0efffe67d72a12abb","197.184.95.12","Mozilla/5.0 (Windows NT 10.0; Win64; x64) AppleWebKit/537.36 (KHTML, like Gecko) Chrome/139.0.0.0 Safari/537.36","WebKit","Chrome","139.0.0.0","Windows","10.0","https://app.prolific.com/","en-US,en;q=0.8","668ffb93b25dcfcfbe1836a4","687a1a965b9f5b85a264363e","6893288cefe31bc8114e94a7","1","668ffb93b25dcfcfbe1836a4","1","2025-08-06T10:25:17.440Z","","","","MotivationQ","","","","","","","","","","","50","","","","","","","","","","","","","","","","","","","","","","","","","","",""
"","","","","ctl-task-cpt","53","944489","0.0-7.0-0.8","175","1","2025-08-06 10:09:49","36c45c0696341be0efffe67d72a12abb","197.184.95.12","Mozilla/5.0 (Windows NT 10.0; Win64; x64) AppleWebKit/537.36 (KHTML, like Gecko) Chrome/139.0.0.0 Safari/537.36","WebKit","Chrome","139.0.0.0","Windows","10.0","https://app.prolific.com/","en-US,en;q=0.8","668ffb93b25dcfcfbe1836a4","687a1a965b9f5b85a264363e","6893288cefe31bc8114e94a7","1","668ffb93b25dcfcfbe1836a4","1","2025-08-06T10:26:03.817Z","","","","","","","","","","","","","","","","win-only","1","g1:NE,g2:SW","0.4","9","0","930677.9","1416.6","6424.9","43356.7","1","4","4","6","2","-4","-6","0","0","0","5008.3","3000","-2890","[""down"",""left""]","{""num_key_presses"":9,""num_perfect"":3,""num_errors"":2,""num_randdir"":4,""num_randdir_good_moves"":3,""num_whilered"":0,""num_whileblue"":1,""num_blue"":3,""num_good_moves"":6}","[422.57142857142856,414.47767857142856,0.2,422.57142857142856,414.47767857142856,104.6,422.57142857142856,414.47767857142856,209.9,422.57142857142856,414.47767857142856,312,422.57142857142856,414.47767857142856,417.7,422.57142857142856,414.47767857142856,518.9,422.57142857142856,414.47767857142856,619.9,422.57142857142856,414.47767857142856,720.2,422.57142857142856,414.47767857142856,835.4,422.57142857142856,414.47767857142856,945.7,422.57142857142856,414.47767857142856,1049.5,422.57142857142856,414.47767857142856,1149.8,422.57142857142856,414.47767857142856,1250.2,422.57142857142856,414.47767857142856,1355.7,422.57142857142856,414.47767857142856,1460.3,422.57142857142856,414.47767857142856,1563.9,422.57142857142856,414.47767857142856,1665.3,422.57142857142856,414.47767857142856,1769.4,422.57142857142856,414.47767857142856,1878.9,422.57142857142856,414.47767857142856,1980.3,422.57142857142856,414.47767857142856,2085,422.57142857142856,414.47767857142856,2189,422.57142857142856,414.47767857142856,2289.3,422.57142857142856,414.47767857142856,2394.9,422.57142857142856,414.47767857142856,2498.7,422.57142857142856,414.47767857142856,2600.1,422.57142857142856,414.47767857142856,2707.6,422.57142857142856,414.47767857142856,2815.5,422.57142857142856,414.47767857142856,2915.9,422.57142857142856,414.47767857142856,3025.2,422.57142857142856,414.47767857142856,3129.5,422.57142857142856,414.47767857142856,3229.7,422.57142857142856,414.47767857142856,3339.1,422.57142857142856,414.47767857142856,3444.3,422.57142857142856,414.47767857142856,3544.6,422.57142857142856,414.47767857142856,3648.8,422.57142857142856,414.47767857142856,3749.7,422.57142857142856,414.47767857142856,3859.1,422.57142857142856,414.47767857142856,3964.2,422.57142857142856,414.47767857142856,4065.2,422.57142857142856,414.47767857142856,4165.2,422.57142857142856,414.47767857142856,4269.6,422.57142857142856,414.47767857142856,4375,422.57142857142856,414.47767857142856,4479.7,422.57142857142856,414.47767857142856,4579.8,422.57142857142856,414.47767857142856,4684.2,422.57142857142856,414.47767857142856,4784.2,422.57142857142856,414.47767857142856,4887.9,422.57142857142856,414.47767857142856,4989]","[1411.2,1411.2,1000,0,411.2,""oops"",""down"",""right"",""bad_move"",4007.5,2595.9,2107.9,1411.6,488,""oops"",""right"",""down"",""good_move"",7479,3471.1,3016.3,4007.9,454.8,""oops"",""right"",""down"",""good_move"",10280.6,2800.9,2305.3,7479.7,495.6,""smooth"",""right"",""right"",""bad_move"",13569.7,3288.5,2880.4,10281.2,408.1,""oops"",""down"",""down"",""good_move"",16297.8,2727.7,2273.2,13570.1,454.5,""smooth"",""left"",""left"",""good_move"",19421.1,3122.9,2778.7,16298.2,344.2,""while_blue"",""left"",""left"",""good_move"",26319.9,6863.1,2609,23311.4,399.6,""smooth"",""left"",""left"",""good_move"",32735.2,6414.7,3660.7,29278.9,-204.4,""error"",""-"",""-"",""no_move""]"
"6039","","<div style=""width:500px;"">
  <p>What determined the result of this run?</p>
  </div>","37","html-slider-response","54","950529","0.0-7.0-1.8","175","1","2025-08-06 10:09:49","36c45c0696341be0efffe67d72a12abb","197.184.95.12","Mozilla/5.0 (Windows NT 10.0; Win64; x64) AppleWebKit/537.36 (KHTML, like Gecko) Chrome/139.0.0.0 Safari/537.36","WebKit","Chrome","139.0.0.0","Windows","10.0","https://app.prolific.com/","en-US,en;q=0.8","668ffb93b25dcfcfbe1836a4","687a1a965b9f5b85a264363e","6893288cefe31bc8114e94a7","1","668ffb93b25dcfcfbe1836a4","1","2025-08-06T10:26:09.857Z","","","","AttribQ","","","","","","","","","","","50","","","","","","","","","","","","","","","","","","","","","","","","","","",""
"6403","","<div style=""width:500px;"">
  <p>How much control did you have over the ball?</p>
  </div>","55","html-slider-response","55","956933","0.0-7.0-2.8","175","1","2025-08-06 10:09:49","36c45c0696341be0efffe67d72a12abb","197.184.95.12","Mozilla/5.0 (Windows NT 10.0; Win64; x64) AppleWebKit/537.36 (KHTML, like Gecko) Chrome/139.0.0.0 Safari/537.36","WebKit","Chrome","139.0.0.0","Windows","10.0","https://app.prolific.com/","en-US,en;q=0.8","668ffb93b25dcfcfbe1836a4","687a1a965b9f5b85a264363e","6893288cefe31bc8114e94a7","1","668ffb93b25dcfcfbe1836a4","1","2025-08-06T10:26:16.261Z","","","","ControlQ","","","","","","","","","","","50","","","","","","","","","","","","","","","","","","","","","","","","","","",""
"3625","","<div style=""width:500px;"">
  <p>How would you describe your current emotional state?</p>
  </div>","25","html-slider-response","56","960560","0.0-7.0-3.8","175","1","2025-08-06 10:09:49","36c45c0696341be0efffe67d72a12abb","197.184.95.12","Mozilla/5.0 (Windows NT 10.0; Win64; x64) AppleWebKit/537.36 (KHTML, like Gecko) Chrome/139.0.0.0 Safari/537.36","WebKit","Chrome","139.0.0.0","Windows","10.0","https://app.prolific.com/","en-US,en;q=0.8","668ffb93b25dcfcfbe1836a4","687a1a965b9f5b85a264363e","6893288cefe31bc8114e94a7","1","668ffb93b25dcfcfbe1836a4","1","2025-08-06T10:26:19.888Z","","","","StressQ","","","","","","","","","","","50","","","","","","","","","","","","","","","","","","","","","","","","","","",""
"3212","","<div style=""width:500px;"">
  <p>What best describes how you currently feel?</p>
  </div>","74","html-slider-response","57","963773","0.0-7.0-4.8","175","1","2025-08-06 10:09:49","36c45c0696341be0efffe67d72a12abb","197.184.95.12","Mozilla/5.0 (Windows NT 10.0; Win64; x64) AppleWebKit/537.36 (KHTML, like Gecko) Chrome/139.0.0.0 Safari/537.36","WebKit","Chrome","139.0.0.0","Windows","10.0","https://app.prolific.com/","en-US,en;q=0.8","668ffb93b25dcfcfbe1836a4","687a1a965b9f5b85a264363e","6893288cefe31bc8114e94a7","1","668ffb93b25dcfcfbe1836a4","1","2025-08-06T10:26:23.101Z","","","","MotivationQ","","","","","","","","","","","50","","","","","","","","","","","","","","","","","","","","","","","","","","",""
"","","","","ctl-task-cpt","58","1004128","0.0-7.0-0.9","175","1","2025-08-06 10:09:49","36c45c0696341be0efffe67d72a12abb","197.184.95.12","Mozilla/5.0 (Windows NT 10.0; Win64; x64) AppleWebKit/537.36 (KHTML, like Gecko) Chrome/139.0.0.0 Safari/537.36","WebKit","Chrome","139.0.0.0","Windows","10.0","https://app.prolific.com/","en-US,en;q=0.8","668ffb93b25dcfcfbe1836a4","687a1a965b9f5b85a264363e","6893288cefe31bc8114e94a7","1","668ffb93b25dcfcfbe1836a4","1","2025-08-06T10:27:03.456Z","","","","","","","","","","","","","","","","win-only","1","g1:NE,g2:SW","0.5","10","0","996338.6","2434.1","7435.2","37328.2","1","4","8","6","1","-1","-2","0","0","0","5001.1","3000","-2620","[""up"",""right""]","{""num_key_presses"":9,""num_perfect"":3,""num_errors"":1,""num_randdir"":5,""num_randdir_good_moves"":2,""num_whilered"":0,""num_whileblue"":0,""num_blue"":1,""num_good_moves"":5}","[419.57142857142856,409.47767857142856,0.3,419.57142857142856,409.47767857142856,105.2,419.57142857142856,409.47767857142856,207.4,419.57142857142856,409.47767857142856,310.8,419.57142857142856,409.47767857142856,412.6,419.57142857142856,409.47767857142856,517.9,419.57142857142856,409.47767857142856,618.4,419.57142857142856,409.47767857142856,722.5,419.57142857142856,409.47767857142856,823.9,419.57142857142856,409.47767857142856,927.6,419.57142857142856,409.47767857142856,1033.1,419.57142857142856,409.47767857142856,1133.9,419.57142857142856,409.47767857142856,1242.6,419.57142857142856,409.47767857142856,1342.7,419.57142857142856,409.47767857142856,1444.8,419.57142857142856,409.47767857142856,1548.2,419.57142857142856,409.47767857142856,1649.9,419.57142857142856,409.47767857142856,1752.6,419.57142857142856,409.47767857142856,1853.8,419.57142857142856,409.47767857142856,1954.3,419.57142857142856,409.47767857142856,2060.5,419.57142857142856,409.47767857142856,2162.4,419.57142857142856,409.47767857142856,2263.3,419.57142857142856,409.47767857142856,2370.7,419.57142857142856,409.47767857142856,2472.4,419.57142857142856,409.47767857142856,2577.1,419.57142857142856,409.47767857142856,2677.4,419.57142857142856,409.47767857142856,2779,419.57142857142856,409.47767857142856,2880.2,419.57142857142856,409.47767857142856,2982,419.57142857142856,409.47767857142856,3088.4,419.57142857142856,409.47767857142856,3192.7,419.57142857142856,409.47767857142856,3293.3,419.57142857142856,409.47767857142856,3397.5,419.57142857142856,409.47767857142856,3498,419.57142857142856,409.47767857142856,3605.4,419.57142857142856,409.47767857142856,3708.4,419.57142857142856,409.47767857142856,3812.3,419.57142857142856,409.47767857142856,3912.4,419.57142857142856,409.47767857142856,4012.5,419.57142857142856,409.47767857142856,4113.4,419.57142857142856,409.47767857142856,4214.3,419.57142857142856,409.47767857142856,4317.5,419.57142857142856,409.47767857142856,4418.4,419.57142857142856,409.47767857142856,4524,419.57142857142856,409.47767857142856,4627.4,419.57142857142856,409.47767857142856,4734.6,419.57142857142856,409.47767857142856,4838.5,419.57142857142856,409.47767857142856,4941.9]","[1424.6,1424.6,1000,0,424.6,""smooth"",""up"",""up"",""good_move"",4648.3,3223.3,2796.9,1425,426.4,""oops"",""up"",""left"",""bad_move"",7583.4,2934.5,2520.5,4648.9,414,""oops"",""up"",""right"",""good_move"",10217.9,2634.1,2257.6,7583.8,376.5,""oops"",""down"",""left"",""bad_move"",17181.2,6963,2948.1,13847.7,385.4,""oops"",""right"",""up"",""good_move"",19947,2765.2,2282.4,17181.8,482.8,""smooth"",""right"",""right"",""good_move"",23523.6,3576.1,3218,19947.5,358.1,""smooth"",""right"",""right"",""good_move"",25791.4,2267.5,1903.9,23523.9,363.6,""oops"",""right"",""left"",""bad_move"",26277.9,486.2,2285.3,25791.7,-1799.1,""error"",""-"",""-"",""no_move""]"
"5785","","<div style=""width:500px;"">
  <p>What determined the result of this run?</p>
  </div>","36","html-slider-response","59","1009914","0.0-7.0-1.9","175","1","2025-08-06 10:09:49","36c45c0696341be0efffe67d72a12abb","197.184.95.12","Mozilla/5.0 (Windows NT 10.0; Win64; x64) AppleWebKit/537.36 (KHTML, like Gecko) Chrome/139.0.0.0 Safari/537.36","WebKit","Chrome","139.0.0.0","Windows","10.0","https://app.prolific.com/","en-US,en;q=0.8","668ffb93b25dcfcfbe1836a4","687a1a965b9f5b85a264363e","6893288cefe31bc8114e94a7","1","668ffb93b25dcfcfbe1836a4","1","2025-08-06T10:27:09.243Z","","","","AttribQ","","","","","","","","","","","50","","","","","","","","","","","","","","","","","","","","","","","","","","",""
"5107","","<div style=""width:500px;"">
  <p>How much control did you have over the ball?</p>
  </div>","37","html-slider-response","60","1015023","0.0-7.0-2.9","175","1","2025-08-06 10:09:49","36c45c0696341be0efffe67d72a12abb","197.184.95.12","Mozilla/5.0 (Windows NT 10.0; Win64; x64) AppleWebKit/537.36 (KHTML, like Gecko) Chrome/139.0.0.0 Safari/537.36","WebKit","Chrome","139.0.0.0","Windows","10.0","https://app.prolific.com/","en-US,en;q=0.8","668ffb93b25dcfcfbe1836a4","687a1a965b9f5b85a264363e","6893288cefe31bc8114e94a7","1","668ffb93b25dcfcfbe1836a4","1","2025-08-06T10:27:14.351Z","","","","ControlQ","","","","","","","","","","","50","","","","","","","","","","","","","","","","","","","","","","","","","","",""
"3991","","<div style=""width:500px;"">
  <p>How would you describe your current emotional state?</p>
  </div>","30","html-slider-response","61","1019016","0.0-7.0-3.9","175","1","2025-08-06 10:09:49","36c45c0696341be0efffe67d72a12abb","197.184.95.12","Mozilla/5.0 (Windows NT 10.0; Win64; x64) AppleWebKit/537.36 (KHTML, like Gecko) Chrome/139.0.0.0 Safari/537.36","WebKit","Chrome","139.0.0.0","Windows","10.0","https://app.prolific.com/","en-US,en;q=0.8","668ffb93b25dcfcfbe1836a4","687a1a965b9f5b85a264363e","6893288cefe31bc8114e94a7","1","668ffb93b25dcfcfbe1836a4","1","2025-08-06T10:27:18.344Z","","","","StressQ","","","","","","","","","","","50","","","","","","","","","","","","","","","","","","","","","","","","","","",""
"4021","","<div style=""width:500px;"">
  <p>What best describes how you currently feel?</p>
  </div>","75","html-slider-response","62","1023039","0.0-7.0-4.9","175","1","2025-08-06 10:09:49","36c45c0696341be0efffe67d72a12abb","197.184.95.12","Mozilla/5.0 (Windows NT 10.0; Win64; x64) AppleWebKit/537.36 (KHTML, like Gecko) Chrome/139.0.0.0 Safari/537.36","WebKit","Chrome","139.0.0.0","Windows","10.0","https://app.prolific.com/","en-US,en;q=0.8","668ffb93b25dcfcfbe1836a4","687a1a965b9f5b85a264363e","6893288cefe31bc8114e94a7","1","668ffb93b25dcfcfbe1836a4","1","2025-08-06T10:27:22.367Z","","","","MotivationQ","","","","","","","","","","","50","","","","","","","","","","","","","","","","","","","","","","","","","","",""
"","","","","ctl-task-cpt","63","1058553","0.0-7.0-0.10","175","1","2025-08-06 10:09:49","36c45c0696341be0efffe67d72a12abb","197.184.95.12","Mozilla/5.0 (Windows NT 10.0; Win64; x64) AppleWebKit/537.36 (KHTML, like Gecko) Chrome/139.0.0.0 Safari/537.36","WebKit","Chrome","139.0.0.0","Windows","10.0","https://app.prolific.com/","en-US,en;q=0.8","668ffb93b25dcfcfbe1836a4","687a1a965b9f5b85a264363e","6893288cefe31bc8114e94a7","1","668ffb93b25dcfcfbe1836a4","1","2025-08-06T10:27:57.881Z","","","","","","","","","","","","","","","","win-only","3","g1:SW,g2:NE","0.6","11","0","1055604.3","1651.4","6652","32492.1","1","4","4","6","2","4","4","4","0","0.030303030303030304","5000.6","3000","325","[""up"",""right""]","{""num_key_presses"":8,""num_perfect"":6,""num_errors"":0,""num_randdir"":2,""num_randdir_good_moves"":1,""num_whilered"":0,""num_whileblue"":0,""num_blue"":1,""num_good_moves"":7}","[414.57142857142856,415.47767857142856,0.1,414.57142857142856,415.47767857142856,108.6,414.57142857142856,415.47767857142856,210.7,414.57142857142856,415.47767857142856,317.7,414.57142857142856,415.47767857142856,421.2,414.57142857142856,415.47767857142856,525.2,414.57142857142856,415.47767857142856,625.8,414.57142857142856,415.47767857142856,727.2,414.57142857142856,415.47767857142856,830.7,414.57142857142856,415.47767857142856,934,414.57142857142856,415.47767857142856,1036,414.57142857142856,415.47767857142856,1138.9,414.57142857142856,415.47767857142856,1242.1,414.57142857142856,415.47767857142856,1344.3,414.57142857142856,415.47767857142856,1445.5,414.57142857142856,415.47767857142856,1548.2,414.57142857142856,415.47767857142856,1651.3,414.57142857142856,415.47767857142856,1752.3,414.57142857142856,415.47767857142856,1857.2,414.57142857142856,415.47767857142856,1957.6,414.57142857142856,415.47767857142856,2060.8,414.57142857142856,415.47767857142856,2161.6,414.57142857142856,415.47767857142856,2262.8,414.57142857142856,415.47767857142856,2364.9,414.57142857142856,415.47767857142856,2465.4,414.57142857142856,415.47767857142856,2566.1,414.57142857142856,415.47767857142856,2667.2,414.57142857142856,415.47767857142856,2777.1,414.57142857142856,415.47767857142856,2878,414.57142857142856,415.47767857142856,2984.4,414.57142857142856,415.47767857142856,3088.8,414.57142857142856,415.47767857142856,3197.3,414.57142857142856,415.47767857142856,3299.2,414.57142857142856,415.47767857142856,3400.4,414.57142857142856,415.47767857142856,3500.6,414.57142857142856,415.47767857142856,3607.9,414.57142857142856,415.47767857142856,3710.3,414.57142857142856,415.47767857142856,3811.4,414.57142857142856,415.47767857142856,3916.4,414.57142857142856,415.47767857142856,4020.7,414.57142857142856,415.47767857142856,4126,414.57142857142856,415.47767857142856,4227.8,414.57142857142856,415.47767857142856,4330.8,414.57142857142856,415.47767857142856,4442.3,414.57142857142856,415.47767857142856,4545.4,414.57142857142856,415.47767857142856,4649.9,414.57142857142856,415.47767857142856,4756.4,414.57142857142856,415.47767857142856,4857.5,414.57142857142856,415.47767857142856,4960.3]","[1468.4,1468.4,1000,0,468.5,""smooth"",""up"",""up"",""good_move"",4753.4,3284.5,2847.7,1468.9,436.8,""oops"",""up"",""left"",""bad_move"",8099.5,3345.7,2900,4753.9,445.6,""smooth"",""up"",""up"",""good_move"",10854.3,2754.2,2333.8,8100.1,420.4,""smooth"",""up"",""up"",""good_move"",16641.7,5787.1,2429.6,13780.1,432,""smooth"",""right"",""right"",""good_move"",19652.4,3010.2,2618.1,16642.2,392.1,""smooth"",""right"",""right"",""good_move"",22988.5,3335.7,2949.4,19652.8,386.3,""oops"",""right"",""right"",""good_move"",25737,2748,2343.4,22989,404.6,""smooth"",""right"",""right"",""good_move""]"
"8432","","<div style=""width:500px;"">
  <p>What determined the result of this run?</p>
  </div>","64","html-slider-response","64","1066986","0.0-7.0-1.10","175","1","2025-08-06 10:09:49","36c45c0696341be0efffe67d72a12abb","197.184.95.12","Mozilla/5.0 (Windows NT 10.0; Win64; x64) AppleWebKit/537.36 (KHTML, like Gecko) Chrome/139.0.0.0 Safari/537.36","WebKit","Chrome","139.0.0.0","Windows","10.0","https://app.prolific.com/","en-US,en;q=0.8","668ffb93b25dcfcfbe1836a4","687a1a965b9f5b85a264363e","6893288cefe31bc8114e94a7","1","668ffb93b25dcfcfbe1836a4","1","2025-08-06T10:28:06.314Z","","","","AttribQ","","","","","","","","","","","50","","","","","","","","","","","","","","","","","","","","","","","","","","",""
"4482","","<div style=""width:500px;"">
  <p>How much control did you have over the ball?</p>
  </div>","59","html-slider-response","65","1071482","0.0-7.0-2.10","175","1","2025-08-06 10:09:49","36c45c0696341be0efffe67d72a12abb","197.184.95.12","Mozilla/5.0 (Windows NT 10.0; Win64; x64) AppleWebKit/537.36 (KHTML, like Gecko) Chrome/139.0.0.0 Safari/537.36","WebKit","Chrome","139.0.0.0","Windows","10.0","https://app.prolific.com/","en-US,en;q=0.8","668ffb93b25dcfcfbe1836a4","687a1a965b9f5b85a264363e","6893288cefe31bc8114e94a7","1","668ffb93b25dcfcfbe1836a4","1","2025-08-06T10:28:10.810Z","","","","ControlQ","","","","","","","","","","","50","","","","","","","","","","","","","","","","","","","","","","","","","","",""
"4695","","<div style=""width:500px;"">
  <p>How would you describe your current emotional state?</p>
  </div>","22","html-slider-response","66","1076178","0.0-7.0-3.10","175","1","2025-08-06 10:09:49","36c45c0696341be0efffe67d72a12abb","197.184.95.12","Mozilla/5.0 (Windows NT 10.0; Win64; x64) AppleWebKit/537.36 (KHTML, like Gecko) Chrome/139.0.0.0 Safari/537.36","WebKit","Chrome","139.0.0.0","Windows","10.0","https://app.prolific.com/","en-US,en;q=0.8","668ffb93b25dcfcfbe1836a4","687a1a965b9f5b85a264363e","6893288cefe31bc8114e94a7","1","668ffb93b25dcfcfbe1836a4","1","2025-08-06T10:28:15.506Z","","","","StressQ","","","","","","","","","","","50","","","","","","","","","","","","","","","","","","","","","","","","","","",""
"4077","","<div style=""width:500px;"">
  <p>What best describes how you currently feel?</p>
  </div>","79","html-slider-response","67","1080256","0.0-7.0-4.10","175","1","2025-08-06 10:09:49","36c45c0696341be0efffe67d72a12abb","197.184.95.12","Mozilla/5.0 (Windows NT 10.0; Win64; x64) AppleWebKit/537.36 (KHTML, like Gecko) Chrome/139.0.0.0 Safari/537.36","WebKit","Chrome","139.0.0.0","Windows","10.0","https://app.prolific.com/","en-US,en;q=0.8","668ffb93b25dcfcfbe1836a4","687a1a965b9f5b85a264363e","6893288cefe31bc8114e94a7","1","668ffb93b25dcfcfbe1836a4","1","2025-08-06T10:28:19.584Z","","","","MotivationQ","","","","","","","","","","","50","","","","","","","","","","","","","","","","","","","","","","","","","","",""
"","","","","ctl-task-cpt","68","1121496","0.0-7.0-0.11","175","1","2025-08-06 10:09:49","36c45c0696341be0efffe67d72a12abb","197.184.95.12","Mozilla/5.0 (Windows NT 10.0; Win64; x64) AppleWebKit/537.36 (KHTML, like Gecko) Chrome/139.0.0.0 Safari/537.36","WebKit","Chrome","139.0.0.0","Windows","10.0","https://app.prolific.com/","en-US,en;q=0.8","668ffb93b25dcfcfbe1836a4","687a1a965b9f5b85a264363e","6893288cefe31bc8114e94a7","1","668ffb93b25dcfcfbe1836a4","1","2025-08-06T10:29:00.825Z","","","","","","","","","","","","","","","","win-only","0","g1:NW,g2:SE","0.7","12","0","1112822.1","2113.3","7115.9","38215.7","1","4","8","6","1","-1","-2","2","4","0.015151515151515152","5002.6","3000","-2790","[""left"",""up""]","{""num_key_presses"":9,""num_perfect"":5,""num_errors"":1,""num_randdir"":3,""num_randdir_good_moves"":1,""num_whilered"":0,""num_whileblue"":1,""num_blue"":2,""num_good_moves"":6}","[417.57142857142856,406.47767857142856,0.2,417.57142857142856,406.47767857142856,103,417.57142857142856,406.47767857142856,203.6,417.57142857142856,406.47767857142856,307.7,417.57142857142856,406.47767857142856,408.9,417.57142857142856,406.47767857142856,519.1,417.57142857142856,406.47767857142856,623.4,417.57142857142856,406.47767857142856,733.5,417.57142857142856,406.47767857142856,833.9,417.57142857142856,406.47767857142856,938.7,417.57142857142856,406.47767857142856,1042.7,417.57142857142856,406.47767857142856,1143.4,417.57142857142856,406.47767857142856,1253.9,417.57142857142856,406.47767857142856,1354,417.57142857142856,406.47767857142856,1457.1,417.57142857142856,406.47767857142856,1558.1,417.57142857142856,406.47767857142856,1665.4,417.57142857142856,406.47767857142856,1767.4,417.57142857142856,406.47767857142856,1868.6,417.57142857142856,406.47767857142856,1972.1,417.57142857142856,406.47767857142856,2072.8,417.57142857142856,406.47767857142856,2173.8,417.57142857142856,406.47767857142856,2284.4,417.57142857142856,406.47767857142856,2384.4,417.57142857142856,406.47767857142856,2486.6,417.57142857142856,406.47767857142856,2587.4,417.57142857142856,406.47767857142856,2692.8,417.57142857142856,406.47767857142856,2793.2,417.57142857142856,406.47767857142856,2894.7,417.57142857142856,406.47767857142856,2997.7,417.57142857142856,406.47767857142856,3099.7,417.57142857142856,406.47767857142856,3199.9,417.57142857142856,406.47767857142856,3300.8,417.57142857142856,406.47767857142856,3404.3,417.57142857142856,406.47767857142856,3508.4,417.57142857142856,406.47767857142856,3616.9,417.57142857142856,406.47767857142856,3717.1,417.57142857142856,406.47767857142856,3817.2,417.57142857142856,406.47767857142856,3919.8,417.57142857142856,406.47767857142856,4029.4,417.57142857142856,406.47767857142856,4132.3,417.57142857142856,406.47767857142856,4235.6,417.57142857142856,406.47767857142856,4349.5,417.57142857142856,406.47767857142856,4452.9,417.57142857142856,406.47767857142856,4564.4,417.57142857142856,406.47767857142856,4667.9,417.57142857142856,406.47767857142856,4772.8,417.57142857142856,406.47767857142856,4883.5,417.57142857142856,406.47767857142856,4991.5]","[1374.3,1374.3,1000,0,374.3,""smooth"",""up"",""up"",""good_move"",4450.6,3075.7,2663.5,1374.9,412.2,""smooth"",""up"",""up"",""good_move"",6750.1,2299.2,1934.2,4450.9,365,""smooth"",""left"",""left"",""good_move"",9591.1,2840.3,2409.6,6750.8,430.7,""oops"",""left"",""down"",""bad_move"",13253.2,3661.6,3290,9591.6,371.6,""while_blue"",""up"",""right"",""bad_move"",15573.3,2319.6,1856.4,13253.8,463.2,""oops"",""left"",""left"",""good_move"",22870.3,7296.5,2685.3,19795.7,389.3,""smooth"",""left"",""left"",""good_move"",25713.7,2842.9,2339.9,22870.9,502.9,""oops"",""up"",""down"",""bad_move"",29124.1,3410,2815,25714.1,595,""smooth"",""up"",""up"",""good_move""]"
"6035","","<div style=""width:500px;"">
  <p>What determined the result of this run?</p>
  </div>","26","html-slider-response","69","1127533","0.0-7.0-1.11","175","1","2025-08-06 10:09:49","36c45c0696341be0efffe67d72a12abb","197.184.95.12","Mozilla/5.0 (Windows NT 10.0; Win64; x64) AppleWebKit/537.36 (KHTML, like Gecko) Chrome/139.0.0.0 Safari/537.36","WebKit","Chrome","139.0.0.0","Windows","10.0","https://app.prolific.com/","en-US,en;q=0.8","668ffb93b25dcfcfbe1836a4","687a1a965b9f5b85a264363e","6893288cefe31bc8114e94a7","1","668ffb93b25dcfcfbe1836a4","1","2025-08-06T10:29:06.861Z","","","","AttribQ","","","","","","","","","","","50","","","","","","","","","","","","","","","","","","","","","","","","","","",""
"4279","","<div style=""width:500px;"">
  <p>How much control did you have over the ball?</p>
  </div>","45","html-slider-response","70","1131814","0.0-7.0-2.11","175","1","2025-08-06 10:09:49","36c45c0696341be0efffe67d72a12abb","197.184.95.12","Mozilla/5.0 (Windows NT 10.0; Win64; x64) AppleWebKit/537.36 (KHTML, like Gecko) Chrome/139.0.0.0 Safari/537.36","WebKit","Chrome","139.0.0.0","Windows","10.0","https://app.prolific.com/","en-US,en;q=0.8","668ffb93b25dcfcfbe1836a4","687a1a965b9f5b85a264363e","6893288cefe31bc8114e94a7","1","668ffb93b25dcfcfbe1836a4","1","2025-08-06T10:29:11.142Z","","","","ControlQ","","","","","","","","","","","50","","","","","","","","","","","","","","","","","","","","","","","","","","",""
"3359","","<div style=""width:500px;"">
  <p>How would you describe your current emotional state?</p>
  </div>","18","html-slider-response","71","1135175","0.0-7.0-3.11","175","1","2025-08-06 10:09:49","36c45c0696341be0efffe67d72a12abb","197.184.95.12","Mozilla/5.0 (Windows NT 10.0; Win64; x64) AppleWebKit/537.36 (KHTML, like Gecko) Chrome/139.0.0.0 Safari/537.36","WebKit","Chrome","139.0.0.0","Windows","10.0","https://app.prolific.com/","en-US,en;q=0.8","668ffb93b25dcfcfbe1836a4","687a1a965b9f5b85a264363e","6893288cefe31bc8114e94a7","1","668ffb93b25dcfcfbe1836a4","1","2025-08-06T10:29:14.503Z","","","","StressQ","","","","","","","","","","","50","","","","","","","","","","","","","","","","","","","","","","","","","","",""
"3685","","<div style=""width:500px;"">
  <p>What best describes how you currently feel?</p>
  </div>","67","html-slider-response","72","1138861","0.0-7.0-4.11","175","1","2025-08-06 10:09:49","36c45c0696341be0efffe67d72a12abb","197.184.95.12","Mozilla/5.0 (Windows NT 10.0; Win64; x64) AppleWebKit/537.36 (KHTML, like Gecko) Chrome/139.0.0.0 Safari/537.36","WebKit","Chrome","139.0.0.0","Windows","10.0","https://app.prolific.com/","en-US,en;q=0.8","668ffb93b25dcfcfbe1836a4","687a1a965b9f5b85a264363e","6893288cefe31bc8114e94a7","1","668ffb93b25dcfcfbe1836a4","1","2025-08-06T10:29:18.189Z","","","","MotivationQ","","","","","","","","","","","50","","","","","","","","","","","","","","","","","","","","","","","","","","",""
"","","","","ctl-task-cpt","73","1162090","0.0-7.0-0.12","175","1","2025-08-06 10:09:49","36c45c0696341be0efffe67d72a12abb","197.184.95.12","Mozilla/5.0 (Windows NT 10.0; Win64; x64) AppleWebKit/537.36 (KHTML, like Gecko) Chrome/139.0.0.0 Safari/537.36","WebKit","Chrome","139.0.0.0","Windows","10.0","https://app.prolific.com/","en-US,en;q=0.8","668ffb93b25dcfcfbe1836a4","687a1a965b9f5b85a264363e","6893288cefe31bc8114e94a7","1","668ffb93b25dcfcfbe1836a4","1","2025-08-06T10:29:41.418Z","","","","","","","","","","","","","","","","win-only","2","g1:SE,g2:NW","0.8","13","0","1171427.3","1778","6781.6","20198.7","1","4","4","6","1","1","1","3","2","0.022727272727272728","5003.6","3000","1670","[""down"",""right""]","{""num_key_presses"":4,""num_perfect"":3,""num_errors"":0,""num_randdir"":1,""num_randdir_good_moves"":1,""num_whilered"":0,""num_whileblue"":0,""num_blue"":1,""num_good_moves"":4}","[418.57142857142856,422.47767857142856,0.3,418.57142857142856,422.47767857142856,109.4,418.57142857142856,422.47767857142856,214.2,418.57142857142856,422.47767857142856,314.3,418.57142857142856,422.47767857142856,423.8,418.57142857142856,422.47767857142856,526.9,418.57142857142856,422.47767857142856,633.9,418.57142857142856,422.47767857142856,734.9,418.57142857142856,422.47767857142856,837.7,418.57142857142856,422.47767857142856,944.8,418.57142857142856,422.47767857142856,1051.7,418.57142857142856,422.47767857142856,1158.5,418.57142857142856,422.47767857142856,1262,418.57142857142856,422.47767857142856,1363.2,418.57142857142856,422.47767857142856,1463.5,418.57142857142856,422.47767857142856,1569.7,418.57142857142856,422.47767857142856,1671.7,418.57142857142856,422.47767857142856,1774.7,418.57142857142856,422.47767857142856,1877.9,418.57142857142856,422.47767857142856,1983.3,418.57142857142856,422.47767857142856,2087.8,418.57142857142856,422.47767857142856,2199.9,418.57142857142856,422.47767857142856,2306.3,418.57142857142856,422.47767857142856,2406.9,418.57142857142856,422.47767857142856,2510.6,418.57142857142856,422.47767857142856,2614.2,418.57142857142856,422.47767857142856,2716.1,418.57142857142856,422.47767857142856,2820,418.57142857142856,422.47767857142856,2921,418.57142857142856,422.47767857142856,3025.9,418.57142857142856,422.47767857142856,3128.1,418.57142857142856,422.47767857142856,3231.1,418.57142857142856,422.47767857142856,3333.4,418.57142857142856,422.47767857142856,3433.7,418.57142857142856,422.47767857142856,3535.5,418.57142857142856,422.47767857142856,3643.7,418.57142857142856,422.47767857142856,3746.3,418.57142857142856,422.47767857142856,3846.5,418.57142857142856,422.47767857142856,3948.5,418.57142857142856,422.47767857142856,4049.2,418.57142857142856,422.47767857142856,4150.1,418.57142857142856,422.47767857142856,4260.3,418.57142857142856,422.47767857142856,4364.4,418.57142857142856,422.47767857142856,4467.2,418.57142857142856,422.47767857142856,4568.1,418.57142857142856,422.47767857142856,4668.9,418.57142857142856,422.47767857142856,4769,418.57142857142856,422.47767857142856,4869.2,418.57142857142856,422.47767857142856,4974.3]","[4866.4,4866.4,2460.5,2005,400.9,""smooth"",""down"",""down"",""good_move"",8021.6,3154.5,2678.2,4867.1,476.3,""smooth"",""down"",""down"",""good_move"",10816.1,2794.1,2390.9,8022.1,403.1,""oops"",""right"",""right"",""good_move"",13255,2438.5,2018.1,10816.5,420.4,""smooth"",""right"",""right"",""good_move""]"
"3881","","<div style=""width:500px;"">
  <p>What determined the result of this run?</p>
  </div>","70","html-slider-response","74","1165973","0.0-7.0-1.12","175","1","2025-08-06 10:09:49","36c45c0696341be0efffe67d72a12abb","197.184.95.12","Mozilla/5.0 (Windows NT 10.0; Win64; x64) AppleWebKit/537.36 (KHTML, like Gecko) Chrome/139.0.0.0 Safari/537.36","WebKit","Chrome","139.0.0.0","Windows","10.0","https://app.prolific.com/","en-US,en;q=0.8","668ffb93b25dcfcfbe1836a4","687a1a965b9f5b85a264363e","6893288cefe31bc8114e94a7","1","668ffb93b25dcfcfbe1836a4","1","2025-08-06T10:29:45.302Z","","","","AttribQ","","","","","","","","","","","50","","","","","","","","","","","","","","","","","","","","","","","","","","",""
"4718","","<div style=""width:500px;"">
  <p>How much control did you have over the ball?</p>
  </div>","100","html-slider-response","75","1170694","0.0-7.0-2.12","175","1","2025-08-06 10:09:49","36c45c0696341be0efffe67d72a12abb","197.184.95.12","Mozilla/5.0 (Windows NT 10.0; Win64; x64) AppleWebKit/537.36 (KHTML, like Gecko) Chrome/139.0.0.0 Safari/537.36","WebKit","Chrome","139.0.0.0","Windows","10.0","https://app.prolific.com/","en-US,en;q=0.8","668ffb93b25dcfcfbe1836a4","687a1a965b9f5b85a264363e","6893288cefe31bc8114e94a7","1","668ffb93b25dcfcfbe1836a4","1","2025-08-06T10:29:50.022Z","","","","ControlQ","","","","","","","","","","","50","","","","","","","","","","","","","","","","","","","","","","","","","","",""
"4037","","<div style=""width:500px;"">
  <p>How would you describe your current emotional state?</p>
  </div>","20","html-slider-response","76","1174734","0.0-7.0-3.12","175","1","2025-08-06 10:09:49","36c45c0696341be0efffe67d72a12abb","197.184.95.12","Mozilla/5.0 (Windows NT 10.0; Win64; x64) AppleWebKit/537.36 (KHTML, like Gecko) Chrome/139.0.0.0 Safari/537.36","WebKit","Chrome","139.0.0.0","Windows","10.0","https://app.prolific.com/","en-US,en;q=0.8","668ffb93b25dcfcfbe1836a4","687a1a965b9f5b85a264363e","6893288cefe31bc8114e94a7","1","668ffb93b25dcfcfbe1836a4","1","2025-08-06T10:29:54.062Z","","","","StressQ","","","","","","","","","","","50","","","","","","","","","","","","","","","","","","","","","","","","","","",""
"3330","","<div style=""width:500px;"">
  <p>What best describes how you currently feel?</p>
  </div>","75","html-slider-response","77","1178066","0.0-7.0-4.12","175","1","2025-08-06 10:09:49","36c45c0696341be0efffe67d72a12abb","197.184.95.12","Mozilla/5.0 (Windows NT 10.0; Win64; x64) AppleWebKit/537.36 (KHTML, like Gecko) Chrome/139.0.0.0 Safari/537.36","WebKit","Chrome","139.0.0.0","Windows","10.0","https://app.prolific.com/","en-US,en;q=0.8","668ffb93b25dcfcfbe1836a4","687a1a965b9f5b85a264363e","6893288cefe31bc8114e94a7","1","668ffb93b25dcfcfbe1836a4","1","2025-08-06T10:29:57.394Z","","","","MotivationQ","","","","","","","","","","","50","","","","","","","","","","","","","","","","","","","","","","","","","","",""
