"rt","response_timestamp","stimulus","response","trial_type","trial_index","time_elapsed","internal_node_id","run_id","condition","recorded_at","source_code_version","ip","user_agent","device","browser","browser_version","platform","platform_version","referer","accept_language","PROLIFIC_PID","STUDY_ID","SESSION_ID","BATCH","prolific_id","batch","realtime","success","question_order","question_id","eventType","responses","item_order","radio_event_ids","radio_event_times","key_event_times","mouse_event_times","straightlining","zigzagging","honeypot","view_history","slider_start","which_type","canvas_config","goals_layout","control_level","trial_number","tutorial_trial_number","trial_start_time","phase1_start_time","phase2_start_time","phase3_start_time","goal_1_value","goal_1_distance","goal_2_value","goal_2_distance","goal_selected","outcome","outcome_total","participant_final_score","participant_initial_score","participant_final_score_prop","goal_choice_rt","allocated_time","allocated_time_remaining","goal_direction","counts","mouse_movements","key_presses"
"14966","1754478932738","<p style='font-size:40px;line-height:1.25'><strong>Welcome to the experiment!</strong></p><p style='font-size:1.1em;line-height:1.25'>Thank you for participanting in our experiment again! You will be asked to play the Dysfunctional Ball Game again. We will briefly recap the rules before we start.</p><p style='font-size:1.1em;line-height:1.25'>Press <strong>Next</strong> to continue.</p>","0","custom-html-button-response","0","14970","0.0-0.0","185","1","2025-08-06 11:15:13","36c45c0696341be0efffe67d72a12abb","102.213.27.252","Mozilla/5.0 (Windows NT 10.0; Win64; x64) AppleWebKit/537.36 (KHTML, like Gecko) Chrome/138.0.0.0 Safari/537.36","WebKit","Chrome","138.0.0.0","Windows","10.0","https://app.prolific.com/","en-US,en;q=0.9,zh-CN;q=0.8,zh;q=0.7","669149873799bbea50733fe0","6877649eabb845cf142cd221","68933848d496a7e4ee1e4bc7","1","669149873799bbea50733fe0","1","2025-08-06T11:15:32.740Z","","","","","","","","","","","","","","","","","","","","","","","","","","","","","","","","","","","","","","","","","",""
"1513","","","","fullscreen","1","17494","0.0-1.0","185","1","2025-08-06 11:15:13","36c45c0696341be0efffe67d72a12abb","102.213.27.252","Mozilla/5.0 (Windows NT 10.0; Win64; x64) AppleWebKit/537.36 (KHTML, like Gecko) Chrome/138.0.0.0 Safari/537.36","WebKit","Chrome","138.0.0.0","Windows","10.0","https://app.prolific.com/","en-US,en;q=0.9,zh-CN;q=0.8,zh;q=0.7","669149873799bbea50733fe0","6877649eabb845cf142cd221","68933848d496a7e4ee1e4bc7","1","669149873799bbea50733fe0","1","","true","","","","","","","","","","","","","","","","","","","","","","","","","","","","","","","","","","","","","","","","",""
"4300","1754478939565"," <p style='font-size:1.1em;line-height:1.25'>Thank you for closing all other tabs.</p><p style='font-size:1.1em;line-height:1.25'>We will now invite you to fill in some questionnaires, before starting the game.<br>This will take about 5 minutes.<br></p><p style='font-size:1.1em;line-height:1.25'>Press the <strong>Next</strong> button to continue.</p>","0","custom-html-button-response","2","21797","0.0-2.0","185","1","2025-08-06 11:15:13","36c45c0696341be0efffe67d72a12abb","102.213.27.252","Mozilla/5.0 (Windows NT 10.0; Win64; x64) AppleWebKit/537.36 (KHTML, like Gecko) Chrome/138.0.0.0 Safari/537.36","WebKit","Chrome","138.0.0.0","Windows","10.0","https://app.prolific.com/","en-US,en;q=0.9,zh-CN;q=0.8,zh;q=0.7","669149873799bbea50733fe0","6877649eabb845cf142cd221","68933848d496a7e4ee1e4bc7","1","669149873799bbea50733fe0","1","2025-08-06T11:15:39.566Z","","","","","","","","","","","","","","","","","","","","","","","","","","","","","","","","","","","","","","","","","",""
"2922","","","{""assigned_sex"":""female""}","survey-multi-choice","3","24723","0.0-3.0-0.0","185","1","2025-08-06 11:15:13","36c45c0696341be0efffe67d72a12abb","102.213.27.252","Mozilla/5.0 (Windows NT 10.0; Win64; x64) AppleWebKit/537.36 (KHTML, like Gecko) Chrome/138.0.0.0 Safari/537.36","WebKit","Chrome","138.0.0.0","Windows","10.0","https://app.prolific.com/","en-US,en;q=0.9,zh-CN;q=0.8,zh;q=0.7","669149873799bbea50733fe0","6877649eabb845cf142cd221","68933848d496a7e4ee1e4bc7","1","669149873799bbea50733fe0","1","","","[0]","0","demographics","","","","","","","","","","","","","","","","","","","","","","","","","","","","","","","","","","","","","",""
"3136","1754478945630","<p style='font-size:1.1em;line-height:1.25'>In the following, we will perform a baseline assessment. This means that we will ask you a few questions relating to your experiences over the past month.<br></p><p style='font-size:1.1em;line-height:1.25'>Press the <strong>Next</strong> button to continue.</p>","0","custom-html-button-response","4","27863","0.0-4.0-0.0","185","1","2025-08-06 11:15:13","36c45c0696341be0efffe67d72a12abb","102.213.27.252","Mozilla/5.0 (Windows NT 10.0; Win64; x64) AppleWebKit/537.36 (KHTML, like Gecko) Chrome/138.0.0.0 Safari/537.36","WebKit","Chrome","138.0.0.0","Windows","10.0","https://app.prolific.com/","en-US,en;q=0.9,zh-CN;q=0.8,zh;q=0.7","669149873799bbea50733fe0","6877649eabb845cf142cd221","68933848d496a7e4ee1e4bc7","1","669149873799bbea50733fe0","1","2025-08-06T11:15:45.632Z","","","","","","","","","","","","","","","","","","","","","","","","","","","","","","","","","","","","","","","","","",""
"37069.10000002384","","","","survey-template","5","64946","0.0-4.0-1.0","185","1","2025-08-06 11:15:13","36c45c0696341be0efffe67d72a12abb","102.213.27.252","Mozilla/5.0 (Windows NT 10.0; Win64; x64) AppleWebKit/537.36 (KHTML, like Gecko) Chrome/138.0.0.0 Safari/537.36","WebKit","Chrome","138.0.0.0","Windows","10.0","https://app.prolific.com/","en-US,en;q=0.9,zh-CN;q=0.8,zh;q=0.7","669149873799bbea50733fe0","6877649eabb845cf142cd221","68933848d496a7e4ee1e4bc7","1","669149873799bbea50733fe0","1","2025-08-06T11:16:22.716Z","","","","pss","{""Q01"":""1"",""Q02"":""0"",""Q03"":""1"",""Q04"":""3"",""Q05"":""2"",""Q06"":""1"",""Q07"":""3"",""Q08"":""2"",""Q09"":""0"",""Q10"":""1""}","[0,1,2,3,4,5,6,7,8,9]","[""Q01"",""Q02"",""Q03"",""Q04"",""Q05"",""Q06"",""Q07"",""Q09"",""Q10"",""Q08""]","[8843.300000071526,10876.899999976158,12440.300000071526,14106.300000071526,16783.399999976158,18365,20001.300000071526,27293.800000071526,29256,35086.10000002384]","[]","[0.20000004768371582,5127.800000071526,6728.100000023842,8843.300000071526,10876.899999976158,12440.300000071526,14106.300000071526,16783.399999976158,18365,20001.300000071526,25281.399999976158,27293.800000071526,29256,30589,35086.10000002384,37065]","0.6","0.6666666666666666","0","","","","","","","","","","","","","","","","","","","","","","","","","","","","",""
"1726","1754478984443","<p style='font-size:1.1em;line-height:1.25'>Thank you for your answers! Now we will ask you a few more questions relating to your feelings in the last 24 hours.<br></p><p style='font-size:1.1em;line-height:1.25'>Press the <strong>Next</strong> button to continue.</p>","0","custom-html-button-response","6","66675","0.0-4.0-2.0","185","1","2025-08-06 11:15:13","36c45c0696341be0efffe67d72a12abb","102.213.27.252","Mozilla/5.0 (Windows NT 10.0; Win64; x64) AppleWebKit/537.36 (KHTML, like Gecko) Chrome/138.0.0.0 Safari/537.36","WebKit","Chrome","138.0.0.0","Windows","10.0","https://app.prolific.com/","en-US,en;q=0.9,zh-CN;q=0.8,zh;q=0.7","669149873799bbea50733fe0","6877649eabb845cf142cd221","68933848d496a7e4ee1e4bc7","1","669149873799bbea50733fe0","1","2025-08-06T11:16:24.444Z","","","","","","","","","","","","","","","","","","","","","","","","","","","","","","","","","","","","","","","","","",""
"51113.5","","","","survey-template","7","117802","0.0-4.0-3.0","185","1","2025-08-06 11:15:13","36c45c0696341be0efffe67d72a12abb","102.213.27.252","Mozilla/5.0 (Windows NT 10.0; Win64; x64) AppleWebKit/537.36 (KHTML, like Gecko) Chrome/138.0.0.0 Safari/537.36","WebKit","Chrome","138.0.0.0","Windows","10.0","https://app.prolific.com/","en-US,en;q=0.9,zh-CN;q=0.8,zh;q=0.7","669149873799bbea50733fe0","6877649eabb845cf142cd221","68933848d496a7e4ee1e4bc7","1","669149873799bbea50733fe0","1","2025-08-06T11:17:15.571Z","","","","drsp","{""Q01"":""1"",""Q02"":""0"",""Q03"":""0"",""Q04"":""1"",""Q05"":""1"",""Q06"":""1"",""Q07"":""0"",""Q08"":""0"",""Q09"":""0"",""Q10"":""0"",""Q11"":""1"",""Q12"":""1"",""Q13"":""5"",""Q14"":""2"",""Q15"":""1"",""Q16"":""1"",""Q17"":""0"",""Q18"":""1"",""Q19"":""0"",""Q20"":""1"",""Q21"":""0"",""Q22"":""0""}","[0,1,2,3,4,5,6,7,8,9,10,11,12,13,14,15,16,17,18,19,20,21]","[""Q01"",""Q03"",""Q02"",""Q04"",""Q05"",""Q05"",""Q06"",""Q07"",""Q08"",""Q09"",""Q10"",""Q11"",""Q12"",""Q13"",""Q14"",""Q15"",""Q16"",""Q17"",""Q18"",""Q19"",""Q20"",""Q21"",""Q22""]","[2535.100000023842,6080.199999928474,7528.899999976158,8823.799999952316,10282.299999952316,11822.600000023842,13088.100000023842,14712,16643,18150.699999928474,22564.5,24284,25492.299999952316,27725.5,30293.199999928474,32819.5,34405.60000002384,36304.699999928474,37685.699999928474,42947.89999997616,45095.89999997616,48195,49742.10000002384]","[]","[0.19999992847442627,2535.100000023842,4416.899999976158,6080.199999928474,7528.899999976158,8823.799999952316,10282.299999952316,11822.600000023842,13088.100000023842,14712,16643,18150.699999928474,22564.5,24284,25492.299999952316,27725.5,30293.199999928474,32819.5,34405.60000002384,36304.699999928474,37685.699999928474,42947.89999997616,45095.89999997616,46828.299999952316,48195,49742.10000002384,51103.89999997616]","0.45454545454545453","0.47619047619047616","0","","","","","","","","","","","","","","","","","","","","","","","","","","","","",""
"14314.600000023842","","","","survey-template","8","132121","0.0-4.0-4.0","185","1","2025-08-06 11:15:13","36c45c0696341be0efffe67d72a12abb","102.213.27.252","Mozilla/5.0 (Windows NT 10.0; Win64; x64) AppleWebKit/537.36 (KHTML, like Gecko) Chrome/138.0.0.0 Safari/537.36","WebKit","Chrome","138.0.0.0","Windows","10.0","https://app.prolific.com/","en-US,en;q=0.9,zh-CN;q=0.8,zh;q=0.7","669149873799bbea50733fe0","6877649eabb845cf142cd221","68933848d496a7e4ee1e4bc7","1","669149873799bbea50733fe0","1","2025-08-06T11:17:29.890Z","","","","stress","{""Q01"":""1"",""Q02"":""4"",""Q03"":""0""}","[0,1,2]","[""Q01"",""Q02"",""Q03""]","[7895.800000071526,10228.700000047684,12838.600000023842]","[]","[7895.800000071526,10228.700000047684,12838.600000023842,14309.700000047684]","0.6666666666666666","0.5","0","","","","","","","","","","","","","","","","","","","","","","","","","","","","",""
"3322","","","","instructions","9","135447","0.0-5.0-0.0","185","1","2025-08-06 11:15:13","36c45c0696341be0efffe67d72a12abb","102.213.27.252","Mozilla/5.0 (Windows NT 10.0; Win64; x64) AppleWebKit/537.36 (KHTML, like Gecko) Chrome/138.0.0.0 Safari/537.36","WebKit","Chrome","138.0.0.0","Windows","10.0","https://app.prolific.com/","en-US,en;q=0.9,zh-CN;q=0.8,zh;q=0.7","669149873799bbea50733fe0","6877649eabb845cf142cd221","68933848d496a7e4ee1e4bc7","1","669149873799bbea50733fe0","1","","","","","","","","","","","","","","","[{""page_index"":0,""viewing_time"":3320}]","","","","","","","","","","","","","","","","","","","","","","","","","","","",""
"3723","","<p>Before you start with this game please answer the following three questions yourself. </p>
  <p>Through this game, we measure several aspects of your cognitive performance, such as reaction times, multi-tasking capabilities </p>
  <p>and the ability to assess the situation you are in.</p>
  <p></p>
  <p><b>How good do you usually are in such tasks?</b></p>","68","html-slider-response","10","139176","0.0-6.0-0.0","185","1","2025-08-06 11:15:13","36c45c0696341be0efffe67d72a12abb","102.213.27.252","Mozilla/5.0 (Windows NT 10.0; Win64; x64) AppleWebKit/537.36 (KHTML, like Gecko) Chrome/138.0.0.0 Safari/537.36","WebKit","Chrome","138.0.0.0","Windows","10.0","https://app.prolific.com/","en-US,en;q=0.9,zh-CN;q=0.8,zh;q=0.7","669149873799bbea50733fe0","6877649eabb845cf142cd221","68933848d496a7e4ee1e4bc7","1","669149873799bbea50733fe0","1","2025-08-06T11:17:36.946Z","","","","PreSkillQ","","","","","","","","","","","50","","","","","","","","","","","","","","","","","","","","","","","","","","",""
"4619","","<div style=""width:500px;"">
  <p>How well do you think you will perform in this task compared to other participants?</p>
  </div>","50","html-slider-response","11","143800","0.0-6.0-1.0","185","1","2025-08-06 11:15:13","36c45c0696341be0efffe67d72a12abb","102.213.27.252","Mozilla/5.0 (Windows NT 10.0; Win64; x64) AppleWebKit/537.36 (KHTML, like Gecko) Chrome/138.0.0.0 Safari/537.36","WebKit","Chrome","138.0.0.0","Windows","10.0","https://app.prolific.com/","en-US,en;q=0.9,zh-CN;q=0.8,zh;q=0.7","669149873799bbea50733fe0","6877649eabb845cf142cd221","68933848d496a7e4ee1e4bc7","1","669149873799bbea50733fe0","1","2025-08-06T11:17:41.569Z","","","","PrePerfQ","","","","","","","","","","","50","","","","","","","","","","","","","","","","","","","","","","","","","","",""
"4449","","<div style=""width:500px;"">
  <p>What best describes how you currently feel?</p>
  </div>","75","html-slider-response","12","148251","0.0-6.0-2.0","185","1","2025-08-06 11:15:13","36c45c0696341be0efffe67d72a12abb","102.213.27.252","Mozilla/5.0 (Windows NT 10.0; Win64; x64) AppleWebKit/537.36 (KHTML, like Gecko) Chrome/138.0.0.0 Safari/537.36","WebKit","Chrome","138.0.0.0","Windows","10.0","https://app.prolific.com/","en-US,en;q=0.9,zh-CN;q=0.8,zh;q=0.7","669149873799bbea50733fe0","6877649eabb845cf142cd221","68933848d496a7e4ee1e4bc7","1","669149873799bbea50733fe0","1","2025-08-06T11:17:46.021Z","","","","PreMotivationQ","","","","","","","","","","","50","","","","","","","","","","","","","","","","","","","","","","","","","","",""
"","","","","ctl-task-cpt","13","182250","0.0-7.0-0.0","185","1","2025-08-06 11:15:13","36c45c0696341be0efffe67d72a12abb","102.213.27.252","Mozilla/5.0 (Windows NT 10.0; Win64; x64) AppleWebKit/537.36 (KHTML, like Gecko) Chrome/138.0.0.0 Safari/537.36","WebKit","Chrome","138.0.0.0","Windows","10.0","https://app.prolific.com/","en-US,en;q=0.9,zh-CN;q=0.8,zh;q=0.7","669149873799bbea50733fe0","6877649eabb845cf142cd221","68933848d496a7e4ee1e4bc7","1","669149873799bbea50733fe0","1","2025-08-06T11:18:20.019Z","","","","","","","","","","","","","","","","win-only","0","g1:NW,g2:SE","1","1","0","154331.7","1913.4","6919","30982.1","1","4","4","6","1","1","1","1","0","0.007575757575757576","1845.5","3000","1370","[""left"",""up""]","{""num_key_presses"":4,""num_perfect"":4,""num_errors"":0,""num_randdir"":0,""num_randdir_good_moves"":0,""num_whilered"":0,""num_whileblue"":0,""num_blue"":4,""num_good_moves"":4}","[416.5714133126395,407.82142761775424,0.5,416.5714133126395,407.82142761775424,102.4,416.5714133126395,407.82142761775424,208.2,416.5714133126395,407.82142761775424,313,416.5714133126395,407.82142761775424,413.5,416.5714133126395,407.82142761775424,517.6,466.5714133126395,454.07142761775424,618.8,847.8214133126395,697.8214276177542,731.8,861.5714133126395,734.0714276177542,833.5,661.5714133126395,629.0714276177542,947.8,156.5714133126395,244.07142761775424,1048,45.32141331263951,109.07142761775425,1153.4,36.57141331263951,51.57142761775425,1261.6,35.32141331263951,35.32142761775425,1363.2,36.57141331263951,37.82142761775425,1465,42.82141331263951,50.32142761775425,1568.3,59.07141331263951,66.57142761775425,1668.3,59.07141331263951,66.57142761775425,1769.4,59.07141331263951,66.57142761775425,1871,59.07141331263951,66.57142761775425,1972.8,59.07141331263951,66.57142761775425,2073.9,59.07141331263951,66.57142761775425,2178.6,59.07141331263951,66.57142761775425,2283.4,59.07141331263951,66.57142761775425,2387.7,59.07141331263951,66.57142761775425,2494.9,59.07141331263951,66.57142761775425,2597.6,59.07141331263951,66.57142761775425,2698.1,59.07141331263951,66.57142761775425,2798.1,59.07141331263951,66.57142761775425,2898.3,59.07141331263951,66.57142761775425,2998.7,59.07141331263951,66.57142761775425,3111.7,59.07141331263951,66.57142761775425,3212.4,59.07141331263951,66.57142761775425,3313.2,59.07141331263951,66.57142761775425,3413.2,59.07141331263951,66.57142761775425,3518.5,59.07141331263951,66.57142761775425,3627.9,59.07141331263951,66.57142761775425,3732.6,59.07141331263951,66.57142761775425,3838.3,59.07141331263951,66.57142761775425,3943.1,59.07141331263951,66.57142761775425,4043.4,59.07141331263951,66.57142761775425,4143.5,59.07141331263951,66.57142761775425,4243.7,59.07141331263951,66.57142761775425,4344.7,59.07141331263951,66.57142761775425,4447.9,59.07141331263951,66.57142761775425,4548.2,59.07141331263951,66.57142761775425,4652.8,59.07141331263951,66.57142761775425,4757.5,59.07141331263951,66.57142761775425,4859.4,59.07141331263951,66.57142761775425,4963.3]","[1535.5,1535.5,1000,0,535.5,""smooth"",""up"",""up"",""good_move"",11375.9,9839.4,2601.2,8347.3,427.4,""smooth"",""up"",""up"",""good_move"",17133.8,5757.4,2116.6,14535.4,481.8,""smooth"",""left"",""left"",""good_move"",23936.4,6801.8,2649.8,20817.7,468.9,""smooth"",""left"",""left"",""good_move""]"
"4333","","<div style=""width:500px;"">
  <p>What determined the result of this run?</p>
  </div>","97","html-slider-response","14","186586","0.0-7.0-1.0","185","1","2025-08-06 11:15:13","36c45c0696341be0efffe67d72a12abb","102.213.27.252","Mozilla/5.0 (Windows NT 10.0; Win64; x64) AppleWebKit/537.36 (KHTML, like Gecko) Chrome/138.0.0.0 Safari/537.36","WebKit","Chrome","138.0.0.0","Windows","10.0","https://app.prolific.com/","en-US,en;q=0.9,zh-CN;q=0.8,zh;q=0.7","669149873799bbea50733fe0","6877649eabb845cf142cd221","68933848d496a7e4ee1e4bc7","1","669149873799bbea50733fe0","1","2025-08-06T11:18:24.355Z","","","","AttribQ","","","","","","","","","","","50","","","","","","","","","","","","","","","","","","","","","","","","","","",""
"3493","","<div style=""width:500px;"">
  <p>How much control did you have over the ball?</p>
  </div>","93","html-slider-response","15","190081","0.0-7.0-2.0","185","1","2025-08-06 11:15:13","36c45c0696341be0efffe67d72a12abb","102.213.27.252","Mozilla/5.0 (Windows NT 10.0; Win64; x64) AppleWebKit/537.36 (KHTML, like Gecko) Chrome/138.0.0.0 Safari/537.36","WebKit","Chrome","138.0.0.0","Windows","10.0","https://app.prolific.com/","en-US,en;q=0.9,zh-CN;q=0.8,zh;q=0.7","669149873799bbea50733fe0","6877649eabb845cf142cd221","68933848d496a7e4ee1e4bc7","1","669149873799bbea50733fe0","1","2025-08-06T11:18:27.850Z","","","","ControlQ","","","","","","","","","","","50","","","","","","","","","","","","","","","","","","","","","","","","","","",""
"3108","","<div style=""width:500px;"">
  <p>How would you describe your current emotional state?</p>
  </div>","34","html-slider-response","16","193191","0.0-7.0-3.0","185","1","2025-08-06 11:15:13","36c45c0696341be0efffe67d72a12abb","102.213.27.252","Mozilla/5.0 (Windows NT 10.0; Win64; x64) AppleWebKit/537.36 (KHTML, like Gecko) Chrome/138.0.0.0 Safari/537.36","WebKit","Chrome","138.0.0.0","Windows","10.0","https://app.prolific.com/","en-US,en;q=0.9,zh-CN;q=0.8,zh;q=0.7","669149873799bbea50733fe0","6877649eabb845cf142cd221","68933848d496a7e4ee1e4bc7","1","669149873799bbea50733fe0","1","2025-08-06T11:18:30.960Z","","","","StressQ","","","","","","","","","","","50","","","","","","","","","","","","","","","","","","","","","","","","","","",""
"2739","","<div style=""width:500px;"">
  <p>What best describes how you currently feel?</p>
  </div>","70","html-slider-response","17","195933","0.0-7.0-4.0","185","1","2025-08-06 11:15:13","36c45c0696341be0efffe67d72a12abb","102.213.27.252","Mozilla/5.0 (Windows NT 10.0; Win64; x64) AppleWebKit/537.36 (KHTML, like Gecko) Chrome/138.0.0.0 Safari/537.36","WebKit","Chrome","138.0.0.0","Windows","10.0","https://app.prolific.com/","en-US,en;q=0.9,zh-CN;q=0.8,zh;q=0.7","669149873799bbea50733fe0","6877649eabb845cf142cd221","68933848d496a7e4ee1e4bc7","1","669149873799bbea50733fe0","1","2025-08-06T11:18:33.703Z","","","","MotivationQ","","","","","","","","","","","50","","","","","","","","","","","","","","","","","","","","","","","","","","",""
"","","","","ctl-task-cpt","18","214868","0.0-7.0-0.1","185","1","2025-08-06 11:15:13","36c45c0696341be0efffe67d72a12abb","102.213.27.252","Mozilla/5.0 (Windows NT 10.0; Win64; x64) AppleWebKit/537.36 (KHTML, like Gecko) Chrome/138.0.0.0 Safari/537.36","WebKit","Chrome","138.0.0.0","Windows","10.0","https://app.prolific.com/","en-US,en;q=0.9,zh-CN;q=0.8,zh;q=0.7","669149873799bbea50733fe0","6877649eabb845cf142cd221","68933848d496a7e4ee1e4bc7","1","669149873799bbea50733fe0","1","2025-08-06T11:18:52.637Z","","","","","","","","","","","","","","","","win-only","3","g1:SW,g2:NE","0.9","2","0","202005.9","1190.6","6192.7","15906.5","1","4","8","6","1","1","1","2","1","0.015151515151515152","1367.7","3000","1765","[""down"",""left""]","{""num_key_presses"":4,""num_perfect"":4,""num_errors"":0,""num_randdir"":0,""num_randdir_good_moves"":0,""num_whilered"":0,""num_whileblue"":0,""num_blue"":0,""num_good_moves"":4}","[429.0714133126395,416.57142761775424,0.7,429.0714133126395,416.57142761775424,105.3,429.0714133126395,416.57142761775424,206.4,429.0714133126395,416.57142761775424,322.6,429.0714133126395,416.57142761775424,425,429.0714133126395,416.57142761775424,525.6,429.0714133126395,416.57142761775424,626.9,340.3214133126395,595.3214276177542,731.7,191.5714133126395,740.3214276177542,833.9,99.0714133126395,805.3214276177542,936.3,64.0714133126395,811.5714276177542,1041.5,51.57141331263951,812.8214276177542,1155.3,51.57141331263951,812.8214276177542,1260.2,51.57141331263951,812.8214276177542,1367,51.57141331263951,812.8214276177542,1471,51.57141331263951,812.8214276177542,1571.2,51.57141331263951,812.8214276177542,1678.3,51.57141331263951,812.8214276177542,1783.4,51.57141331263951,812.8214276177542,1886.6,51.57141331263951,812.8214276177542,1988,51.57141331263951,812.8214276177542,2090.4,51.57141331263951,812.8214276177542,2190.6,51.57141331263951,812.8214276177542,2290.7,51.57141331263951,812.8214276177542,2390.7,51.57141331263951,812.8214276177542,2496.6,51.57141331263951,812.8214276177542,2600.2,51.57141331263951,812.8214276177542,2706.8,51.57141331263951,812.8214276177542,2823.8,51.57141331263951,812.8214276177542,2925.9,51.57141331263951,812.8214276177542,3031.5,51.57141331263951,812.8214276177542,3135.4,51.57141331263951,812.8214276177542,3236.3,51.57141331263951,812.8214276177542,3353.2,51.57141331263951,812.8214276177542,3454.3,51.57141331263951,812.8214276177542,3555.4,51.57141331263951,812.8214276177542,3655.8,51.57141331263951,812.8214276177542,3756.3,51.57141331263951,812.8214276177542,3861.3,51.57141331263951,812.8214276177542,3966,51.57141331263951,812.8214276177542,4070.8,51.57141331263951,812.8214276177542,4186.8,51.57141331263951,812.8214276177542,4288.2,51.57141331263951,812.8214276177542,4390.5,51.57141331263951,812.8214276177542,4490.5,51.57141331263951,812.8214276177542,4595.8,51.57141331263951,812.8214276177542,4699.9,51.57141331263951,812.8214276177542,4800.4,51.57141331263951,812.8214276177542,4900.7]","[1693.3,1693.3,1000,0,693.3,""smooth"",""down"",""down"",""good_move"",4336.1,2641.6,2146.9,1694.6,494.8,""smooth"",""down"",""down"",""good_move"",6934.1,2595,1895.3,4339.1,699.7,""smooth"",""left"",""left"",""good_move"",9546.5,2610.8,2136.3,6935.7,474.5,""smooth"",""left"",""left"",""good_move""]"
"3278","","<div style=""width:500px;"">
  <p>What determined the result of this run?</p>
  </div>","83","html-slider-response","19","218148","0.0-7.0-1.1","185","1","2025-08-06 11:15:13","36c45c0696341be0efffe67d72a12abb","102.213.27.252","Mozilla/5.0 (Windows NT 10.0; Win64; x64) AppleWebKit/537.36 (KHTML, like Gecko) Chrome/138.0.0.0 Safari/537.36","WebKit","Chrome","138.0.0.0","Windows","10.0","https://app.prolific.com/","en-US,en;q=0.9,zh-CN;q=0.8,zh;q=0.7","669149873799bbea50733fe0","6877649eabb845cf142cd221","68933848d496a7e4ee1e4bc7","1","669149873799bbea50733fe0","1","2025-08-06T11:18:55.917Z","","","","AttribQ","","","","","","","","","","","50","","","","","","","","","","","","","","","","","","","","","","","","","","",""
"3436","","<div style=""width:500px;"">
  <p>How much control did you have over the ball?</p>
  </div>","90","html-slider-response","20","221586","0.0-7.0-2.1","185","1","2025-08-06 11:15:13","36c45c0696341be0efffe67d72a12abb","102.213.27.252","Mozilla/5.0 (Windows NT 10.0; Win64; x64) AppleWebKit/537.36 (KHTML, like Gecko) Chrome/138.0.0.0 Safari/537.36","WebKit","Chrome","138.0.0.0","Windows","10.0","https://app.prolific.com/","en-US,en;q=0.9,zh-CN;q=0.8,zh;q=0.7","669149873799bbea50733fe0","6877649eabb845cf142cd221","68933848d496a7e4ee1e4bc7","1","669149873799bbea50733fe0","1","2025-08-06T11:18:59.355Z","","","","ControlQ","","","","","","","","","","","50","","","","","","","","","","","","","","","","","","","","","","","","","","",""
"3406","","<div style=""width:500px;"">
  <p>How would you describe your current emotional state?</p>
  </div>","21","html-slider-response","21","224994","0.0-7.0-3.1","185","1","2025-08-06 11:15:13","36c45c0696341be0efffe67d72a12abb","102.213.27.252","Mozilla/5.0 (Windows NT 10.0; Win64; x64) AppleWebKit/537.36 (KHTML, like Gecko) Chrome/138.0.0.0 Safari/537.36","WebKit","Chrome","138.0.0.0","Windows","10.0","https://app.prolific.com/","en-US,en;q=0.9,zh-CN;q=0.8,zh;q=0.7","669149873799bbea50733fe0","6877649eabb845cf142cd221","68933848d496a7e4ee1e4bc7","1","669149873799bbea50733fe0","1","2025-08-06T11:19:02.763Z","","","","StressQ","","","","","","","","","","","50","","","","","","","","","","","","","","","","","","","","","","","","","","",""
"2816","","<div style=""width:500px;"">
  <p>What best describes how you currently feel?</p>
  </div>","85","html-slider-response","22","227813","0.0-7.0-4.1","185","1","2025-08-06 11:15:13","36c45c0696341be0efffe67d72a12abb","102.213.27.252","Mozilla/5.0 (Windows NT 10.0; Win64; x64) AppleWebKit/537.36 (KHTML, like Gecko) Chrome/138.0.0.0 Safari/537.36","WebKit","Chrome","138.0.0.0","Windows","10.0","https://app.prolific.com/","en-US,en;q=0.9,zh-CN;q=0.8,zh;q=0.7","669149873799bbea50733fe0","6877649eabb845cf142cd221","68933848d496a7e4ee1e4bc7","1","669149873799bbea50733fe0","1","2025-08-06T11:19:05.582Z","","","","MotivationQ","","","","","","","","","","","50","","","","","","","","","","","","","","","","","","","","","","","","","","",""
"","","","","ctl-task-cpt","23","247735","0.0-7.0-0.2","185","1","2025-08-06 11:15:13","36c45c0696341be0efffe67d72a12abb","102.213.27.252","Mozilla/5.0 (Windows NT 10.0; Win64; x64) AppleWebKit/537.36 (KHTML, like Gecko) Chrome/138.0.0.0 Safari/537.36","WebKit","Chrome","138.0.0.0","Windows","10.0","https://app.prolific.com/","en-US,en;q=0.9,zh-CN;q=0.8,zh;q=0.7","669149873799bbea50733fe0","6877649eabb845cf142cd221","68933848d496a7e4ee1e4bc7","1","669149873799bbea50733fe0","1","2025-08-06T11:19:25.504Z","","","","","","","","","","","","","","","","win-only","2","g1:SE,g2:NW","0.8","3","0","233886.1","1337.9","6356.3","16916.1","1","4","8","6","1","1","1","3","2","0.022727272727272728","1666.6","3000","1755","[""down"",""right""]","{""num_key_presses"":4,""num_perfect"":4,""num_errors"":0,""num_randdir"":0,""num_randdir_good_moves"":0,""num_whilered"":0,""num_whileblue"":0,""num_blue"":0,""num_good_moves"":4}","[415.3214133126395,416.57142761775424,0.8,415.3214133126395,416.57142761775424,104.6,415.3214133126395,416.57142761775424,210.1,415.3214133126395,416.57142761775424,314.3,415.3214133126395,416.57142761775424,436.7,415.3214133126395,416.57142761775424,551.2,415.3214133126395,416.57142761775424,682.9,414.0714133126395,411.57142761775424,784.9,606.5714133126395,509.07142761775424,923.5,680.3214133126395,581.5714276177542,1026,706.5714133126395,636.5714276177542,1128.1,706.5714133126395,677.8214276177542,1244.7,720.3214133126395,721.5714276177542,1348.6,736.5714133126395,731.5714276177542,1450.7,737.8214133126395,731.5714276177542,1573,737.8214133126395,731.5714276177542,1679,737.8214133126395,731.5714276177542,1780.1,737.8214133126395,731.5714276177542,1888.7,737.8214133126395,731.5714276177542,1988.9,737.8214133126395,731.5714276177542,2110.5,737.8214133126395,731.5714276177542,2215.3,737.8214133126395,731.5714276177542,2342.2,737.8214133126395,731.5714276177542,2470.3,737.8214133126395,731.5714276177542,2574.1,737.8214133126395,731.5714276177542,2697.5,737.8214133126395,731.5714276177542,2799.4,737.8214133126395,731.5714276177542,2911,737.8214133126395,731.5714276177542,3015,737.8214133126395,731.5714276177542,3116.8,737.8214133126395,731.5714276177542,3219.8,737.8214133126395,731.5714276177542,3348.5,737.8214133126395,731.5714276177542,3449.2,737.8214133126395,731.5714276177542,3577.3,737.8214133126395,731.5714276177542,3679.4,737.8214133126395,731.5714276177542,3804.3,737.8214133126395,731.5714276177542,3904.7,737.8214133126395,731.5714276177542,4019.1,737.8214133126395,731.5714276177542,4135.9,737.8214133126395,731.5714276177542,4246.7,737.8214133126395,731.5714276177542,4351.1,737.8214133126395,731.5714276177542,4471.6,737.8214133126395,731.5714276177542,4595.4,737.8214133126395,731.5714276177542,4700.5,737.8214133126395,731.5714276177542,4804.7,737.8214133126395,731.5714276177542,4908]","[1969.3,1969.3,1000,0.1,969.2,""smooth"",""right"",""right"",""good_move"",4540.6,2570.3,2169.1,1970.3,401.3,""smooth"",""right"",""right"",""good_move"",7224.4,2682.8,2262.1,4541.7,420.6,""smooth"",""down"",""down"",""good_move"",10421.4,3194.4,2729.8,7227,464.6,""smooth"",""down"",""down"",""good_move""]"
"4371","","<div style=""width:500px;"">
  <p>What determined the result of this run?</p>
  </div>","23","html-slider-response","24","252108","0.0-7.0-1.2","185","1","2025-08-06 11:15:13","36c45c0696341be0efffe67d72a12abb","102.213.27.252","Mozilla/5.0 (Windows NT 10.0; Win64; x64) AppleWebKit/537.36 (KHTML, like Gecko) Chrome/138.0.0.0 Safari/537.36","WebKit","Chrome","138.0.0.0","Windows","10.0","https://app.prolific.com/","en-US,en;q=0.9,zh-CN;q=0.8,zh;q=0.7","669149873799bbea50733fe0","6877649eabb845cf142cd221","68933848d496a7e4ee1e4bc7","1","669149873799bbea50733fe0","1","2025-08-06T11:19:29.877Z","","","","AttribQ","","","","","","","","","","","50","","","","","","","","","","","","","","","","","","","","","","","","","","",""
"5037","","<div style=""width:500px;"">
  <p>How much control did you have over the ball?</p>
  </div>","99","html-slider-response","25","257147","0.0-7.0-2.2","185","1","2025-08-06 11:15:13","36c45c0696341be0efffe67d72a12abb","102.213.27.252","Mozilla/5.0 (Windows NT 10.0; Win64; x64) AppleWebKit/537.36 (KHTML, like Gecko) Chrome/138.0.0.0 Safari/537.36","WebKit","Chrome","138.0.0.0","Windows","10.0","https://app.prolific.com/","en-US,en;q=0.9,zh-CN;q=0.8,zh;q=0.7","669149873799bbea50733fe0","6877649eabb845cf142cd221","68933848d496a7e4ee1e4bc7","1","669149873799bbea50733fe0","1","2025-08-06T11:19:34.917Z","","","","ControlQ","","","","","","","","","","","50","","","","","","","","","","","","","","","","","","","","","","","","","","",""
"5796","","<div style=""width:500px;"">
  <p>How would you describe your current emotional state?</p>
  </div>","15","html-slider-response","26","262947","0.0-7.0-3.2","185","1","2025-08-06 11:15:13","36c45c0696341be0efffe67d72a12abb","102.213.27.252","Mozilla/5.0 (Windows NT 10.0; Win64; x64) AppleWebKit/537.36 (KHTML, like Gecko) Chrome/138.0.0.0 Safari/537.36","WebKit","Chrome","138.0.0.0","Windows","10.0","https://app.prolific.com/","en-US,en;q=0.9,zh-CN;q=0.8,zh;q=0.7","669149873799bbea50733fe0","6877649eabb845cf142cd221","68933848d496a7e4ee1e4bc7","1","669149873799bbea50733fe0","1","2025-08-06T11:19:40.717Z","","","","StressQ","","","","","","","","","","","50","","","","","","","","","","","","","","","","","","","","","","","","","","",""
"5036","","<div style=""width:500px;"">
  <p>What best describes how you currently feel?</p>
  </div>","79","html-slider-response","27","267990","0.0-7.0-4.2","185","1","2025-08-06 11:15:13","36c45c0696341be0efffe67d72a12abb","102.213.27.252","Mozilla/5.0 (Windows NT 10.0; Win64; x64) AppleWebKit/537.36 (KHTML, like Gecko) Chrome/138.0.0.0 Safari/537.36","WebKit","Chrome","138.0.0.0","Windows","10.0","https://app.prolific.com/","en-US,en;q=0.9,zh-CN;q=0.8,zh;q=0.7","669149873799bbea50733fe0","6877649eabb845cf142cd221","68933848d496a7e4ee1e4bc7","1","669149873799bbea50733fe0","1","2025-08-06T11:19:45.760Z","","","","MotivationQ","","","","","","","","","","","50","","","","","","","","","","","","","","","","","","","","","","","","","","",""
"","","","","ctl-task-cpt","28","303967","0.0-7.0-0.3","185","1","2025-08-06 11:15:13","36c45c0696341be0efffe67d72a12abb","102.213.27.252","Mozilla/5.0 (Windows NT 10.0; Win64; x64) AppleWebKit/537.36 (KHTML, like Gecko) Chrome/138.0.0.0 Safari/537.36","WebKit","Chrome","138.0.0.0","Windows","10.0","https://app.prolific.com/","en-US,en;q=0.9,zh-CN;q=0.8,zh;q=0.7","669149873799bbea50733fe0","6877649eabb845cf142cd221","68933848d496a7e4ee1e4bc7","1","669149873799bbea50733fe0","1","2025-08-06T11:20:21.736Z","","","","","","","","","","","","","","","","win-only","3","g1:SW,g2:NE","0.7","4","0","274065.1","2804","7808.9","32946.6","1","4","4","6","2","4","4","7","3","0.05303030303030303","2044","3000","1460","[""up"",""right""]","{""num_key_presses"":6,""num_perfect"":5,""num_errors"":0,""num_randdir"":1,""num_randdir_good_moves"":1,""num_whilered"":0,""num_whileblue"":0,""num_blue"":2,""num_good_moves"":6}","[416.5714133126395,424.07142761775424,1.1,416.5714133126395,424.07142761775424,123.4,416.5714133126395,424.07142761775424,254.6,416.5714133126395,424.07142761775424,357.1,416.5714133126395,424.07142761775424,477.1,416.5714133126395,424.07142761775424,595.1,416.5714133126395,424.07142761775424,696.3,416.5714133126395,424.07142761775424,797.1,416.5714133126395,424.07142761775424,897.3,520.3214133126395,369.07142761775424,997.9,686.5714133126395,219.07142761775424,1109.8,726.5714133126395,121.57142761775425,1216.2,734.0714133126395,94.07142761775425,1318.3,736.5714133126395,85.32142761775425,1453.6,736.5714133126395,85.32142761775425,1563.2,736.5714133126395,85.32142761775425,1671.2,736.5714133126395,85.32142761775425,1807.8,736.5714133126395,85.32142761775425,1907.8,736.5714133126395,85.32142761775425,2014.7,736.5714133126395,85.32142761775425,2142.3,736.5714133126395,85.32142761775425,2244.6,736.5714133126395,85.32142761775425,2346,736.5714133126395,85.32142761775425,2446.6,736.5714133126395,85.32142761775425,2558.2,736.5714133126395,85.32142761775425,2659,736.5714133126395,85.32142761775425,2774.8,736.5714133126395,85.32142761775425,2877.2,736.5714133126395,85.32142761775425,2977.9,736.5714133126395,85.32142761775425,3097.6,736.5714133126395,85.32142761775425,3208.9,736.5714133126395,85.32142761775425,3311.8,736.5714133126395,85.32142761775425,3419.4,736.5714133126395,85.32142761775425,3546.1,736.5714133126395,85.32142761775425,3655.1,736.5714133126395,85.32142761775425,3757.5,736.5714133126395,85.32142761775425,3862.6,736.5714133126395,85.32142761775425,3989.1,736.5714133126395,85.32142761775425,4091.8,736.5714133126395,85.32142761775425,4202.1,736.5714133126395,85.32142761775425,4321.2,736.5714133126395,85.32142761775425,4434.5,736.5714133126395,85.32142761775425,4537.9,736.5714133126395,85.32142761775425,4651.4,736.5714133126395,85.32142761775425,4757.4,736.5714133126395,85.32142761775425,4879.5,736.5714133126395,85.32142761775425,4992.3]","[1576.8,1576.8,1000,0,576.8,""smooth"",""up"",""up"",""good_move"",4350.1,2772.4,2223.6,1577.7,548.8,""smooth"",""up"",""up"",""good_move"",15632.1,11281.1,3234.2,11810.9,587,""smooth"",""up"",""up"",""good_move"",19099.4,3466.8,2985.1,15632.7,481.7,""smooth"",""right"",""right"",""good_move"",21686.2,2585.4,2027.7,19100.8,557.7,""oops"",""right"",""right"",""good_move"",24955.4,3267.9,2832.8,21687.5,435.1,""smooth"",""right"",""right"",""good_move""]"
"6039","","<div style=""width:500px;"">
  <p>What determined the result of this run?</p>
  </div>","66","html-slider-response","29","310009","0.0-7.0-1.3","185","1","2025-08-06 11:15:13","36c45c0696341be0efffe67d72a12abb","102.213.27.252","Mozilla/5.0 (Windows NT 10.0; Win64; x64) AppleWebKit/537.36 (KHTML, like Gecko) Chrome/138.0.0.0 Safari/537.36","WebKit","Chrome","138.0.0.0","Windows","10.0","https://app.prolific.com/","en-US,en;q=0.9,zh-CN;q=0.8,zh;q=0.7","669149873799bbea50733fe0","6877649eabb845cf142cd221","68933848d496a7e4ee1e4bc7","1","669149873799bbea50733fe0","1","2025-08-06T11:20:27.778Z","","","","AttribQ","","","","","","","","","","","50","","","","","","","","","","","","","","","","","","","","","","","","","","",""
"6238","","<div style=""width:500px;"">
  <p>How much control did you have over the ball?</p>
  </div>","88","html-slider-response","30","316249","0.0-7.0-2.3","185","1","2025-08-06 11:15:13","36c45c0696341be0efffe67d72a12abb","102.213.27.252","Mozilla/5.0 (Windows NT 10.0; Win64; x64) AppleWebKit/537.36 (KHTML, like Gecko) Chrome/138.0.0.0 Safari/537.36","WebKit","Chrome","138.0.0.0","Windows","10.0","https://app.prolific.com/","en-US,en;q=0.9,zh-CN;q=0.8,zh;q=0.7","669149873799bbea50733fe0","6877649eabb845cf142cd221","68933848d496a7e4ee1e4bc7","1","669149873799bbea50733fe0","1","2025-08-06T11:20:34.018Z","","","","ControlQ","","","","","","","","","","","50","","","","","","","","","","","","","","","","","","","","","","","","","","",""
"5143","","<div style=""width:500px;"">
  <p>How would you describe your current emotional state?</p>
  </div>","22","html-slider-response","31","321394","0.0-7.0-3.3","185","1","2025-08-06 11:15:13","36c45c0696341be0efffe67d72a12abb","102.213.27.252","Mozilla/5.0 (Windows NT 10.0; Win64; x64) AppleWebKit/537.36 (KHTML, like Gecko) Chrome/138.0.0.0 Safari/537.36","WebKit","Chrome","138.0.0.0","Windows","10.0","https://app.prolific.com/","en-US,en;q=0.9,zh-CN;q=0.8,zh;q=0.7","669149873799bbea50733fe0","6877649eabb845cf142cd221","68933848d496a7e4ee1e4bc7","1","669149873799bbea50733fe0","1","2025-08-06T11:20:39.163Z","","","","StressQ","","","","","","","","","","","50","","","","","","","","","","","","","","","","","","","","","","","","","","",""
"5942","","<div style=""width:500px;"">
  <p>What best describes how you currently feel?</p>
  </div>","85","html-slider-response","32","327339","0.0-7.0-4.3","185","1","2025-08-06 11:15:13","36c45c0696341be0efffe67d72a12abb","102.213.27.252","Mozilla/5.0 (Windows NT 10.0; Win64; x64) AppleWebKit/537.36 (KHTML, like Gecko) Chrome/138.0.0.0 Safari/537.36","WebKit","Chrome","138.0.0.0","Windows","10.0","https://app.prolific.com/","en-US,en;q=0.9,zh-CN;q=0.8,zh;q=0.7","669149873799bbea50733fe0","6877649eabb845cf142cd221","68933848d496a7e4ee1e4bc7","1","669149873799bbea50733fe0","1","2025-08-06T11:20:45.108Z","","","","MotivationQ","","","","","","","","","","","50","","","","","","","","","","","","","","","","","","","","","","","","","","",""
"","","","","ctl-task-cpt","33","372121","0.0-7.0-0.4","185","1","2025-08-06 11:15:13","36c45c0696341be0efffe67d72a12abb","102.213.27.252","Mozilla/5.0 (Windows NT 10.0; Win64; x64) AppleWebKit/537.36 (KHTML, like Gecko) Chrome/138.0.0.0 Safari/537.36","WebKit","Chrome","138.0.0.0","Windows","10.0","https://app.prolific.com/","en-US,en;q=0.9,zh-CN;q=0.8,zh;q=0.7","669149873799bbea50733fe0","6877649eabb845cf142cd221","68933848d496a7e4ee1e4bc7","1","669149873799bbea50733fe0","1","2025-08-06T11:21:29.891Z","","","","","","","","","","","","","","","","win-only","3","g1:SW,g2:NE","0.6","5","0","333415.4","9688.6","14695.2","41739.5","1","4","4","6","1","1","1","8","7","0.06060606060606061","1607.5","3000","1505","[""down"",""left""]","{""num_key_presses"":8,""num_perfect"":4,""num_errors"":0,""num_randdir"":4,""num_randdir_good_moves"":2,""num_whilered"":0,""num_whileblue"":0,""num_blue"":1,""num_good_moves"":6}","[419.0714133126395,411.57142761775424,0.8,419.0714133126395,411.57142761775424,103.2,419.0714133126395,411.57142761775424,238.6,419.0714133126395,411.57142761775424,342.8,419.0714133126395,411.57142761775424,464.1,419.0714133126395,411.57142761775424,569.1,419.0714133126395,411.57142761775424,670.4,311.5714133126395,545.3214276177542,773.2,201.5714133126395,717.8214276177542,875,190.3214133126395,736.5714276177542,975.6,181.5714133126395,741.5714276177542,1080.9,101.5714133126395,791.5714276177542,1181.1,59.07141331263951,815.3214276177542,1283.8,59.07141331263951,815.3214276177542,1395.2,59.07141331263951,815.3214276177542,1497.5,59.07141331263951,815.3214276177542,1612,59.07141331263951,815.3214276177542,1713.6,59.07141331263951,815.3214276177542,1813.9,59.07141331263951,815.3214276177542,1922.4,59.07141331263951,815.3214276177542,2023.3,59.07141331263951,815.3214276177542,2144.1,59.07141331263951,815.3214276177542,2269.9,59.07141331263951,815.3214276177542,2377.1,59.07141331263951,815.3214276177542,2484.4,59.07141331263951,815.3214276177542,2588.2,59.07141331263951,815.3214276177542,2689.7,59.07141331263951,815.3214276177542,2793.2,59.07141331263951,815.3214276177542,2893.7,59.07141331263951,815.3214276177542,3002.3,59.07141331263951,815.3214276177542,3129.1,59.07141331263951,815.3214276177542,3236.1,59.07141331263951,815.3214276177542,3356,59.07141331263951,815.3214276177542,3484.4,59.07141331263951,815.3214276177542,3610.8,59.07141331263951,815.3214276177542,3711.7,59.07141331263951,815.3214276177542,3812.8,59.07141331263951,815.3214276177542,3935.7,59.07141331263951,815.3214276177542,4074.4,59.07141331263951,815.3214276177542,4195.2,59.07141331263951,815.3214276177542,4304.4,59.07141331263951,815.3214276177542,4413.5,59.07141331263951,815.3214276177542,4514.7,59.07141331263951,815.3214276177542,4618,59.07141331263951,815.3214276177542,4736.1,59.07141331263951,815.3214276177542,4874.3,59.07141331263951,815.3214276177542,4994.1]","[4910.7,4910.7,2445.4,2031.7,433.6,""oops"",""left"",""left"",""good_move"",7548.4,2634,1574,4914.4,1060,""smooth"",""left"",""left"",""good_move"",10382.4,2832.4,2372.5,7550.1,460,""smooth"",""down"",""down"",""good_move"",12973.1,2589.3,2171.9,10383.8,417.4,""oops"",""down"",""up"",""bad_move"",16824.4,3850.1,3411.2,12974.3,438.9,""oops"",""down"",""up"",""bad_move"",20266.6,3441.2,2969.7,16825.4,471.5,""smooth"",""down"",""down"",""good_move"",23452.5,3185,2687.1,20267.5,497.9,""oops"",""down"",""down"",""good_move"",26832.1,3378.3,2928.1,23453.9,450.1,""smooth"",""down"",""down"",""good_move""]"
"4342","","<div style=""width:500px;"">
  <p>What determined the result of this run?</p>
  </div>","81","html-slider-response","34","376466","0.0-7.0-1.4","185","1","2025-08-06 11:15:13","36c45c0696341be0efffe67d72a12abb","102.213.27.252","Mozilla/5.0 (Windows NT 10.0; Win64; x64) AppleWebKit/537.36 (KHTML, like Gecko) Chrome/138.0.0.0 Safari/537.36","WebKit","Chrome","138.0.0.0","Windows","10.0","https://app.prolific.com/","en-US,en;q=0.9,zh-CN;q=0.8,zh;q=0.7","669149873799bbea50733fe0","6877649eabb845cf142cd221","68933848d496a7e4ee1e4bc7","1","669149873799bbea50733fe0","1","2025-08-06T11:21:34.236Z","","","","AttribQ","","","","","","","","","","","50","","","","","","","","","","","","","","","","","","","","","","","","","","",""
"5521","","<div style=""width:500px;"">
  <p>How much control did you have over the ball?</p>
  </div>","88","html-slider-response","35","381989","0.0-7.0-2.4","185","1","2025-08-06 11:15:13","36c45c0696341be0efffe67d72a12abb","102.213.27.252","Mozilla/5.0 (Windows NT 10.0; Win64; x64) AppleWebKit/537.36 (KHTML, like Gecko) Chrome/138.0.0.0 Safari/537.36","WebKit","Chrome","138.0.0.0","Windows","10.0","https://app.prolific.com/","en-US,en;q=0.9,zh-CN;q=0.8,zh;q=0.7","669149873799bbea50733fe0","6877649eabb845cf142cd221","68933848d496a7e4ee1e4bc7","1","669149873799bbea50733fe0","1","2025-08-06T11:21:39.759Z","","","","ControlQ","","","","","","","","","","","50","","","","","","","","","","","","","","","","","","","","","","","","","","",""
"5537","","<div style=""width:500px;"">
  <p>How would you describe your current emotional state?</p>
  </div>","17","html-slider-response","36","387528","0.0-7.0-3.4","185","1","2025-08-06 11:15:13","36c45c0696341be0efffe67d72a12abb","102.213.27.252","Mozilla/5.0 (Windows NT 10.0; Win64; x64) AppleWebKit/537.36 (KHTML, like Gecko) Chrome/138.0.0.0 Safari/537.36","WebKit","Chrome","138.0.0.0","Windows","10.0","https://app.prolific.com/","en-US,en;q=0.9,zh-CN;q=0.8,zh;q=0.7","669149873799bbea50733fe0","6877649eabb845cf142cd221","68933848d496a7e4ee1e4bc7","1","669149873799bbea50733fe0","1","2025-08-06T11:21:45.297Z","","","","StressQ","","","","","","","","","","","50","","","","","","","","","","","","","","","","","","","","","","","","","","",""
"5846","","<div style=""width:500px;"">
  <p>What best describes how you currently feel?</p>
  </div>","78","html-slider-response","37","393376","0.0-7.0-4.4","185","1","2025-08-06 11:15:13","36c45c0696341be0efffe67d72a12abb","102.213.27.252","Mozilla/5.0 (Windows NT 10.0; Win64; x64) AppleWebKit/537.36 (KHTML, like Gecko) Chrome/138.0.0.0 Safari/537.36","WebKit","Chrome","138.0.0.0","Windows","10.0","https://app.prolific.com/","en-US,en;q=0.9,zh-CN;q=0.8,zh;q=0.7","669149873799bbea50733fe0","6877649eabb845cf142cd221","68933848d496a7e4ee1e4bc7","1","669149873799bbea50733fe0","1","2025-08-06T11:21:51.145Z","","","","MotivationQ","","","","","","","","","","","50","","","","","","","","","","","","","","","","","","","","","","","","","","",""
"","","","","ctl-task-cpt","38","434046","0.0-7.0-0.5","185","1","2025-08-06 11:15:13","36c45c0696341be0efffe67d72a12abb","102.213.27.252","Mozilla/5.0 (Windows NT 10.0; Win64; x64) AppleWebKit/537.36 (KHTML, like Gecko) Chrome/138.0.0.0 Safari/537.36","WebKit","Chrome","138.0.0.0","Windows","10.0","https://app.prolific.com/","en-US,en;q=0.9,zh-CN;q=0.8,zh;q=0.7","669149873799bbea50733fe0","6877649eabb845cf142cd221","68933848d496a7e4ee1e4bc7","1","669149873799bbea50733fe0","1","2025-08-06T11:22:31.815Z","","","","","","","","","","","","","","","","win-only","3","g1:SW,g2:NE","0.5","6","0","399449.7","17774.8","22786.9","37629.9","1","4","8","6","1","1","1","9","8","0.06818181818181818","1560.3","3000","2040","[""down"",""left""]","{""num_key_presses"":4,""num_perfect"":2,""num_errors"":0,""num_randdir"":2,""num_randdir_good_moves"":2,""num_whilered"":0,""num_whileblue"":0,""num_blue"":1,""num_good_moves"":4}","[414.0714133126395,421.57142761775424,1,414.0714133126395,421.57142761775424,125.1,414.0714133126395,421.57142761775424,249.9,414.0714133126395,421.57142761775424,376.9,414.0714133126395,421.57142761775424,485.6,414.0714133126395,421.57142761775424,586.7,471.5714133126395,369.07142761775424,706.8,355.3214133126395,485.32142761775424,811.7,269.0714133126395,634.0714276177542,916.1,176.5714133126395,726.5714276177542,1016.2,152.8214133126395,730.3214276177542,1117.4,107.8214133126395,735.3214276177542,1238.7,89.0714133126395,749.0714276177542,1348.9,89.0714133126395,749.0714276177542,1449.5,89.0714133126395,749.0714276177542,1568.7,89.0714133126395,749.0714276177542,1692.8,89.0714133126395,749.0714276177542,1816.1,89.0714133126395,749.0714276177542,1934,89.0714133126395,749.0714276177542,2036,89.0714133126395,749.0714276177542,2137,89.0714133126395,749.0714276177542,2286.3,89.0714133126395,749.0714276177542,2391.9,89.0714133126395,749.0714276177542,2499.6,89.0714133126395,749.0714276177542,2601.3,89.0714133126395,749.0714276177542,2706.1,89.0714133126395,749.0714276177542,2822.1,89.0714133126395,749.0714276177542,2935.8,89.0714133126395,749.0714276177542,3036,89.0714133126395,749.0714276177542,3161.4,89.0714133126395,749.0714276177542,3267.8,89.0714133126395,749.0714276177542,3402.5,89.0714133126395,749.0714276177542,3551.7,89.0714133126395,749.0714276177542,3677.9,89.0714133126395,749.0714276177542,3780.9,89.0714133126395,749.0714276177542,3901.3,89.0714133126395,749.0714276177542,4023,89.0714133126395,749.0714276177542,4126,89.0714133126395,749.0714276177542,4226.5,89.0714133126395,749.0714276177542,4331.4,89.0714133126395,749.0714276177542,4432.1,89.0714133126395,749.0714276177542,4549.7,89.0714133126395,749.0714276177542,4665.4,89.0714133126395,749.0714276177542,4774.8,89.0714133126395,749.0714276177542,4879.1,89.0714133126395,749.0714276177542,4982.6]","[1982,1982,1000,0,982,""oops"",""left"",""left"",""good_move"",5602,3618.8,3099.6,1983.2,519.2,""smooth"",""left"",""left"",""good_move"",8413.7,2810.6,1744.4,5603.3,1066,""smooth"",""down"",""down"",""good_move"",14623.2,6206.7,2693.8,11374.9,554.5,""oops"",""down"",""down"",""good_move""]"
"5349","","<div style=""width:500px;"">
  <p>What determined the result of this run?</p>
  </div>","18","html-slider-response","39","439398","0.0-7.0-1.5","185","1","2025-08-06 11:15:13","36c45c0696341be0efffe67d72a12abb","102.213.27.252","Mozilla/5.0 (Windows NT 10.0; Win64; x64) AppleWebKit/537.36 (KHTML, like Gecko) Chrome/138.0.0.0 Safari/537.36","WebKit","Chrome","138.0.0.0","Windows","10.0","https://app.prolific.com/","en-US,en;q=0.9,zh-CN;q=0.8,zh;q=0.7","669149873799bbea50733fe0","6877649eabb845cf142cd221","68933848d496a7e4ee1e4bc7","1","669149873799bbea50733fe0","1","2025-08-06T11:22:37.167Z","","","","AttribQ","","","","","","","","","","","50","","","","","","","","","","","","","","","","","","","","","","","","","","",""
"6012","","<div style=""width:500px;"">
  <p>How much control did you have over the ball?</p>
  </div>","85","html-slider-response","40","445412","0.0-7.0-2.5","185","1","2025-08-06 11:15:13","36c45c0696341be0efffe67d72a12abb","102.213.27.252","Mozilla/5.0 (Windows NT 10.0; Win64; x64) AppleWebKit/537.36 (KHTML, like Gecko) Chrome/138.0.0.0 Safari/537.36","WebKit","Chrome","138.0.0.0","Windows","10.0","https://app.prolific.com/","en-US,en;q=0.9,zh-CN;q=0.8,zh;q=0.7","669149873799bbea50733fe0","6877649eabb845cf142cd221","68933848d496a7e4ee1e4bc7","1","669149873799bbea50733fe0","1","2025-08-06T11:22:43.181Z","","","","ControlQ","","","","","","","","","","","50","","","","","","","","","","","","","","","","","","","","","","","","","","",""
"8066","","<div style=""width:500px;"">
  <p>How would you describe your current emotional state?</p>
  </div>","13","html-slider-response","41","453480","0.0-7.0-3.5","185","1","2025-08-06 11:15:13","36c45c0696341be0efffe67d72a12abb","102.213.27.252","Mozilla/5.0 (Windows NT 10.0; Win64; x64) AppleWebKit/537.36 (KHTML, like Gecko) Chrome/138.0.0.0 Safari/537.36","WebKit","Chrome","138.0.0.0","Windows","10.0","https://app.prolific.com/","en-US,en;q=0.9,zh-CN;q=0.8,zh;q=0.7","669149873799bbea50733fe0","6877649eabb845cf142cd221","68933848d496a7e4ee1e4bc7","1","669149873799bbea50733fe0","1","2025-08-06T11:22:51.249Z","","","","StressQ","","","","","","","","","","","50","","","","","","","","","","","","","","","","","","","","","","","","","","",""
"5791","","<div style=""width:500px;"">
  <p>What best describes how you currently feel?</p>
  </div>","86","html-slider-response","42","459275","0.0-7.0-4.5","185","1","2025-08-06 11:15:13","36c45c0696341be0efffe67d72a12abb","102.213.27.252","Mozilla/5.0 (Windows NT 10.0; Win64; x64) AppleWebKit/537.36 (KHTML, like Gecko) Chrome/138.0.0.0 Safari/537.36","WebKit","Chrome","138.0.0.0","Windows","10.0","https://app.prolific.com/","en-US,en;q=0.9,zh-CN;q=0.8,zh;q=0.7","669149873799bbea50733fe0","6877649eabb845cf142cd221","68933848d496a7e4ee1e4bc7","1","669149873799bbea50733fe0","1","2025-08-06T11:22:57.044Z","","","","MotivationQ","","","","","","","","","","","50","","","","","","","","","","","","","","","","","","","","","","","","","","",""
"","","","","ctl-task-cpt","43","511767","0.0-7.0-0.6","185","1","2025-08-06 11:15:13","36c45c0696341be0efffe67d72a12abb","102.213.27.252","Mozilla/5.0 (Windows NT 10.0; Win64; x64) AppleWebKit/537.36 (KHTML, like Gecko) Chrome/138.0.0.0 Safari/537.36","WebKit","Chrome","138.0.0.0","Windows","10.0","https://app.prolific.com/","en-US,en;q=0.9,zh-CN;q=0.8,zh;q=0.7","669149873799bbea50733fe0","6877649eabb845cf142cd221","68933848d496a7e4ee1e4bc7","1","669149873799bbea50733fe0","1","2025-08-06T11:23:49.537Z","","","","","","","","","","","","","","","","win-only","1","g1:NE,g2:SW","0.4","7","0","465351","18169","23176.7","49440.1","1","4","4","6","1","1","1","10","9","0.07575757575757576","2003.9","3000","2080","[""up"",""right""]","{""num_key_presses"":6,""num_perfect"":3,""num_errors"":0,""num_randdir"":3,""num_randdir_good_moves"":2,""num_whilered"":0,""num_whileblue"":0,""num_blue"":2,""num_good_moves"":5}","[416.071420942034,421.82142857142856,1,416.071420942034,421.82142857142856,158.6,416.071420942034,421.82142857142856,291.4,416.071420942034,421.82142857142856,395.2,416.071420942034,421.82142857142856,516.1,416.071420942034,421.82142857142856,630.2,416.071420942034,421.82142857142856,734.7,416.071420942034,421.82142857142856,838.5,451.071420942034,396.82142857142856,940.5,723.571420942034,151.82142857142856,1050.6,761.071420942034,86.82142857142857,1155.1,778.571420942034,6.821428571428569,1264.6,778.571420942034,1.8214285714285694,1365.2,778.571420942034,1.8214285714285694,1476.3,778.571420942034,1.8214285714285694,1577.8,769.821420942034,29.32142857142857,1680.4,766.071420942034,41.82142857142857,1792.3,766.071420942034,41.82142857142857,1899.9,766.071420942034,41.82142857142857,2013.3,766.071420942034,41.82142857142857,2153.2,766.071420942034,41.82142857142857,2254,766.071420942034,41.82142857142857,2359,766.071420942034,41.82142857142857,2501.5,766.071420942034,41.82142857142857,2602.1,766.071420942034,41.82142857142857,2706.8,766.071420942034,41.82142857142857,2987.2,766.071420942034,41.82142857142857,3094.7,766.071420942034,41.82142857142857,3200.3,766.071420942034,41.82142857142857,3308.1,766.071420942034,41.82142857142857,3414.8,766.071420942034,41.82142857142857,3542.4,766.071420942034,41.82142857142857,3649.9,766.071420942034,41.82142857142857,3810.4,766.071420942034,41.82142857142857,3922.8,766.071420942034,41.82142857142857,4043.9,766.071420942034,41.82142857142857,4208,766.071420942034,41.82142857142857,4322.9,766.071420942034,41.82142857142857,4447.9,766.071420942034,41.82142857142857,4548.3,766.071420942034,41.82142857142857,4650.6,766.071420942034,41.82142857142857,4764.2,766.071420942034,41.82142857142857,4899.4]","[8945.3,8945.3,2538.5,5827.9,579,""smooth"",""up"",""up"",""good_move"",12473.5,3526.9,2576,8946.6,950.9,""smooth"",""up"",""up"",""good_move"",15891.4,3416.8,2851,12474.8,565.6,""oops"",""right"",""left"",""bad_move"",19584.1,3688.8,2453.6,15895.3,1235.2,""oops"",""right"",""right"",""good_move"",22973,3385.8,2640.1,19587.2,745.7,""smooth"",""right"",""right"",""good_move"",25939.2,2963.2,2450.4,22976.3,512.8,""oops"",""right"",""right"",""good_move""]"
"4631","","<div style=""width:500px;"">
  <p>What determined the result of this run?</p>
  </div>","98","html-slider-response","44","516401","0.0-7.0-1.6","185","1","2025-08-06 11:15:13","36c45c0696341be0efffe67d72a12abb","102.213.27.252","Mozilla/5.0 (Windows NT 10.0; Win64; x64) AppleWebKit/537.36 (KHTML, like Gecko) Chrome/138.0.0.0 Safari/537.36","WebKit","Chrome","138.0.0.0","Windows","10.0","https://app.prolific.com/","en-US,en;q=0.9,zh-CN;q=0.8,zh;q=0.7","669149873799bbea50733fe0","6877649eabb845cf142cd221","68933848d496a7e4ee1e4bc7","1","669149873799bbea50733fe0","1","2025-08-06T11:23:54.170Z","","","","AttribQ","","","","","","","","","","","50","","","","","","","","","","","","","","","","","","","","","","","","","","",""
"5911","","<div style=""width:500px;"">
  <p>How much control did you have over the ball?</p>
  </div>","62","html-slider-response","45","522314","0.0-7.0-2.6","185","1","2025-08-06 11:15:13","36c45c0696341be0efffe67d72a12abb","102.213.27.252","Mozilla/5.0 (Windows NT 10.0; Win64; x64) AppleWebKit/537.36 (KHTML, like Gecko) Chrome/138.0.0.0 Safari/537.36","WebKit","Chrome","138.0.0.0","Windows","10.0","https://app.prolific.com/","en-US,en;q=0.9,zh-CN;q=0.8,zh;q=0.7","669149873799bbea50733fe0","6877649eabb845cf142cd221","68933848d496a7e4ee1e4bc7","1","669149873799bbea50733fe0","1","2025-08-06T11:24:00.084Z","","","","ControlQ","","","","","","","","","","","50","","","","","","","","","","","","","","","","","","","","","","","","","","",""
"6759","","<div style=""width:500px;"">
  <p>How would you describe your current emotional state?</p>
  </div>","24","html-slider-response","46","529079","0.0-7.0-3.6","185","1","2025-08-06 11:15:13","36c45c0696341be0efffe67d72a12abb","102.213.27.252","Mozilla/5.0 (Windows NT 10.0; Win64; x64) AppleWebKit/537.36 (KHTML, like Gecko) Chrome/138.0.0.0 Safari/537.36","WebKit","Chrome","138.0.0.0","Windows","10.0","https://app.prolific.com/","en-US,en;q=0.9,zh-CN;q=0.8,zh;q=0.7","669149873799bbea50733fe0","6877649eabb845cf142cd221","68933848d496a7e4ee1e4bc7","1","669149873799bbea50733fe0","1","2025-08-06T11:24:06.848Z","","","","StressQ","","","","","","","","","","","50","","","","","","","","","","","","","","","","","","","","","","","","","","",""
"24748","","<div style=""width:500px;"">
  <p>What best describes how you currently feel?</p>
  </div>","63","html-slider-response","47","553831","0.0-7.0-4.6","185","1","2025-08-06 11:15:13","36c45c0696341be0efffe67d72a12abb","102.213.27.252","Mozilla/5.0 (Windows NT 10.0; Win64; x64) AppleWebKit/537.36 (KHTML, like Gecko) Chrome/138.0.0.0 Safari/537.36","WebKit","Chrome","138.0.0.0","Windows","10.0","https://app.prolific.com/","en-US,en;q=0.9,zh-CN;q=0.8,zh;q=0.7","669149873799bbea50733fe0","6877649eabb845cf142cd221","68933848d496a7e4ee1e4bc7","1","669149873799bbea50733fe0","1","2025-08-06T11:24:31.600Z","","","","MotivationQ","","","","","","","","","","","50","","","","","","","","","","","","","","","","","","","","","","","","","","",""
"","","","","ctl-task-cpt","48","638816","0.0-7.0-0.7","185","1","2025-08-06 11:15:13","36c45c0696341be0efffe67d72a12abb","102.213.27.252","Mozilla/5.0 (Windows NT 10.0; Win64; x64) AppleWebKit/537.36 (KHTML, like Gecko) Chrome/138.0.0.0 Safari/537.36","WebKit","Chrome","138.0.0.0","Windows","10.0","https://app.prolific.com/","en-US,en;q=0.9,zh-CN;q=0.8,zh;q=0.7","669149873799bbea50733fe0","6877649eabb845cf142cd221","68933848d496a7e4ee1e4bc7","1","669149873799bbea50733fe0","1","2025-08-06T11:25:56.585Z","","","","","","","","","","","","","","","","win-only","0","g1:NW,g2:SE","0.3","8","0","559906.9","17884.4","22894","81928.8","1","4","8","6","1","-1","-1","9","10","0.06818181818181818","1644.2","3000","-820","[""left"",""up""]","{""num_key_presses"":13,""num_perfect"":3,""num_errors"":0,""num_randdir"":10,""num_randdir_good_moves"":3,""num_whilered"":0,""num_whileblue"":0,""num_blue"":3,""num_good_moves"":6}","[346.9642857142857,343.46428666796004,1,346.9642857142857,343.46428666796004,110.2,346.9642857142857,343.46428666796004,217.9,346.9642857142857,343.46428666796004,331.8,346.9642857142857,343.46428666796004,488,346.9642857142857,343.46428666796004,637.3,346.9642857142857,343.46428666796004,777.3,83.21428571428572,277.21428666796004,883.5,10.714285714285715,142.21428666796004,1112.7,26.964285714285715,127.21428666796004,1237.9,41.964285714285715,83.46428666796004,1340.8,45.714285714285715,67.21428666796004,1452.4,45.714285714285715,67.21428666796004,1666.3,45.714285714285715,67.21428666796004,1826.3,45.714285714285715,67.21428666796004,2025.4,45.714285714285715,67.21428666796004,2127.8,45.714285714285715,67.21428666796004,2235.5,45.714285714285715,67.21428666796004,2458,45.714285714285715,67.21428666796004,2585.7,45.714285714285715,67.21428666796004,2693.4,45.714285714285715,67.21428666796004,2812,45.714285714285715,67.21428666796004,2915.7,45.714285714285715,67.21428666796004,3029.6,45.714285714285715,67.21428666796004,3132.2,45.714285714285715,67.21428666796004,3243.5,45.714285714285715,67.21428666796004,3350.5,45.714285714285715,67.21428666796004,3451.1,45.714285714285715,67.21428666796004,3647.3,45.714285714285715,67.21428666796004,3779.1,45.714285714285715,67.21428666796004,3890.7,45.714285714285715,67.21428666796004,3996.1,45.714285714285715,67.21428666796004,4149,45.714285714285715,67.21428666796004,4252.3,45.714285714285715,67.21428666796004,4352.4,45.714285714285715,67.21428666796004,4457.9,45.714285714285715,67.21428666796004,4561.5,45.714285714285715,67.21428666796004,4665.5,45.714285714285715,67.21428666796004,4873.2,45.714285714285715,67.21428666796004,4976.6]","[4412.8,4412.8,1000,0,3412.8,""oops"",""up"",""down"",""bad_move"",8449.8,4035.5,2030,4414.3,2005.5,""smooth"",""left"",""left"",""good_move"",12325.7,3873.8,2895.1,8451.9,978.7,""oops"",""left"",""left"",""good_move"",16154.1,3827.5,2044,12326.7,1783.4,""smooth"",""up"",""up"",""good_move"",19768.2,3611.4,2375.2,16156.8,1236.2,""smooth"",""up"",""up"",""good_move"",23455.5,3686,2927.1,19769.5,758.9,""oops"",""up"",""down"",""bad_move"",26148.3,2691.5,1816.7,23456.8,874.8,""oops"",""up"",""up"",""good_move"",32985.8,6835.8,1936.7,30382.1,667,""oops"",""up"",""down"",""bad_move"",36312.8,3325.6,2684.1,32987.6,641.5,""oops"",""up"",""up"",""good_move"",39965.4,3650.4,2174.8,36315,1475.6,""oops"",""up"",""down"",""bad_move"",46159,6192.4,2707.3,42867.5,584.2,""oops"",""up"",""right"",""bad_move"",49588.6,3428.7,2433.8,46159.9,994.9,""oops"",""left"",""down"",""bad_move"",55909.3,6318.7,3011,52421,477.3,""oops"",""left"",""down"",""bad_move""]"
"11682","","<div style=""width:500px;"">
  <p>What determined the result of this run?</p>
  </div>","23","html-slider-response","49","650500","0.0-7.0-1.7","185","1","2025-08-06 11:15:13","36c45c0696341be0efffe67d72a12abb","102.213.27.252","Mozilla/5.0 (Windows NT 10.0; Win64; x64) AppleWebKit/537.36 (KHTML, like Gecko) Chrome/138.0.0.0 Safari/537.36","WebKit","Chrome","138.0.0.0","Windows","10.0","https://app.prolific.com/","en-US,en;q=0.9,zh-CN;q=0.8,zh;q=0.7","669149873799bbea50733fe0","6877649eabb845cf142cd221","68933848d496a7e4ee1e4bc7","1","669149873799bbea50733fe0","1","2025-08-06T11:26:08.270Z","","","","AttribQ","","","","","","","","","","","50","","","","","","","","","","","","","","","","","","","","","","","","","","",""
"8109","","<div style=""width:500px;"">
  <p>How much control did you have over the ball?</p>
  </div>","77","html-slider-response","50","658613","0.0-7.0-2.7","185","1","2025-08-06 11:15:13","36c45c0696341be0efffe67d72a12abb","102.213.27.252","Mozilla/5.0 (Windows NT 10.0; Win64; x64) AppleWebKit/537.36 (KHTML, like Gecko) Chrome/138.0.0.0 Safari/537.36","WebKit","Chrome","138.0.0.0","Windows","10.0","https://app.prolific.com/","en-US,en;q=0.9,zh-CN;q=0.8,zh;q=0.7","669149873799bbea50733fe0","6877649eabb845cf142cd221","68933848d496a7e4ee1e4bc7","1","669149873799bbea50733fe0","1","2025-08-06T11:26:16.382Z","","","","ControlQ","","","","","","","","","","","50","","","","","","","","","","","","","","","","","","","","","","","","","","",""
"5295","","<div style=""width:500px;"">
  <p>How would you describe your current emotional state?</p>
  </div>","42","html-slider-response","51","663912","0.0-7.0-3.7","185","1","2025-08-06 11:15:13","36c45c0696341be0efffe67d72a12abb","102.213.27.252","Mozilla/5.0 (Windows NT 10.0; Win64; x64) AppleWebKit/537.36 (KHTML, like Gecko) Chrome/138.0.0.0 Safari/537.36","WebKit","Chrome","138.0.0.0","Windows","10.0","https://app.prolific.com/","en-US,en;q=0.9,zh-CN;q=0.8,zh;q=0.7","669149873799bbea50733fe0","6877649eabb845cf142cd221","68933848d496a7e4ee1e4bc7","1","669149873799bbea50733fe0","1","2025-08-06T11:26:21.681Z","","","","StressQ","","","","","","","","","","","50","","","","","","","","","","","","","","","","","","","","","","","","","","",""
"6556","","<div style=""width:500px;"">
  <p>What best describes how you currently feel?</p>
  </div>","71","html-slider-response","52","670470","0.0-7.0-4.7","185","1","2025-08-06 11:15:13","36c45c0696341be0efffe67d72a12abb","102.213.27.252","Mozilla/5.0 (Windows NT 10.0; Win64; x64) AppleWebKit/537.36 (KHTML, like Gecko) Chrome/138.0.0.0 Safari/537.36","WebKit","Chrome","138.0.0.0","Windows","10.0","https://app.prolific.com/","en-US,en;q=0.9,zh-CN;q=0.8,zh;q=0.7","669149873799bbea50733fe0","6877649eabb845cf142cd221","68933848d496a7e4ee1e4bc7","1","669149873799bbea50733fe0","1","2025-08-06T11:26:28.239Z","","","","MotivationQ","","","","","","","","","","","50","","","","","","","","","","","","","","","","","","","","","","","","","","",""
"","","","","ctl-task-cpt","53","711321","0.0-7.0-0.8","185","1","2025-08-06 11:15:13","36c45c0696341be0efffe67d72a12abb","102.213.27.252","Mozilla/5.0 (Windows NT 10.0; Win64; x64) AppleWebKit/537.36 (KHTML, like Gecko) Chrome/138.0.0.0 Safari/537.36","WebKit","Chrome","138.0.0.0","Windows","10.0","https://app.prolific.com/","en-US,en;q=0.9,zh-CN;q=0.8,zh;q=0.7","669149873799bbea50733fe0","6877649eabb845cf142cd221","68933848d496a7e4ee1e4bc7","1","669149873799bbea50733fe0","1","2025-08-06T11:27:09.090Z","","","","","","","","","","","","","","","","win-only","1","g1:NE,g2:SW","0.4","9","0","676546.1","16476","21490.6","37786.3","1","4","8","6","1","1","1","10","9","0.07575757575757576","1712.6","3000","2305","[""up"",""right""]","{""num_key_presses"":4,""num_perfect"":4,""num_errors"":0,""num_randdir"":0,""num_randdir_good_moves"":0,""num_whilered"":0,""num_whileblue"":0,""num_blue"":1,""num_good_moves"":4}","[360.7142857142857,355.96428666796004,0.8,360.7142857142857,355.96428666796004,145.9,360.7142857142857,355.96428666796004,247.2,360.7142857142857,355.96428666796004,415.2,360.7142857142857,355.96428666796004,564.4,360.7142857142857,355.96428666796004,681.5,215.71428571428572,524.71428666796,972.5,264.4642857142857,472.21428666796004,1086.9,566.9642857142857,167.21428666796004,1207.2,654.4642857142857,67.21428666796004,1330.3,663.2142857142857,32.21428666796003,1430.9,663.2142857142857,30.96428666796003,1633,663.2142857142857,30.96428666796003,1741.9,663.2142857142857,30.96428666796003,1967.2,663.2142857142857,30.96428666796003,2113.3,663.2142857142857,30.96428666796003,2219.5,663.2142857142857,30.96428666796003,2352.2,663.2142857142857,30.96428666796003,2452.9,663.2142857142857,30.96428666796003,2626,663.2142857142857,30.96428666796003,2726.8,663.2142857142857,30.96428666796003,2898.1,663.2142857142857,30.96428666796003,3003.9,663.2142857142857,30.96428666796003,3268.2,663.2142857142857,30.96428666796003,3375.7,663.2142857142857,30.96428666796003,3485.5,663.2142857142857,30.96428666796003,3650.6,663.2142857142857,30.96428666796003,3805.1,663.2142857142857,30.96428666796003,3913.9,663.2142857142857,30.96428666796003,4017.2,663.2142857142857,30.96428666796003,4189.1,663.2142857142857,30.96428666796003,4292,663.2142857142857,30.96428666796003,4394.9,663.2142857142857,30.96428666796003,4503.1,663.2142857142857,30.96428666796003,4735.2,663.2142857142857,30.96428666796003,4860.8,663.2142857142857,30.96428666796003,4963.7]","[5309.9,5310,2750.1,2026.9,533,""smooth"",""right"",""right"",""good_move"",8721.8,3408.9,2866.3,5312.9,542.6,""smooth"",""right"",""right"",""good_move"",11984.8,3261.7,1462.2,8723.1,1799.5,""smooth"",""up"",""up"",""good_move"",16013.8,4026.5,3297.7,11987.3,728.8,""smooth"",""up"",""up"",""good_move""]"
"6332","","<div style=""width:500px;"">
  <p>What determined the result of this run?</p>
  </div>","75","html-slider-response","54","717657","0.0-7.0-1.8","185","1","2025-08-06 11:15:13","36c45c0696341be0efffe67d72a12abb","102.213.27.252","Mozilla/5.0 (Windows NT 10.0; Win64; x64) AppleWebKit/537.36 (KHTML, like Gecko) Chrome/138.0.0.0 Safari/537.36","WebKit","Chrome","138.0.0.0","Windows","10.0","https://app.prolific.com/","en-US,en;q=0.9,zh-CN;q=0.8,zh;q=0.7","669149873799bbea50733fe0","6877649eabb845cf142cd221","68933848d496a7e4ee1e4bc7","1","669149873799bbea50733fe0","1","2025-08-06T11:27:15.426Z","","","","AttribQ","","","","","","","","","","","50","","","","","","","","","","","","","","","","","","","","","","","","","","",""
"24860","","<div style=""width:500px;"">
  <p>How much control did you have over the ball?</p>
  </div>","71","html-slider-response","55","742521","0.0-7.0-2.8","185","1","2025-08-06 11:15:13","36c45c0696341be0efffe67d72a12abb","102.213.27.252","Mozilla/5.0 (Windows NT 10.0; Win64; x64) AppleWebKit/537.36 (KHTML, like Gecko) Chrome/138.0.0.0 Safari/537.36","WebKit","Chrome","138.0.0.0","Windows","10.0","https://app.prolific.com/","en-US,en;q=0.9,zh-CN;q=0.8,zh;q=0.7","669149873799bbea50733fe0","6877649eabb845cf142cd221","68933848d496a7e4ee1e4bc7","1","669149873799bbea50733fe0","1","2025-08-06T11:27:40.290Z","","","","ControlQ","","","","","","","","","","","50","","","","","","","","","","","","","","","","","","","","","","","","","","",""
"8988","","<div style=""width:500px;"">
  <p>How would you describe your current emotional state?</p>
  </div>","30","html-slider-response","56","751515","0.0-7.0-3.8","185","1","2025-08-06 11:15:13","36c45c0696341be0efffe67d72a12abb","102.213.27.252","Mozilla/5.0 (Windows NT 10.0; Win64; x64) AppleWebKit/537.36 (KHTML, like Gecko) Chrome/138.0.0.0 Safari/537.36","WebKit","Chrome","138.0.0.0","Windows","10.0","https://app.prolific.com/","en-US,en;q=0.9,zh-CN;q=0.8,zh;q=0.7","669149873799bbea50733fe0","6877649eabb845cf142cd221","68933848d496a7e4ee1e4bc7","1","669149873799bbea50733fe0","1","2025-08-06T11:27:49.284Z","","","","StressQ","","","","","","","","","","","50","","","","","","","","","","","","","","","","","","","","","","","","","","",""
"5191","","<div style=""width:500px;"">
  <p>What best describes how you currently feel?</p>
  </div>","77","html-slider-response","57","756709","0.0-7.0-4.8","185","1","2025-08-06 11:15:13","36c45c0696341be0efffe67d72a12abb","102.213.27.252","Mozilla/5.0 (Windows NT 10.0; Win64; x64) AppleWebKit/537.36 (KHTML, like Gecko) Chrome/138.0.0.0 Safari/537.36","WebKit","Chrome","138.0.0.0","Windows","10.0","https://app.prolific.com/","en-US,en;q=0.9,zh-CN;q=0.8,zh;q=0.7","669149873799bbea50733fe0","6877649eabb845cf142cd221","68933848d496a7e4ee1e4bc7","1","669149873799bbea50733fe0","1","2025-08-06T11:27:54.479Z","","","","MotivationQ","","","","","","","","","","","50","","","","","","","","","","","","","","","","","","","","","","","","","","",""
"","","","","ctl-task-cpt","58","809854","0.0-7.0-0.9","185","1","2025-08-06 11:15:13","36c45c0696341be0efffe67d72a12abb","102.213.27.252","Mozilla/5.0 (Windows NT 10.0; Win64; x64) AppleWebKit/537.36 (KHTML, like Gecko) Chrome/138.0.0.0 Safari/537.36","WebKit","Chrome","138.0.0.0","Windows","10.0","https://app.prolific.com/","en-US,en;q=0.9,zh-CN;q=0.8,zh;q=0.7","669149873799bbea50733fe0","6877649eabb845cf142cd221","68933848d496a7e4ee1e4bc7","1","669149873799bbea50733fe0","1","2025-08-06T11:28:47.623Z","","","","","","","","","","","","","","","","win-only","3","g1:SW,g2:NE","0.5","10","0","762785.4","17771.2","22775.2","50105.1","1","4","4","6","1","1","1","11","10","0.08333333333333333","1515.6","3000","1995","[""down"",""left""]","{""num_key_presses"":6,""num_perfect"":4,""num_errors"":0,""num_randdir"":2,""num_randdir_good_moves"":1,""num_whilered"":0,""num_whileblue"":0,""num_blue"":2,""num_good_moves"":5}","[346.9642857142857,348.46428666796004,1.6,346.9642857142857,348.46428666796004,101.5,346.9642857142857,348.46428666796004,252.9,346.9642857142857,348.46428666796004,375.1,346.9642857142857,348.46428666796004,490.4,346.9642857142857,348.46428666796004,721.6,199.46428571428572,520.96428666796,849.9,121.96428571428572,587.21428666796,973.4,81.96428571428572,625.96428666796,1076.1,46.964285714285715,670.96428666796,1178.8,41.964285714285715,675.96428666796,1300.6,41.964285714285715,675.96428666796,1416.7,41.964285714285715,675.96428666796,1521.6,41.964285714285715,675.96428666796,1667.9,41.964285714285715,675.96428666796,1781.2,41.964285714285715,675.96428666796,1896.2,41.964285714285715,675.96428666796,1996.7,41.964285714285715,675.96428666796,2148.3,41.964285714285715,675.96428666796,2252.5,41.964285714285715,675.96428666796,2469.5,41.964285714285715,675.96428666796,2577.2,41.964285714285715,675.96428666796,2702.5,41.964285714285715,675.96428666796,2802.5,41.964285714285715,675.96428666796,2905.3,41.964285714285715,675.96428666796,3005.8,41.964285714285715,675.96428666796,3109,41.964285714285715,675.96428666796,3212.6,41.964285714285715,675.96428666796,3431.7,41.964285714285715,675.96428666796,3592.8,41.964285714285715,675.96428666796,3729.6,41.964285714285715,675.96428666796,3833.3,41.964285714285715,675.96428666796,4097.5,41.964285714285715,675.96428666796,4199.4,41.964285714285715,675.96428666796,4301.7,41.964285714285715,675.96428666796,4462.9,41.964285714285715,675.96428666796,4614.9,41.964285714285715,675.96428666796,4716.7,41.964285714285715,675.96428666796,4830.2,41.964285714285715,675.96428666796,4941.6]","[1577.8,1577.8,1000,0,577.8,""smooth"",""left"",""left"",""good_move"",12954.9,11375.8,2724.1,9672.3,558.5,""smooth"",""left"",""left"",""good_move"",17829.4,4873.8,3036.9,12955.7,1836.8,""oops"",""down"",""down"",""good_move"",20925.5,3093.5,2488.3,17832.1,605.1,""oops"",""down"",""right"",""bad_move"",24345.1,3417.7,2927.3,20927.4,490.4,""smooth"",""down"",""down"",""good_move"",27001.3,2652.6,1946.2,24348.7,706.4,""smooth"",""left"",""left"",""good_move""]"
"5073","","<div style=""width:500px;"">
  <p>What determined the result of this run?</p>
  </div>","90","html-slider-response","59","814929","0.0-7.0-1.9","185","1","2025-08-06 11:15:13","36c45c0696341be0efffe67d72a12abb","102.213.27.252","Mozilla/5.0 (Windows NT 10.0; Win64; x64) AppleWebKit/537.36 (KHTML, like Gecko) Chrome/138.0.0.0 Safari/537.36","WebKit","Chrome","138.0.0.0","Windows","10.0","https://app.prolific.com/","en-US,en;q=0.9,zh-CN;q=0.8,zh;q=0.7","669149873799bbea50733fe0","6877649eabb845cf142cd221","68933848d496a7e4ee1e4bc7","1","669149873799bbea50733fe0","1","2025-08-06T11:28:52.699Z","","","","AttribQ","","","","","","","","","","","50","","","","","","","","","","","","","","","","","","","","","","","","","","",""
"8606","","<div style=""width:500px;"">
  <p>How much control did you have over the ball?</p>
  </div>","76","html-slider-response","60","823538","0.0-7.0-2.9","185","1","2025-08-06 11:15:13","36c45c0696341be0efffe67d72a12abb","102.213.27.252","Mozilla/5.0 (Windows NT 10.0; Win64; x64) AppleWebKit/537.36 (KHTML, like Gecko) Chrome/138.0.0.0 Safari/537.36","WebKit","Chrome","138.0.0.0","Windows","10.0","https://app.prolific.com/","en-US,en;q=0.9,zh-CN;q=0.8,zh;q=0.7","669149873799bbea50733fe0","6877649eabb845cf142cd221","68933848d496a7e4ee1e4bc7","1","669149873799bbea50733fe0","1","2025-08-06T11:29:01.307Z","","","","ControlQ","","","","","","","","","","","50","","","","","","","","","","","","","","","","","","","","","","","","","","",""
"5270","","<div style=""width:500px;"">
  <p>How would you describe your current emotional state?</p>
  </div>","25","html-slider-response","61","828811","0.0-7.0-3.9","185","1","2025-08-06 11:15:13","36c45c0696341be0efffe67d72a12abb","102.213.27.252","Mozilla/5.0 (Windows NT 10.0; Win64; x64) AppleWebKit/537.36 (KHTML, like Gecko) Chrome/138.0.0.0 Safari/537.36","WebKit","Chrome","138.0.0.0","Windows","10.0","https://app.prolific.com/","en-US,en;q=0.9,zh-CN;q=0.8,zh;q=0.7","669149873799bbea50733fe0","6877649eabb845cf142cd221","68933848d496a7e4ee1e4bc7","1","669149873799bbea50733fe0","1","2025-08-06T11:29:06.580Z","","","","StressQ","","","","","","","","","","","50","","","","","","","","","","","","","","","","","","","","","","","","","","",""
"6536","","<div style=""width:500px;"">
  <p>What best describes how you currently feel?</p>
  </div>","74","html-slider-response","62","835353","0.0-7.0-4.9","185","1","2025-08-06 11:15:13","36c45c0696341be0efffe67d72a12abb","102.213.27.252","Mozilla/5.0 (Windows NT 10.0; Win64; x64) AppleWebKit/537.36 (KHTML, like Gecko) Chrome/138.0.0.0 Safari/537.36","WebKit","Chrome","138.0.0.0","Windows","10.0","https://app.prolific.com/","en-US,en;q=0.9,zh-CN;q=0.8,zh;q=0.7","669149873799bbea50733fe0","6877649eabb845cf142cd221","68933848d496a7e4ee1e4bc7","1","669149873799bbea50733fe0","1","2025-08-06T11:29:13.122Z","","","","MotivationQ","","","","","","","","","","","50","","","","","","","","","","","","","","","","","","","","","","","","","","",""
"","","","","ctl-task-cpt","63","1077633","0.0-7.0-0.10","185","1","2025-08-06 11:15:13","36c45c0696341be0efffe67d72a12abb","102.213.27.252","Mozilla/5.0 (Windows NT 10.0; Win64; x64) AppleWebKit/537.36 (KHTML, like Gecko) Chrome/138.0.0.0 Safari/537.36","WebKit","Chrome","138.0.0.0","Windows","10.0","https://app.prolific.com/","en-US,en;q=0.9,zh-CN;q=0.8,zh;q=0.7","669149873799bbea50733fe0","6877649eabb845cf142cd221","68933848d496a7e4ee1e4bc7","1","669149873799bbea50733fe0","1","2025-08-06T11:33:15.403Z","","","","","","","","","","","","","","","","win-only","1","g1:NE,g2:SW","0.6","11","0","841428.8","197978.6","202992.1","239254.8","1","4","4","6","1","1","1","12","11","0.09090909090909091","1790.2","3000","2250","[""up"",""right""]","{""num_key_presses"":6,""num_perfect"":4,""num_errors"":0,""num_randdir"":2,""num_randdir_good_moves"":2,""num_whilered"":0,""num_whileblue"":0,""num_blue"":4,""num_good_moves"":5}","[359.4642857142857,349.71428666796004,2.7,359.4642857142857,349.71428666796004,100.9,359.4642857142857,349.71428666796004,219.9,359.4642857142857,349.71428666796004,325.8,359.4642857142857,349.71428666796004,431.8,359.4642857142857,349.71428666796004,534.1,350.7142857142857,362.21428666796004,635,159.46428571428572,567.21428666796,747.4,130.71428571428572,602.21428666796,864.1,138.21428571428572,602.21428666796,967.1,646.9642857142857,232.21428666796004,1073.1,724.4642857142857,68.46428666796004,1187.7,731.9642857142857,7.214286667960032,1287.8,708.2142857142857,-2.7857133320399683,1396.4,626.9642857142857,58.46428666796003,1516.7,626.9642857142857,60.96428666796003,1623,626.9642857142857,60.96428666796003,1733.8,626.9642857142857,60.96428666796003,1841.5,626.9642857142857,60.96428666796003,1952.8,626.9642857142857,60.96428666796003,2057.2,626.9642857142857,60.96428666796003,2166.5,626.9642857142857,60.96428666796003,2267.6,626.9642857142857,60.96428666796003,2388.6,626.9642857142857,60.96428666796003,2492.4,626.9642857142857,60.96428666796003,2595.6,626.9642857142857,60.96428666796003,2700.4,626.9642857142857,60.96428666796003,2811.7,626.9642857142857,60.96428666796003,2922.3,626.9642857142857,60.96428666796003,3041.5,626.9642857142857,60.96428666796003,3150.6,626.9642857142857,60.96428666796003,3266,626.9642857142857,60.96428666796003,3374,626.9642857142857,60.96428666796003,3480.1,626.9642857142857,60.96428666796003,3600.4,626.9642857142857,60.96428666796003,3721.8,626.9642857142857,60.96428666796003,3825.2,626.9642857142857,60.96428666796003,3950,626.9642857142857,60.96428666796003,4051.8,626.9642857142857,60.96428666796003,4169.4,626.9642857142857,60.96428666796003,4285.3,626.9642857142857,60.96428666796003,4387.2,626.9642857142857,60.96428666796003,4500.3,626.9642857142857,60.96428666796003,4786.2,626.9642857142857,60.96428666796003,4890.1,626.9642857142857,60.96428666796003,4991.4]","[1535,1535,1000,0,535,""smooth"",""left"",""left"",""bad_move"",10617.2,9080.3,3206.8,6803.1,607.3,""smooth"",""up"",""up"",""good_move"",18109.1,7491,2297,15244.3,567.9,""oops"",""up"",""right"",""good_move"",21733.9,3623.8,3132.2,18110.1,491.6,""smooth"",""up"",""up"",""good_move"",33553.9,11818.8,2422.8,30501.1,630,""smooth"",""right"",""right"",""good_move"",35971.5,2417,1664.8,33554.5,752.2,""oops"",""right"",""right"",""good_move""]"
"94804","","<div style=""width:500px;"">
  <p>What determined the result of this run?</p>
  </div>","49","html-slider-response","64","1172440","0.0-7.0-1.10","185","1","2025-08-06 11:15:13","36c45c0696341be0efffe67d72a12abb","102.213.27.252","Mozilla/5.0 (Windows NT 10.0; Win64; x64) AppleWebKit/537.36 (KHTML, like Gecko) Chrome/138.0.0.0 Safari/537.36","WebKit","Chrome","138.0.0.0","Windows","10.0","https://app.prolific.com/","en-US,en;q=0.9,zh-CN;q=0.8,zh;q=0.7","669149873799bbea50733fe0","6877649eabb845cf142cd221","68933848d496a7e4ee1e4bc7","1","669149873799bbea50733fe0","1","2025-08-06T11:34:50.209Z","","","","AttribQ","","","","","","","","","","","50","","","","","","","","","","","","","","","","","","","","","","","","","","",""
"3372","","<div style=""width:500px;"">
  <p>How much control did you have over the ball?</p>
  </div>","79","html-slider-response","65","1175817","0.0-7.0-2.10","185","1","2025-08-06 11:15:13","36c45c0696341be0efffe67d72a12abb","102.213.27.252","Mozilla/5.0 (Windows NT 10.0; Win64; x64) AppleWebKit/537.36 (KHTML, like Gecko) Chrome/138.0.0.0 Safari/537.36","WebKit","Chrome","138.0.0.0","Windows","10.0","https://app.prolific.com/","en-US,en;q=0.9,zh-CN;q=0.8,zh;q=0.7","669149873799bbea50733fe0","6877649eabb845cf142cd221","68933848d496a7e4ee1e4bc7","1","669149873799bbea50733fe0","1","2025-08-06T11:34:53.587Z","","","","ControlQ","","","","","","","","","","","50","","","","","","","","","","","","","","","","","","","","","","","","","","",""
"5358","","<div style=""width:500px;"">
  <p>How would you describe your current emotional state?</p>
  </div>","26","html-slider-response","66","1181178","0.0-7.0-3.10","185","1","2025-08-06 11:15:13","36c45c0696341be0efffe67d72a12abb","102.213.27.252","Mozilla/5.0 (Windows NT 10.0; Win64; x64) AppleWebKit/537.36 (KHTML, like Gecko) Chrome/138.0.0.0 Safari/537.36","WebKit","Chrome","138.0.0.0","Windows","10.0","https://app.prolific.com/","en-US,en;q=0.9,zh-CN;q=0.8,zh;q=0.7","669149873799bbea50733fe0","6877649eabb845cf142cd221","68933848d496a7e4ee1e4bc7","1","669149873799bbea50733fe0","1","2025-08-06T11:34:58.947Z","","","","StressQ","","","","","","","","","","","50","","","","","","","","","","","","","","","","","","","","","","","","","","",""
"7168","","<div style=""width:500px;"">
  <p>What best describes how you currently feel?</p>
  </div>","80","html-slider-response","67","1188349","0.0-7.0-4.10","185","1","2025-08-06 11:15:13","36c45c0696341be0efffe67d72a12abb","102.213.27.252","Mozilla/5.0 (Windows NT 10.0; Win64; x64) AppleWebKit/537.36 (KHTML, like Gecko) Chrome/138.0.0.0 Safari/537.36","WebKit","Chrome","138.0.0.0","Windows","10.0","https://app.prolific.com/","en-US,en;q=0.9,zh-CN;q=0.8,zh;q=0.7","669149873799bbea50733fe0","6877649eabb845cf142cd221","68933848d496a7e4ee1e4bc7","1","669149873799bbea50733fe0","1","2025-08-06T11:35:06.119Z","","","","MotivationQ","","","","","","","","","","","50","","","","","","","","","","","","","","","","","","","","","","","","","","",""
"","","","","ctl-task-cpt","68","1218263","0.0-7.0-0.11","185","1","2025-08-06 11:15:13","36c45c0696341be0efffe67d72a12abb","102.213.27.252","Mozilla/5.0 (Windows NT 10.0; Win64; x64) AppleWebKit/537.36 (KHTML, like Gecko) Chrome/138.0.0.0 Safari/537.36","WebKit","Chrome","138.0.0.0","Windows","10.0","https://app.prolific.com/","en-US,en;q=0.9,zh-CN;q=0.8,zh;q=0.7","669149873799bbea50733fe0","6877649eabb845cf142cd221","68933848d496a7e4ee1e4bc7","1","669149873799bbea50733fe0","1","2025-08-06T11:35:36.032Z","","","","","","","","","","","","","","","","win-only","1","g1:NE,g2:SW","0.7","12","0","1194425.4","10027.5","15036.9","26886.7","1","4","8","6","1","1","1","13","12","0.09848484848484848","1560.9","3000","2580","[""up"",""right""]","{""num_key_presses"":4,""num_perfect"":3,""num_errors"":0,""num_randdir"":1,""num_randdir_good_moves"":1,""num_whilered"":0,""num_whileblue"":0,""num_blue"":0,""num_good_moves"":4}","[343.2142857142857,355.96428666796004,1.4,343.2142857142857,355.96428666796004,112.7,343.2142857142857,355.96428666796004,221.8,343.2142857142857,355.96428666796004,478.3,485.7142857142857,389.71428666796004,646.5,706.9642857142857,318.46428666796004,753.6,739.4642857142857,148.46428666796004,883.8,748.2142857142857,42.21428666796003,987.6,635.7142857142857,63.46428666796003,1199.6,631.9642857142857,67.21428666796004,1309.9,631.9642857142857,67.21428666796004,1412.8,631.9642857142857,67.21428666796004,1585.9,631.9642857142857,67.21428666796004,1691.9,631.9642857142857,67.21428666796004,1804.3,631.9642857142857,67.21428666796004,1906.8,631.9642857142857,67.21428666796004,2124.9,631.9642857142857,67.21428666796004,2287.3,631.9642857142857,67.21428666796004,2392.4,631.9642857142857,67.21428666796004,2503.6,631.9642857142857,67.21428666796004,2664.3,631.9642857142857,67.21428666796004,2769.5,631.9642857142857,67.21428666796004,2874.5,631.9642857142857,67.21428666796004,3047.3,631.9642857142857,67.21428666796004,3167.2,631.9642857142857,67.21428666796004,3354.8,631.9642857142857,67.21428666796004,3461.4,631.9642857142857,67.21428666796004,3562.9,631.9642857142857,67.21428666796004,3772.5,631.9642857142857,67.21428666796004,3874.9,631.9642857142857,67.21428666796004,3979.9,631.9642857142857,67.21428666796004,4116.9,631.9642857142857,67.21428666796004,4246,631.9642857142857,67.21428666796004,4369.7,631.9642857142857,67.21428666796004,4614.9,631.9642857142857,67.21428666796004,4725.3,631.9642857142857,67.21428666796004,4993.1]","[1606,1606,1000,0,606,""smooth"",""right"",""right"",""good_move"",4051.7,2444.6,1946.2,1607.1,498.4,""smooth"",""right"",""right"",""good_move"",6860.5,2808.1,2325,4052.5,483.1,""smooth"",""up"",""up"",""good_move"",11429.8,4567.5,2834.3,6862.3,1733.2,""oops"",""up"",""up"",""good_move""]"
"5426","","<div style=""width:500px;"">
  <p>What determined the result of this run?</p>
  </div>","78","html-slider-response","69","1223691","0.0-7.0-1.11","185","1","2025-08-06 11:15:13","36c45c0696341be0efffe67d72a12abb","102.213.27.252","Mozilla/5.0 (Windows NT 10.0; Win64; x64) AppleWebKit/537.36 (KHTML, like Gecko) Chrome/138.0.0.0 Safari/537.36","WebKit","Chrome","138.0.0.0","Windows","10.0","https://app.prolific.com/","en-US,en;q=0.9,zh-CN;q=0.8,zh;q=0.7","669149873799bbea50733fe0","6877649eabb845cf142cd221","68933848d496a7e4ee1e4bc7","1","669149873799bbea50733fe0","1","2025-08-06T11:35:41.460Z","","","","AttribQ","","","","","","","","","","","50","","","","","","","","","","","","","","","","","","","","","","","","","","",""
"6637","","<div style=""width:500px;"">
  <p>How much control did you have over the ball?</p>
  </div>","89","html-slider-response","70","1230331","0.0-7.0-2.11","185","1","2025-08-06 11:15:13","36c45c0696341be0efffe67d72a12abb","102.213.27.252","Mozilla/5.0 (Windows NT 10.0; Win64; x64) AppleWebKit/537.36 (KHTML, like Gecko) Chrome/138.0.0.0 Safari/537.36","WebKit","Chrome","138.0.0.0","Windows","10.0","https://app.prolific.com/","en-US,en;q=0.9,zh-CN;q=0.8,zh;q=0.7","669149873799bbea50733fe0","6877649eabb845cf142cd221","68933848d496a7e4ee1e4bc7","1","669149873799bbea50733fe0","1","2025-08-06T11:35:48.101Z","","","","ControlQ","","","","","","","","","","","50","","","","","","","","","","","","","","","","","","","","","","","","","","",""
"5915","","<div style=""width:500px;"">
  <p>How would you describe your current emotional state?</p>
  </div>","76","html-slider-response","71","1236251","0.0-7.0-3.11","185","1","2025-08-06 11:15:13","36c45c0696341be0efffe67d72a12abb","102.213.27.252","Mozilla/5.0 (Windows NT 10.0; Win64; x64) AppleWebKit/537.36 (KHTML, like Gecko) Chrome/138.0.0.0 Safari/537.36","WebKit","Chrome","138.0.0.0","Windows","10.0","https://app.prolific.com/","en-US,en;q=0.9,zh-CN;q=0.8,zh;q=0.7","669149873799bbea50733fe0","6877649eabb845cf142cd221","68933848d496a7e4ee1e4bc7","1","669149873799bbea50733fe0","1","2025-08-06T11:35:54.020Z","","","","StressQ","","","","","","","","","","","50","","","","","","","","","","","","","","","","","","","","","","","","","","",""
"4995","","<div style=""width:500px;"">
  <p>What best describes how you currently feel?</p>
  </div>","74","html-slider-response","72","1241249","0.0-7.0-4.11","185","1","2025-08-06 11:15:13","36c45c0696341be0efffe67d72a12abb","102.213.27.252","Mozilla/5.0 (Windows NT 10.0; Win64; x64) AppleWebKit/537.36 (KHTML, like Gecko) Chrome/138.0.0.0 Safari/537.36","WebKit","Chrome","138.0.0.0","Windows","10.0","https://app.prolific.com/","en-US,en;q=0.9,zh-CN;q=0.8,zh;q=0.7","669149873799bbea50733fe0","6877649eabb845cf142cd221","68933848d496a7e4ee1e4bc7","1","669149873799bbea50733fe0","1","2025-08-06T11:35:59.018Z","","","","MotivationQ","","","","","","","","","","","50","","","","","","","","","","","","","","","","","","","","","","","","","","",""
"","","","","ctl-task-cpt","73","1474097","0.0-7.0-0.12","185","1","2025-08-06 11:15:13","36c45c0696341be0efffe67d72a12abb","102.213.27.252","Mozilla/5.0 (Windows NT 10.0; Win64; x64) AppleWebKit/537.36 (KHTML, like Gecko) Chrome/138.0.0.0 Safari/537.36","WebKit","Chrome","138.0.0.0","Windows","10.0","https://app.prolific.com/","en-US,en;q=0.9,zh-CN;q=0.8,zh;q=0.7","669149873799bbea50733fe0","6877649eabb845cf142cd221","68933848d496a7e4ee1e4bc7","1","669149873799bbea50733fe0","1","2025-08-06T11:39:51.870Z","","","","","","","","","","","","","","","","win-only","1","g1:NE,g2:SW","0.8","13","0","1247323.3","207886.3","212919.4","229806.4","1","4","4","6","1","1","1","14","13","0.10606060606060606","1414.1","3000","2600","[""up"",""right""]","{""num_key_presses"":4,""num_perfect"":4,""num_errors"":0,""num_randdir"":0,""num_randdir_good_moves"":0,""num_whilered"":0,""num_whileblue"":0,""num_blue"":0,""num_good_moves"":4}","[351.9642857142857,347.21428666796004,1.5,351.9642857142857,347.21428666796004,257.7,351.9642857142857,347.21428666796004,393,351.9642857142857,347.21428666796004,498.9,351.9642857142857,347.21428666796004,715.1,374.4642857142857,335.96428666796004,824.3,631.9642857142857,59.71428666796003,1155.7,641.9642857142857,48.46428666796003,1341,641.9642857142857,48.46428666796003,1445.9,641.9642857142857,48.46428666796003,1639.6,641.9642857142857,48.46428666796003,1752,641.9642857142857,48.46428666796003,2106.2,641.9642857142857,48.46428666796003,2216.3,641.9642857142857,48.46428666796003,2327.5,641.9642857142857,48.46428666796003,2430.3,641.9642857142857,48.46428666796003,2559.9,641.9642857142857,48.46428666796003,2772.4,641.9642857142857,48.46428666796003,2907.8,641.9642857142857,48.46428666796003,3045.1,641.9642857142857,48.46428666796003,3228.3,641.9642857142857,48.46428666796003,3429.5,641.9642857142857,48.46428666796003,3537.6,641.9642857142857,48.46428666796003,3734,641.9642857142857,48.46428666796003,3840.5,641.9642857142857,48.46428666796003,4113.6,641.9642857142857,48.46428666796003,4220.7,641.9642857142857,48.46428666796003,4493.2,641.9642857142857,48.46428666796003,4605.5,641.9642857142857,48.46428666796003,4743.9,641.9642857142857,48.46428666796003,4894.9]","[1566.4,1566.4,1000,0,566.4,""smooth"",""up"",""up"",""good_move"",7334.5,5766.3,2015.1,1568.2,3751.2,""smooth"",""up"",""up"",""good_move"",13448.3,6112.6,2292.2,7335.7,3820.4,""smooth"",""right"",""right"",""good_move"",16362.8,2913.4,2234.8,13449.4,678.6,""smooth"",""right"",""right"",""good_move""]"
"4162","","<div style=""width:500px;"">
  <p>What determined the result of this run?</p>
  </div>","77","html-slider-response","74","1478266","0.0-7.0-1.12","185","1","2025-08-06 11:15:13","36c45c0696341be0efffe67d72a12abb","102.213.27.252","Mozilla/5.0 (Windows NT 10.0; Win64; x64) AppleWebKit/537.36 (KHTML, like Gecko) Chrome/138.0.0.0 Safari/537.36","WebKit","Chrome","138.0.0.0","Windows","10.0","https://app.prolific.com/","en-US,en;q=0.9,zh-CN;q=0.8,zh;q=0.7","669149873799bbea50733fe0","6877649eabb845cf142cd221","68933848d496a7e4ee1e4bc7","1","669149873799bbea50733fe0","1","2025-08-06T11:39:56.035Z","","","","AttribQ","","","","","","","","","","","50","","","","","","","","","","","","","","","","","","","","","","","","","","",""
"7010","","<div style=""width:500px;"">
  <p>How much control did you have over the ball?</p>
  </div>","76","html-slider-response","75","1485279","0.0-7.0-2.12","185","1","2025-08-06 11:15:13","36c45c0696341be0efffe67d72a12abb","102.213.27.252","Mozilla/5.0 (Windows NT 10.0; Win64; x64) AppleWebKit/537.36 (KHTML, like Gecko) Chrome/138.0.0.0 Safari/537.36","WebKit","Chrome","138.0.0.0","Windows","10.0","https://app.prolific.com/","en-US,en;q=0.9,zh-CN;q=0.8,zh;q=0.7","669149873799bbea50733fe0","6877649eabb845cf142cd221","68933848d496a7e4ee1e4bc7","1","669149873799bbea50733fe0","1","2025-08-06T11:40:03.048Z","","","","ControlQ","","","","","","","","","","","50","","","","","","","","","","","","","","","","","","","","","","","","","","",""
"5740","","<div style=""width:500px;"">
  <p>How would you describe your current emotional state?</p>
  </div>","13","html-slider-response","76","1491022","0.0-7.0-3.12","185","1","2025-08-06 11:15:13","36c45c0696341be0efffe67d72a12abb","102.213.27.252","Mozilla/5.0 (Windows NT 10.0; Win64; x64) AppleWebKit/537.36 (KHTML, like Gecko) Chrome/138.0.0.0 Safari/537.36","WebKit","Chrome","138.0.0.0","Windows","10.0","https://app.prolific.com/","en-US,en;q=0.9,zh-CN;q=0.8,zh;q=0.7","669149873799bbea50733fe0","6877649eabb845cf142cd221","68933848d496a7e4ee1e4bc7","1","669149873799bbea50733fe0","1","2025-08-06T11:40:08.791Z","","","","StressQ","","","","","","","","","","","50","","","","","","","","","","","","","","","","","","","","","","","","","","",""
"5476","","<div style=""width:500px;"">
  <p>What best describes how you currently feel?</p>
  </div>","86","html-slider-response","77","1496501","0.0-7.0-4.12","185","1","2025-08-06 11:15:13","36c45c0696341be0efffe67d72a12abb","102.213.27.252","Mozilla/5.0 (Windows NT 10.0; Win64; x64) AppleWebKit/537.36 (KHTML, like Gecko) Chrome/138.0.0.0 Safari/537.36","WebKit","Chrome","138.0.0.0","Windows","10.0","https://app.prolific.com/","en-US,en;q=0.9,zh-CN;q=0.8,zh;q=0.7","669149873799bbea50733fe0","6877649eabb845cf142cd221","68933848d496a7e4ee1e4bc7","1","669149873799bbea50733fe0","1","2025-08-06T11:40:14.270Z","","","","MotivationQ","","","","","","","","","","","50","","","","","","","","","","","","","","","","","","","","","","","","","","",""
"","","","","ctl-task-cpt","78","1539480","0.0-7.0-0.13","185","1","2025-08-06 11:15:13","36c45c0696341be0efffe67d72a12abb","102.213.27.252","Mozilla/5.0 (Windows NT 10.0; Win64; x64) AppleWebKit/537.36 (KHTML, like Gecko) Chrome/138.0.0.0 Safari/537.36","WebKit","Chrome","138.0.0.0","Windows","10.0","https://app.prolific.com/","en-US,en;q=0.9,zh-CN;q=0.8,zh;q=0.7","669149873799bbea50733fe0","6877649eabb845cf142cd221","68933848d496a7e4ee1e4bc7","1","669149873799bbea50733fe0","1","2025-08-06T11:40:57.249Z","","","","","","","","","","","","","","","","win-only","0","g1:NW,g2:SE","0.9","14","0","1502574.8","13154.8","18162.4","39937.2","1","4","8","6","1","1","1","15","14","0.11363636363636363","1730.2","3000","2510","[""left"",""up""]","{""num_key_presses"":4,""num_perfect"":4,""num_errors"":0,""num_randdir"":0,""num_randdir_good_moves"":0,""num_whilered"":0,""num_whileblue"":0,""num_blue"":1,""num_good_moves"":4}","[356.9642857142857,350.96428666796004,1.6,356.9642857142857,350.96428666796004,164.1,356.9642857142857,350.96428666796004,267.5,356.9642857142857,350.96428666796004,400.9,356.9642857142857,350.96428666796004,531.5,356.9642857142857,350.96428666796004,639.1,271.9642857142857,294.71428666796004,891.6,130.71428571428572,144.71428666796004,1007.5,83.21428571428572,100.96428666796004,1307.2,51.964285714285715,57.21428666796003,1409.8,48.214285714285715,49.71428666796003,1746.3,48.214285714285715,49.71428666796003,1971.3,48.214285714285715,49.71428666796003,2084,48.214285714285715,49.71428666796003,2189.9,48.214285714285715,49.71428666796003,2366.7,48.214285714285715,49.71428666796003,2468,48.214285714285715,49.71428666796003,2650.5,48.214285714285715,49.71428666796003,2785.5,48.214285714285715,49.71428666796003,2891.3,48.214285714285715,49.71428666796003,3132.1,48.214285714285715,49.71428666796003,3268.2,48.214285714285715,49.71428666796003,3401.4,48.214285714285715,49.71428666796003,3548.1,48.214285714285715,49.71428666796003,3654.9,48.214285714285715,49.71428666796003,3914.1,48.214285714285715,49.71428666796003,4028.4,48.214285714285715,49.71428666796003,4141.5,48.214285714285715,49.71428666796003,4243.2,48.214285714285715,49.71428666796003,4346.3,48.214285714285715,49.71428666796003,4635.8,48.214285714285715,49.71428666796003,4739.6,48.214285714285715,49.71428666796003,4988.9]","[1627.3,1627.3,1000,0,627.3,""smooth"",""up"",""up"",""good_move"",6556.6,4927.5,2240.7,1629.1,2686.8,""smooth"",""up"",""up"",""good_move"",11804.6,5245.8,2884.5,6558.8,2361.3,""smooth"",""left"",""left"",""good_move"",21353.1,9546.8,1972.9,18737.2,643,""smooth"",""left"",""left"",""good_move""]"
"435632","","<div style=""width:500px;"">
  <p>What determined the result of this run?</p>
  </div>","30","html-slider-response","79","1975122","0.0-7.0-1.13","185","1","2025-08-06 11:15:13","36c45c0696341be0efffe67d72a12abb","102.213.27.252","Mozilla/5.0 (Windows NT 10.0; Win64; x64) AppleWebKit/537.36 (KHTML, like Gecko) Chrome/138.0.0.0 Safari/537.36","WebKit","Chrome","138.0.0.0","Windows","10.0","https://app.prolific.com/","en-US,en;q=0.9,zh-CN;q=0.8,zh;q=0.7","669149873799bbea50733fe0","6877649eabb845cf142cd221","68933848d496a7e4ee1e4bc7","1","669149873799bbea50733fe0","1","2025-08-06T11:48:12.891Z","","","","AttribQ","","","","","","","","","","","50","","","","","","","","","","","","","","","","","","","","","","","","","","",""
"7234","","<div style=""width:500px;"">
  <p>How much control did you have over the ball?</p>
  </div>","75","html-slider-response","80","1982361","0.0-7.0-2.13","185","1","2025-08-06 11:15:13","36c45c0696341be0efffe67d72a12abb","102.213.27.252","Mozilla/5.0 (Windows NT 10.0; Win64; x64) AppleWebKit/537.36 (KHTML, like Gecko) Chrome/138.0.0.0 Safari/537.36","WebKit","Chrome","138.0.0.0","Windows","10.0","https://app.prolific.com/","en-US,en;q=0.9,zh-CN;q=0.8,zh;q=0.7","669149873799bbea50733fe0","6877649eabb845cf142cd221","68933848d496a7e4ee1e4bc7","1","669149873799bbea50733fe0","1","2025-08-06T11:48:20.130Z","","","","ControlQ","","","","","","","","","","","50","","","","","","","","","","","","","","","","","","","","","","","","","","",""
"5186","","<div style=""width:500px;"">
  <p>How would you describe your current emotional state?</p>
  </div>","32","html-slider-response","81","1987551","0.0-7.0-3.13","185","1","2025-08-06 11:15:13","36c45c0696341be0efffe67d72a12abb","102.213.27.252","Mozilla/5.0 (Windows NT 10.0; Win64; x64) AppleWebKit/537.36 (KHTML, like Gecko) Chrome/138.0.0.0 Safari/537.36","WebKit","Chrome","138.0.0.0","Windows","10.0","https://app.prolific.com/","en-US,en;q=0.9,zh-CN;q=0.8,zh;q=0.7","669149873799bbea50733fe0","6877649eabb845cf142cd221","68933848d496a7e4ee1e4bc7","1","669149873799bbea50733fe0","1","2025-08-06T11:48:25.320Z","","","","StressQ","","","","","","","","","","","50","","","","","","","","","","","","","","","","","","","","","","","","","","",""
"5547","","<div style=""width:500px;"">
  <p>What best describes how you currently feel?</p>
  </div>","77","html-slider-response","82","1993103","0.0-7.0-4.13","185","1","2025-08-06 11:15:13","36c45c0696341be0efffe67d72a12abb","102.213.27.252","Mozilla/5.0 (Windows NT 10.0; Win64; x64) AppleWebKit/537.36 (KHTML, like Gecko) Chrome/138.0.0.0 Safari/537.36","WebKit","Chrome","138.0.0.0","Windows","10.0","https://app.prolific.com/","en-US,en;q=0.9,zh-CN;q=0.8,zh;q=0.7","669149873799bbea50733fe0","6877649eabb845cf142cd221","68933848d496a7e4ee1e4bc7","1","669149873799bbea50733fe0","1","2025-08-06T11:48:30.872Z","","","","MotivationQ","","","","","","","","","","","50","","","","","","","","","","","","","","","","","","","","","","","","","","",""
