"rt","response_timestamp","stimulus","response","trial_type","trial_index","time_elapsed","internal_node_id","run_id","condition","recorded_at","source_code_version","ip","user_agent","device","browser","browser_version","platform","platform_version","referer","accept_language","PROLIFIC_PID","STUDY_ID","SESSION_ID","BATCH","prolific_id","batch","realtime","success","question_order","question_id","eventType","responses","item_order","radio_event_ids","radio_event_times","key_event_times","mouse_event_times","straightlining","zigzagging","honeypot","view_history","slider_start","which_type","canvas_config","goals_layout","control_level","trial_number","tutorial_trial_number","trial_start_time","phase1_start_time","phase2_start_time","phase3_start_time","goal_1_value","goal_1_distance","goal_2_value","goal_2_distance","goal_selected","outcome","outcome_total","participant_final_score","participant_initial_score","participant_final_score_prop","goal_choice_rt","allocated_time","allocated_time_remaining","goal_direction","counts","mouse_movements","key_presses"
"98901","1753865036325","<p style='font-size:40px;line-height:1.25'><strong>Welcome to the experiment!</strong></p><p style='font-size:1.1em;line-height:1.25'>Thank you for participanting in our experiment again! You will be asked to play the Dysfunctional Ball Game again. We will briefly recap the rules before we start.</p><p style='font-size:1.1em;line-height:1.25'>Press <strong>Next</strong> to continue.</p>","0","custom-html-button-response","0","98918","0.0-0.0","38","1","2025-07-30 08:42:00","36c45c0696341be0efffe67d72a12abb","102.128.184.38","Mozilla/5.0 (Windows NT 10.0; Win64; x64) AppleWebKit/537.36 (KHTML, like Gecko) Chrome/138.0.0.0 Safari/537.36 Edg/138.0.0.0","WebKit","Edge","138.0.0.0","Windows","10.0","https://app.prolific.com/","en-US,en;q=0.9,en-ZA;q=0.8","66952367721687887540318f","683dba9a53627eb9ab41b36a","6889da032f18e761905896f9","0","66952367721687887540318f","0","2025-07-30T08:43:56.337Z","","","","","","","","","","","","","","","","","","","","","","","","","","","","","","","","","","","","","","","","","",""
"2317","","","","fullscreen","1","102272","0.0-1.0","38","1","2025-07-30 08:42:00","36c45c0696341be0efffe67d72a12abb","102.128.184.38","Mozilla/5.0 (Windows NT 10.0; Win64; x64) AppleWebKit/537.36 (KHTML, like Gecko) Chrome/138.0.0.0 Safari/537.36 Edg/138.0.0.0","WebKit","Edge","138.0.0.0","Windows","10.0","https://app.prolific.com/","en-US,en;q=0.9,en-ZA;q=0.8","66952367721687887540318f","683dba9a53627eb9ab41b36a","6889da032f18e761905896f9","0","66952367721687887540318f","0","","true","","","","","","","","","","","","","","","","","","","","","","","","","","","","","","","","","","","","","","","","",""
"2289","1753865041983"," <p style='font-size:1.1em;line-height:1.25'>Thank you for closing all other tabs.</p><p style='font-size:1.1em;line-height:1.25'>We will now invite you to fill in some questionnaires, before starting the game.<br>This will take about 5 minutes.<br></p><p style='font-size:1.1em;line-height:1.25'>Press the <strong>Next</strong> button to continue.</p>","0","custom-html-button-response","2","104567","0.0-2.0","38","1","2025-07-30 08:42:00","36c45c0696341be0efffe67d72a12abb","102.128.184.38","Mozilla/5.0 (Windows NT 10.0; Win64; x64) AppleWebKit/537.36 (KHTML, like Gecko) Chrome/138.0.0.0 Safari/537.36 Edg/138.0.0.0","WebKit","Edge","138.0.0.0","Windows","10.0","https://app.prolific.com/","en-US,en;q=0.9,en-ZA;q=0.8","66952367721687887540318f","683dba9a53627eb9ab41b36a","6889da032f18e761905896f9","0","66952367721687887540318f","0","2025-07-30T08:44:01.985Z","","","","","","","","","","","","","","","","","","","","","","","","","","","","","","","","","","","","","","","","","",""
"5482","","","{""assigned_sex"":""female""}","survey-multi-choice","3","110059","0.0-3.0-0.0","38","1","2025-07-30 08:42:00","36c45c0696341be0efffe67d72a12abb","102.128.184.38","Mozilla/5.0 (Windows NT 10.0; Win64; x64) AppleWebKit/537.36 (KHTML, like Gecko) Chrome/138.0.0.0 Safari/537.36 Edg/138.0.0.0","WebKit","Edge","138.0.0.0","Windows","10.0","https://app.prolific.com/","en-US,en;q=0.9,en-ZA;q=0.8","66952367721687887540318f","683dba9a53627eb9ab41b36a","6889da032f18e761905896f9","0","66952367721687887540318f","0","","","[0]","0","demographics","","","","","","","","","","","","","","","","","","","","","","","","","","","","","","","","","","","","","",""
"4149","1753865051630","<p style='font-size:1.1em;line-height:1.25'>In the following, we will perform a baseline assessment. This means that we will ask you a few questions relating to your experiences over the past month.<br></p><p style='font-size:1.1em;line-height:1.25'>Press the <strong>Next</strong> button to continue.</p>","0","custom-html-button-response","4","114215","0.0-4.0-0.0","38","1","2025-07-30 08:42:00","36c45c0696341be0efffe67d72a12abb","102.128.184.38","Mozilla/5.0 (Windows NT 10.0; Win64; x64) AppleWebKit/537.36 (KHTML, like Gecko) Chrome/138.0.0.0 Safari/537.36 Edg/138.0.0.0","WebKit","Edge","138.0.0.0","Windows","10.0","https://app.prolific.com/","en-US,en;q=0.9,en-ZA;q=0.8","66952367721687887540318f","683dba9a53627eb9ab41b36a","6889da032f18e761905896f9","0","66952367721687887540318f","0","2025-07-30T08:44:11.632Z","","","","","","","","","","","","","","","","","","","","","","","","","","","","","","","","","","","","","","","","","",""
"292961.69999999925","","","","survey-template","5","407220","0.0-4.0-1.0","38","1","2025-07-30 08:42:00","36c45c0696341be0efffe67d72a12abb","102.128.184.38","Mozilla/5.0 (Windows NT 10.0; Win64; x64) AppleWebKit/537.36 (KHTML, like Gecko) Chrome/138.0.0.0 Safari/537.36 Edg/138.0.0.0","WebKit","Edge","138.0.0.0","Windows","10.0","https://app.prolific.com/","en-US,en;q=0.9,en-ZA;q=0.8","66952367721687887540318f","683dba9a53627eb9ab41b36a","6889da032f18e761905896f9","0","66952367721687887540318f","0","2025-07-30T08:49:04.638Z","","","","pss","{""Q01"":""3"",""Q02"":""3"",""Q03"":""3"",""Q04"":""2"",""Q05"":""3"",""Q06"":""3"",""Q07"":""2"",""Q08"":""3"",""Q09"":""3"",""Q10"":""2""}","[0,1,2,3,4,5,6,7,8,9]","[""Q01"",""Q02"",""Q03"",""Q04"",""Q05"",""Q06"",""Q07"",""Q08"",""Q09"",""Q10""]","[215376.89999999944,221331.7999999998,229635.89999999944,233812.89999999944,253566,260053.19999999925,267165,282709.5999999996,288472,291109.7999999998]","[]","[0.5,215376.89999999944,221331.7999999998,229635.89999999944,233812.89999999944,253566,258156.7999999998,260053.19999999925,267165,282709.5999999996,286123.7999999998,288472,291109.7999999998,292949.5]","0.5","0.5555555555555556","0","","","","","","","","","","","","","","","","","","","","","","","","","","","","",""
"3854","1753865348512","<p style='font-size:1.1em;line-height:1.25'>Thank you for your answers! Now we will ask you a few more questions relating to your feelings in the last 24 hours.<br></p><p style='font-size:1.1em;line-height:1.25'>Press the <strong>Next</strong> button to continue.</p>","0","custom-html-button-response","6","411097","0.0-4.0-2.0","38","1","2025-07-30 08:42:00","36c45c0696341be0efffe67d72a12abb","102.128.184.38","Mozilla/5.0 (Windows NT 10.0; Win64; x64) AppleWebKit/537.36 (KHTML, like Gecko) Chrome/138.0.0.0 Safari/537.36 Edg/138.0.0.0","WebKit","Edge","138.0.0.0","Windows","10.0","https://app.prolific.com/","en-US,en;q=0.9,en-ZA;q=0.8","66952367721687887540318f","683dba9a53627eb9ab41b36a","6889da032f18e761905896f9","0","66952367721687887540318f","0","2025-07-30T08:49:08.515Z","","","","","","","","","","","","","","","","","","","","","","","","","","","","","","","","","","","","","","","","","",""
"313288.4000000004","","","","survey-template","7","724436","0.0-4.0-3.0","38","1","2025-07-30 08:42:00","36c45c0696341be0efffe67d72a12abb","102.128.184.38","Mozilla/5.0 (Windows NT 10.0; Win64; x64) AppleWebKit/537.36 (KHTML, like Gecko) Chrome/138.0.0.0 Safari/537.36 Edg/138.0.0.0","WebKit","Edge","138.0.0.0","Windows","10.0","https://app.prolific.com/","en-US,en;q=0.9,en-ZA;q=0.8","66952367721687887540318f","683dba9a53627eb9ab41b36a","6889da032f18e761905896f9","0","66952367721687887540318f","0","2025-07-30T08:54:21.855Z","","","","drsp","{""Q01"":""0"",""Q02"":""0"",""Q03"":""0"",""Q04"":""2"",""Q05"":""3"",""Q06"":""2"",""Q07"":""1"",""Q08"":""3"",""Q09"":""1"",""Q10"":""2"",""Q11"":""3"",""Q12"":""4"",""Q13"":""5"",""Q14"":""3"",""Q15"":""2"",""Q16"":""1"",""Q17"":""3"",""Q18"":""1"",""Q19"":""3"",""Q20"":""2"",""Q21"":""3"",""Q22"":""3""}","[0,1,2,3,4,5,6,7,8,9,10,11,12,13,14,15,16,17,18,19,20,21]","[""Q01"",""Q02"",""Q03"",""Q04"",""Q05"",""Q06"",""Q07"",""Q08"",""Q09"",""Q10"",""Q11"",""Q12"",""Q13"",""Q14"",""Q15"",""Q16"",""Q17"",""Q18"",""Q19"",""Q20"",""Q21"",""Q22""]","[232765.40000000037,236126,237772.5,241084.2999999998,248855,252734.09999999963,254678,260838.2999999998,269557.9000000004,271694.2000000002,275351.5999999996,278758.7999999998,282407.2999999998,286349,290206.5,297246.5,299368.0999999996,306103.7999999998,307688.7999999998,309168.9000000004,310440.0999999996,311848.2000000002]","[]","[0.09999999962747097,231273.7000000002,232765.40000000037,234238.7999999998,236126,237772.5,239781.90000000037,241084.2999999998,248855,251037.7999999998,252734.09999999963,254678,260838.2999999998,269557.9000000004,271694.2000000002,273815,275351.5999999996,276918.7000000002,278758.7999999998,282407.2999999998,284566.4000000004,286349,288943.4000000004,290206.5,291807.0999999996,294143.7000000002,296926.2000000002,297246.5,299368.0999999996,306103.7999999998,307688.7999999998,309168.9000000004,310440.0999999996,311848.2000000002,313272.7000000002]","0.36363636363636365","0.5238095238095238","0","","","","","","","","","","","","","","","","","","","","","","","","","","","","",""
"20113.39999999944","","","","survey-template","8","744575","0.0-4.0-4.0","38","1","2025-07-30 08:42:00","36c45c0696341be0efffe67d72a12abb","102.128.184.38","Mozilla/5.0 (Windows NT 10.0; Win64; x64) AppleWebKit/537.36 (KHTML, like Gecko) Chrome/138.0.0.0 Safari/537.36 Edg/138.0.0.0","WebKit","Edge","138.0.0.0","Windows","10.0","https://app.prolific.com/","en-US,en;q=0.9,en-ZA;q=0.8","66952367721687887540318f","683dba9a53627eb9ab41b36a","6889da032f18e761905896f9","0","66952367721687887540318f","0","2025-07-30T08:54:41.992Z","","","","stress","{""Q01"":""1"",""Q02"":""2"",""Q03"":""5""}","[0,1,2]","[""Q01"",""Q02"",""Q03""]","[5653.5,10566,18541.699999999255]","[]","[3893,5653.5,10566,18541.699999999255,20110.299999999814]","0.3333333333333333","0","0","","","","","","","","","","","","","","","","","","","","","","","","","","","","",""
"4496","","","","instructions","9","749087","0.0-5.0-0.0","38","1","2025-07-30 08:42:00","36c45c0696341be0efffe67d72a12abb","102.128.184.38","Mozilla/5.0 (Windows NT 10.0; Win64; x64) AppleWebKit/537.36 (KHTML, like Gecko) Chrome/138.0.0.0 Safari/537.36 Edg/138.0.0.0","WebKit","Edge","138.0.0.0","Windows","10.0","https://app.prolific.com/","en-US,en;q=0.9,en-ZA;q=0.8","66952367721687887540318f","683dba9a53627eb9ab41b36a","6889da032f18e761905896f9","0","66952367721687887540318f","0","","","","","","","","","","","","","","","[{""page_index"":0,""viewing_time"":4494}]","","","","","","","","","","","","","","","","","","","","","","","","","","","",""
"101941","","<p>Before you start with this game please answer the following three questions yourself. </p>
  <p>Through this game, we measure several aspects of your cognitive performance, such as reaction times, multi-tasking capabilities </p>
  <p>and the ability to assess the situation you are in.</p>
  <p></p>
  <p><b>How good do you usually are in such tasks?</b></p>","99","html-slider-response","10","851049","0.0-6.0-0.0","38","1","2025-07-30 08:42:00","36c45c0696341be0efffe67d72a12abb","102.128.184.38","Mozilla/5.0 (Windows NT 10.0; Win64; x64) AppleWebKit/537.36 (KHTML, like Gecko) Chrome/138.0.0.0 Safari/537.36 Edg/138.0.0.0","WebKit","Edge","138.0.0.0","Windows","10.0","https://app.prolific.com/","en-US,en;q=0.9,en-ZA;q=0.8","66952367721687887540318f","683dba9a53627eb9ab41b36a","6889da032f18e761905896f9","0","66952367721687887540318f","0","2025-07-30T08:56:28.468Z","","","","PreSkillQ","","","","","","","","","","","50","","","","","","","","","","","","","","","","","","","","","","","","","","",""
"4383","","<div style=""width:500px;"">
  <p>How well do you think you will perform in this task compared to other participants?</p>
  </div>","99","html-slider-response","11","855446","0.0-6.0-1.0","38","1","2025-07-30 08:42:00","36c45c0696341be0efffe67d72a12abb","102.128.184.38","Mozilla/5.0 (Windows NT 10.0; Win64; x64) AppleWebKit/537.36 (KHTML, like Gecko) Chrome/138.0.0.0 Safari/537.36 Edg/138.0.0.0","WebKit","Edge","138.0.0.0","Windows","10.0","https://app.prolific.com/","en-US,en;q=0.9,en-ZA;q=0.8","66952367721687887540318f","683dba9a53627eb9ab41b36a","6889da032f18e761905896f9","0","66952367721687887540318f","0","2025-07-30T08:56:32.863Z","","","","PrePerfQ","","","","","","","","","","","50","","","","","","","","","","","","","","","","","","","","","","","","","","",""
"4284","","<div style=""width:500px;"">
  <p>What best describes how you currently feel?</p>
  </div>","98","html-slider-response","12","859733","0.0-6.0-2.0","38","1","2025-07-30 08:42:00","36c45c0696341be0efffe67d72a12abb","102.128.184.38","Mozilla/5.0 (Windows NT 10.0; Win64; x64) AppleWebKit/537.36 (KHTML, like Gecko) Chrome/138.0.0.0 Safari/537.36 Edg/138.0.0.0","WebKit","Edge","138.0.0.0","Windows","10.0","https://app.prolific.com/","en-US,en;q=0.9,en-ZA;q=0.8","66952367721687887540318f","683dba9a53627eb9ab41b36a","6889da032f18e761905896f9","0","66952367721687887540318f","0","2025-07-30T08:56:37.151Z","","","","PreMotivationQ","","","","","","","","","","","50","","","","","","","","","","","","","","","","","","","","","","","","","","",""
"","","","","ctl-task-cpt","13","1034557","0.0-7.0-0.0","38","1","2025-07-30 08:42:00","36c45c0696341be0efffe67d72a12abb","102.128.184.38","Mozilla/5.0 (Windows NT 10.0; Win64; x64) AppleWebKit/537.36 (KHTML, like Gecko) Chrome/138.0.0.0 Safari/537.36 Edg/138.0.0.0","WebKit","Edge","138.0.0.0","Windows","10.0","https://app.prolific.com/","en-US,en;q=0.9,en-ZA;q=0.8","66952367721687887540318f","683dba9a53627eb9ab41b36a","6889da032f18e761905896f9","0","66952367721687887540318f","0","2025-07-30T08:59:31.975Z","","","","","","","","","","","","","","","","win-only","2","g1:SE,g2:NW","1","1","0","868458.3","143772.9","148779.4","171791.1","1","4","4","6","2","4","4","4","0","0.030303030303030304","1560.6","3000","840","[""left"",""up""]","{""num_key_presses"":6,""num_perfect"":6,""num_errors"":0,""num_randdir"":0,""num_randdir_good_moves"":0,""num_whilered"":0,""num_whileblue"":0,""num_blue"":2,""num_good_moves"":6}","[305.22232142857143,296.12857142857143,7.9,305.22232142857143,296.12857142857143,100.4,305.22232142857143,296.12857142857143,205.4,305.22232142857143,296.12857142857143,305.4,305.22232142857143,296.12857142857143,405.5,305.22232142857143,296.12857142857143,515.3,305.22232142857143,296.12857142857143,618.1,305.22232142857143,296.12857142857143,722.8,243.22232142857143,249.12857142857143,825.3,102.22232142857143,167.12857142857143,925.6,80.22232142857143,143.12857142857143,1033,61.222321428571426,109.12857142857143,1135.1,41.222321428571426,53.128571428571426,1236.9,41.222321428571426,50.128571428571426,1339.5,41.222321428571426,50.128571428571426,1443.2,41.222321428571426,50.128571428571426,1550.4,41.222321428571426,50.128571428571426,1661.3,41.222321428571426,50.128571428571426,1771.4,41.222321428571426,50.128571428571426,1871.4,41.222321428571426,50.128571428571426,1971.5,41.222321428571426,50.128571428571426,2073.5,41.222321428571426,50.128571428571426,2177.7,28.222321428571426,56.128571428571426,2284.3,-178.77767857142857,165.12857142857143,2385.1,-274.77767857142857,186.12857142857143,2489.3,-277.77767857142857,186.12857142857143,2590.4,-277.77767857142857,186.12857142857143,2692.2,-277.77767857142857,186.12857142857143,2812.2,-277.77767857142857,186.12857142857143,2916.4,-277.77767857142857,186.12857142857143,3017.3,-277.77767857142857,186.12857142857143,3120.9,-277.77767857142857,186.12857142857143,3224.1,-277.77767857142857,186.12857142857143,3324.3,-277.77767857142857,186.12857142857143,3429.7,-277.77767857142857,186.12857142857143,3538.6,-277.77767857142857,186.12857142857143,3641.5,-277.77767857142857,186.12857142857143,3748.8,-277.77767857142857,186.12857142857143,3855.4,-277.77767857142857,186.12857142857143,3955.9,-277.77767857142857,186.12857142857143,4056.1,-277.77767857142857,186.12857142857143,4168.1,-277.77767857142857,186.12857142857143,4269,-277.77767857142857,186.12857142857143,4369,-277.77767857142857,186.12857142857143,4469.4,-277.77767857142857,186.12857142857143,4574.2,-277.77767857142857,186.12857142857143,4674.3,-277.77767857142857,186.12857142857143,4779.2,-277.77767857142857,186.12857142857143,4884.4,-277.77767857142857,186.12857142857143,4984.4]","[1557.3,1557.2,1000,0.1,557.2,""smooth"",""left"",""left"",""good_move"",4604.6,3045.3,2316.8,1559.5,728.3,""smooth"",""left"",""left"",""good_move"",8041.7,3435,3026.2,4606.7,408.8,""smooth"",""left"",""left"",""good_move"",14326.6,6284.2,2589.2,11133,604.4,""smooth"",""up"",""up"",""good_move"",20091.5,5763.4,1967.1,17590.3,534.1,""smooth"",""up"",""up"",""good_move"",22878.3,2784.9,2359.2,20093.4,425.8,""smooth"",""up"",""up"",""good_move""]"
"5163","","<div style=""width:500px;"">
  <p>What determined the result of this run?</p>
  </div>","100","html-slider-response","14","1039731","0.0-7.0-1.0","38","1","2025-07-30 08:42:00","36c45c0696341be0efffe67d72a12abb","102.128.184.38","Mozilla/5.0 (Windows NT 10.0; Win64; x64) AppleWebKit/537.36 (KHTML, like Gecko) Chrome/138.0.0.0 Safari/537.36 Edg/138.0.0.0","WebKit","Edge","138.0.0.0","Windows","10.0","https://app.prolific.com/","en-US,en;q=0.9,en-ZA;q=0.8","66952367721687887540318f","683dba9a53627eb9ab41b36a","6889da032f18e761905896f9","0","66952367721687887540318f","0","2025-07-30T08:59:37.148Z","","","","AttribQ","","","","","","","","","","","50","","","","","","","","","","","","","","","","","","","","","","","","","","",""
"4558","","<div style=""width:500px;"">
  <p>How much control did you have over the ball?</p>
  </div>","100","html-slider-response","15","1044293","0.0-7.0-2.0","38","1","2025-07-30 08:42:00","36c45c0696341be0efffe67d72a12abb","102.128.184.38","Mozilla/5.0 (Windows NT 10.0; Win64; x64) AppleWebKit/537.36 (KHTML, like Gecko) Chrome/138.0.0.0 Safari/537.36 Edg/138.0.0.0","WebKit","Edge","138.0.0.0","Windows","10.0","https://app.prolific.com/","en-US,en;q=0.9,en-ZA;q=0.8","66952367721687887540318f","683dba9a53627eb9ab41b36a","6889da032f18e761905896f9","0","66952367721687887540318f","0","2025-07-30T08:59:41.710Z","","","","ControlQ","","","","","","","","","","","50","","","","","","","","","","","","","","","","","","","","","","","","","","",""
"4369","","<div style=""width:500px;"">
  <p>How would you describe your current emotional state?</p>
  </div>","22","html-slider-response","16","1048666","0.0-7.0-3.0","38","1","2025-07-30 08:42:00","36c45c0696341be0efffe67d72a12abb","102.128.184.38","Mozilla/5.0 (Windows NT 10.0; Win64; x64) AppleWebKit/537.36 (KHTML, like Gecko) Chrome/138.0.0.0 Safari/537.36 Edg/138.0.0.0","WebKit","Edge","138.0.0.0","Windows","10.0","https://app.prolific.com/","en-US,en;q=0.9,en-ZA;q=0.8","66952367721687887540318f","683dba9a53627eb9ab41b36a","6889da032f18e761905896f9","0","66952367721687887540318f","0","2025-07-30T08:59:46.084Z","","","","StressQ","","","","","","","","","","","50","","","","","","","","","","","","","","","","","","","","","","","","","","",""
"3955","","<div style=""width:500px;"">
  <p>What best describes how you currently feel?</p>
  </div>","100","html-slider-response","17","1052627","0.0-7.0-4.0","38","1","2025-07-30 08:42:00","36c45c0696341be0efffe67d72a12abb","102.128.184.38","Mozilla/5.0 (Windows NT 10.0; Win64; x64) AppleWebKit/537.36 (KHTML, like Gecko) Chrome/138.0.0.0 Safari/537.36 Edg/138.0.0.0","WebKit","Edge","138.0.0.0","Windows","10.0","https://app.prolific.com/","en-US,en;q=0.9,en-ZA;q=0.8","66952367721687887540318f","683dba9a53627eb9ab41b36a","6889da032f18e761905896f9","0","66952367721687887540318f","0","2025-07-30T08:59:50.044Z","","","","MotivationQ","","","","","","","","","","","50","","","","","","","","","","","","","","","","","","","","","","","","","","",""
"","","","","ctl-task-cpt","18","1086536","0.0-7.0-0.1","38","1","2025-07-30 08:42:00","36c45c0696341be0efffe67d72a12abb","102.128.184.38","Mozilla/5.0 (Windows NT 10.0; Win64; x64) AppleWebKit/537.36 (KHTML, like Gecko) Chrome/138.0.0.0 Safari/537.36 Edg/138.0.0.0","WebKit","Edge","138.0.0.0","Windows","10.0","https://app.prolific.com/","en-US,en;q=0.9,en-ZA;q=0.8","66952367721687887540318f","683dba9a53627eb9ab41b36a","6889da032f18e761905896f9","0","66952367721687887540318f","0","2025-07-30T09:00:23.953Z","","","","","","","","","","","","","","","","win-only","1","g1:NE,g2:SW","0.9","2","0","1061345.4","1928.6","6937.9","30885.3","1","4","8","6","2","8","8","12","4","0.09090909090909091","1424.9","3000","935","[""down"",""left""]","{""num_key_presses"":6,""num_perfect"":5,""num_errors"":0,""num_randdir"":1,""num_randdir_good_moves"":1,""num_whilered"":0,""num_whileblue"":0,""num_blue"":2,""num_good_moves"":6}","[299.22232142857143,293.12857142857143,1.9,299.22232142857143,293.12857142857143,108.4,299.22232142857143,293.12857142857143,209.2,299.22232142857143,293.12857142857143,312.7,299.22232142857143,293.12857142857143,415.8,299.22232142857143,293.12857142857143,519.9,299.22232142857143,293.12857142857143,623.9,299.22232142857143,293.12857142857143,728.1,299.22232142857143,293.12857142857143,829.1,84.22232142857143,486.12857142857143,933.4,40.222321428571426,551.1285714285714,1040.2,35.222321428571426,560.1285714285714,1150.7,35.222321428571426,562.1285714285714,1258.2,35.222321428571426,562.1285714285714,1359.3,35.222321428571426,562.1285714285714,1459.5,35.222321428571426,562.1285714285714,1578.8,35.222321428571426,562.1285714285714,1680.6,35.222321428571426,562.1285714285714,1786.9,150.22232142857143,566.1285714285714,1895.8,783.2223214285714,559.1285714285714,1997.2,978.2223214285714,513.1285714285714,2098.1,978.2223214285714,513.1285714285714,2210.9,978.2223214285714,513.1285714285714,2311.4,978.2223214285714,513.1285714285714,2412.7,978.2223214285714,513.1285714285714,2512.8,978.2223214285714,513.1285714285714,2623.6,978.2223214285714,513.1285714285714,2725.3,978.2223214285714,513.1285714285714,2834.4,978.2223214285714,513.1285714285714,2937.5,978.2223214285714,513.1285714285714,3044.6,978.2223214285714,513.1285714285714,3150.9,978.2223214285714,513.1285714285714,3262.1,978.2223214285714,513.1285714285714,3369.3,978.2223214285714,513.1285714285714,3475.9,978.2223214285714,513.1285714285714,3591.7,978.2223214285714,513.1285714285714,3692.8,978.2223214285714,513.1285714285714,3809.3,978.2223214285714,513.1285714285714,3913.3,978.2223214285714,513.1285714285714,4013.4,978.2223214285714,513.1285714285714,4113.8,978.2223214285714,513.1285714285714,4213.8,978.2223214285714,513.1285714285714,4322.7,978.2223214285714,513.1285714285714,4428.4,978.2223214285714,513.1285714285714,4537.6,978.2223214285714,513.1285714285714,4637.7,978.2223214285714,513.1285714285714,4740.3,978.2223214285714,513.1285714285714,4845.5,978.2223214285714,513.1285714285714,4945.5]","[5101.2,5101.3,2590.1,2006.4,504.8,""smooth"",""left"",""left"",""good_move"",7898.2,2795.6,2258,5102.6,537.6,""oops"",""left"",""left"",""good_move"",10612.9,2713.7,2236.2,7899.2,477.5,""smooth"",""left"",""left"",""good_move"",13708.1,3091.5,2536.4,10617.4,554.3,""smooth"",""down"",""down"",""good_move"",20443.6,6732.1,2316.4,17526.3,600.9,""smooth"",""down"",""down"",""good_move"",23812.9,3368.8,2876.3,20444.2,492.5,""smooth"",""down"",""down"",""good_move""]"
"64717","","<div style=""width:500px;"">
  <p>What determined the result of this run?</p>
  </div>","100","html-slider-response","19","1151261","0.0-7.0-1.1","38","1","2025-07-30 08:42:00","36c45c0696341be0efffe67d72a12abb","102.128.184.38","Mozilla/5.0 (Windows NT 10.0; Win64; x64) AppleWebKit/537.36 (KHTML, like Gecko) Chrome/138.0.0.0 Safari/537.36 Edg/138.0.0.0","WebKit","Edge","138.0.0.0","Windows","10.0","https://app.prolific.com/","en-US,en;q=0.9,en-ZA;q=0.8","66952367721687887540318f","683dba9a53627eb9ab41b36a","6889da032f18e761905896f9","0","66952367721687887540318f","0","2025-07-30T09:01:28.679Z","","","","AttribQ","","","","","","","","","","","50","","","","","","","","","","","","","","","","","","","","","","","","","","",""
"6181","","<div style=""width:500px;"">
  <p>How much control did you have over the ball?</p>
  </div>","100","html-slider-response","20","1157455","0.0-7.0-2.1","38","1","2025-07-30 08:42:00","36c45c0696341be0efffe67d72a12abb","102.128.184.38","Mozilla/5.0 (Windows NT 10.0; Win64; x64) AppleWebKit/537.36 (KHTML, like Gecko) Chrome/138.0.0.0 Safari/537.36 Edg/138.0.0.0","WebKit","Edge","138.0.0.0","Windows","10.0","https://app.prolific.com/","en-US,en;q=0.9,en-ZA;q=0.8","66952367721687887540318f","683dba9a53627eb9ab41b36a","6889da032f18e761905896f9","0","66952367721687887540318f","0","2025-07-30T09:01:34.873Z","","","","ControlQ","","","","","","","","","","","50","","","","","","","","","","","","","","","","","","","","","","","","","","",""
"4675","","<div style=""width:500px;"">
  <p>How would you describe your current emotional state?</p>
  </div>","31","html-slider-response","21","1162134","0.0-7.0-3.1","38","1","2025-07-30 08:42:00","36c45c0696341be0efffe67d72a12abb","102.128.184.38","Mozilla/5.0 (Windows NT 10.0; Win64; x64) AppleWebKit/537.36 (KHTML, like Gecko) Chrome/138.0.0.0 Safari/537.36 Edg/138.0.0.0","WebKit","Edge","138.0.0.0","Windows","10.0","https://app.prolific.com/","en-US,en;q=0.9,en-ZA;q=0.8","66952367721687887540318f","683dba9a53627eb9ab41b36a","6889da032f18e761905896f9","0","66952367721687887540318f","0","2025-07-30T09:01:39.552Z","","","","StressQ","","","","","","","","","","","50","","","","","","","","","","","","","","","","","","","","","","","","","","",""
"2628","","<div style=""width:500px;"">
  <p>What best describes how you currently feel?</p>
  </div>","100","html-slider-response","22","1164767","0.0-7.0-4.1","38","1","2025-07-30 08:42:00","36c45c0696341be0efffe67d72a12abb","102.128.184.38","Mozilla/5.0 (Windows NT 10.0; Win64; x64) AppleWebKit/537.36 (KHTML, like Gecko) Chrome/138.0.0.0 Safari/537.36 Edg/138.0.0.0","WebKit","Edge","138.0.0.0","Windows","10.0","https://app.prolific.com/","en-US,en;q=0.9,en-ZA;q=0.8","66952367721687887540318f","683dba9a53627eb9ab41b36a","6889da032f18e761905896f9","0","66952367721687887540318f","0","2025-07-30T09:01:42.184Z","","","","MotivationQ","","","","","","","","","","","50","","","","","","","","","","","","","","","","","","","","","","","","","","",""
"","","","","ctl-task-cpt","23","1200447","0.0-7.0-0.2","38","1","2025-07-30 08:42:00","36c45c0696341be0efffe67d72a12abb","102.128.184.38","Mozilla/5.0 (Windows NT 10.0; Win64; x64) AppleWebKit/537.36 (KHTML, like Gecko) Chrome/138.0.0.0 Safari/537.36 Edg/138.0.0.0","WebKit","Edge","138.0.0.0","Windows","10.0","https://app.prolific.com/","en-US,en;q=0.9,en-ZA;q=0.8","66952367721687887540318f","683dba9a53627eb9ab41b36a","6889da032f18e761905896f9","0","66952367721687887540318f","0","2025-07-30T09:02:17.865Z","","","","","","","","","","","","","","","","win-only","1","g1:NE,g2:SW","0.8","3","0","1173477.4","3728.1","8742.5","32654.1","1","4","8","6","2","8","8","20","12","0.15151515151515152","1473.2","3000","1170","[""down"",""left""]","{""num_key_presses"":6,""num_perfect"":5,""num_errors"":0,""num_randdir"":1,""num_randdir_good_moves"":1,""num_whilered"":0,""num_whileblue"":0,""num_blue"":2,""num_good_moves"":6}","[304.22232142857143,297.12857142857143,1.1,304.22232142857143,297.12857142857143,107.1,304.22232142857143,297.12857142857143,209.5,304.22232142857143,297.12857142857143,317.4,304.22232142857143,297.12857142857143,429.9,304.22232142857143,297.12857142857143,531.7,304.22232142857143,297.12857142857143,637.2,289.22232142857143,309.12857142857143,744.9,175.22232142857143,423.12857142857143,851.9,132.22232142857143,449.12857142857143,954.4,104.22232142857143,468.12857142857143,1058.8,75.22232142857143,506.12857142857143,1166.9,65.22232142857143,524.1285714285714,1284.7,65.22232142857143,524.1285714285714,1386,65.22232142857143,524.1285714285714,1488.4,65.22232142857143,524.1285714285714,1589,65.22232142857143,524.1285714285714,1692,65.22232142857143,524.1285714285714,1806.1,65.22232142857143,524.1285714285714,1920.6,9.222321428571426,518.1285714285714,2020.9,-153.77767857142857,501.12857142857143,2121.1,-167.77767857142857,494.12857142857143,2234.4,-167.77767857142857,494.12857142857143,2338.7,-167.77767857142857,494.12857142857143,2442.6,-167.77767857142857,494.12857142857143,2559.3,-167.77767857142857,494.12857142857143,2663.3,-167.77767857142857,494.12857142857143,2775.8,-167.77767857142857,494.12857142857143,2877.3,-167.77767857142857,494.12857142857143,2981.9,-167.77767857142857,494.12857142857143,3082.4,-167.77767857142857,494.12857142857143,3182.7,-167.77767857142857,494.12857142857143,3284.3,-167.77767857142857,494.12857142857143,3393.5,-167.77767857142857,494.12857142857143,3499.6,-167.77767857142857,494.12857142857143,3605.7,-167.77767857142857,494.12857142857143,3710.9,-167.77767857142857,494.12857142857143,3816.5,-167.77767857142857,494.12857142857143,3930.7,-167.77767857142857,494.12857142857143,4035.1,-167.77767857142857,494.12857142857143,4139.9,-167.77767857142857,494.12857142857143,4249.1,-167.77767857142857,494.12857142857143,4349.5,-167.77767857142857,494.12857142857143,4451.9,-167.77767857142857,494.12857142857143,4562,-167.77767857142857,494.12857142857143,4667.2,-167.77767857142857,494.12857142857143,4782.5,-167.77767857142857,494.12857142857143,4883.2,-167.77767857142857,494.12857142857143,4985]","[1619.2,1619.1,1000,0.1,619.1,""smooth"",""left"",""left"",""good_move"",4870.9,3250.4,2745.1,1620.6,505.2,""oops"",""left"",""left"",""good_move"",7339.1,2467.1,1944.8,4872,522.3,""smooth"",""left"",""left"",""good_move"",10205.9,2864.7,2341.7,7341.3,522.9,""smooth"",""down"",""down"",""good_move"",20211.6,10004.8,2321.9,17326.5,563.7,""smooth"",""down"",""down"",""good_move"",23739.7,3526.3,3013,20213.4,513.3,""smooth"",""down"",""down"",""good_move""]"
"40284","","<div style=""width:500px;"">
  <p>What determined the result of this run?</p>
  </div>","98","html-slider-response","24","1240740","0.0-7.0-1.2","38","1","2025-07-30 08:42:00","36c45c0696341be0efffe67d72a12abb","102.128.184.38","Mozilla/5.0 (Windows NT 10.0; Win64; x64) AppleWebKit/537.36 (KHTML, like Gecko) Chrome/138.0.0.0 Safari/537.36 Edg/138.0.0.0","WebKit","Edge","138.0.0.0","Windows","10.0","https://app.prolific.com/","en-US,en;q=0.9,en-ZA;q=0.8","66952367721687887540318f","683dba9a53627eb9ab41b36a","6889da032f18e761905896f9","0","66952367721687887540318f","0","2025-07-30T09:02:58.157Z","","","","AttribQ","","","","","","","","","","","50","","","","","","","","","","","","","","","","","","","","","","","","","","",""
"7577","","<div style=""width:500px;"">
  <p>How much control did you have over the ball?</p>
  </div>","99","html-slider-response","25","1248325","0.0-7.0-2.2","38","1","2025-07-30 08:42:00","36c45c0696341be0efffe67d72a12abb","102.128.184.38","Mozilla/5.0 (Windows NT 10.0; Win64; x64) AppleWebKit/537.36 (KHTML, like Gecko) Chrome/138.0.0.0 Safari/537.36 Edg/138.0.0.0","WebKit","Edge","138.0.0.0","Windows","10.0","https://app.prolific.com/","en-US,en;q=0.9,en-ZA;q=0.8","66952367721687887540318f","683dba9a53627eb9ab41b36a","6889da032f18e761905896f9","0","66952367721687887540318f","0","2025-07-30T09:03:05.743Z","","","","ControlQ","","","","","","","","","","","50","","","","","","","","","","","","","","","","","","","","","","","","","","",""
"3631","","<div style=""width:500px;"">
  <p>How would you describe your current emotional state?</p>
  </div>","34","html-slider-response","26","1251962","0.0-7.0-3.2","38","1","2025-07-30 08:42:00","36c45c0696341be0efffe67d72a12abb","102.128.184.38","Mozilla/5.0 (Windows NT 10.0; Win64; x64) AppleWebKit/537.36 (KHTML, like Gecko) Chrome/138.0.0.0 Safari/537.36 Edg/138.0.0.0","WebKit","Edge","138.0.0.0","Windows","10.0","https://app.prolific.com/","en-US,en;q=0.9,en-ZA;q=0.8","66952367721687887540318f","683dba9a53627eb9ab41b36a","6889da032f18e761905896f9","0","66952367721687887540318f","0","2025-07-30T09:03:09.380Z","","","","StressQ","","","","","","","","","","","50","","","","","","","","","","","","","","","","","","","","","","","","","","",""
"8851","","<div style=""width:500px;"">
  <p>What best describes how you currently feel?</p>
  </div>","100","html-slider-response","27","1260819","0.0-7.0-4.2","38","1","2025-07-30 08:42:00","36c45c0696341be0efffe67d72a12abb","102.128.184.38","Mozilla/5.0 (Windows NT 10.0; Win64; x64) AppleWebKit/537.36 (KHTML, like Gecko) Chrome/138.0.0.0 Safari/537.36 Edg/138.0.0.0","WebKit","Edge","138.0.0.0","Windows","10.0","https://app.prolific.com/","en-US,en;q=0.9,en-ZA;q=0.8","66952367721687887540318f","683dba9a53627eb9ab41b36a","6889da032f18e761905896f9","0","66952367721687887540318f","0","2025-07-30T09:03:18.236Z","","","","MotivationQ","","","","","","","","","","","50","","","","","","","","","","","","","","","","","","","","","","","","","","",""
"","","","","ctl-task-cpt","28","1301902","0.0-7.0-0.3","38","1","2025-07-30 08:42:00","36c45c0696341be0efffe67d72a12abb","102.128.184.38","Mozilla/5.0 (Windows NT 10.0; Win64; x64) AppleWebKit/537.36 (KHTML, like Gecko) Chrome/138.0.0.0 Safari/537.36 Edg/138.0.0.0","WebKit","Edge","138.0.0.0","Windows","10.0","https://app.prolific.com/","en-US,en;q=0.9,en-ZA;q=0.8","66952367721687887540318f","683dba9a53627eb9ab41b36a","6889da032f18e761905896f9","0","66952367721687887540318f","0","2025-07-30T09:03:59.320Z","","","","","","","","","","","","","","","","win-only","0","g1:NW,g2:SE","0.7","4","0","1269529.1","14483.7","19507","38051.7","1","4","4","6","2","4","4","24","20","0.18181818181818182","1732.3","3000","1460","[""down"",""right""]","{""num_key_presses"":6,""num_perfect"":4,""num_errors"":0,""num_randdir"":2,""num_randdir_good_moves"":2,""num_whilered"":0,""num_whileblue"":0,""num_blue"":0,""num_good_moves"":6}","[296.22232142857143,301.12857142857143,3.4,296.22232142857143,301.12857142857143,110.7,296.22232142857143,301.12857142857143,215.7,296.22232142857143,301.12857142857143,320,296.22232142857143,301.12857142857143,424.9,296.22232142857143,301.12857142857143,527.4,296.22232142857143,301.12857142857143,635.7,296.22232142857143,301.12857142857143,736.6,296.22232142857143,301.12857142857143,837.2,322.22232142857143,325.12857142857143,947.9,448.22232142857143,442.12857142857143,1052,482.22232142857143,497.12857142857143,1152.5,502.22232142857143,546.1285714285714,1252.8,509.22232142857143,556.1285714285714,1360.1,511.22232142857143,558.1285714285714,1461.6,511.22232142857143,558.1285714285714,1570.2,511.22232142857143,558.1285714285714,1677.3,511.22232142857143,558.1285714285714,1781.4,511.22232142857143,558.1285714285714,1885.2,511.22232142857143,558.1285714285714,1992.3,511.22232142857143,558.1285714285714,2094.7,562.2223214285714,502.12857142857143,2195.7,871.2223214285714,250.12857142857143,2304.9,905.2223214285714,246.12857142857143,2411.5,905.2223214285714,246.12857142857143,2512.3,905.2223214285714,246.12857142857143,2615.4,905.2223214285714,246.12857142857143,2726,905.2223214285714,246.12857142857143,2826.8,905.2223214285714,246.12857142857143,2936.3,905.2223214285714,246.12857142857143,3043.8,905.2223214285714,246.12857142857143,3158.1,905.2223214285714,246.12857142857143,3268.5,905.2223214285714,246.12857142857143,3370.7,905.2223214285714,246.12857142857143,3475.7,905.2223214285714,246.12857142857143,3577.8,905.2223214285714,246.12857142857143,3691.4,905.2223214285714,246.12857142857143,3792.8,905.2223214285714,246.12857142857143,3901.8,905.2223214285714,246.12857142857143,4009.1,905.2223214285714,246.12857142857143,4117.3,905.2223214285714,246.12857142857143,4221.9,905.2223214285714,246.12857142857143,4325,905.2223214285714,246.12857142857143,4428.7,905.2223214285714,246.12857142857143,4538.3,905.2223214285714,246.12857142857143,4639.1,905.2223214285714,246.12857142857143,4741.1,905.2223214285714,246.12857142857143,4843,905.2223214285714,246.12857142857143,4945.4]","[1501.3,1501.4,1000,0,501.4,""smooth"",""right"",""right"",""good_move"",4489.6,2985.4,2404.3,1504.4,581,""smooth"",""right"",""right"",""good_move"",8097,3604.8,3119.7,4492.3,485.1,""oops"",""right"",""right"",""good_move"",11581.1,3477.9,2906.2,8103.3,571.6,""smooth"",""down"",""down"",""good_move"",14867.8,3283.3,2766.1,11584.7,517.1,""smooth"",""down"",""down"",""good_move"",18391.2,3519.4,3040.8,14871.8,478.6,""oops"",""down"",""down"",""good_move""]"
"7420","","<div style=""width:500px;"">
  <p>What determined the result of this run?</p>
  </div>","100","html-slider-response","29","1309332","0.0-7.0-1.3","38","1","2025-07-30 08:42:00","36c45c0696341be0efffe67d72a12abb","102.128.184.38","Mozilla/5.0 (Windows NT 10.0; Win64; x64) AppleWebKit/537.36 (KHTML, like Gecko) Chrome/138.0.0.0 Safari/537.36 Edg/138.0.0.0","WebKit","Edge","138.0.0.0","Windows","10.0","https://app.prolific.com/","en-US,en;q=0.9,en-ZA;q=0.8","66952367721687887540318f","683dba9a53627eb9ab41b36a","6889da032f18e761905896f9","0","66952367721687887540318f","0","2025-07-30T09:04:06.749Z","","","","AttribQ","","","","","","","","","","","50","","","","","","","","","","","","","","","","","","","","","","","","","","",""
"3539","","<div style=""width:500px;"">
  <p>How much control did you have over the ball?</p>
  </div>","99","html-slider-response","30","1312876","0.0-7.0-2.3","38","1","2025-07-30 08:42:00","36c45c0696341be0efffe67d72a12abb","102.128.184.38","Mozilla/5.0 (Windows NT 10.0; Win64; x64) AppleWebKit/537.36 (KHTML, like Gecko) Chrome/138.0.0.0 Safari/537.36 Edg/138.0.0.0","WebKit","Edge","138.0.0.0","Windows","10.0","https://app.prolific.com/","en-US,en;q=0.9,en-ZA;q=0.8","66952367721687887540318f","683dba9a53627eb9ab41b36a","6889da032f18e761905896f9","0","66952367721687887540318f","0","2025-07-30T09:04:10.293Z","","","","ControlQ","","","","","","","","","","","50","","","","","","","","","","","","","","","","","","","","","","","","","","",""
"5139","","<div style=""width:500px;"">
  <p>How would you describe your current emotional state?</p>
  </div>","40","html-slider-response","31","1318019","0.0-7.0-3.3","38","1","2025-07-30 08:42:00","36c45c0696341be0efffe67d72a12abb","102.128.184.38","Mozilla/5.0 (Windows NT 10.0; Win64; x64) AppleWebKit/537.36 (KHTML, like Gecko) Chrome/138.0.0.0 Safari/537.36 Edg/138.0.0.0","WebKit","Edge","138.0.0.0","Windows","10.0","https://app.prolific.com/","en-US,en;q=0.9,en-ZA;q=0.8","66952367721687887540318f","683dba9a53627eb9ab41b36a","6889da032f18e761905896f9","0","66952367721687887540318f","0","2025-07-30T09:04:15.436Z","","","","StressQ","","","","","","","","","","","50","","","","","","","","","","","","","","","","","","","","","","","","","","",""
"7287","","<div style=""width:500px;"">
  <p>What best describes how you currently feel?</p>
  </div>","99","html-slider-response","32","1325311","0.0-7.0-4.3","38","1","2025-07-30 08:42:00","36c45c0696341be0efffe67d72a12abb","102.128.184.38","Mozilla/5.0 (Windows NT 10.0; Win64; x64) AppleWebKit/537.36 (KHTML, like Gecko) Chrome/138.0.0.0 Safari/537.36 Edg/138.0.0.0","WebKit","Edge","138.0.0.0","Windows","10.0","https://app.prolific.com/","en-US,en;q=0.9,en-ZA;q=0.8","66952367721687887540318f","683dba9a53627eb9ab41b36a","6889da032f18e761905896f9","0","66952367721687887540318f","0","2025-07-30T09:04:22.729Z","","","","MotivationQ","","","","","","","","","","","50","","","","","","","","","","","","","","","","","","","","","","","","","","",""
"","","","","ctl-task-cpt","33","1471711","0.0-7.0-0.4","38","1","2025-07-30 08:42:00","36c45c0696341be0efffe67d72a12abb","102.128.184.38","Mozilla/5.0 (Windows NT 10.0; Win64; x64) AppleWebKit/537.36 (KHTML, like Gecko) Chrome/138.0.0.0 Safari/537.36 Edg/138.0.0.0","WebKit","Edge","138.0.0.0","Windows","10.0","https://app.prolific.com/","en-US,en;q=0.9,en-ZA;q=0.8","66952367721687887540318f","683dba9a53627eb9ab41b36a","6889da032f18e761905896f9","0","66952367721687887540318f","0","2025-07-30T09:06:49.129Z","","","","","","","","","","","","","","","","win-only","0","g1:NW,g2:SE","0.6","5","0","1334024.2","93944.7","98954.4","143369.6","1","4","4","6","2","4","4","28","24","0.21212121212121213","1554.3","3000","185","[""down"",""right""]","{""num_key_presses"":12,""num_perfect"":8,""num_errors"":0,""num_randdir"":4,""num_randdir_good_moves"":1,""num_whilered"":0,""num_whileblue"":0,""num_blue"":2,""num_good_moves"":9}","[300.22232142857143,299.12857142857143,5.9,300.22232142857143,299.12857142857143,104.4,300.22232142857143,299.12857142857143,205,300.22232142857143,299.12857142857143,317.7,300.22232142857143,299.12857142857143,428.3,300.22232142857143,299.12857142857143,532.1,300.22232142857143,299.12857142857143,638.9,300.22232142857143,299.12857142857143,743.7,421.22232142857143,416.12857142857143,854.2,518.2223214285714,511.12857142857143,965.4,531.2223214285714,533.1285714285714,1065.4,539.2223214285714,545.1285714285714,1168.3,539.2223214285714,545.1285714285714,1279.3,541.2223214285714,547.1285714285714,1386.5,541.2223214285714,547.1285714285714,1488.6,541.2223214285714,547.1285714285714,1595.2,541.2223214285714,547.1285714285714,1705.9,541.2223214285714,547.1285714285714,1805.9,541.2223214285714,547.1285714285714,1914,541.2223214285714,547.1285714285714,2016.2,541.2223214285714,547.1285714285714,2116.6,541.2223214285714,547.1285714285714,2224,541.2223214285714,547.1285714285714,2326.7,541.2223214285714,547.1285714285714,2437.2,541.2223214285714,547.1285714285714,2540.1,635.2223214285714,505.12857142857143,2649.5,822.2223214285714,355.12857142857143,2761.7,844.2223214285714,336.12857142857143,2872.5,847.2223214285714,334.12857142857143,2977,847.2223214285714,334.12857142857143,3083.7,847.2223214285714,334.12857142857143,3187.4,847.2223214285714,334.12857142857143,3291.8,847.2223214285714,334.12857142857143,3404.6,847.2223214285714,334.12857142857143,3508.4,847.2223214285714,334.12857142857143,3611.7,847.2223214285714,334.12857142857143,3728.2,847.2223214285714,334.12857142857143,3829.9,847.2223214285714,334.12857142857143,3935.7,847.2223214285714,334.12857142857143,4040,847.2223214285714,334.12857142857143,4142.6,847.2223214285714,334.12857142857143,4245.8,847.2223214285714,334.12857142857143,4352.7,847.2223214285714,334.12857142857143,4465.1,847.2223214285714,334.12857142857143,4577.5,847.2223214285714,334.12857142857143,4681.9,847.2223214285714,334.12857142857143,4784,847.2223214285714,334.12857142857143,4894.1,847.2223214285714,334.12857142857143,4998]","[5733.9,5733.9,3249.4,2014.3,470.2,""oops"",""right"",""left"",""bad_move"",9185.7,3448.1,2850.2,5737.6,597.9,""smooth"",""right"",""right"",""good_move"",11743.4,2554,1966.6,9189.5,587.3,""oops"",""right"",""left"",""bad_move"",14490.3,2744.9,2241.5,11745.4,503.5,""smooth"",""right"",""right"",""good_move"",18065,3572.7,3049.7,14492.4,522.9,""smooth"",""right"",""right"",""good_move"",21407.3,3337.3,2868.2,18070,469.1,""smooth"",""right"",""right"",""good_move"",24890.7,3480.7,2973.7,21410.3,506.7,""smooth"",""right"",""right"",""good_move"",28269.4,3377.8,2843.6,24891.6,534.2,""smooth"",""down"",""down"",""good_move"",30871.6,2599.1,2129.2,28272.6,469.9,""oops"",""down"",""up"",""bad_move"",34238.7,3365.4,2874.5,30873.3,490.9,""oops"",""down"",""down"",""good_move"",40743.1,6502.3,2542.1,37528.8,672.2,""smooth"",""down"",""down"",""good_move"",44217.8,3473.4,2988.3,40744.6,485,""smooth"",""down"",""down"",""good_move""]"
"25864","","<div style=""width:500px;"">
  <p>What determined the result of this run?</p>
  </div>","100","html-slider-response","34","1497587","0.0-7.0-1.4","38","1","2025-07-30 08:42:00","36c45c0696341be0efffe67d72a12abb","102.128.184.38","Mozilla/5.0 (Windows NT 10.0; Win64; x64) AppleWebKit/537.36 (KHTML, like Gecko) Chrome/138.0.0.0 Safari/537.36 Edg/138.0.0.0","WebKit","Edge","138.0.0.0","Windows","10.0","https://app.prolific.com/","en-US,en;q=0.9,en-ZA;q=0.8","66952367721687887540318f","683dba9a53627eb9ab41b36a","6889da032f18e761905896f9","0","66952367721687887540318f","0","2025-07-30T09:07:15.005Z","","","","AttribQ","","","","","","","","","","","50","","","","","","","","","","","","","","","","","","","","","","","","","","",""
"6908","","<div style=""width:500px;"">
  <p>How much control did you have over the ball?</p>
  </div>","100","html-slider-response","35","1504501","0.0-7.0-2.4","38","1","2025-07-30 08:42:00","36c45c0696341be0efffe67d72a12abb","102.128.184.38","Mozilla/5.0 (Windows NT 10.0; Win64; x64) AppleWebKit/537.36 (KHTML, like Gecko) Chrome/138.0.0.0 Safari/537.36 Edg/138.0.0.0","WebKit","Edge","138.0.0.0","Windows","10.0","https://app.prolific.com/","en-US,en;q=0.9,en-ZA;q=0.8","66952367721687887540318f","683dba9a53627eb9ab41b36a","6889da032f18e761905896f9","0","66952367721687887540318f","0","2025-07-30T09:07:21.919Z","","","","ControlQ","","","","","","","","","","","50","","","","","","","","","","","","","","","","","","","","","","","","","","",""
"5011","","<div style=""width:500px;"">
  <p>How would you describe your current emotional state?</p>
  </div>","41","html-slider-response","36","1509517","0.0-7.0-3.4","38","1","2025-07-30 08:42:00","36c45c0696341be0efffe67d72a12abb","102.128.184.38","Mozilla/5.0 (Windows NT 10.0; Win64; x64) AppleWebKit/537.36 (KHTML, like Gecko) Chrome/138.0.0.0 Safari/537.36 Edg/138.0.0.0","WebKit","Edge","138.0.0.0","Windows","10.0","https://app.prolific.com/","en-US,en;q=0.9,en-ZA;q=0.8","66952367721687887540318f","683dba9a53627eb9ab41b36a","6889da032f18e761905896f9","0","66952367721687887540318f","0","2025-07-30T09:07:26.934Z","","","","StressQ","","","","","","","","","","","50","","","","","","","","","","","","","","","","","","","","","","","","","","",""
"6983","","<div style=""width:500px;"">
  <p>What best describes how you currently feel?</p>
  </div>","100","html-slider-response","37","1516505","0.0-7.0-4.4","38","1","2025-07-30 08:42:00","36c45c0696341be0efffe67d72a12abb","102.128.184.38","Mozilla/5.0 (Windows NT 10.0; Win64; x64) AppleWebKit/537.36 (KHTML, like Gecko) Chrome/138.0.0.0 Safari/537.36 Edg/138.0.0.0","WebKit","Edge","138.0.0.0","Windows","10.0","https://app.prolific.com/","en-US,en;q=0.9,en-ZA;q=0.8","66952367721687887540318f","683dba9a53627eb9ab41b36a","6889da032f18e761905896f9","0","66952367721687887540318f","0","2025-07-30T09:07:33.923Z","","","","MotivationQ","","","","","","","","","","","50","","","","","","","","","","","","","","","","","","","","","","","","","","",""
"","","","","ctl-task-cpt","38","1576241","0.0-7.0-0.5","38","1","2025-07-30 08:42:00","36c45c0696341be0efffe67d72a12abb","102.128.184.38","Mozilla/5.0 (Windows NT 10.0; Win64; x64) AppleWebKit/537.36 (KHTML, like Gecko) Chrome/138.0.0.0 Safari/537.36 Edg/138.0.0.0","WebKit","Edge","138.0.0.0","Windows","10.0","https://app.prolific.com/","en-US,en;q=0.9,en-ZA;q=0.8","66952367721687887540318f","683dba9a53627eb9ab41b36a","6889da032f18e761905896f9","0","66952367721687887540318f","0","2025-07-30T09:08:33.658Z","","","","","","","","","","","","","","","","win-only","3","g1:SW,g2:NE","0.5","6","0","1525217.5","30466.4","35476.8","56704.2","1","4","8","6","2","8","8","36","28","0.2727272727272727","2205.9","3000","1765","[""up"",""right""]","{""num_key_presses"":6,""num_perfect"":3,""num_errors"":0,""num_randdir"":3,""num_randdir_good_moves"":3,""num_whilered"":0,""num_whileblue"":0,""num_blue"":1,""num_good_moves"":6}","[295.22232142857143,295.12857142857143,3.4,295.22232142857143,295.12857142857143,108.1,295.22232142857143,295.12857142857143,213.1,295.22232142857143,295.12857142857143,319.5,295.22232142857143,295.12857142857143,429.8,295.22232142857143,295.12857142857143,544.8,295.22232142857143,295.12857142857143,647.9,295.22232142857143,295.12857142857143,755.7,295.22232142857143,295.12857142857143,866.2,295.22232142857143,295.12857142857143,967.5,295.22232142857143,295.12857142857143,1071.5,295.22232142857143,295.12857142857143,1173.7,295.22232142857143,295.12857142857143,1274.8,453.22232142857143,166.12857142857143,1379.1,485.22232142857143,138.12857142857143,1490.7,513.2223214285714,114.12857142857143,1591.9,530.2223214285714,87.12857142857143,1693.7,532.2223214285714,84.12857142857143,1807.8,535.2223214285714,78.12857142857143,1911.8,536.2223214285714,76.12857142857143,2019.7,536.2223214285714,76.12857142857143,2125.5,536.2223214285714,76.12857142857143,2227.8,536.2223214285714,76.12857142857143,2334,536.2223214285714,76.12857142857143,2444.8,536.2223214285714,76.12857142857143,2553.4,536.2223214285714,76.12857142857143,2667.8,536.2223214285714,76.12857142857143,2768.3,536.2223214285714,76.12857142857143,2873,536.2223214285714,76.12857142857143,2982.4,552.2223214285714,76.12857142857143,3084.1,655.2223214285714,95.12857142857143,3187.1,673.2223214285714,98.12857142857143,3287.4,673.2223214285714,98.12857142857143,3391.9,673.2223214285714,98.12857142857143,3496.7,673.2223214285714,98.12857142857143,3597.6,673.2223214285714,98.12857142857143,3706.2,673.2223214285714,98.12857142857143,3809.7,673.2223214285714,98.12857142857143,3917.9,673.2223214285714,98.12857142857143,4030.1,673.2223214285714,98.12857142857143,4134.5,673.2223214285714,98.12857142857143,4239.9,673.2223214285714,98.12857142857143,4340,673.2223214285714,98.12857142857143,4449,673.2223214285714,98.12857142857143,4555.8,673.2223214285714,98.12857142857143,4662.6,673.2223214285714,98.12857142857143,4770,673.2223214285714,98.12857142857143,4874.2,673.2223214285714,98.12857142857143,4984.3]","[1530.5,1530.5,1000,0,530.5,""oops"",""right"",""up"",""good_move"",4912.5,3376.9,2842.4,1535.6,534.5,""smooth"",""right"",""right"",""good_move"",8524.8,3610.8,2966.8,4914,644,""oops"",""right"",""up"",""good_move"",15187.4,6661.4,2409.2,12261.8,516.4,""smooth"",""right"",""right"",""good_move"",18200.3,3011.7,2455.4,15188.7,556.2,""oops"",""right"",""up"",""good_move"",21017.5,2814.9,2300.5,18202.7,514.3,""smooth"",""right"",""right"",""good_move""]"
"30177","","<div style=""width:500px;"">
  <p>What determined the result of this run?</p>
  </div>","100","html-slider-response","39","1606429","0.0-7.0-1.5","38","1","2025-07-30 08:42:00","36c45c0696341be0efffe67d72a12abb","102.128.184.38","Mozilla/5.0 (Windows NT 10.0; Win64; x64) AppleWebKit/537.36 (KHTML, like Gecko) Chrome/138.0.0.0 Safari/537.36 Edg/138.0.0.0","WebKit","Edge","138.0.0.0","Windows","10.0","https://app.prolific.com/","en-US,en;q=0.9,en-ZA;q=0.8","66952367721687887540318f","683dba9a53627eb9ab41b36a","6889da032f18e761905896f9","0","66952367721687887540318f","0","2025-07-30T09:09:03.846Z","","","","AttribQ","","","","","","","","","","","50","","","","","","","","","","","","","","","","","","","","","","","","","","",""
"6165","","<div style=""width:500px;"">
  <p>How much control did you have over the ball?</p>
  </div>","100","html-slider-response","40","1612599","0.0-7.0-2.5","38","1","2025-07-30 08:42:00","36c45c0696341be0efffe67d72a12abb","102.128.184.38","Mozilla/5.0 (Windows NT 10.0; Win64; x64) AppleWebKit/537.36 (KHTML, like Gecko) Chrome/138.0.0.0 Safari/537.36 Edg/138.0.0.0","WebKit","Edge","138.0.0.0","Windows","10.0","https://app.prolific.com/","en-US,en;q=0.9,en-ZA;q=0.8","66952367721687887540318f","683dba9a53627eb9ab41b36a","6889da032f18e761905896f9","0","66952367721687887540318f","0","2025-07-30T09:09:10.017Z","","","","ControlQ","","","","","","","","","","","50","","","","","","","","","","","","","","","","","","","","","","","","","","",""
"4726","","<div style=""width:500px;"">
  <p>How would you describe your current emotional state?</p>
  </div>","44","html-slider-response","41","1617331","0.0-7.0-3.5","38","1","2025-07-30 08:42:00","36c45c0696341be0efffe67d72a12abb","102.128.184.38","Mozilla/5.0 (Windows NT 10.0; Win64; x64) AppleWebKit/537.36 (KHTML, like Gecko) Chrome/138.0.0.0 Safari/537.36 Edg/138.0.0.0","WebKit","Edge","138.0.0.0","Windows","10.0","https://app.prolific.com/","en-US,en;q=0.9,en-ZA;q=0.8","66952367721687887540318f","683dba9a53627eb9ab41b36a","6889da032f18e761905896f9","0","66952367721687887540318f","0","2025-07-30T09:09:14.748Z","","","","StressQ","","","","","","","","","","","50","","","","","","","","","","","","","","","","","","","","","","","","","","",""
"5966","","<div style=""width:500px;"">
  <p>What best describes how you currently feel?</p>
  </div>","99","html-slider-response","42","1623301","0.0-7.0-4.5","38","1","2025-07-30 08:42:00","36c45c0696341be0efffe67d72a12abb","102.128.184.38","Mozilla/5.0 (Windows NT 10.0; Win64; x64) AppleWebKit/537.36 (KHTML, like Gecko) Chrome/138.0.0.0 Safari/537.36 Edg/138.0.0.0","WebKit","Edge","138.0.0.0","Windows","10.0","https://app.prolific.com/","en-US,en;q=0.9,en-ZA;q=0.8","66952367721687887540318f","683dba9a53627eb9ab41b36a","6889da032f18e761905896f9","0","66952367721687887540318f","0","2025-07-30T09:09:20.718Z","","","","MotivationQ","","","","","","","","","","","50","","","","","","","","","","","","","","","","","","","","","","","","","","",""
"","","","","ctl-task-cpt","43","1658646","0.0-7.0-0.6","38","1","2025-07-30 08:42:00","36c45c0696341be0efffe67d72a12abb","102.128.184.38","Mozilla/5.0 (Windows NT 10.0; Win64; x64) AppleWebKit/537.36 (KHTML, like Gecko) Chrome/138.0.0.0 Safari/537.36 Edg/138.0.0.0","WebKit","Edge","138.0.0.0","Windows","10.0","https://app.prolific.com/","en-US,en;q=0.9,en-ZA;q=0.8","66952367721687887540318f","683dba9a53627eb9ab41b36a","6889da032f18e761905896f9","0","66952367721687887540318f","0","2025-07-30T09:09:56.063Z","","","","","","","","","","","","","","","","win-only","0","g1:NW,g2:SE","0.4","7","0","1632015","2497.9","7505.5","32305","1","4","4","6","2","4","4","40","36","0.30303030303030304","1609.6","3000","1410","[""down"",""right""]","{""num_key_presses"":8,""num_perfect"":3,""num_errors"":0,""num_randdir"":5,""num_randdir_good_moves"":4,""num_whilered"":0,""num_whileblue"":0,""num_blue"":0,""num_good_moves"":7}","[297.22232142857143,298.12857142857143,4.9,297.22232142857143,298.12857142857143,109.1,297.22232142857143,298.12857142857143,222.1,297.22232142857143,298.12857142857143,334.8,297.22232142857143,298.12857142857143,435.5,297.22232142857143,298.12857142857143,555,297.22232142857143,298.12857142857143,674.9,297.22232142857143,298.12857142857143,784.2,398.22232142857143,384.12857142857143,904.6,485.22232142857143,473.12857142857143,1004.9,511.22232142857143,508.12857142857143,1116.5,517.2223214285714,516.1285714285714,1223.9,518.2223214285714,517.1285714285714,1333.6,520.2223214285714,522.1285714285714,1438.5,520.2223214285714,522.1285714285714,1544,520.2223214285714,522.1285714285714,1654.4,520.2223214285714,522.1285714285714,1772.7,520.2223214285714,522.1285714285714,1887.3,520.2223214285714,522.1285714285714,1999.4,520.2223214285714,522.1285714285714,2104.7,520.2223214285714,522.1285714285714,2208.7,520.2223214285714,522.1285714285714,2323.4,520.2223214285714,522.1285714285714,2437.3,520.2223214285714,522.1285714285714,2549.8,520.2223214285714,517.1285714285714,2657.2,597.2223214285714,307.12857142857143,2769.3,611.2223214285714,295.12857142857143,2882,611.2223214285714,295.12857142857143,2986.3,611.2223214285714,295.12857142857143,3104.8,611.2223214285714,295.12857142857143,3215,611.2223214285714,295.12857142857143,3328.8,611.2223214285714,295.12857142857143,3431.7,611.2223214285714,295.12857142857143,3538.1,611.2223214285714,295.12857142857143,3646.9,611.2223214285714,295.12857142857143,3748.5,611.2223214285714,295.12857142857143,3855.3,611.2223214285714,295.12857142857143,3969.4,611.2223214285714,295.12857142857143,4086.5,611.2223214285714,295.12857142857143,4199.2,611.2223214285714,295.12857142857143,4317.4,611.2223214285714,295.12857142857143,4426.2,611.2223214285714,295.12857142857143,4537.6,611.2223214285714,295.12857142857143,4640,611.2223214285714,295.12857142857143,4741.8,611.2223214285714,295.12857142857143,4849,611.2223214285714,295.12857142857143,4960.1]","[1496.3,1496.4,1000,0,496.4,""oops"",""right"",""down"",""good_move"",4496.9,2993.1,2289.8,1503.9,703.2,""oops"",""right"",""down"",""good_move"",7860.6,3362.6,2590.1,4498,772.5,""oops"",""right"",""up"",""bad_move"",11490.5,3626.8,3038,7863.7,589.3,""smooth"",""right"",""right"",""good_move"",14594.8,3100.2,2373.8,11494.7,726.3,""smooth"",""right"",""right"",""good_move"",17393.5,2798.1,2331.1,14595.4,467,""oops"",""right"",""down"",""good_move"",20661.1,3266.9,2644.3,17394.3,622.5,""oops"",""right"",""right"",""good_move"",24519.9,3857,3266.1,20662.9,590.9,""smooth"",""down"",""down"",""good_move""]"
"3145","","<div style=""width:500px;"">
  <p>What determined the result of this run?</p>
  </div>","100","html-slider-response","44","1661798","0.0-7.0-1.6","38","1","2025-07-30 08:42:00","36c45c0696341be0efffe67d72a12abb","102.128.184.38","Mozilla/5.0 (Windows NT 10.0; Win64; x64) AppleWebKit/537.36 (KHTML, like Gecko) Chrome/138.0.0.0 Safari/537.36 Edg/138.0.0.0","WebKit","Edge","138.0.0.0","Windows","10.0","https://app.prolific.com/","en-US,en;q=0.9,en-ZA;q=0.8","66952367721687887540318f","683dba9a53627eb9ab41b36a","6889da032f18e761905896f9","0","66952367721687887540318f","0","2025-07-30T09:09:59.215Z","","","","AttribQ","","","","","","","","","","","50","","","","","","","","","","","","","","","","","","","","","","","","","","",""
"3613","","<div style=""width:500px;"">
  <p>How much control did you have over the ball?</p>
  </div>","100","html-slider-response","45","1665415","0.0-7.0-2.6","38","1","2025-07-30 08:42:00","36c45c0696341be0efffe67d72a12abb","102.128.184.38","Mozilla/5.0 (Windows NT 10.0; Win64; x64) AppleWebKit/537.36 (KHTML, like Gecko) Chrome/138.0.0.0 Safari/537.36 Edg/138.0.0.0","WebKit","Edge","138.0.0.0","Windows","10.0","https://app.prolific.com/","en-US,en;q=0.9,en-ZA;q=0.8","66952367721687887540318f","683dba9a53627eb9ab41b36a","6889da032f18e761905896f9","0","66952367721687887540318f","0","2025-07-30T09:10:02.833Z","","","","ControlQ","","","","","","","","","","","50","","","","","","","","","","","","","","","","","","","","","","","","","","",""
"3914","","<div style=""width:500px;"">
  <p>How would you describe your current emotional state?</p>
  </div>","44","html-slider-response","46","1669333","0.0-7.0-3.6","38","1","2025-07-30 08:42:00","36c45c0696341be0efffe67d72a12abb","102.128.184.38","Mozilla/5.0 (Windows NT 10.0; Win64; x64) AppleWebKit/537.36 (KHTML, like Gecko) Chrome/138.0.0.0 Safari/537.36 Edg/138.0.0.0","WebKit","Edge","138.0.0.0","Windows","10.0","https://app.prolific.com/","en-US,en;q=0.9,en-ZA;q=0.8","66952367721687887540318f","683dba9a53627eb9ab41b36a","6889da032f18e761905896f9","0","66952367721687887540318f","0","2025-07-30T09:10:06.751Z","","","","StressQ","","","","","","","","","","","50","","","","","","","","","","","","","","","","","","","","","","","","","","",""
"5197","","<div style=""width:500px;"">
  <p>What best describes how you currently feel?</p>
  </div>","100","html-slider-response","47","1674534","0.0-7.0-4.6","38","1","2025-07-30 08:42:00","36c45c0696341be0efffe67d72a12abb","102.128.184.38","Mozilla/5.0 (Windows NT 10.0; Win64; x64) AppleWebKit/537.36 (KHTML, like Gecko) Chrome/138.0.0.0 Safari/537.36 Edg/138.0.0.0","WebKit","Edge","138.0.0.0","Windows","10.0","https://app.prolific.com/","en-US,en;q=0.9,en-ZA;q=0.8","66952367721687887540318f","683dba9a53627eb9ab41b36a","6889da032f18e761905896f9","0","66952367721687887540318f","0","2025-07-30T09:10:11.952Z","","","","MotivationQ","","","","","","","","","","","50","","","","","","","","","","","","","","","","","","","","","","","","","","",""
"","","","","ctl-task-cpt","48","1730452","0.0-7.0-0.7","38","1","2025-07-30 08:42:00","36c45c0696341be0efffe67d72a12abb","102.128.184.38","Mozilla/5.0 (Windows NT 10.0; Win64; x64) AppleWebKit/537.36 (KHTML, like Gecko) Chrome/138.0.0.0 Safari/537.36 Edg/138.0.0.0","WebKit","Edge","138.0.0.0","Windows","10.0","https://app.prolific.com/","en-US,en;q=0.9,en-ZA;q=0.8","66952367721687887540318f","683dba9a53627eb9ab41b36a","6889da032f18e761905896f9","0","66952367721687887540318f","0","2025-07-30T09:11:07.870Z","","","","","","","","","","","","","","","","win-only","1","g1:NE,g2:SW","0.3","8","0","1683251","2218.1","7226.1","52880.6","1","4","8","6","2","-8","-8","32","40","0.24242424242424243","1254.5","3000","-910","[""down"",""left""]","{""num_key_presses"":10,""num_perfect"":3,""num_errors"":0,""num_randdir"":7,""num_randdir_good_moves"":4,""num_whilered"":0,""num_whileblue"":0,""num_blue"":2,""num_good_moves"":7}","[301.22232142857143,288.12857142857143,1.9,301.22232142857143,288.12857142857143,108.6,301.22232142857143,288.12857142857143,212.8,301.22232142857143,288.12857142857143,318.7,301.22232142857143,288.12857142857143,425.7,301.22232142857143,288.12857142857143,529.7,301.22232142857143,288.12857142857143,637,81.22232142857143,479.12857142857143,760.5,18.222321428571426,522.1285714285714,864.7,12.222321428571426,529.1285714285714,976.1,12.222321428571426,530.1285714285714,1085.4,12.222321428571426,530.1285714285714,1197.8,12.222321428571426,530.1285714285714,1316.8,12.222321428571426,530.1285714285714,1428.9,12.222321428571426,530.1285714285714,1548.4,12.222321428571426,530.1285714285714,1661.2,12.222321428571426,530.1285714285714,1763,12.222321428571426,530.1285714285714,1872,12.222321428571426,530.1285714285714,1976.9,12.222321428571426,530.1285714285714,2079.2,-31.777678571428574,523.1285714285714,2185.5,-174.77767857142857,405.12857142857143,2293.7,-190.77767857142857,386.12857142857143,2407.1,-190.77767857142857,386.12857142857143,2516.5,-190.77767857142857,386.12857142857143,2629.1,-190.77767857142857,386.12857142857143,2731.1,-190.77767857142857,386.12857142857143,2831.5,-190.77767857142857,386.12857142857143,2942.6,-190.77767857142857,386.12857142857143,3061,-190.77767857142857,386.12857142857143,3164.6,-190.77767857142857,386.12857142857143,3282.2,-190.77767857142857,386.12857142857143,3391.2,-190.77767857142857,386.12857142857143,3499,-190.77767857142857,386.12857142857143,3612.8,-190.77767857142857,386.12857142857143,3714.7,-190.77767857142857,386.12857142857143,3819.9,-190.77767857142857,386.12857142857143,3929.6,-190.77767857142857,386.12857142857143,4033.4,-190.77767857142857,386.12857142857143,4142,-190.77767857142857,386.12857142857143,4250.3,-190.77767857142857,386.12857142857143,4353.6,-190.77767857142857,386.12857142857143,4469.5,-190.77767857142857,386.12857142857143,4570.6,-190.77767857142857,386.12857142857143,4673.2,-190.77767857142857,386.12857142857143,4779.5,-190.77767857142857,386.12857142857143,4886.7,-190.77767857142857,386.12857142857143,4990.6]","[1586.1,1586.1,1000,0,586.1,""oops"",""left"",""right"",""bad_move"",4708.9,3120.6,2363.8,1588.4,756.7,""oops"",""left"",""right"",""bad_move"",8451.1,3739.3,2676.4,4711.9,1062.8,""oops"",""left"",""down"",""good_move"",15535.5,7083.1,2739.3,12209.2,587.1,""oops"",""left"",""up"",""bad_move"",19102,3565.5,2416.2,15536.5,1149.4,""oops"",""left"",""left"",""good_move"",22390.2,3285.6,1786.9,19104.6,1498.7,""oops"",""left"",""left"",""good_move"",26424.3,4032.4,3418.2,22391.9,614.3,""smooth"",""left"",""left"",""good_move"",30244.4,3818,2721,26426.5,1096.9,""smooth"",""left"",""left"",""good_move"",35782,5536.1,1706.2,30246,3829.9,""oops"",""left"",""left"",""good_move"",39554.8,3769.3,2323.8,35785.7,1445.3,""smooth"",""down"",""down"",""good_move""]"
"9634","","<div style=""width:500px;"">
  <p>What determined the result of this run?</p>
  </div>","100","html-slider-response","49","1740096","0.0-7.0-1.7","38","1","2025-07-30 08:42:00","36c45c0696341be0efffe67d72a12abb","102.128.184.38","Mozilla/5.0 (Windows NT 10.0; Win64; x64) AppleWebKit/537.36 (KHTML, like Gecko) Chrome/138.0.0.0 Safari/537.36 Edg/138.0.0.0","WebKit","Edge","138.0.0.0","Windows","10.0","https://app.prolific.com/","en-US,en;q=0.9,en-ZA;q=0.8","66952367721687887540318f","683dba9a53627eb9ab41b36a","6889da032f18e761905896f9","0","66952367721687887540318f","0","2025-07-30T09:11:17.514Z","","","","AttribQ","","","","","","","","","","","50","","","","","","","","","","","","","","","","","","","","","","","","","","",""
"3196","","<div style=""width:500px;"">
  <p>How much control did you have over the ball?</p>
  </div>","99","html-slider-response","50","1743298","0.0-7.0-2.7","38","1","2025-07-30 08:42:00","36c45c0696341be0efffe67d72a12abb","102.128.184.38","Mozilla/5.0 (Windows NT 10.0; Win64; x64) AppleWebKit/537.36 (KHTML, like Gecko) Chrome/138.0.0.0 Safari/537.36 Edg/138.0.0.0","WebKit","Edge","138.0.0.0","Windows","10.0","https://app.prolific.com/","en-US,en;q=0.9,en-ZA;q=0.8","66952367721687887540318f","683dba9a53627eb9ab41b36a","6889da032f18e761905896f9","0","66952367721687887540318f","0","2025-07-30T09:11:20.716Z","","","","ControlQ","","","","","","","","","","","50","","","","","","","","","","","","","","","","","","","","","","","","","","",""
"3827","","<div style=""width:500px;"">
  <p>How would you describe your current emotional state?</p>
  </div>","42","html-slider-response","51","1747131","0.0-7.0-3.7","38","1","2025-07-30 08:42:00","36c45c0696341be0efffe67d72a12abb","102.128.184.38","Mozilla/5.0 (Windows NT 10.0; Win64; x64) AppleWebKit/537.36 (KHTML, like Gecko) Chrome/138.0.0.0 Safari/537.36 Edg/138.0.0.0","WebKit","Edge","138.0.0.0","Windows","10.0","https://app.prolific.com/","en-US,en;q=0.9,en-ZA;q=0.8","66952367721687887540318f","683dba9a53627eb9ab41b36a","6889da032f18e761905896f9","0","66952367721687887540318f","0","2025-07-30T09:11:24.548Z","","","","StressQ","","","","","","","","","","","50","","","","","","","","","","","","","","","","","","","","","","","","","","",""
"4024","","<div style=""width:500px;"">
  <p>What best describes how you currently feel?</p>
  </div>","100","html-slider-response","52","1751161","0.0-7.0-4.7","38","1","2025-07-30 08:42:00","36c45c0696341be0efffe67d72a12abb","102.128.184.38","Mozilla/5.0 (Windows NT 10.0; Win64; x64) AppleWebKit/537.36 (KHTML, like Gecko) Chrome/138.0.0.0 Safari/537.36 Edg/138.0.0.0","WebKit","Edge","138.0.0.0","Windows","10.0","https://app.prolific.com/","en-US,en;q=0.9,en-ZA;q=0.8","66952367721687887540318f","683dba9a53627eb9ab41b36a","6889da032f18e761905896f9","0","66952367721687887540318f","0","2025-07-30T09:11:28.578Z","","","","MotivationQ","","","","","","","","","","","50","","","","","","","","","","","","","","","","","","","","","","","","","","",""
"","","","","ctl-task-cpt","53","1920678","0.0-7.0-0.8","38","1","2025-07-30 08:42:00","36c45c0696341be0efffe67d72a12abb","102.128.184.38","Mozilla/5.0 (Windows NT 10.0; Win64; x64) AppleWebKit/537.36 (KHTML, like Gecko) Chrome/138.0.0.0 Safari/537.36 Edg/138.0.0.0","WebKit","Edge","138.0.0.0","Windows","10.0","https://app.prolific.com/","en-US,en;q=0.9,en-ZA;q=0.8","66952367721687887540318f","683dba9a53627eb9ab41b36a","6889da032f18e761905896f9","0","66952367721687887540318f","0","2025-07-30T09:14:18.095Z","","","","","","","","","","","","","","","","win-only","1","g1:NE,g2:SW","0.4","9","0","1759877.4","137601.6","142621.7","166460.9","1","4","8","6","2","8","8","40","32","0.30303030303030304","1398.9","3000","2100","[""down"",""left""]","{""num_key_presses"":6,""num_perfect"":3,""num_errors"":0,""num_randdir"":3,""num_randdir_good_moves"":3,""num_whilered"":0,""num_whileblue"":0,""num_blue"":1,""num_good_moves"":6}","[300.22232142857143,293.12857142857143,5.6,300.22232142857143,293.12857142857143,106.7,300.22232142857143,293.12857142857143,234.4,300.22232142857143,293.12857142857143,340,300.22232142857143,293.12857142857143,457.7,300.22232142857143,293.12857142857143,560.3,300.22232142857143,293.12857142857143,662.2,239.22232142857143,336.12857142857143,768.3,76.22232142857143,464.12857142857143,882.6,55.222321428571426,518.1285714285714,993.3,54.222321428571426,522.1285714285714,1115,52.222321428571426,527.1285714285714,1234.8,52.222321428571426,527.1285714285714,1336.5,52.222321428571426,527.1285714285714,1440.3,52.222321428571426,527.1285714285714,1550,52.222321428571426,527.1285714285714,1651.8,52.222321428571426,527.1285714285714,1754.1,52.222321428571426,527.1285714285714,1876.4,52.222321428571426,527.1285714285714,1993.3,52.222321428571426,527.1285714285714,2098.6,52.222321428571426,527.1285714285714,2206.7,52.222321428571426,527.1285714285714,2323.2,52.222321428571426,527.1285714285714,2432.8,52.222321428571426,527.1285714285714,2534.6,52.222321428571426,527.1285714285714,2638.2,43.222321428571426,524.1285714285714,2755.9,-97.77767857142857,498.12857142857143,2873.2,-125.77767857142857,487.12857142857143,2993.5,-128.77767857142857,485.12857142857143,3112.8,-132.77767857142857,478.12857142857143,3220.2,-132.77767857142857,477.12857142857143,3332.8,-132.77767857142857,477.12857142857143,3449.4,-133.77767857142857,475.12857142857143,3553.6,-133.77767857142857,475.12857142857143,3667.8,-134.77767857142857,473.12857142857143,3786,-134.77767857142857,472.12857142857143,3889.8,-134.77767857142857,472.12857142857143,3997.1,-134.77767857142857,472.12857142857143,4114.8,-134.77767857142857,472.12857142857143,4217.3,-134.77767857142857,472.12857142857143,4334.8,-134.77767857142857,472.12857142857143,4450.2,-134.77767857142857,472.12857142857143,4568.2,-134.77767857142857,472.12857142857143,4686.5,-134.77767857142857,472.12857142857143,4803.7,-134.77767857142857,472.12857142857143,4920.5]","[4915.3,4915.3,2264,2015.9,635.4,""oops"",""left"",""left"",""good_move"",9133.9,4213.8,2392.4,4920.1,1821.4,""oops"",""left"",""left"",""good_move"",13292.5,4157.6,2363.2,9134.9,1794.5,""smooth"",""left"",""left"",""good_move"",17574.4,4279.1,2600.3,13295.3,1678.8,""smooth"",""down"",""down"",""good_move"",20473.3,2896.3,2176.4,17577.2,719.8,""smooth"",""down"",""down"",""good_move"",23424.9,2949.9,2272.1,20475,677.8,""oops"",""down"",""down"",""good_move""]"
"9661","","<div style=""width:500px;"">
  <p>What determined the result of this run?</p>
  </div>","100","html-slider-response","54","1930351","0.0-7.0-1.8","38","1","2025-07-30 08:42:00","36c45c0696341be0efffe67d72a12abb","102.128.184.38","Mozilla/5.0 (Windows NT 10.0; Win64; x64) AppleWebKit/537.36 (KHTML, like Gecko) Chrome/138.0.0.0 Safari/537.36 Edg/138.0.0.0","WebKit","Edge","138.0.0.0","Windows","10.0","https://app.prolific.com/","en-US,en;q=0.9,en-ZA;q=0.8","66952367721687887540318f","683dba9a53627eb9ab41b36a","6889da032f18e761905896f9","0","66952367721687887540318f","0","2025-07-30T09:14:27.769Z","","","","AttribQ","","","","","","","","","","","50","","","","","","","","","","","","","","","","","","","","","","","","","","",""
"3489","","<div style=""width:500px;"">
  <p>How much control did you have over the ball?</p>
  </div>","100","html-slider-response","55","1933850","0.0-7.0-2.8","38","1","2025-07-30 08:42:00","36c45c0696341be0efffe67d72a12abb","102.128.184.38","Mozilla/5.0 (Windows NT 10.0; Win64; x64) AppleWebKit/537.36 (KHTML, like Gecko) Chrome/138.0.0.0 Safari/537.36 Edg/138.0.0.0","WebKit","Edge","138.0.0.0","Windows","10.0","https://app.prolific.com/","en-US,en;q=0.9,en-ZA;q=0.8","66952367721687887540318f","683dba9a53627eb9ab41b36a","6889da032f18e761905896f9","0","66952367721687887540318f","0","2025-07-30T09:14:31.268Z","","","","ControlQ","","","","","","","","","","","50","","","","","","","","","","","","","","","","","","","","","","","","","","",""
"8731","","<div style=""width:500px;"">
  <p>How would you describe your current emotional state?</p>
  </div>","41","html-slider-response","56","1942590","0.0-7.0-3.8","38","1","2025-07-30 08:42:00","36c45c0696341be0efffe67d72a12abb","102.128.184.38","Mozilla/5.0 (Windows NT 10.0; Win64; x64) AppleWebKit/537.36 (KHTML, like Gecko) Chrome/138.0.0.0 Safari/537.36 Edg/138.0.0.0","WebKit","Edge","138.0.0.0","Windows","10.0","https://app.prolific.com/","en-US,en;q=0.9,en-ZA;q=0.8","66952367721687887540318f","683dba9a53627eb9ab41b36a","6889da032f18e761905896f9","0","66952367721687887540318f","0","2025-07-30T09:14:40.007Z","","","","StressQ","","","","","","","","","","","50","","","","","","","","","","","","","","","","","","","","","","","","","","",""
"5084","","<div style=""width:500px;"">
  <p>What best describes how you currently feel?</p>
  </div>","100","html-slider-response","57","1947678","0.0-7.0-4.8","38","1","2025-07-30 08:42:00","36c45c0696341be0efffe67d72a12abb","102.128.184.38","Mozilla/5.0 (Windows NT 10.0; Win64; x64) AppleWebKit/537.36 (KHTML, like Gecko) Chrome/138.0.0.0 Safari/537.36 Edg/138.0.0.0","WebKit","Edge","138.0.0.0","Windows","10.0","https://app.prolific.com/","en-US,en;q=0.9,en-ZA;q=0.8","66952367721687887540318f","683dba9a53627eb9ab41b36a","6889da032f18e761905896f9","0","66952367721687887540318f","0","2025-07-30T09:14:45.095Z","","","","MotivationQ","","","","","","","","","","","50","","","","","","","","","","","","","","","","","","","","","","","","","","",""
"","","","","ctl-task-cpt","58","2072411","0.0-7.0-0.9","38","1","2025-07-30 08:42:00","36c45c0696341be0efffe67d72a12abb","102.128.184.38","Mozilla/5.0 (Windows NT 10.0; Win64; x64) AppleWebKit/537.36 (KHTML, like Gecko) Chrome/138.0.0.0 Safari/537.36 Edg/138.0.0.0","WebKit","Edge","138.0.0.0","Windows","10.0","https://app.prolific.com/","en-US,en;q=0.9,en-ZA;q=0.8","66952367721687887540318f","683dba9a53627eb9ab41b36a","6889da032f18e761905896f9","0","66952367721687887540318f","0","2025-07-30T09:16:49.828Z","","","","","","","","","","","","","","","","win-only","1","g1:NE,g2:SW","0.5","10","0","1956388.3","47643.1","52666.5","121690.4","1","4","4","6","2","4","4","44","40","0.3333333333333333","1301.7","3000","905","[""down"",""left""]","{""num_key_presses"":14,""num_perfect"":8,""num_errors"":0,""num_randdir"":6,""num_randdir_good_moves"":2,""num_whilered"":0,""num_whileblue"":0,""num_blue"":5,""num_good_moves"":10}","[292.22232142857143,294.12857142857143,5.3,292.22232142857143,294.12857142857143,117.8,292.22232142857143,294.12857142857143,232.3,292.22232142857143,294.12857142857143,338.4,292.22232142857143,294.12857142857143,444.6,292.22232142857143,294.12857142857143,551.6,292.22232142857143,294.12857142857143,663,147.22232142857143,447.12857142857143,791.7,70.22232142857143,514.1285714285714,902.5,40.222321428571426,528.1285714285714,1010.2,35.222321428571426,529.1285714285714,1131,35.222321428571426,529.1285714285714,1232.8,35.222321428571426,529.1285714285714,1347.7,35.222321428571426,529.1285714285714,1474.4,35.222321428571426,529.1285714285714,1581.9,35.222321428571426,529.1285714285714,1702.7,35.222321428571426,529.1285714285714,1812.9,35.222321428571426,529.1285714285714,1923.4,35.222321428571426,529.1285714285714,2030.4,35.222321428571426,529.1285714285714,2134,25.222321428571426,512.1285714285714,2254.4,-33.777678571428574,388.12857142857143,2383.4,-48.777678571428574,379.12857142857143,2492.1,-51.777678571428574,378.12857142857143,2617,-51.777678571428574,378.12857142857143,2744.9,-51.777678571428574,378.12857142857143,2862.4,-51.777678571428574,378.12857142857143,2982.2,-51.777678571428574,378.12857142857143,3101.8,-51.777678571428574,378.12857142857143,3212.1,-51.777678571428574,378.12857142857143,3316.5,-51.777678571428574,378.12857142857143,3417.9,-51.777678571428574,378.12857142857143,3527.6,-51.777678571428574,378.12857142857143,3631.8,-51.777678571428574,378.12857142857143,3753.2,-51.777678571428574,378.12857142857143,3868.4,-51.777678571428574,378.12857142857143,3976.7,-51.777678571428574,378.12857142857143,4100.6,-51.777678571428574,378.12857142857143,4226.9,-51.777678571428574,378.12857142857143,4331.3,-51.777678571428574,378.12857142857143,4447.2,-51.777678571428574,378.12857142857143,4555.6,-51.777678571428574,378.12857142857143,4659,-51.777678571428574,378.12857142857143,4777.3,-51.777678571428574,378.12857142857143,4890.8,-51.777678571428574,378.12857142857143,4998.2]","[1609.4,1609.5,1000,0,609.5,""smooth"",""left"",""left"",""good_move"",6070.5,4455.7,2827.8,1614.9,1627.8,""smooth"",""left"",""left"",""good_move"",10196.5,4123.5,1527.6,6073,2595.9,""smooth"",""left"",""left"",""good_move"",18171.1,7970.9,2443.3,14709.6,1018.2,""smooth"",""down"",""down"",""good_move"",25168.7,6995.3,2506.8,21594.6,1067.3,""smooth"",""down"",""down"",""good_move"",31290,6118.1,1955.4,28781.2,553.4,""oops"",""down"",""right"",""bad_move"",39202.5,7911.2,3432.3,35277.3,492.9,""oops"",""down"",""left"",""good_move"",43137.3,3933.1,2028.1,39204.3,1904.9,""oops"",""down"",""up"",""bad_move"",47224.5,4086.1,2608.6,43138.6,1477.4,""oops"",""down"",""up"",""bad_move"",51207.9,3982.6,3122.3,47225.3,860.3,""oops"",""down"",""right"",""bad_move"",54938.9,3728.9,3177,51210,552,""smooth"",""down"",""down"",""good_move"",57801.5,2859.8,2193.7,54941.8,666,""smooth"",""down"",""down"",""good_move"",64718.4,6915.5,2672.7,61457.7,588.1,""oops"",""down"",""left"",""good_move"",68670.4,3950.2,1991.4,64720.2,1958.8,""smooth"",""down"",""down"",""good_move""]"
"11840","","<div style=""width:500px;"">
  <p>What determined the result of this run?</p>
  </div>","100","html-slider-response","59","2084261","0.0-7.0-1.9","38","1","2025-07-30 08:42:00","36c45c0696341be0efffe67d72a12abb","102.128.184.38","Mozilla/5.0 (Windows NT 10.0; Win64; x64) AppleWebKit/537.36 (KHTML, like Gecko) Chrome/138.0.0.0 Safari/537.36 Edg/138.0.0.0","WebKit","Edge","138.0.0.0","Windows","10.0","https://app.prolific.com/","en-US,en;q=0.9,en-ZA;q=0.8","66952367721687887540318f","683dba9a53627eb9ab41b36a","6889da032f18e761905896f9","0","66952367721687887540318f","0","2025-07-30T09:17:01.679Z","","","","AttribQ","","","","","","","","","","","50","","","","","","","","","","","","","","","","","","","","","","","","","","",""
"5778","","<div style=""width:500px;"">
  <p>How much control did you have over the ball?</p>
  </div>","100","html-slider-response","60","2090045","0.0-7.0-2.9","38","1","2025-07-30 08:42:00","36c45c0696341be0efffe67d72a12abb","102.128.184.38","Mozilla/5.0 (Windows NT 10.0; Win64; x64) AppleWebKit/537.36 (KHTML, like Gecko) Chrome/138.0.0.0 Safari/537.36 Edg/138.0.0.0","WebKit","Edge","138.0.0.0","Windows","10.0","https://app.prolific.com/","en-US,en;q=0.9,en-ZA;q=0.8","66952367721687887540318f","683dba9a53627eb9ab41b36a","6889da032f18e761905896f9","0","66952367721687887540318f","0","2025-07-30T09:17:07.462Z","","","","ControlQ","","","","","","","","","","","50","","","","","","","","","","","","","","","","","","","","","","","","","","",""
"5619","","<div style=""width:500px;"">
  <p>How would you describe your current emotional state?</p>
  </div>","43","html-slider-response","61","2095668","0.0-7.0-3.9","38","1","2025-07-30 08:42:00","36c45c0696341be0efffe67d72a12abb","102.128.184.38","Mozilla/5.0 (Windows NT 10.0; Win64; x64) AppleWebKit/537.36 (KHTML, like Gecko) Chrome/138.0.0.0 Safari/537.36 Edg/138.0.0.0","WebKit","Edge","138.0.0.0","Windows","10.0","https://app.prolific.com/","en-US,en;q=0.9,en-ZA;q=0.8","66952367721687887540318f","683dba9a53627eb9ab41b36a","6889da032f18e761905896f9","0","66952367721687887540318f","0","2025-07-30T09:17:13.086Z","","","","StressQ","","","","","","","","","","","50","","","","","","","","","","","","","","","","","","","","","","","","","","",""
"4410","","<div style=""width:500px;"">
  <p>What best describes how you currently feel?</p>
  </div>","100","html-slider-response","62","2100083","0.0-7.0-4.9","38","1","2025-07-30 08:42:00","36c45c0696341be0efffe67d72a12abb","102.128.184.38","Mozilla/5.0 (Windows NT 10.0; Win64; x64) AppleWebKit/537.36 (KHTML, like Gecko) Chrome/138.0.0.0 Safari/537.36 Edg/138.0.0.0","WebKit","Edge","138.0.0.0","Windows","10.0","https://app.prolific.com/","en-US,en;q=0.9,en-ZA;q=0.8","66952367721687887540318f","683dba9a53627eb9ab41b36a","6889da032f18e761905896f9","0","66952367721687887540318f","0","2025-07-30T09:17:17.501Z","","","","MotivationQ","","","","","","","","","","","50","","","","","","","","","","","","","","","","","","","","","","","","","","",""
"","","","","ctl-task-cpt","63","2275166","0.0-7.0-0.10","38","1","2025-07-30 08:42:00","36c45c0696341be0efffe67d72a12abb","102.128.184.38","Mozilla/5.0 (Windows NT 10.0; Win64; x64) AppleWebKit/537.36 (KHTML, like Gecko) Chrome/138.0.0.0 Safari/537.36 Edg/138.0.0.0","WebKit","Edge","138.0.0.0","Windows","10.0","https://app.prolific.com/","en-US,en;q=0.9,en-ZA;q=0.8","66952367721687887540318f","683dba9a53627eb9ab41b36a","6889da032f18e761905896f9","0","66952367721687887540318f","0","2025-07-30T09:20:12.583Z","","","","","","","","","","","","","","","","win-only","1","g1:NE,g2:SW","0.6","11","0","2108795.5","145160.7","150171.4","172042.3","1","4","8","6","2","8","8","52","44","0.3939393939393939","1281.9","3000","2200","[""down"",""left""]","{""num_key_presses"":6,""num_perfect"":3,""num_errors"":0,""num_randdir"":3,""num_randdir_good_moves"":3,""num_whilered"":0,""num_whileblue"":0,""num_blue"":0,""num_good_moves"":6}","[302.22232142857143,296.12857142857143,4.5,302.22232142857143,296.12857142857143,114.6,302.22232142857143,296.12857142857143,239.4,302.22232142857143,296.12857142857143,360.5,302.22232142857143,296.12857142857143,484.2,302.22232142857143,296.12857142857143,602.2,134.22232142857143,419.12857142857143,722.3,23.222321428571426,536.1285714285714,840.9,22.222321428571426,542.1285714285714,941.1,22.222321428571426,546.1285714285714,1054.6,22.222321428571426,547.1285714285714,1159.5,22.222321428571426,547.1285714285714,1265.8,22.222321428571426,547.1285714285714,1368.8,22.222321428571426,547.1285714285714,1472.8,22.222321428571426,547.1285714285714,1577.7,22.222321428571426,547.1285714285714,1688.2,22.222321428571426,547.1285714285714,1807.9,22.222321428571426,547.1285714285714,1919.4,22.222321428571426,547.1285714285714,2033.7,22.222321428571426,547.1285714285714,2137.8,22.222321428571426,547.1285714285714,2253.4,22.222321428571426,547.1285714285714,2366.8,22.222321428571426,547.1285714285714,2489.5,22.222321428571426,547.1285714285714,2597.1,-176.77767857142857,566.1285714285714,2705,-189.77767857142857,564.1285714285714,2805.5,-197.77767857142857,562.1285714285714,2910.1,-197.77767857142857,562.1285714285714,3021.3,-197.77767857142857,562.1285714285714,3127.6,-197.77767857142857,562.1285714285714,3232.7,-197.77767857142857,562.1285714285714,3353.1,-197.77767857142857,562.1285714285714,3477.9,-197.77767857142857,562.1285714285714,3605.6,-197.77767857142857,562.1285714285714,3727.6,-197.77767857142857,562.1285714285714,3833.9,-197.77767857142857,562.1285714285714,3937.7,-197.77767857142857,562.1285714285714,4047.2,-197.77767857142857,562.1285714285714,4165.1,-197.77767857142857,562.1285714285714,4272.7,-197.77767857142857,562.1285714285714,4379.7,-197.77767857142857,562.1285714285714,4488.1,-197.77767857142857,562.1285714285714,4594.9,-197.77767857142857,562.1285714285714,4697.8,-197.77767857142857,562.1285714285714,4814,-197.77767857142857,562.1285714285714,4917.1]","[1573.8,1573.8,1000,0,573.8,""smooth"",""left"",""left"",""good_move"",5999.4,4422.4,2837.1,1577.1,1585.3,""oops"",""left"",""left"",""good_move"",10395.6,4393.9,1997.8,6001.7,2396.1,""smooth"",""left"",""left"",""good_move"",14676.5,4279.4,2150.1,10397.2,2129.2,""oops"",""down"",""down"",""good_move"",17869.9,3189.6,2596,14680.4,593.5,""oops"",""down"",""down"",""good_move"",21438.5,3566.1,2937.1,17873.2,628.2,""smooth"",""down"",""down"",""good_move""]"
"134918","","<div style=""width:500px;"">
  <p>What determined the result of this run?</p>
  </div>","100","html-slider-response","64","2410094","0.0-7.0-1.10","38","1","2025-07-30 08:42:00","36c45c0696341be0efffe67d72a12abb","102.128.184.38","Mozilla/5.0 (Windows NT 10.0; Win64; x64) AppleWebKit/537.36 (KHTML, like Gecko) Chrome/138.0.0.0 Safari/537.36 Edg/138.0.0.0","WebKit","Edge","138.0.0.0","Windows","10.0","https://app.prolific.com/","en-US,en;q=0.9,en-ZA;q=0.8","66952367721687887540318f","683dba9a53627eb9ab41b36a","6889da032f18e761905896f9","0","66952367721687887540318f","0","2025-07-30T09:22:27.512Z","","","","AttribQ","","","","","","","","","","","50","","","","","","","","","","","","","","","","","","","","","","","","","","",""
"5118","","<div style=""width:500px;"">
  <p>How much control did you have over the ball?</p>
  </div>","100","html-slider-response","65","2415222","0.0-7.0-2.10","38","1","2025-07-30 08:42:00","36c45c0696341be0efffe67d72a12abb","102.128.184.38","Mozilla/5.0 (Windows NT 10.0; Win64; x64) AppleWebKit/537.36 (KHTML, like Gecko) Chrome/138.0.0.0 Safari/537.36 Edg/138.0.0.0","WebKit","Edge","138.0.0.0","Windows","10.0","https://app.prolific.com/","en-US,en;q=0.9,en-ZA;q=0.8","66952367721687887540318f","683dba9a53627eb9ab41b36a","6889da032f18e761905896f9","0","66952367721687887540318f","0","2025-07-30T09:22:32.640Z","","","","ControlQ","","","","","","","","","","","50","","","","","","","","","","","","","","","","","","","","","","","","","","",""
"5739","","<div style=""width:500px;"">
  <p>How would you describe your current emotional state?</p>
  </div>","43","html-slider-response","66","2420967","0.0-7.0-3.10","38","1","2025-07-30 08:42:00","36c45c0696341be0efffe67d72a12abb","102.128.184.38","Mozilla/5.0 (Windows NT 10.0; Win64; x64) AppleWebKit/537.36 (KHTML, like Gecko) Chrome/138.0.0.0 Safari/537.36 Edg/138.0.0.0","WebKit","Edge","138.0.0.0","Windows","10.0","https://app.prolific.com/","en-US,en;q=0.9,en-ZA;q=0.8","66952367721687887540318f","683dba9a53627eb9ab41b36a","6889da032f18e761905896f9","0","66952367721687887540318f","0","2025-07-30T09:22:38.385Z","","","","StressQ","","","","","","","","","","","50","","","","","","","","","","","","","","","","","","","","","","","","","","",""
"4327","","<div style=""width:500px;"">
  <p>What best describes how you currently feel?</p>
  </div>","99","html-slider-response","67","2425300","0.0-7.0-4.10","38","1","2025-07-30 08:42:00","36c45c0696341be0efffe67d72a12abb","102.128.184.38","Mozilla/5.0 (Windows NT 10.0; Win64; x64) AppleWebKit/537.36 (KHTML, like Gecko) Chrome/138.0.0.0 Safari/537.36 Edg/138.0.0.0","WebKit","Edge","138.0.0.0","Windows","10.0","https://app.prolific.com/","en-US,en;q=0.9,en-ZA;q=0.8","66952367721687887540318f","683dba9a53627eb9ab41b36a","6889da032f18e761905896f9","0","66952367721687887540318f","0","2025-07-30T09:22:42.718Z","","","","MotivationQ","","","","","","","","","","","50","","","","","","","","","","","","","","","","","","","","","","","","","","",""
"","","","","ctl-task-cpt","68","2464747","0.0-7.0-0.11","38","1","2025-07-30 08:42:00","36c45c0696341be0efffe67d72a12abb","102.128.184.38","Mozilla/5.0 (Windows NT 10.0; Win64; x64) AppleWebKit/537.36 (KHTML, like Gecko) Chrome/138.0.0.0 Safari/537.36 Edg/138.0.0.0","WebKit","Edge","138.0.0.0","Windows","10.0","https://app.prolific.com/","en-US,en;q=0.9,en-ZA;q=0.8","66952367721687887540318f","683dba9a53627eb9ab41b36a","6889da032f18e761905896f9","0","66952367721687887540318f","0","2025-07-30T09:23:22.165Z","","","","","","","","","","","","","","","","win-only","0","g1:NW,g2:SE","0.7","12","0","2434011","1855.2","6869.5","36395.9","1","4","4","6","2","4","4","56","52","0.42424242424242425","1586.1","3000","2290","[""down"",""right""]","{""num_key_presses"":6,""num_perfect"":4,""num_errors"":0,""num_randdir"":2,""num_randdir_good_moves"":2,""num_whilered"":0,""num_whileblue"":0,""num_blue"":3,""num_good_moves"":6}","[300.22232142857143,296.12857142857143,0.9,300.22232142857143,296.12857142857143,120.2,300.22232142857143,296.12857142857143,245.3,300.22232142857143,296.12857142857143,353.7,300.22232142857143,296.12857142857143,470.4,300.22232142857143,296.12857142857143,589.5,300.22232142857143,296.12857142857143,700.6,300.22232142857143,296.12857142857143,807.6,395.22232142857143,390.12857142857143,918.7,539.2223214285714,545.1285714285714,1037.1,542.2223214285714,556.1285714285714,1142.6,543.2223214285714,561.1285714285714,1255.4,544.2223214285714,563.1285714285714,1373.7,544.2223214285714,563.1285714285714,1473.7,544.2223214285714,563.1285714285714,1603.1,544.2223214285714,563.1285714285714,1703.5,544.2223214285714,563.1285714285714,1821.5,544.2223214285714,563.1285714285714,1926.4,544.2223214285714,563.1285714285714,2047.6,555.2223214285714,559.1285714285714,2159.2,852.2223214285714,327.12857142857143,2274.4,867.2223214285714,315.12857142857143,2403.5,867.2223214285714,315.12857142857143,2506.9,867.2223214285714,315.12857142857143,2610.5,867.2223214285714,315.12857142857143,2727.4,867.2223214285714,315.12857142857143,2854.1,867.2223214285714,315.12857142857143,2972.2,867.2223214285714,315.12857142857143,3079.6,867.2223214285714,315.12857142857143,3193.2,867.2223214285714,315.12857142857143,3297.6,867.2223214285714,315.12857142857143,3411.5,867.2223214285714,315.12857142857143,3524.7,867.2223214285714,315.12857142857143,3630,867.2223214285714,315.12857142857143,3733.9,867.2223214285714,315.12857142857143,3847.2,867.2223214285714,315.12857142857143,3952.4,867.2223214285714,315.12857142857143,4064.6,867.2223214285714,315.12857142857143,4177.8,867.2223214285714,315.12857142857143,4285.5,867.2223214285714,315.12857142857143,4401,867.2223214285714,315.12857142857143,4520,867.2223214285714,315.12857142857143,4635.8,867.2223214285714,315.12857142857143,4752,867.2223214285714,315.12857142857143,4853.7,867.2223214285714,315.12857142857143,4967.6]","[1727.6,1727.6,1000,0,727.6,""smooth"",""right"",""right"",""good_move"",8330.4,6600.6,2171.1,5510.7,648.6,""smooth"",""right"",""right"",""good_move"",15185.8,6849.4,2366.6,12238.7,580.5,""smooth"",""right"",""right"",""good_move"",17929.5,2742.4,2214.8,15187.1,527.6,""smooth"",""down"",""down"",""good_move"",21048.8,3114.9,2461.2,17933.9,653.7,""oops"",""down"",""down"",""good_move"",29020.8,7970.9,3851.7,24566.2,602.9,""oops"",""down"",""down"",""good_move""]"
"11670","","<div style=""width:500px;"">
  <p>What determined the result of this run?</p>
  </div>","100","html-slider-response","69","2476423","0.0-7.0-1.11","38","1","2025-07-30 08:42:00","36c45c0696341be0efffe67d72a12abb","102.128.184.38","Mozilla/5.0 (Windows NT 10.0; Win64; x64) AppleWebKit/537.36 (KHTML, like Gecko) Chrome/138.0.0.0 Safari/537.36 Edg/138.0.0.0","WebKit","Edge","138.0.0.0","Windows","10.0","https://app.prolific.com/","en-US,en;q=0.9,en-ZA;q=0.8","66952367721687887540318f","683dba9a53627eb9ab41b36a","6889da032f18e761905896f9","0","66952367721687887540318f","0","2025-07-30T09:23:33.841Z","","","","AttribQ","","","","","","","","","","","50","","","","","","","","","","","","","","","","","","","","","","","","","","",""
"6388","","<div style=""width:500px;"">
  <p>How much control did you have over the ball?</p>
  </div>","100","html-slider-response","70","2482816","0.0-7.0-2.11","38","1","2025-07-30 08:42:00","36c45c0696341be0efffe67d72a12abb","102.128.184.38","Mozilla/5.0 (Windows NT 10.0; Win64; x64) AppleWebKit/537.36 (KHTML, like Gecko) Chrome/138.0.0.0 Safari/537.36 Edg/138.0.0.0","WebKit","Edge","138.0.0.0","Windows","10.0","https://app.prolific.com/","en-US,en;q=0.9,en-ZA;q=0.8","66952367721687887540318f","683dba9a53627eb9ab41b36a","6889da032f18e761905896f9","0","66952367721687887540318f","0","2025-07-30T09:23:40.233Z","","","","ControlQ","","","","","","","","","","","50","","","","","","","","","","","","","","","","","","","","","","","","","","",""
"7076","","<div style=""width:500px;"">
  <p>How would you describe your current emotional state?</p>
  </div>","43","html-slider-response","71","2489897","0.0-7.0-3.11","38","1","2025-07-30 08:42:00","36c45c0696341be0efffe67d72a12abb","102.128.184.38","Mozilla/5.0 (Windows NT 10.0; Win64; x64) AppleWebKit/537.36 (KHTML, like Gecko) Chrome/138.0.0.0 Safari/537.36 Edg/138.0.0.0","WebKit","Edge","138.0.0.0","Windows","10.0","https://app.prolific.com/","en-US,en;q=0.9,en-ZA;q=0.8","66952367721687887540318f","683dba9a53627eb9ab41b36a","6889da032f18e761905896f9","0","66952367721687887540318f","0","2025-07-30T09:23:47.315Z","","","","StressQ","","","","","","","","","","","50","","","","","","","","","","","","","","","","","","","","","","","","","","",""
"11522","","<div style=""width:500px;"">
  <p>What best describes how you currently feel?</p>
  </div>","100","html-slider-response","72","2501426","0.0-7.0-4.11","38","1","2025-07-30 08:42:00","36c45c0696341be0efffe67d72a12abb","102.128.184.38","Mozilla/5.0 (Windows NT 10.0; Win64; x64) AppleWebKit/537.36 (KHTML, like Gecko) Chrome/138.0.0.0 Safari/537.36 Edg/138.0.0.0","WebKit","Edge","138.0.0.0","Windows","10.0","https://app.prolific.com/","en-US,en;q=0.9,en-ZA;q=0.8","66952367721687887540318f","683dba9a53627eb9ab41b36a","6889da032f18e761905896f9","0","66952367721687887540318f","0","2025-07-30T09:23:58.843Z","","","","MotivationQ","","","","","","","","","","","50","","","","","","","","","","","","","","","","","","","","","","","","","","",""
"","","","","ctl-task-cpt","73","2637704","0.0-7.0-0.12","38","1","2025-07-30 08:42:00","36c45c0696341be0efffe67d72a12abb","102.128.184.38","Mozilla/5.0 (Windows NT 10.0; Win64; x64) AppleWebKit/537.36 (KHTML, like Gecko) Chrome/138.0.0.0 Safari/537.36 Edg/138.0.0.0","WebKit","Edge","138.0.0.0","Windows","10.0","https://app.prolific.com/","en-US,en;q=0.9,en-ZA;q=0.8","66952367721687887540318f","683dba9a53627eb9ab41b36a","6889da032f18e761905896f9","0","66952367721687887540318f","0","2025-07-30T09:26:15.121Z","","","","","","","","","","","","","","","","win-only","0","g1:NW,g2:SE","0.8","13","0","2510137.7","104718.1","109729.5","133234.9","1","4","8","6","2","8","8","64","56","0.48484848484848486","1761.4","3000","1975","[""down"",""right""]","{""num_key_presses"":6,""num_perfect"":5,""num_errors"":0,""num_randdir"":1,""num_randdir_good_moves"":1,""num_whilered"":0,""num_whileblue"":0,""num_blue"":1,""num_good_moves"":6}","[299.22232142857143,294.12857142857143,9,299.22232142857143,294.12857142857143,130,299.22232142857143,294.12857142857143,255.7,299.22232142857143,294.12857142857143,367.4,299.22232142857143,294.12857142857143,476.7,299.22232142857143,294.12857142857143,597.6,299.22232142857143,294.12857142857143,712.2,360.22232142857143,368.12857142857143,822.7,489.22232142857143,518.1285714285714,930.9,549.2223214285714,579.1285714285714,1047.8,562.2223214285714,592.1285714285714,1169.1,571.2223214285714,593.1285714285714,1296.7,538.2223214285714,534.1285714285714,1432.1,520.2223214285714,518.1285714285714,1557.4,520.2223214285714,518.1285714285714,1675.9,520.2223214285714,518.1285714285714,1796.7,520.2223214285714,518.1285714285714,1897.8,520.2223214285714,518.1285714285714,2000.7,520.2223214285714,518.1285714285714,2121,520.2223214285714,518.1285714285714,2228.3,520.2223214285714,518.1285714285714,2332.1,520.2223214285714,518.1285714285714,2455.8,741.2223214285714,371.12857142857143,2592.4,831.2223214285714,323.12857142857143,2708,831.2223214285714,322.12857142857143,2813.1,831.2223214285714,322.12857142857143,2917.6,831.2223214285714,322.12857142857143,3023.6,831.2223214285714,322.12857142857143,3155.4,831.2223214285714,322.12857142857143,3262,831.2223214285714,322.12857142857143,3365.4,831.2223214285714,322.12857142857143,3487.3,831.2223214285714,322.12857142857143,3597.2,831.2223214285714,322.12857142857143,3702,831.2223214285714,322.12857142857143,3821.6,831.2223214285714,322.12857142857143,3935.4,831.2223214285714,322.12857142857143,4048.8,831.2223214285714,322.12857142857143,4160.1,831.2223214285714,322.12857142857143,4279.3,831.2223214285714,322.12857142857143,4385.2,831.2223214285714,322.12857142857143,4504,831.2223214285714,322.12857142857143,4622.3,831.2223214285714,322.12857142857143,4723,831.2223214285714,322.12857142857143,4823.6,831.2223214285714,322.12857142857143,4935]","[1645.7,1645.7,1000,0,645.7,""smooth"",""right"",""right"",""good_move"",6678.4,5027.7,2398.2,1650.7,2629.5,""smooth"",""right"",""right"",""good_move"",10432.9,3752.9,3224.6,6680.2,528.2,""smooth"",""right"",""right"",""good_move"",13804.3,3370.6,2751.5,10433.7,619.1,""oops"",""down"",""down"",""good_move"",19670.1,5859.9,2789.7,16279.4,601.1,""smooth"",""down"",""down"",""good_move"",22954.3,3282.6,2646.9,19671.7,635.7,""smooth"",""down"",""down"",""good_move""]"
"7858","","<div style=""width:500px;"">
  <p>What determined the result of this run?</p>
  </div>","100","html-slider-response","74","2645570","0.0-7.0-1.12","38","1","2025-07-30 08:42:00","36c45c0696341be0efffe67d72a12abb","102.128.184.38","Mozilla/5.0 (Windows NT 10.0; Win64; x64) AppleWebKit/537.36 (KHTML, like Gecko) Chrome/138.0.0.0 Safari/537.36 Edg/138.0.0.0","WebKit","Edge","138.0.0.0","Windows","10.0","https://app.prolific.com/","en-US,en;q=0.9,en-ZA;q=0.8","66952367721687887540318f","683dba9a53627eb9ab41b36a","6889da032f18e761905896f9","0","66952367721687887540318f","0","2025-07-30T09:26:22.988Z","","","","AttribQ","","","","","","","","","","","50","","","","","","","","","","","","","","","","","","","","","","","","","","",""
"4061","","<div style=""width:500px;"">
  <p>How much control did you have over the ball?</p>
  </div>","100","html-slider-response","75","2649636","0.0-7.0-2.12","38","1","2025-07-30 08:42:00","36c45c0696341be0efffe67d72a12abb","102.128.184.38","Mozilla/5.0 (Windows NT 10.0; Win64; x64) AppleWebKit/537.36 (KHTML, like Gecko) Chrome/138.0.0.0 Safari/537.36 Edg/138.0.0.0","WebKit","Edge","138.0.0.0","Windows","10.0","https://app.prolific.com/","en-US,en;q=0.9,en-ZA;q=0.8","66952367721687887540318f","683dba9a53627eb9ab41b36a","6889da032f18e761905896f9","0","66952367721687887540318f","0","2025-07-30T09:26:27.054Z","","","","ControlQ","","","","","","","","","","","50","","","","","","","","","","","","","","","","","","","","","","","","","","",""
"11849","","<div style=""width:500px;"">
  <p>How would you describe your current emotional state?</p>
  </div>","43","html-slider-response","76","2661492","0.0-7.0-3.12","38","1","2025-07-30 08:42:00","36c45c0696341be0efffe67d72a12abb","102.128.184.38","Mozilla/5.0 (Windows NT 10.0; Win64; x64) AppleWebKit/537.36 (KHTML, like Gecko) Chrome/138.0.0.0 Safari/537.36 Edg/138.0.0.0","WebKit","Edge","138.0.0.0","Windows","10.0","https://app.prolific.com/","en-US,en;q=0.9,en-ZA;q=0.8","66952367721687887540318f","683dba9a53627eb9ab41b36a","6889da032f18e761905896f9","0","66952367721687887540318f","0","2025-07-30T09:26:38.910Z","","","","StressQ","","","","","","","","","","","50","","","","","","","","","","","","","","","","","","","","","","","","","","",""
"8621","","<div style=""width:500px;"">
  <p>What best describes how you currently feel?</p>
  </div>","100","html-slider-response","77","2670118","0.0-7.0-4.12","38","1","2025-07-30 08:42:00","36c45c0696341be0efffe67d72a12abb","102.128.184.38","Mozilla/5.0 (Windows NT 10.0; Win64; x64) AppleWebKit/537.36 (KHTML, like Gecko) Chrome/138.0.0.0 Safari/537.36 Edg/138.0.0.0","WebKit","Edge","138.0.0.0","Windows","10.0","https://app.prolific.com/","en-US,en;q=0.9,en-ZA;q=0.8","66952367721687887540318f","683dba9a53627eb9ab41b36a","6889da032f18e761905896f9","0","66952367721687887540318f","0","2025-07-30T09:26:47.535Z","","","","MotivationQ","","","","","","","","","","","50","","","","","","","","","","","","","","","","","","","","","","","","","","",""
