"rt","response_timestamp","stimulus","response","trial_type","trial_index","time_elapsed","internal_node_id","run_id","condition","recorded_at","source_code_version","ip","user_agent","device","browser","browser_version","platform","platform_version","referer","accept_language","PROLIFIC_PID","STUDY_ID","SESSION_ID","BATCH","prolific_id","batch","realtime","success","question_order","question_id","eventType","responses","item_order","radio_event_ids","radio_event_times","key_event_times","mouse_event_times","straightlining","zigzagging","honeypot","view_history","slider_start","which_type","canvas_config","goals_layout","control_level","trial_number","tutorial_trial_number","trial_start_time","phase1_start_time","phase2_start_time","phase3_start_time","goal_1_value","goal_1_distance","goal_2_value","goal_2_distance","goal_selected","outcome","outcome_total","participant_final_score","participant_initial_score","participant_final_score_prop","goal_choice_rt","allocated_time","allocated_time_remaining","goal_direction","counts","mouse_movements","key_presses"
"7546","1754473047335","<p style='font-size:40px;line-height:1.25'><strong>Welcome to the experiment!</strong></p><p style='font-size:1.1em;line-height:1.25'>Thank you for participanting in our experiment again! You will be asked to play the Dysfunctional Ball Game again. We will briefly recap the rules before we start.</p><p style='font-size:1.1em;line-height:1.25'>Press <strong>Next</strong> to continue.</p>","0","custom-html-button-response","0","7555","0.0-0.0","168","1","2025-08-06 09:37:18","36c45c0696341be0efffe67d72a12abb","41.121.24.43","Mozilla/5.0 (Windows NT 10.0; Win64; x64) AppleWebKit/537.36 (KHTML, like Gecko) Chrome/138.0.0.0 Safari/537.36","WebKit","Chrome","138.0.0.0","Windows","10.0","https://app.prolific.com/","en-US,en;q=0.9","6697c4e76e01a2e71f34cd33","687a1a965b9f5b85a264363e","68932150bcdf82b4200ce636","1","6697c4e76e01a2e71f34cd33","1","2025-08-06T09:37:27.337Z","","","","","","","","","","","","","","","","","","","","","","","","","","","","","","","","","","","","","","","","","",""
"7189","","","","fullscreen","1","15790","0.0-1.0","168","1","2025-08-06 09:37:18","36c45c0696341be0efffe67d72a12abb","41.121.24.43","Mozilla/5.0 (Windows NT 10.0; Win64; x64) AppleWebKit/537.36 (KHTML, like Gecko) Chrome/138.0.0.0 Safari/537.36","WebKit","Chrome","138.0.0.0","Windows","10.0","https://app.prolific.com/","en-US,en;q=0.9","6697c4e76e01a2e71f34cd33","687a1a965b9f5b85a264363e","68932150bcdf82b4200ce636","1","6697c4e76e01a2e71f34cd33","1","","true","","","","","","","","","","","","","","","","","","","","","","","","","","","","","","","","","","","","","","","","",""
"5898","1754473061472"," <p style='font-size:1.1em;line-height:1.25'>Thank you for closing all other tabs.</p><p style='font-size:1.1em;line-height:1.25'>We will now invite you to fill in some questionnaires, before starting the game.<br>This will take about 5 minutes.<br></p><p style='font-size:1.1em;line-height:1.25'>Press the <strong>Next</strong> button to continue.</p>","0","custom-html-button-response","2","21691","0.0-2.0","168","1","2025-08-06 09:37:18","36c45c0696341be0efffe67d72a12abb","41.121.24.43","Mozilla/5.0 (Windows NT 10.0; Win64; x64) AppleWebKit/537.36 (KHTML, like Gecko) Chrome/138.0.0.0 Safari/537.36","WebKit","Chrome","138.0.0.0","Windows","10.0","https://app.prolific.com/","en-US,en;q=0.9","6697c4e76e01a2e71f34cd33","687a1a965b9f5b85a264363e","68932150bcdf82b4200ce636","1","6697c4e76e01a2e71f34cd33","1","2025-08-06T09:37:41.473Z","","","","","","","","","","","","","","","","","","","","","","","","","","","","","","","","","","","","","","","","","",""
"4439","","","{""assigned_sex"":""female""}","survey-multi-choice","3","26153","0.0-3.0-0.0","168","1","2025-08-06 09:37:18","36c45c0696341be0efffe67d72a12abb","41.121.24.43","Mozilla/5.0 (Windows NT 10.0; Win64; x64) AppleWebKit/537.36 (KHTML, like Gecko) Chrome/138.0.0.0 Safari/537.36","WebKit","Chrome","138.0.0.0","Windows","10.0","https://app.prolific.com/","en-US,en;q=0.9","6697c4e76e01a2e71f34cd33","687a1a965b9f5b85a264363e","68932150bcdf82b4200ce636","1","6697c4e76e01a2e71f34cd33","1","","","[0]","0","demographics","","","","","","","","","","","","","","","","","","","","","","","","","","","","","","","","","","","","","",""
"4334","1754473070272","<p style='font-size:1.1em;line-height:1.25'>In the following, we will perform a baseline assessment. This means that we will ask you a few questions relating to your experiences over the past month.<br></p><p style='font-size:1.1em;line-height:1.25'>Press the <strong>Next</strong> button to continue.</p>","0","custom-html-button-response","4","30491","0.0-4.0-0.0","168","1","2025-08-06 09:37:18","36c45c0696341be0efffe67d72a12abb","41.121.24.43","Mozilla/5.0 (Windows NT 10.0; Win64; x64) AppleWebKit/537.36 (KHTML, like Gecko) Chrome/138.0.0.0 Safari/537.36","WebKit","Chrome","138.0.0.0","Windows","10.0","https://app.prolific.com/","en-US,en;q=0.9","6697c4e76e01a2e71f34cd33","687a1a965b9f5b85a264363e","68932150bcdf82b4200ce636","1","6697c4e76e01a2e71f34cd33","1","2025-08-06T09:37:50.273Z","","","","","","","","","","","","","","","","","","","","","","","","","","","","","","","","","","","","","","","","","",""
"68919.5","","","","survey-template","5","99419","0.0-4.0-1.0","168","1","2025-08-06 09:37:18","36c45c0696341be0efffe67d72a12abb","41.121.24.43","Mozilla/5.0 (Windows NT 10.0; Win64; x64) AppleWebKit/537.36 (KHTML, like Gecko) Chrome/138.0.0.0 Safari/537.36","WebKit","Chrome","138.0.0.0","Windows","10.0","https://app.prolific.com/","en-US,en;q=0.9","6697c4e76e01a2e71f34cd33","687a1a965b9f5b85a264363e","68932150bcdf82b4200ce636","1","6697c4e76e01a2e71f34cd33","1","2025-08-06T09:38:59.201Z","","","","pss","{""Q01"":""1"",""Q02"":""0"",""Q03"":""2"",""Q04"":""0"",""Q05"":""0"",""Q06"":""1"",""Q07"":""1"",""Q08"":""0"",""Q09"":""0"",""Q10"":""1""}","[0,1,2,3,4,5,6,7,8,9]","[""Q01"",""Q02"",""Q03"",""Q04"",""Q05"",""Q06"",""Q07"",""Q08"",""Q09"",""Q10""]","[6014.900000095367,15530.300000190735,18376.800000190735,22323.099999904633,30460.800000190735,39826.5,43759,53958.90000009537,63258.300000190735,67411.30000019073]","[]","[0.3000001907348633,6014.900000095367,11210.5,14047.099999904633,15530.300000190735,18376.800000190735,22323.099999904633,30460.800000190735,39826.5,43759,52566,53958.90000009537,63258.300000190735,67411.30000019073,68911.40000009537]","0.3","0.4444444444444444","0","","","","","","","","","","","","","","","","","","","","","","","","","","","","",""
"4457","1754473143659","<p style='font-size:1.1em;line-height:1.25'>Thank you for your answers! Now we will ask you a few more questions relating to your feelings in the last 24 hours.<br></p><p style='font-size:1.1em;line-height:1.25'>Press the <strong>Next</strong> button to continue.</p>","0","custom-html-button-response","6","103878","0.0-4.0-2.0","168","1","2025-08-06 09:37:18","36c45c0696341be0efffe67d72a12abb","41.121.24.43","Mozilla/5.0 (Windows NT 10.0; Win64; x64) AppleWebKit/537.36 (KHTML, like Gecko) Chrome/138.0.0.0 Safari/537.36","WebKit","Chrome","138.0.0.0","Windows","10.0","https://app.prolific.com/","en-US,en;q=0.9","6697c4e76e01a2e71f34cd33","687a1a965b9f5b85a264363e","68932150bcdf82b4200ce636","1","6697c4e76e01a2e71f34cd33","1","2025-08-06T09:39:03.660Z","","","","","","","","","","","","","","","","","","","","","","","","","","","","","","","","","","","","","","","","","",""
"98336.19999980927","","","","survey-template","7","202222","0.0-4.0-3.0","168","1","2025-08-06 09:37:18","36c45c0696341be0efffe67d72a12abb","41.121.24.43","Mozilla/5.0 (Windows NT 10.0; Win64; x64) AppleWebKit/537.36 (KHTML, like Gecko) Chrome/138.0.0.0 Safari/537.36","WebKit","Chrome","138.0.0.0","Windows","10.0","https://app.prolific.com/","en-US,en;q=0.9","6697c4e76e01a2e71f34cd33","687a1a965b9f5b85a264363e","68932150bcdf82b4200ce636","1","6697c4e76e01a2e71f34cd33","1","2025-08-06T09:40:42.004Z","","","","drsp","{""Q01"":""1"",""Q02"":""0"",""Q03"":""0"",""Q04"":""2"",""Q05"":""3"",""Q06"":""4"",""Q07"":""4"",""Q08"":""2"",""Q09"":""3"",""Q10"":""1"",""Q11"":""3"",""Q12"":""3"",""Q13"":""5"",""Q14"":""4"",""Q15"":""2"",""Q16"":""2"",""Q17"":""1"",""Q18"":""0"",""Q19"":""1"",""Q20"":""2"",""Q21"":""1"",""Q22"":""2""}","[0,1,2,3,4,5,6,7,8,9,10,11,12,13,14,15,16,17,18,19,20,21]","[""Q01"",""Q02"",""Q03"",""Q04"",""Q05"",""Q06"",""Q07"",""Q08"",""Q09"",""Q10"",""Q11"",""Q12"",""Q13"",""Q14"",""Q15"",""Q16"",""Q17"",""Q18"",""Q19"",""Q20"",""Q21"",""Q22""]","[5014.5,6351.199999809265,7993.299999713898,9581.299999713898,14126.900000095367,18020.699999809265,19871.199999809265,23227.900000095367,25810,31286.900000095367,49101.59999990463,50834.40000009537,55151.5,57525,59719.2999997139,68073.90000009537,69910.5,72405.90000009537,75008.90000009537,80722.09999990463,94815.2999997139,96572.90000009537]","[]","[0.2999997138977051,5014.5,6351.199999809265,7993.299999713898,9581.299999713898,11279.099999904633,12666.299999713898,14126.900000095367,15777.099999904633,18020.699999809265,19871.199999809265,23227.900000095367,25810,29981.400000095367,31286.900000095367,47505.7999997139,49101.59999990463,50834.40000009537,53581,55151.5,57525,59719.2999997139,62495.59999990463,68073.90000009537,69910.5,72405.90000009537,75008.90000009537,78465.69999980927,80722.09999990463,92968.7999997139,94815.2999997139,96572.90000009537,98323.40000009537]","0.2727272727272727","0.5238095238095238","0","","","","","","","","","","","","","","","","","","","","","","","","","","","","",""
"15993.599999904633","","","","survey-template","8","218220","0.0-4.0-4.0","168","1","2025-08-06 09:37:18","36c45c0696341be0efffe67d72a12abb","41.121.24.43","Mozilla/5.0 (Windows NT 10.0; Win64; x64) AppleWebKit/537.36 (KHTML, like Gecko) Chrome/138.0.0.0 Safari/537.36","WebKit","Chrome","138.0.0.0","Windows","10.0","https://app.prolific.com/","en-US,en;q=0.9","6697c4e76e01a2e71f34cd33","687a1a965b9f5b85a264363e","68932150bcdf82b4200ce636","1","6697c4e76e01a2e71f34cd33","1","2025-08-06T09:40:58.003Z","","","","stress","{""Q01"":""2"",""Q02"":""1"",""Q03"":""1""}","[0,1,2]","[""Q01"",""Q02"",""Q03""]","[4434.300000190735,12326.300000190735,14385.400000095367]","[]","[4434.300000190735,9753.700000286102,12326.300000190735,14385.400000095367,15991.400000095367]","0.3333333333333333","0","0","","","","","","","","","","","","","","","","","","","","","","","","","","","","",""
"69273","","","","instructions","9","287496","0.0-5.0-0.0","168","1","2025-08-06 09:37:18","36c45c0696341be0efffe67d72a12abb","41.121.24.43","Mozilla/5.0 (Windows NT 10.0; Win64; x64) AppleWebKit/537.36 (KHTML, like Gecko) Chrome/138.0.0.0 Safari/537.36","WebKit","Chrome","138.0.0.0","Windows","10.0","https://app.prolific.com/","en-US,en;q=0.9","6697c4e76e01a2e71f34cd33","687a1a965b9f5b85a264363e","68932150bcdf82b4200ce636","1","6697c4e76e01a2e71f34cd33","1","","","","","","","","","","","","","","","[{""page_index"":0,""viewing_time"":69273}]","","","","","","","","","","","","","","","","","","","","","","","","","","","",""
"7622","","<p>Before you start with this game please answer the following three questions yourself. </p>
  <p>Through this game, we measure several aspects of your cognitive performance, such as reaction times, multi-tasking capabilities </p>
  <p>and the ability to assess the situation you are in.</p>
  <p></p>
  <p><b>How good do you usually are in such tasks?</b></p>","88","html-slider-response","10","295145","0.0-6.0-0.0","168","1","2025-08-06 09:37:18","36c45c0696341be0efffe67d72a12abb","41.121.24.43","Mozilla/5.0 (Windows NT 10.0; Win64; x64) AppleWebKit/537.36 (KHTML, like Gecko) Chrome/138.0.0.0 Safari/537.36","WebKit","Chrome","138.0.0.0","Windows","10.0","https://app.prolific.com/","en-US,en;q=0.9","6697c4e76e01a2e71f34cd33","687a1a965b9f5b85a264363e","68932150bcdf82b4200ce636","1","6697c4e76e01a2e71f34cd33","1","2025-08-06T09:42:14.927Z","","","","PreSkillQ","","","","","","","","","","","50","","","","","","","","","","","","","","","","","","","","","","","","","","",""
"4532","","<div style=""width:500px;"">
  <p>How well do you think you will perform in this task compared to other participants?</p>
  </div>","95","html-slider-response","11","299680","0.0-6.0-1.0","168","1","2025-08-06 09:37:18","36c45c0696341be0efffe67d72a12abb","41.121.24.43","Mozilla/5.0 (Windows NT 10.0; Win64; x64) AppleWebKit/537.36 (KHTML, like Gecko) Chrome/138.0.0.0 Safari/537.36","WebKit","Chrome","138.0.0.0","Windows","10.0","https://app.prolific.com/","en-US,en;q=0.9","6697c4e76e01a2e71f34cd33","687a1a965b9f5b85a264363e","68932150bcdf82b4200ce636","1","6697c4e76e01a2e71f34cd33","1","2025-08-06T09:42:19.463Z","","","","PrePerfQ","","","","","","","","","","","50","","","","","","","","","","","","","","","","","","","","","","","","","","",""
"3698","","<div style=""width:500px;"">
  <p>What best describes how you currently feel?</p>
  </div>","93","html-slider-response","12","303380","0.0-6.0-2.0","168","1","2025-08-06 09:37:18","36c45c0696341be0efffe67d72a12abb","41.121.24.43","Mozilla/5.0 (Windows NT 10.0; Win64; x64) AppleWebKit/537.36 (KHTML, like Gecko) Chrome/138.0.0.0 Safari/537.36","WebKit","Chrome","138.0.0.0","Windows","10.0","https://app.prolific.com/","en-US,en;q=0.9","6697c4e76e01a2e71f34cd33","687a1a965b9f5b85a264363e","68932150bcdf82b4200ce636","1","6697c4e76e01a2e71f34cd33","1","2025-08-06T09:42:23.162Z","","","","PreMotivationQ","","","","","","","","","","","50","","","","","","","","","","","","","","","","","","","","","","","","","","",""
"","","","","ctl-task-cpt","13","335990","0.0-7.0-0.0","168","1","2025-08-06 09:37:18","36c45c0696341be0efffe67d72a12abb","41.121.24.43","Mozilla/5.0 (Windows NT 10.0; Win64; x64) AppleWebKit/537.36 (KHTML, like Gecko) Chrome/138.0.0.0 Safari/537.36","WebKit","Chrome","138.0.0.0","Windows","10.0","https://app.prolific.com/","en-US,en;q=0.9","6697c4e76e01a2e71f34cd33","687a1a965b9f5b85a264363e","68932150bcdf82b4200ce636","1","6697c4e76e01a2e71f34cd33","1","2025-08-06T09:42:55.772Z","","","","","","","","","","","","","","","","win-only","2","g1:SE,g2:NW","1","1","0","306021.5","1700.4","6703.1","29590.9","1","4","4","6","2","4","3","3","0","0.022727272727272728","1921.9","3000","860","[""left"",""up""]","{""num_key_presses"":8,""num_perfect"":7,""num_errors"":1,""num_randdir"":0,""num_randdir_good_moves"":0,""num_whilered"":0,""num_whileblue"":1,""num_blue"":2,""num_good_moves"":7}","[419.0714133126395,411.57142761775424,2,419.0714133126395,411.57142761775424,104.2,419.0714133126395,411.57142761775424,206,419.0714133126395,411.57142761775424,311.2,419.0714133126395,411.57142761775424,418.4,419.0714133126395,411.57142761775424,521.7,419.0714133126395,411.57142761775424,623.7,486.5714133126395,476.57142761775424,726.5,511.5714133126395,491.57142761775424,837.8,461.5714133126395,442.82142761775424,938.3,404.0714133126395,412.82142761775424,1040.5,357.8214133126395,380.32142761775424,1140.5,256.5714133126395,274.07142761775424,1240.7,189.0714133126395,206.57142761775424,1341.6,156.5714133126395,157.82142761775424,1452.7,146.5714133126395,136.57142761775424,1557.3,124.0714133126395,111.57142761775425,1661.5,96.5714133126395,91.57142761775425,1761.5,92.8214133126395,91.57142761775425,1872.8,92.8214133126395,91.57142761775425,1976.8,92.8214133126395,91.57142761775425,2084.5,92.8214133126395,91.57142761775425,2190.6,92.8214133126395,91.57142761775425,2292.4,112.8214133126395,125.32142761775425,2399.1,169.0714133126395,236.57142761775424,2499.5,211.5714133126395,366.57142761775424,2601.2,211.5714133126395,437.82142761775424,2708.6,211.5714133126395,442.82142761775424,2811,211.5714133126395,442.82142761775424,2911.2,211.5714133126395,442.82142761775424,3011.4,211.5714133126395,442.82142761775424,3120.7,211.5714133126395,442.82142761775424,3225.4,211.5714133126395,442.82142761775424,3326.3,211.5714133126395,442.82142761775424,3434.5,211.5714133126395,442.82142761775424,3536.3,211.5714133126395,442.82142761775424,3641.9,211.5714133126395,442.82142761775424,3751.2,211.5714133126395,442.82142761775424,3851.2,211.5714133126395,442.82142761775424,3951.4,211.5714133126395,442.82142761775424,4055,211.5714133126395,442.82142761775424,4155.5,211.5714133126395,442.82142761775424,4257.4,211.5714133126395,442.82142761775424,4361.3,211.5714133126395,442.82142761775424,4466.6,211.5714133126395,442.82142761775424,4569,211.5714133126395,442.82142761775424,4669.9,211.5714133126395,442.82142761775424,4770.4,211.5714133126395,442.82142761775424,4871,211.5714133126395,442.82142761775424,4976]","[1318.4,1318.3,1000,0.2,318.3,""smooth"",""up"",""up"",""good_move"",3969.3,2649.4,2362.9,1320,286.4,""smooth"",""left"",""left"",""good_move"",6651.5,2680.5,2417.8,3971.1,262.6,""while_blue"",""up"",""right"",""bad_move"",9783.1,3128.3,2673.9,6654.9,454.4,""smooth"",""left"",""left"",""good_move"",12431.9,2647.5,2323.6,9784.4,323.9,""smooth"",""up"",""up"",""good_move"",17390.4,4957.4,1252.4,15647.2,490.8,""smooth"",""left"",""left"",""good_move"",19898.5,2507.5,2177.2,17391.1,330.2,""smooth"",""up"",""up"",""good_move"",22768.5,2869.3,2525,19899.2,344.3,""smooth"",""left"",""left"",""good_move""]"
"4481","","<div style=""width:500px;"">
  <p>What determined the result of this run?</p>
  </div>","94","html-slider-response","14","340474","0.0-7.0-1.0","168","1","2025-08-06 09:37:18","36c45c0696341be0efffe67d72a12abb","41.121.24.43","Mozilla/5.0 (Windows NT 10.0; Win64; x64) AppleWebKit/537.36 (KHTML, like Gecko) Chrome/138.0.0.0 Safari/537.36","WebKit","Chrome","138.0.0.0","Windows","10.0","https://app.prolific.com/","en-US,en;q=0.9","6697c4e76e01a2e71f34cd33","687a1a965b9f5b85a264363e","68932150bcdf82b4200ce636","1","6697c4e76e01a2e71f34cd33","1","2025-08-06T09:43:00.256Z","","","","AttribQ","","","","","","","","","","","50","","","","","","","","","","","","","","","","","","","","","","","","","","",""
"3929","","<div style=""width:500px;"">
  <p>How much control did you have over the ball?</p>
  </div>","98","html-slider-response","15","344405","0.0-7.0-2.0","168","1","2025-08-06 09:37:18","36c45c0696341be0efffe67d72a12abb","41.121.24.43","Mozilla/5.0 (Windows NT 10.0; Win64; x64) AppleWebKit/537.36 (KHTML, like Gecko) Chrome/138.0.0.0 Safari/537.36","WebKit","Chrome","138.0.0.0","Windows","10.0","https://app.prolific.com/","en-US,en;q=0.9","6697c4e76e01a2e71f34cd33","687a1a965b9f5b85a264363e","68932150bcdf82b4200ce636","1","6697c4e76e01a2e71f34cd33","1","2025-08-06T09:43:04.187Z","","","","ControlQ","","","","","","","","","","","50","","","","","","","","","","","","","","","","","","","","","","","","","","",""
"4834","","<div style=""width:500px;"">
  <p>How would you describe your current emotional state?</p>
  </div>","11","html-slider-response","16","349241","0.0-7.0-3.0","168","1","2025-08-06 09:37:18","36c45c0696341be0efffe67d72a12abb","41.121.24.43","Mozilla/5.0 (Windows NT 10.0; Win64; x64) AppleWebKit/537.36 (KHTML, like Gecko) Chrome/138.0.0.0 Safari/537.36","WebKit","Chrome","138.0.0.0","Windows","10.0","https://app.prolific.com/","en-US,en;q=0.9","6697c4e76e01a2e71f34cd33","687a1a965b9f5b85a264363e","68932150bcdf82b4200ce636","1","6697c4e76e01a2e71f34cd33","1","2025-08-06T09:43:09.023Z","","","","StressQ","","","","","","","","","","","50","","","","","","","","","","","","","","","","","","","","","","","","","","",""
"3744","","<div style=""width:500px;"">
  <p>What best describes how you currently feel?</p>
  </div>","90","html-slider-response","17","352988","0.0-7.0-4.0","168","1","2025-08-06 09:37:18","36c45c0696341be0efffe67d72a12abb","41.121.24.43","Mozilla/5.0 (Windows NT 10.0; Win64; x64) AppleWebKit/537.36 (KHTML, like Gecko) Chrome/138.0.0.0 Safari/537.36","WebKit","Chrome","138.0.0.0","Windows","10.0","https://app.prolific.com/","en-US,en;q=0.9","6697c4e76e01a2e71f34cd33","687a1a965b9f5b85a264363e","68932150bcdf82b4200ce636","1","6697c4e76e01a2e71f34cd33","1","2025-08-06T09:43:12.770Z","","","","MotivationQ","","","","","","","","","","","50","","","","","","","","","","","","","","","","","","","","","","","","","","",""
"","","","","ctl-task-cpt","18","386248","0.0-7.0-0.1","168","1","2025-08-06 09:37:18","36c45c0696341be0efffe67d72a12abb","41.121.24.43","Mozilla/5.0 (Windows NT 10.0; Win64; x64) AppleWebKit/537.36 (KHTML, like Gecko) Chrome/138.0.0.0 Safari/537.36","WebKit","Chrome","138.0.0.0","Windows","10.0","https://app.prolific.com/","en-US,en;q=0.9","6697c4e76e01a2e71f34cd33","687a1a965b9f5b85a264363e","68932150bcdf82b4200ce636","1","6697c4e76e01a2e71f34cd33","1","2025-08-06T09:43:46.031Z","","","","","","","","","","","","","","","","win-only","2","g1:SE,g2:NW","0.9","2","0","355621.9","2176.6","7188.9","30251.8","1","4","8","6","2","8","8","11","3","0.08333333333333333","1203.8","3000","690","[""left"",""up""]","{""num_key_presses"":8,""num_perfect"":7,""num_errors"":0,""num_randdir"":1,""num_randdir_good_moves"":0,""num_whilered"":0,""num_whileblue"":0,""num_blue"":1,""num_good_moves"":7}","[417.8214133126395,420.32142761775424,2.7,417.8214133126395,420.32142761775424,109.1,417.8214133126395,420.32142761775424,210.3,417.8214133126395,420.32142761775424,314.1,417.8214133126395,420.32142761775424,414.7,417.8214133126395,420.32142761775424,515.2,390.3214133126395,351.57142761775424,621.3,266.5714133126395,262.82142761775424,731.7,147.8214133126395,161.57142761775424,839.4,87.8214133126395,95.32142761775425,939.6,80.3214133126395,76.57142761775425,1046,80.3214133126395,76.57142761775425,1146.5,80.3214133126395,76.57142761775425,1256.8,80.3214133126395,76.57142761775425,1362.2,80.3214133126395,76.57142761775425,1465.9,80.3214133126395,76.57142761775425,1566.4,80.3214133126395,76.57142761775425,1671,-157.1785866873605,180.32142761775424,1781.5,-254.6785866873605,242.82142761775424,1888.2,-265.9285866873605,251.57142761775424,1991.5,-265.9285866873605,251.57142761775424,2095,-265.9285866873605,251.57142761775424,2198.8,-265.9285866873605,251.57142761775424,2299.7,-265.9285866873605,251.57142761775424,2406.9,-265.9285866873605,251.57142761775424,2511.6,-265.9285866873605,251.57142761775424,2612,-265.9285866873605,251.57142761775424,2715.1,-265.9285866873605,251.57142761775424,2815.1,-265.9285866873605,251.57142761775424,2915.8,-265.9285866873605,251.57142761775424,3030.5,-265.9285866873605,251.57142761775424,3141.1,-265.9285866873605,251.57142761775424,3241.7,-265.9285866873605,251.57142761775424,3346.1,-265.9285866873605,251.57142761775424,3454.2,-265.9285866873605,251.57142761775424,3556.4,-265.9285866873605,251.57142761775424,3665.8,-265.9285866873605,251.57142761775424,3777.3,-265.9285866873605,251.57142761775424,3880.3,-265.9285866873605,251.57142761775424,3987.1,-265.9285866873605,251.57142761775424,4088.1,-265.9285866873605,251.57142761775424,4188.9,-265.9285866873605,251.57142761775424,4291.2,-265.9285866873605,251.57142761775424,4396,-265.9285866873605,251.57142761775424,4496,-265.9285866873605,251.57142761775424,4598.4,-265.9285866873605,251.57142761775424,4703.3,-265.9285866873605,251.57142761775424,4806.5,-265.9285866873605,251.57142761775424,4906.7]","[1327.6,1327.6,1000,0,327.6,""smooth"",""up"",""up"",""good_move"",6812.9,5484.7,1688.1,4757,367.8,""smooth"",""left"",""left"",""good_move"",10112.9,3299.4,2855.8,6813.5,443.6,""smooth"",""up"",""up"",""good_move"",12432,2318.5,1926.5,10113.6,391.9,""oops"",""left"",""down"",""bad_move"",15774.6,3340.5,2993.3,12434.2,347.2,""smooth"",""left"",""left"",""good_move"",18660.4,2884.9,2536,15775.6,348.9,""smooth"",""up"",""up"",""good_move"",20829.4,2167.8,1723.5,18661.6,444.3,""smooth"",""left"",""left"",""good_move"",22956.1,2126.1,1805.9,20830,320.2,""smooth"",""up"",""up"",""good_move""]"
"6838","","<div style=""width:500px;"">
  <p>What determined the result of this run?</p>
  </div>","93","html-slider-response","19","393092","0.0-7.0-1.1","168","1","2025-08-06 09:37:18","36c45c0696341be0efffe67d72a12abb","41.121.24.43","Mozilla/5.0 (Windows NT 10.0; Win64; x64) AppleWebKit/537.36 (KHTML, like Gecko) Chrome/138.0.0.0 Safari/537.36","WebKit","Chrome","138.0.0.0","Windows","10.0","https://app.prolific.com/","en-US,en;q=0.9","6697c4e76e01a2e71f34cd33","687a1a965b9f5b85a264363e","68932150bcdf82b4200ce636","1","6697c4e76e01a2e71f34cd33","1","2025-08-06T09:43:52.874Z","","","","AttribQ","","","","","","","","","","","50","","","","","","","","","","","","","","","","","","","","","","","","","","",""
"3810","","<div style=""width:500px;"">
  <p>How much control did you have over the ball?</p>
  </div>","98","html-slider-response","20","396904","0.0-7.0-2.1","168","1","2025-08-06 09:37:18","36c45c0696341be0efffe67d72a12abb","41.121.24.43","Mozilla/5.0 (Windows NT 10.0; Win64; x64) AppleWebKit/537.36 (KHTML, like Gecko) Chrome/138.0.0.0 Safari/537.36","WebKit","Chrome","138.0.0.0","Windows","10.0","https://app.prolific.com/","en-US,en;q=0.9","6697c4e76e01a2e71f34cd33","687a1a965b9f5b85a264363e","68932150bcdf82b4200ce636","1","6697c4e76e01a2e71f34cd33","1","2025-08-06T09:43:56.686Z","","","","ControlQ","","","","","","","","","","","50","","","","","","","","","","","","","","","","","","","","","","","","","","",""
"3799","","<div style=""width:500px;"">
  <p>How would you describe your current emotional state?</p>
  </div>","12","html-slider-response","21","400705","0.0-7.0-3.1","168","1","2025-08-06 09:37:18","36c45c0696341be0efffe67d72a12abb","41.121.24.43","Mozilla/5.0 (Windows NT 10.0; Win64; x64) AppleWebKit/537.36 (KHTML, like Gecko) Chrome/138.0.0.0 Safari/537.36","WebKit","Chrome","138.0.0.0","Windows","10.0","https://app.prolific.com/","en-US,en;q=0.9","6697c4e76e01a2e71f34cd33","687a1a965b9f5b85a264363e","68932150bcdf82b4200ce636","1","6697c4e76e01a2e71f34cd33","1","2025-08-06T09:44:00.487Z","","","","StressQ","","","","","","","","","","","50","","","","","","","","","","","","","","","","","","","","","","","","","","",""
"4820","","<div style=""width:500px;"">
  <p>What best describes how you currently feel?</p>
  </div>","95","html-slider-response","22","405528","0.0-7.0-4.1","168","1","2025-08-06 09:37:18","36c45c0696341be0efffe67d72a12abb","41.121.24.43","Mozilla/5.0 (Windows NT 10.0; Win64; x64) AppleWebKit/537.36 (KHTML, like Gecko) Chrome/138.0.0.0 Safari/537.36","WebKit","Chrome","138.0.0.0","Windows","10.0","https://app.prolific.com/","en-US,en;q=0.9","6697c4e76e01a2e71f34cd33","687a1a965b9f5b85a264363e","68932150bcdf82b4200ce636","1","6697c4e76e01a2e71f34cd33","1","2025-08-06T09:44:05.310Z","","","","MotivationQ","","","","","","","","","","","50","","","","","","","","","","","","","","","","","","","","","","","","","","",""
"","","","","ctl-task-cpt","23","439205","0.0-7.0-0.2","168","1","2025-08-06 09:37:18","36c45c0696341be0efffe67d72a12abb","41.121.24.43","Mozilla/5.0 (Windows NT 10.0; Win64; x64) AppleWebKit/537.36 (KHTML, like Gecko) Chrome/138.0.0.0 Safari/537.36","WebKit","Chrome","138.0.0.0","Windows","10.0","https://app.prolific.com/","en-US,en;q=0.9","6697c4e76e01a2e71f34cd33","687a1a965b9f5b85a264363e","68932150bcdf82b4200ce636","1","6697c4e76e01a2e71f34cd33","1","2025-08-06T09:44:38.988Z","","","","","","","","","","","","","","","","win-only","0","g1:NW,g2:SE","0.8","3","0","408166.1","1757.9","6761.8","30656.5","1","4","4","6","2","4","4","15","11","0.11363636363636363","1368.8","3000","445","[""down"",""right""]","{""num_key_presses"":8,""num_perfect"":6,""num_errors"":0,""num_randdir"":2,""num_randdir_good_moves"":1,""num_whilered"":0,""num_whileblue"":0,""num_blue"":0,""num_good_moves"":7}","[409.0714133126395,411.57142761775424,1.1,409.0714133126395,411.57142761775424,103.4,409.0714133126395,411.57142761775424,203.5,409.0714133126395,411.57142761775424,308.6,409.0714133126395,411.57142761775424,409.7,409.0714133126395,411.57142761775424,518.6,409.0714133126395,411.57142761775424,618.7,485.3214133126395,469.07142761775424,721.4,622.8214133126395,592.8214276177542,825.1,706.5714133126395,629.0714276177542,931.4,764.0714133126395,701.5714276177542,1034.7,770.3214133126395,746.5714276177542,1141.5,770.3214133126395,762.8214276177542,1253.1,770.3214133126395,762.8214276177542,1353.5,770.3214133126395,762.8214276177542,1454.3,770.3214133126395,762.8214276177542,1558.5,770.3214133126395,762.8214276177542,1666.1,770.3214133126395,762.8214276177542,1767.1,621.5714133126395,749.0714276177542,1869.6,530.3214133126395,755.3214276177542,1976.6,525.3214133126395,755.3214276177542,2082,525.3214133126395,755.3214276177542,2182.6,525.3214133126395,755.3214276177542,2284.1,525.3214133126395,755.3214276177542,2390.8,525.3214133126395,755.3214276177542,2491.3,525.3214133126395,755.3214276177542,2599,525.3214133126395,755.3214276177542,2699.7,525.3214133126395,755.3214276177542,2803.6,525.3214133126395,755.3214276177542,2903.9,525.3214133126395,755.3214276177542,3004.3,525.3214133126395,755.3214276177542,3114.3,525.3214133126395,755.3214276177542,3219.2,525.3214133126395,755.3214276177542,3320.4,525.3214133126395,755.3214276177542,3425.3,525.3214133126395,755.3214276177542,3532.6,525.3214133126395,755.3214276177542,3633.8,525.3214133126395,755.3214276177542,3740,525.3214133126395,755.3214276177542,3854.1,525.3214133126395,755.3214276177542,3959.9,525.3214133126395,755.3214276177542,4060.7,525.3214133126395,755.3214276177542,4175.7,525.3214133126395,755.3214276177542,4286.5,525.3214133126395,755.3214276177542,4387.8,525.3214133126395,755.3214276177542,4503.4,525.3214133126395,755.3214276177542,4607.2,525.3214133126395,755.3214276177542,4709.3,525.3214133126395,755.3214276177542,4809.8,525.3214133126395,755.3214276177542,4913.3]","[1424.6,1424.6,1000,0,424.6,""smooth"",""down"",""down"",""good_move"",4595.7,3168.9,2774,1426.8,395,""smooth"",""right"",""right"",""good_move"",7683.5,3086.7,2658.7,4596.8,428,""smooth"",""down"",""down"",""good_move"",10999.1,3311.2,2897,7687.9,414.2,""smooth"",""right"",""right"",""good_move"",14265.4,3265.3,2853.1,11000.1,412.2,""oops"",""down"",""left"",""bad_move"",16932.5,2666.5,2319.5,14266,347,""smooth"",""right"",""right"",""good_move"",20144.5,3210.9,2740.7,16933.6,470.2,""smooth"",""right"",""right"",""good_move"",23779.7,3634.2,3203,20145.6,431.1,""oops"",""down"",""down"",""good_move""]"
"3327","","<div style=""width:500px;"">
  <p>What determined the result of this run?</p>
  </div>","91","html-slider-response","24","442535","0.0-7.0-1.2","168","1","2025-08-06 09:37:18","36c45c0696341be0efffe67d72a12abb","41.121.24.43","Mozilla/5.0 (Windows NT 10.0; Win64; x64) AppleWebKit/537.36 (KHTML, like Gecko) Chrome/138.0.0.0 Safari/537.36","WebKit","Chrome","138.0.0.0","Windows","10.0","https://app.prolific.com/","en-US,en;q=0.9","6697c4e76e01a2e71f34cd33","687a1a965b9f5b85a264363e","68932150bcdf82b4200ce636","1","6697c4e76e01a2e71f34cd33","1","2025-08-06T09:44:42.317Z","","","","AttribQ","","","","","","","","","","","50","","","","","","","","","","","","","","","","","","","","","","","","","","",""
"3012","","<div style=""width:500px;"">
  <p>How much control did you have over the ball?</p>
  </div>","76","html-slider-response","25","445549","0.0-7.0-2.2","168","1","2025-08-06 09:37:18","36c45c0696341be0efffe67d72a12abb","41.121.24.43","Mozilla/5.0 (Windows NT 10.0; Win64; x64) AppleWebKit/537.36 (KHTML, like Gecko) Chrome/138.0.0.0 Safari/537.36","WebKit","Chrome","138.0.0.0","Windows","10.0","https://app.prolific.com/","en-US,en;q=0.9","6697c4e76e01a2e71f34cd33","687a1a965b9f5b85a264363e","68932150bcdf82b4200ce636","1","6697c4e76e01a2e71f34cd33","1","2025-08-06T09:44:45.332Z","","","","ControlQ","","","","","","","","","","","50","","","","","","","","","","","","","","","","","","","","","","","","","","",""
"2933","","<div style=""width:500px;"">
  <p>How would you describe your current emotional state?</p>
  </div>","18","html-slider-response","26","448485","0.0-7.0-3.2","168","1","2025-08-06 09:37:18","36c45c0696341be0efffe67d72a12abb","41.121.24.43","Mozilla/5.0 (Windows NT 10.0; Win64; x64) AppleWebKit/537.36 (KHTML, like Gecko) Chrome/138.0.0.0 Safari/537.36","WebKit","Chrome","138.0.0.0","Windows","10.0","https://app.prolific.com/","en-US,en;q=0.9","6697c4e76e01a2e71f34cd33","687a1a965b9f5b85a264363e","68932150bcdf82b4200ce636","1","6697c4e76e01a2e71f34cd33","1","2025-08-06T09:44:48.267Z","","","","StressQ","","","","","","","","","","","50","","","","","","","","","","","","","","","","","","","","","","","","","","",""
"3037","","<div style=""width:500px;"">
  <p>What best describes how you currently feel?</p>
  </div>","85","html-slider-response","27","451524","0.0-7.0-4.2","168","1","2025-08-06 09:37:18","36c45c0696341be0efffe67d72a12abb","41.121.24.43","Mozilla/5.0 (Windows NT 10.0; Win64; x64) AppleWebKit/537.36 (KHTML, like Gecko) Chrome/138.0.0.0 Safari/537.36","WebKit","Chrome","138.0.0.0","Windows","10.0","https://app.prolific.com/","en-US,en;q=0.9","6697c4e76e01a2e71f34cd33","687a1a965b9f5b85a264363e","68932150bcdf82b4200ce636","1","6697c4e76e01a2e71f34cd33","1","2025-08-06T09:44:51.306Z","","","","MotivationQ","","","","","","","","","","","50","","","","","","","","","","","","","","","","","","","","","","","","","","",""
"","","","","ctl-task-cpt","28","500157","0.0-7.0-0.3","168","1","2025-08-06 09:37:18","36c45c0696341be0efffe67d72a12abb","41.121.24.43","Mozilla/5.0 (Windows NT 10.0; Win64; x64) AppleWebKit/537.36 (KHTML, like Gecko) Chrome/138.0.0.0 Safari/537.36","WebKit","Chrome","138.0.0.0","Windows","10.0","https://app.prolific.com/","en-US,en;q=0.9","6697c4e76e01a2e71f34cd33","687a1a965b9f5b85a264363e","68932150bcdf82b4200ce636","1","6697c4e76e01a2e71f34cd33","1","2025-08-06T09:45:39.939Z","","","","","","","","","","","","","","","","win-only","0","g1:NW,g2:SE","0.7","4","0","454158.3","17122.1","22124.1","45616.3","1","4","8","6","2","8","8","23","15","0.17424242424242425","1217.1","3000","1595","[""down"",""right""]","{""num_key_presses"":6,""num_perfect"":5,""num_errors"":0,""num_randdir"":1,""num_randdir_good_moves"":1,""num_whilered"":0,""num_whileblue"":0,""num_blue"":2,""num_good_moves"":6}","[415.3214133126395,417.82142761775424,18.8,415.3214133126395,417.82142761775424,101.2,415.3214133126395,417.82142761775424,202.6,415.3214133126395,417.82142761775424,317.3,415.3214133126395,417.82142761775424,418.9,415.3214133126395,417.82142761775424,528.6,415.3214133126395,417.82142761775424,628.9,505.3214133126395,486.57142761775424,745.8,705.3214133126395,677.8214276177542,854.7,735.3214133126395,711.5714276177542,975,741.5714133126395,719.0714276177542,1076.8,741.5714133126395,719.0714276177542,1186.8,741.5714133126395,719.0714276177542,1288.7,741.5714133126395,719.0714276177542,1392.6,741.5714133126395,719.0714276177542,1495.8,741.5714133126395,719.0714276177542,1601.6,669.0714133126395,715.3214276177542,1711.7,486.5714133126395,705.3214276177542,1827.3,456.5714133126395,711.5714276177542,1936.1,449.0714133126395,716.5714276177542,2037.5,449.0714133126395,716.5714276177542,2139.2,449.0714133126395,716.5714276177542,2239.4,449.0714133126395,716.5714276177542,2354.3,449.0714133126395,716.5714276177542,2455.5,449.0714133126395,716.5714276177542,2556.7,449.0714133126395,716.5714276177542,2661.5,449.0714133126395,716.5714276177542,2776.6,449.0714133126395,716.5714276177542,2877.2,449.0714133126395,716.5714276177542,2986.7,449.0714133126395,716.5714276177542,3093.3,449.0714133126395,716.5714276177542,3195.8,449.0714133126395,716.5714276177542,3301.3,449.0714133126395,716.5714276177542,3403.9,449.0714133126395,716.5714276177542,3509,449.0714133126395,716.5714276177542,3609.8,449.0714133126395,716.5714276177542,3725.9,449.0714133126395,716.5714276177542,3833.6,449.0714133126395,716.5714276177542,3952.3,449.0714133126395,716.5714276177542,4054.7,449.0714133126395,716.5714276177542,4155.2,449.0714133126395,716.5714276177542,4258.5,449.0714133126395,716.5714276177542,4359.4,449.0714133126395,716.5714276177542,4472.4,449.0714133126395,716.5714276177542,4582.6,449.0714133126395,716.5714276177542,4688.3,449.0714133126395,716.5714276177542,4788.3,449.0714133126395,716.5714276177542,4889.5,449.0714133126395,716.5714276177542,4993.5]","[1322.3,1322.3,1000,0,322.3,""smooth"",""down"",""down"",""good_move"",8375.6,7052.3,2822.6,5223,330,""smooth"",""right"",""right"",""good_move"",11255.9,2879.1,2535.4,8376.8,343.7,""oops"",""down"",""right"",""good_move"",13702.4,2445.6,2038.6,11256.9,406.9,""smooth"",""down"",""down"",""good_move"",19053.1,5350.2,1754.8,16934.3,364.1,""smooth"",""right"",""right"",""good_move"",23355.6,4301.6,3836.9,19054,464.7,""smooth"",""down"",""down"",""good_move""]"
"4540","","<div style=""width:500px;"">
  <p>What determined the result of this run?</p>
  </div>","95","html-slider-response","29","504698","0.0-7.0-1.3","168","1","2025-08-06 09:37:18","36c45c0696341be0efffe67d72a12abb","41.121.24.43","Mozilla/5.0 (Windows NT 10.0; Win64; x64) AppleWebKit/537.36 (KHTML, like Gecko) Chrome/138.0.0.0 Safari/537.36","WebKit","Chrome","138.0.0.0","Windows","10.0","https://app.prolific.com/","en-US,en;q=0.9","6697c4e76e01a2e71f34cd33","687a1a965b9f5b85a264363e","68932150bcdf82b4200ce636","1","6697c4e76e01a2e71f34cd33","1","2025-08-06T09:45:44.481Z","","","","AttribQ","","","","","","","","","","","50","","","","","","","","","","","","","","","","","","","","","","","","","","",""
"4895","","<div style=""width:500px;"">
  <p>How much control did you have over the ball?</p>
  </div>","78","html-slider-response","30","509596","0.0-7.0-2.3","168","1","2025-08-06 09:37:18","36c45c0696341be0efffe67d72a12abb","41.121.24.43","Mozilla/5.0 (Windows NT 10.0; Win64; x64) AppleWebKit/537.36 (KHTML, like Gecko) Chrome/138.0.0.0 Safari/537.36","WebKit","Chrome","138.0.0.0","Windows","10.0","https://app.prolific.com/","en-US,en;q=0.9","6697c4e76e01a2e71f34cd33","687a1a965b9f5b85a264363e","68932150bcdf82b4200ce636","1","6697c4e76e01a2e71f34cd33","1","2025-08-06T09:45:49.378Z","","","","ControlQ","","","","","","","","","","","50","","","","","","","","","","","","","","","","","","","","","","","","","","",""
"3259","","<div style=""width:500px;"">
  <p>How would you describe your current emotional state?</p>
  </div>","17","html-slider-response","31","512857","0.0-7.0-3.3","168","1","2025-08-06 09:37:18","36c45c0696341be0efffe67d72a12abb","41.121.24.43","Mozilla/5.0 (Windows NT 10.0; Win64; x64) AppleWebKit/537.36 (KHTML, like Gecko) Chrome/138.0.0.0 Safari/537.36","WebKit","Chrome","138.0.0.0","Windows","10.0","https://app.prolific.com/","en-US,en;q=0.9","6697c4e76e01a2e71f34cd33","687a1a965b9f5b85a264363e","68932150bcdf82b4200ce636","1","6697c4e76e01a2e71f34cd33","1","2025-08-06T09:45:52.639Z","","","","StressQ","","","","","","","","","","","50","","","","","","","","","","","","","","","","","","","","","","","","","","",""
"3332","","<div style=""width:500px;"">
  <p>What best describes how you currently feel?</p>
  </div>","85","html-slider-response","32","516191","0.0-7.0-4.3","168","1","2025-08-06 09:37:18","36c45c0696341be0efffe67d72a12abb","41.121.24.43","Mozilla/5.0 (Windows NT 10.0; Win64; x64) AppleWebKit/537.36 (KHTML, like Gecko) Chrome/138.0.0.0 Safari/537.36","WebKit","Chrome","138.0.0.0","Windows","10.0","https://app.prolific.com/","en-US,en;q=0.9","6697c4e76e01a2e71f34cd33","687a1a965b9f5b85a264363e","68932150bcdf82b4200ce636","1","6697c4e76e01a2e71f34cd33","1","2025-08-06T09:45:55.973Z","","","","MotivationQ","","","","","","","","","","","50","","","","","","","","","","","","","","","","","","","","","","","","","","",""
"","","","","ctl-task-cpt","33","564472","0.0-7.0-0.4","168","1","2025-08-06 09:37:18","36c45c0696341be0efffe67d72a12abb","41.121.24.43","Mozilla/5.0 (Windows NT 10.0; Win64; x64) AppleWebKit/537.36 (KHTML, like Gecko) Chrome/138.0.0.0 Safari/537.36","WebKit","Chrome","138.0.0.0","Windows","10.0","https://app.prolific.com/","en-US,en;q=0.9","6697c4e76e01a2e71f34cd33","687a1a965b9f5b85a264363e","68932150bcdf82b4200ce636","1","6697c4e76e01a2e71f34cd33","1","2025-08-06T09:46:44.254Z","","","","","","","","","","","","","","","","win-only","3","g1:SW,g2:NE","0.6","5","0","518830.1","2723.5","7726.3","45240.8","1","4","4","6","2","-4","-4","19","23","0.14393939393939395","1258.7","3000","-1925","[""up"",""right""]","{""num_key_presses"":11,""num_perfect"":7,""num_errors"":0,""num_randdir"":4,""num_randdir_good_moves"":0,""num_whilered"":0,""num_whileblue"":0,""num_blue"":1,""num_good_moves"":7}","[417.8214133126395,415.32142761775424,1,417.8214133126395,415.32142761775424,102.4,417.8214133126395,415.32142761775424,215.7,417.8214133126395,415.32142761775424,318.4,417.8214133126395,415.32142761775424,431.6,356.5714133126395,461.57142761775424,534.5,352.8214133126395,429.07142761775424,642.7,596.5714133126395,117.82142761775425,746.2,719.0714133126395,37.82142761775425,848.1,742.8214133126395,25.321427617754253,948.1,754.0714133126395,34.07142761775425,1066.3,756.5714133126395,35.32142761775425,1168.7,756.5714133126395,35.32142761775425,1274.8,756.5714133126395,35.32142761775425,1381.5,756.5714133126395,35.32142761775425,1486.2,756.5714133126395,35.32142761775425,1591.9,756.5714133126395,35.32142761775425,1692.6,720.3214133126395,66.57142761775425,1797.8,611.5714133126395,196.57142761775424,1898.2,566.5714133126395,250.32142761775424,2000.9,562.8214133126395,255.32142761775424,2108.9,562.8214133126395,255.32142761775424,2212.4,562.8214133126395,255.32142761775424,2314.7,562.8214133126395,255.32142761775424,2416.3,562.8214133126395,255.32142761775424,2519,562.8214133126395,255.32142761775424,2620.1,562.8214133126395,255.32142761775424,2724.7,562.8214133126395,255.32142761775424,2826.2,562.8214133126395,255.32142761775424,2934.6,562.8214133126395,255.32142761775424,3040.7,562.8214133126395,255.32142761775424,3151.6,562.8214133126395,255.32142761775424,3261.3,562.8214133126395,255.32142761775424,3364.8,562.8214133126395,255.32142761775424,3474.1,562.8214133126395,255.32142761775424,3580.9,562.8214133126395,255.32142761775424,3684.7,562.8214133126395,255.32142761775424,3786.5,562.8214133126395,255.32142761775424,3894.2,562.8214133126395,255.32142761775424,3996.6,562.8214133126395,255.32142761775424,4096.8,562.8214133126395,255.32142761775424,4203.3,562.8214133126395,255.32142761775424,4303.4,562.8214133126395,255.32142761775424,4416.6,562.8214133126395,255.32142761775424,4517.2,562.8214133126395,255.32142761775424,4626.5,562.8214133126395,255.32142761775424,4728.2,562.8214133126395,255.32142761775424,4841.6,562.8214133126395,255.32142761775424,4952]","[4855.2,4855.2,2492,2011.7,351.5,""smooth"",""up"",""up"",""good_move"",7443.5,2587.3,2221.1,4856.2,366.2,""oops"",""right"",""left"",""bad_move"",10266.7,2820.5,2489.1,7446.4,331.3,""smooth"",""up"",""up"",""good_move"",13443.2,3172,2862.3,10271.2,309.7,""smooth"",""right"",""right"",""good_move"",16630.2,3185.5,2841.1,13444.9,344.3,""oops"",""right"",""left"",""bad_move"",19532,2901.1,2581.4,16631.1,319.6,""smooth"",""up"",""up"",""good_move"",21688.4,2150.2,1591.7,19538.3,558.4,""oops"",""right"",""left"",""bad_move"",24102.5,2413.5,1646.9,21689,766.6,""oops"",""down"",""down"",""bad_move"",27908.7,3803.3,3458.6,24105.4,344.7,""smooth"",""right"",""right"",""good_move"",30942.2,3033.2,2471.7,27909,561.5,""smooth"",""right"",""right"",""good_move"",34437.7,3494,3165.3,30943.7,328.7,""smooth"",""right"",""right"",""good_move""]"
"7158","","<div style=""width:500px;"">
  <p>What determined the result of this run?</p>
  </div>","25","html-slider-response","34","571636","0.0-7.0-1.4","168","1","2025-08-06 09:37:18","36c45c0696341be0efffe67d72a12abb","41.121.24.43","Mozilla/5.0 (Windows NT 10.0; Win64; x64) AppleWebKit/537.36 (KHTML, like Gecko) Chrome/138.0.0.0 Safari/537.36","WebKit","Chrome","138.0.0.0","Windows","10.0","https://app.prolific.com/","en-US,en;q=0.9","6697c4e76e01a2e71f34cd33","687a1a965b9f5b85a264363e","68932150bcdf82b4200ce636","1","6697c4e76e01a2e71f34cd33","1","2025-08-06T09:46:51.419Z","","","","AttribQ","","","","","","","","","","","50","","","","","","","","","","","","","","","","","","","","","","","","","","",""
"4441","","<div style=""width:500px;"">
  <p>How much control did you have over the ball?</p>
  </div>","42","html-slider-response","35","576088","0.0-7.0-2.4","168","1","2025-08-06 09:37:18","36c45c0696341be0efffe67d72a12abb","41.121.24.43","Mozilla/5.0 (Windows NT 10.0; Win64; x64) AppleWebKit/537.36 (KHTML, like Gecko) Chrome/138.0.0.0 Safari/537.36","WebKit","Chrome","138.0.0.0","Windows","10.0","https://app.prolific.com/","en-US,en;q=0.9","6697c4e76e01a2e71f34cd33","687a1a965b9f5b85a264363e","68932150bcdf82b4200ce636","1","6697c4e76e01a2e71f34cd33","1","2025-08-06T09:46:55.870Z","","","","ControlQ","","","","","","","","","","","50","","","","","","","","","","","","","","","","","","","","","","","","","","",""
"5650","","<div style=""width:500px;"">
  <p>How would you describe your current emotional state?</p>
  </div>","40","html-slider-response","36","581746","0.0-7.0-3.4","168","1","2025-08-06 09:37:18","36c45c0696341be0efffe67d72a12abb","41.121.24.43","Mozilla/5.0 (Windows NT 10.0; Win64; x64) AppleWebKit/537.36 (KHTML, like Gecko) Chrome/138.0.0.0 Safari/537.36","WebKit","Chrome","138.0.0.0","Windows","10.0","https://app.prolific.com/","en-US,en;q=0.9","6697c4e76e01a2e71f34cd33","687a1a965b9f5b85a264363e","68932150bcdf82b4200ce636","1","6697c4e76e01a2e71f34cd33","1","2025-08-06T09:47:01.528Z","","","","StressQ","","","","","","","","","","","50","","","","","","","","","","","","","","","","","","","","","","","","","","",""
"3738","","<div style=""width:500px;"">
  <p>What best describes how you currently feel?</p>
  </div>","68","html-slider-response","37","585489","0.0-7.0-4.4","168","1","2025-08-06 09:37:18","36c45c0696341be0efffe67d72a12abb","41.121.24.43","Mozilla/5.0 (Windows NT 10.0; Win64; x64) AppleWebKit/537.36 (KHTML, like Gecko) Chrome/138.0.0.0 Safari/537.36","WebKit","Chrome","138.0.0.0","Windows","10.0","https://app.prolific.com/","en-US,en;q=0.9","6697c4e76e01a2e71f34cd33","687a1a965b9f5b85a264363e","68932150bcdf82b4200ce636","1","6697c4e76e01a2e71f34cd33","1","2025-08-06T09:47:05.271Z","","","","MotivationQ","","","","","","","","","","","50","","","","","","","","","","","","","","","","","","","","","","","","","","",""
"","","","","ctl-task-cpt","38","637470","0.0-7.0-0.5","168","1","2025-08-06 09:37:18","36c45c0696341be0efffe67d72a12abb","41.121.24.43","Mozilla/5.0 (Windows NT 10.0; Win64; x64) AppleWebKit/537.36 (KHTML, like Gecko) Chrome/138.0.0.0 Safari/537.36","WebKit","Chrome","138.0.0.0","Windows","10.0","https://app.prolific.com/","en-US,en;q=0.9","6697c4e76e01a2e71f34cd33","687a1a965b9f5b85a264363e","68932150bcdf82b4200ce636","1","6697c4e76e01a2e71f34cd33","1","2025-08-06T09:47:57.255Z","","","","","","","","","","","","","","","","win-only","3","g1:SW,g2:NE","0.5","6","0","588127.2","1284.8","6288.6","48957.9","1","4","8","6","2","8","8","27","19","0.20454545454545456","1100.1","3000","545","[""up"",""right""]","{""num_key_presses"":12,""num_perfect"":7,""num_errors"":0,""num_randdir"":5,""num_randdir_good_moves"":3,""num_whilered"":0,""num_whileblue"":0,""num_blue"":2,""num_good_moves"":9}","[416.5714133126395,416.57142761775424,0.4,416.5714133126395,416.57142761775424,101.7,416.5714133126395,416.57142761775424,203.9,416.5714133126395,416.57142761775424,317,416.5714133126395,416.57142761775424,422.6,416.5714133126395,416.57142761775424,534.6,646.5714133126395,136.57142761775424,636.4,720.3214133126395,80.32142761775425,755.6,729.0714133126395,77.82142761775425,855.6,739.0714133126395,77.82142761775425,957.9,739.0714133126395,77.82142761775425,1064.7,739.0714133126395,77.82142761775425,1168.4,739.0714133126395,77.82142761775425,1270.5,739.0714133126395,77.82142761775425,1372,739.0714133126395,77.82142761775425,1473.9,739.0714133126395,77.82142761775425,1574.4,711.5714133126395,162.82142761775424,1675.5,690.3214133126395,255.32142761775424,1777.3,667.8214133126395,306.57142761775424,1877.4,665.3214133126395,311.57142761775424,1982,665.3214133126395,311.57142761775424,2083.2,665.3214133126395,311.57142761775424,2211.5,665.3214133126395,311.57142761775424,2315.9,665.3214133126395,311.57142761775424,2423.2,665.3214133126395,311.57142761775424,2523.9,665.3214133126395,311.57142761775424,2624,665.3214133126395,311.57142761775424,2733.6,665.3214133126395,311.57142761775424,2841.1,665.3214133126395,311.57142761775424,2941.8,665.3214133126395,311.57142761775424,3053.7,665.3214133126395,311.57142761775424,3158.4,665.3214133126395,311.57142761775424,3270.3,665.3214133126395,311.57142761775424,3371,665.3214133126395,311.57142761775424,3471.5,665.3214133126395,311.57142761775424,3572.2,665.3214133126395,311.57142761775424,3672.7,665.3214133126395,311.57142761775424,3773.4,665.3214133126395,311.57142761775424,3881.4,665.3214133126395,311.57142761775424,3988.2,665.3214133126395,311.57142761775424,4099.3,665.3214133126395,311.57142761775424,4220.3,665.3214133126395,311.57142761775424,4321.8,665.3214133126395,311.57142761775424,4434.1,665.3214133126395,311.57142761775424,4535,665.3214133126395,311.57142761775424,4636.7,665.3214133126395,311.57142761775424,4738.3,665.3214133126395,311.57142761775424,4850.1,665.3214133126395,311.57142761775424,4957.1]","[1298.6,1298.7,1000,0,298.7,""smooth"",""right"",""right"",""good_move"",8997.1,7696.8,2440,6159.2,398,""oops"",""up"",""right"",""good_move"",11944.9,2947.6,2606.8,8997.3,340.8,""oops"",""up"",""left"",""bad_move"",18544,6598.5,3082.4,15142.8,318.8,""smooth"",""right"",""right"",""good_move"",21542.7,2998,2682.5,18544.8,315.4,""smooth"",""right"",""right"",""good_move"",24640.9,3096.1,2742.7,21544.8,353.4,""oops"",""up"",""down"",""bad_move"",27941.5,3298.2,2911,24643.3,387.3,""oops"",""left"",""up"",""good_move"",30682.1,2737,2283,27945.1,454,""smooth"",""left"",""left"",""bad_move"",33848.8,3165.9,2862.7,30682.9,303.2,""smooth"",""up"",""up"",""good_move"",37051.7,3202.5,2755.1,33849.2,447.4,""oops"",""up"",""right"",""good_move"",39764.1,2712.1,2279.7,37052,432.5,""smooth"",""up"",""up"",""good_move"",42494.2,2730,2443.4,39764.5,286.6,""smooth"",""up"",""up"",""good_move""]"
"3368","","<div style=""width:500px;"">
  <p>What determined the result of this run?</p>
  </div>","60","html-slider-response","39","640844","0.0-7.0-1.5","168","1","2025-08-06 09:37:18","36c45c0696341be0efffe67d72a12abb","41.121.24.43","Mozilla/5.0 (Windows NT 10.0; Win64; x64) AppleWebKit/537.36 (KHTML, like Gecko) Chrome/138.0.0.0 Safari/537.36","WebKit","Chrome","138.0.0.0","Windows","10.0","https://app.prolific.com/","en-US,en;q=0.9","6697c4e76e01a2e71f34cd33","687a1a965b9f5b85a264363e","68932150bcdf82b4200ce636","1","6697c4e76e01a2e71f34cd33","1","2025-08-06T09:48:00.626Z","","","","AttribQ","","","","","","","","","","","50","","","","","","","","","","","","","","","","","","","","","","","","","","",""
"3888","","<div style=""width:500px;"">
  <p>How much control did you have over the ball?</p>
  </div>","58","html-slider-response","40","644735","0.0-7.0-2.5","168","1","2025-08-06 09:37:18","36c45c0696341be0efffe67d72a12abb","41.121.24.43","Mozilla/5.0 (Windows NT 10.0; Win64; x64) AppleWebKit/537.36 (KHTML, like Gecko) Chrome/138.0.0.0 Safari/537.36","WebKit","Chrome","138.0.0.0","Windows","10.0","https://app.prolific.com/","en-US,en;q=0.9","6697c4e76e01a2e71f34cd33","687a1a965b9f5b85a264363e","68932150bcdf82b4200ce636","1","6697c4e76e01a2e71f34cd33","1","2025-08-06T09:48:04.517Z","","","","ControlQ","","","","","","","","","","","50","","","","","","","","","","","","","","","","","","","","","","","","","","",""
"3722","","<div style=""width:500px;"">
  <p>How would you describe your current emotional state?</p>
  </div>","38","html-slider-response","41","648467","0.0-7.0-3.5","168","1","2025-08-06 09:37:18","36c45c0696341be0efffe67d72a12abb","41.121.24.43","Mozilla/5.0 (Windows NT 10.0; Win64; x64) AppleWebKit/537.36 (KHTML, like Gecko) Chrome/138.0.0.0 Safari/537.36","WebKit","Chrome","138.0.0.0","Windows","10.0","https://app.prolific.com/","en-US,en;q=0.9","6697c4e76e01a2e71f34cd33","687a1a965b9f5b85a264363e","68932150bcdf82b4200ce636","1","6697c4e76e01a2e71f34cd33","1","2025-08-06T09:48:08.249Z","","","","StressQ","","","","","","","","","","","50","","","","","","","","","","","","","","","","","","","","","","","","","","",""
"4260","","<div style=""width:500px;"">
  <p>What best describes how you currently feel?</p>
  </div>","66","html-slider-response","42","652729","0.0-7.0-4.5","168","1","2025-08-06 09:37:18","36c45c0696341be0efffe67d72a12abb","41.121.24.43","Mozilla/5.0 (Windows NT 10.0; Win64; x64) AppleWebKit/537.36 (KHTML, like Gecko) Chrome/138.0.0.0 Safari/537.36","WebKit","Chrome","138.0.0.0","Windows","10.0","https://app.prolific.com/","en-US,en;q=0.9","6697c4e76e01a2e71f34cd33","687a1a965b9f5b85a264363e","68932150bcdf82b4200ce636","1","6697c4e76e01a2e71f34cd33","1","2025-08-06T09:48:12.512Z","","","","MotivationQ","","","","","","","","","","","50","","","","","","","","","","","","","","","","","","","","","","","","","","",""
"","","","","ctl-task-cpt","43","716848","0.0-7.0-0.6","168","1","2025-08-06 09:37:18","36c45c0696341be0efffe67d72a12abb","41.121.24.43","Mozilla/5.0 (Windows NT 10.0; Win64; x64) AppleWebKit/537.36 (KHTML, like Gecko) Chrome/138.0.0.0 Safari/537.36","WebKit","Chrome","138.0.0.0","Windows","10.0","https://app.prolific.com/","en-US,en;q=0.9","6697c4e76e01a2e71f34cd33","687a1a965b9f5b85a264363e","68932150bcdf82b4200ce636","1","6697c4e76e01a2e71f34cd33","1","2025-08-06T09:49:16.631Z","","","","","","","","","","","","","","","","win-only","1","g1:NE,g2:SW","0.4","7","0","655364.7","2006.1","7011.3","61092.6","1","4","8","6","2","-8","-8","19","27","0.14393939393939395","1275.3","3000","-1520","[""down"",""left""]","{""num_key_presses"":15,""num_perfect"":6,""num_errors"":0,""num_randdir"":9,""num_randdir_good_moves"":2,""num_whilered"":0,""num_whileblue"":0,""num_blue"":3,""num_good_moves"":8}","[419.0714133126395,427.82142761775424,0.2,419.0714133126395,427.82142761775424,105.3,419.0714133126395,427.82142761775424,207.8,419.0714133126395,427.82142761775424,312.5,419.0714133126395,427.82142761775424,420.2,419.0714133126395,427.82142761775424,527.6,402.8214133126395,445.32142761775424,630,216.5714133126395,721.5714276177542,737.4,161.5714133126395,800.3214276177542,843.5,146.5714133126395,810.3214276177542,946,116.5714133126395,801.5714276177542,1052.6,106.5714133126395,796.5714276177542,1171,106.5714133126395,796.5714276177542,1277.3,106.5714133126395,796.5714276177542,1379.6,106.5714133126395,796.5714276177542,1479.7,106.5714133126395,796.5714276177542,1608.9,106.5714133126395,796.5714276177542,1713.4,139.0714133126395,844.0714276177542,1828.5,169.0714133126395,879.0714276177542,1936.4,172.8214133126395,881.5714276177542,2055.2,172.8214133126395,881.5714276177542,2158.4,172.8214133126395,881.5714276177542,2260.7,172.8214133126395,881.5714276177542,2360.8,172.8214133126395,881.5714276177542,2462.2,172.8214133126395,881.5714276177542,2574.9,172.8214133126395,881.5714276177542,2677.8,172.8214133126395,881.5714276177542,2778,172.8214133126395,881.5714276177542,2886.8,172.8214133126395,881.5714276177542,2995.1,172.8214133126395,881.5714276177542,3096.7,172.8214133126395,881.5714276177542,3209.5,172.8214133126395,881.5714276177542,3312,172.8214133126395,881.5714276177542,3418.4,172.8214133126395,881.5714276177542,3525.4,172.8214133126395,881.5714276177542,3635.4,172.8214133126395,881.5714276177542,3741.8,172.8214133126395,881.5714276177542,3844,172.8214133126395,881.5714276177542,3969,172.8214133126395,881.5714276177542,4076.5,172.8214133126395,881.5714276177542,4179.6,172.8214133126395,881.5714276177542,4284.1,172.8214133126395,881.5714276177542,4389,172.8214133126395,881.5714276177542,4489,172.8214133126395,881.5714276177542,4590.3,172.8214133126395,881.5714276177542,4692.3,172.8214133126395,881.5714276177542,4794.8,172.8214133126395,881.5714276177542,4895.8]","[1397.8,1397.8,1000,0,397.8,""smooth"",""down"",""down"",""good_move"",4722.4,3323.6,3020,1398.8,303.6,""smooth"",""left"",""left"",""good_move"",7114.5,2390.4,2001,4724.2,389.3,""oops"",""down"",""up"",""bad_move"",9583.2,2467.8,2086.3,7115.4,381.5,""oops"",""left"",""right"",""bad_move"",12654.1,3069.3,2659.1,9584.9,410.2,""smooth"",""down"",""down"",""good_move"",18099,5444.4,1757.6,15943.1,398.3,""oops"",""down"",""up"",""bad_move"",20870.4,2771.3,2476.7,18099.2,294.6,""smooth"",""down"",""down"",""good_move"",28133.1,7261.9,3397.5,24281.3,454.3,""oops"",""left"",""left"",""good_move"",30376.1,2241.5,1816.7,28134.6,424.8,""oops"",""left"",""right"",""bad_move"",34083,3704.2,3338.3,30378.8,365.9,""oops"",""left"",""left"",""good_move"",36871.9,2787.3,2292.9,34084.6,494.4,""smooth"",""down"",""down"",""good_move"",39780.7,2907.6,2469.5,36873.1,438.2,""oops"",""left"",""up"",""bad_move"",42588.2,2806.6,2488.7,39781.6,317.9,""smooth"",""down"",""down"",""good_move"",46326.8,3738.2,3459.9,42588.6,278.4,""oops"",""down"",""right"",""bad_move"",49150.7,2821.8,2489.7,46328.9,332.1,""oops"",""down"",""up"",""bad_move""]"
"5534","","<div style=""width:500px;"">
  <p>What determined the result of this run?</p>
  </div>","27","html-slider-response","44","722388","0.0-7.0-1.6","168","1","2025-08-06 09:37:18","36c45c0696341be0efffe67d72a12abb","41.121.24.43","Mozilla/5.0 (Windows NT 10.0; Win64; x64) AppleWebKit/537.36 (KHTML, like Gecko) Chrome/138.0.0.0 Safari/537.36","WebKit","Chrome","138.0.0.0","Windows","10.0","https://app.prolific.com/","en-US,en;q=0.9","6697c4e76e01a2e71f34cd33","687a1a965b9f5b85a264363e","68932150bcdf82b4200ce636","1","6697c4e76e01a2e71f34cd33","1","2025-08-06T09:49:22.171Z","","","","AttribQ","","","","","","","","","","","50","","","","","","","","","","","","","","","","","","","","","","","","","","",""
"7731","","<div style=""width:500px;"">
  <p>How much control did you have over the ball?</p>
  </div>","28","html-slider-response","45","730123","0.0-7.0-2.6","168","1","2025-08-06 09:37:18","36c45c0696341be0efffe67d72a12abb","41.121.24.43","Mozilla/5.0 (Windows NT 10.0; Win64; x64) AppleWebKit/537.36 (KHTML, like Gecko) Chrome/138.0.0.0 Safari/537.36","WebKit","Chrome","138.0.0.0","Windows","10.0","https://app.prolific.com/","en-US,en;q=0.9","6697c4e76e01a2e71f34cd33","687a1a965b9f5b85a264363e","68932150bcdf82b4200ce636","1","6697c4e76e01a2e71f34cd33","1","2025-08-06T09:49:29.905Z","","","","ControlQ","","","","","","","","","","","50","","","","","","","","","","","","","","","","","","","","","","","","","","",""
"6338","","<div style=""width:500px;"">
  <p>How would you describe your current emotional state?</p>
  </div>","64","html-slider-response","46","736465","0.0-7.0-3.6","168","1","2025-08-06 09:37:18","36c45c0696341be0efffe67d72a12abb","41.121.24.43","Mozilla/5.0 (Windows NT 10.0; Win64; x64) AppleWebKit/537.36 (KHTML, like Gecko) Chrome/138.0.0.0 Safari/537.36","WebKit","Chrome","138.0.0.0","Windows","10.0","https://app.prolific.com/","en-US,en;q=0.9","6697c4e76e01a2e71f34cd33","687a1a965b9f5b85a264363e","68932150bcdf82b4200ce636","1","6697c4e76e01a2e71f34cd33","1","2025-08-06T09:49:36.247Z","","","","StressQ","","","","","","","","","","","50","","","","","","","","","","","","","","","","","","","","","","","","","","",""
"5592","","<div style=""width:500px;"">
  <p>What best describes how you currently feel?</p>
  </div>","68","html-slider-response","47","742065","0.0-7.0-4.6","168","1","2025-08-06 09:37:18","36c45c0696341be0efffe67d72a12abb","41.121.24.43","Mozilla/5.0 (Windows NT 10.0; Win64; x64) AppleWebKit/537.36 (KHTML, like Gecko) Chrome/138.0.0.0 Safari/537.36","WebKit","Chrome","138.0.0.0","Windows","10.0","https://app.prolific.com/","en-US,en;q=0.9","6697c4e76e01a2e71f34cd33","687a1a965b9f5b85a264363e","68932150bcdf82b4200ce636","1","6697c4e76e01a2e71f34cd33","1","2025-08-06T09:49:41.847Z","","","","MotivationQ","","","","","","","","","","","50","","","","","","","","","","","","","","","","","","","","","","","","","","",""
"","","","","ctl-task-cpt","48","826518","0.0-7.0-0.7","168","1","2025-08-06 09:37:18","36c45c0696341be0efffe67d72a12abb","41.121.24.43","Mozilla/5.0 (Windows NT 10.0; Win64; x64) AppleWebKit/537.36 (KHTML, like Gecko) Chrome/138.0.0.0 Safari/537.36","WebKit","Chrome","138.0.0.0","Windows","10.0","https://app.prolific.com/","en-US,en;q=0.9","6697c4e76e01a2e71f34cd33","687a1a965b9f5b85a264363e","68932150bcdf82b4200ce636","1","6697c4e76e01a2e71f34cd33","1","2025-08-06T09:51:06.300Z","","","","","","","","","","","","","","","","win-only","1","g1:NE,g2:SW","0.3","8","0","744710.9","2366.9","7372.8","81431.5","1","4","4","6","2","-4","-6","13","19","0.09848484848484848","1076.5","3000","-1855","[""down"",""left""]","{""num_key_presses"":17,""num_perfect"":5,""num_errors"":2,""num_randdir"":10,""num_randdir_good_moves"":3,""num_whilered"":0,""num_whileblue"":0,""num_blue"":7,""num_good_moves"":8}","[416.5714133126395,419.07142761775424,1.7,416.5714133126395,419.07142761775424,106.7,416.5714133126395,419.07142761775424,206.9,416.5714133126395,419.07142761775424,310.7,416.5714133126395,419.07142761775424,413.5,416.5714133126395,419.07142761775424,523.5,214.0714133126395,581.5714276177542,625.1,102.8214133126395,709.0714276177542,757.1,74.0714133126395,731.5714276177542,857.8,67.8214133126395,755.3214276177542,968.5,67.8214133126395,755.3214276177542,1082.7,67.8214133126395,755.3214276177542,1188.4,67.8214133126395,755.3214276177542,1299.3,67.8214133126395,755.3214276177542,1409.3,20.321413312639507,844.0714276177542,1514.4,-7.178586687360493,901.5714276177542,1629.7,-9.678586687360493,912.8214276177542,1733.9,-9.678586687360493,912.8214276177542,1843.1,-9.678586687360493,912.8214276177542,1963.7,-9.678586687360493,912.8214276177542,2074.1,-9.678586687360493,912.8214276177542,2176.8,-9.678586687360493,912.8214276177542,2284.8,-9.678586687360493,912.8214276177542,2393.9,-9.678586687360493,912.8214276177542,2495,-9.678586687360493,912.8214276177542,2606.2,-9.678586687360493,912.8214276177542,2729.5,-9.678586687360493,912.8214276177542,2832.8,-9.678586687360493,912.8214276177542,2939.4,-9.678586687360493,912.8214276177542,3047,-9.678586687360493,912.8214276177542,3149.3,-9.678586687360493,912.8214276177542,3256.9,-9.678586687360493,912.8214276177542,3372.2,-9.678586687360493,912.8214276177542,3474.1,-9.678586687360493,912.8214276177542,3582.3,-9.678586687360493,912.8214276177542,3689.6,-9.678586687360493,912.8214276177542,3790.5,-9.678586687360493,912.8214276177542,3892,-9.678586687360493,912.8214276177542,3997.9,-9.678586687360493,912.8214276177542,4101.4,-9.678586687360493,912.8214276177542,4217.8,-9.678586687360493,912.8214276177542,4322.4,-9.678586687360493,912.8214276177542,4424.4,-9.678586687360493,912.8214276177542,4532.4,-9.678586687360493,912.8214276177542,4632.6,-9.678586687360493,912.8214276177542,4734.7,-9.678586687360493,912.8214276177542,4842.7,-9.678586687360493,912.8214276177542,4942.8]","[5028.5,5028.5,2675.4,2031.3,321.8,""oops"",""down"",""right"",""bad_move"",12009.3,6976.6,2631.5,9041,336.8,""oops"",""left"",""right"",""bad_move"",14391.7,2382.1,1999.7,12009.6,382.4,""oops"",""down"",""down"",""good_move"",17566.7,3172.8,2783.1,14394,389.6,""oops"",""left"",""left"",""good_move"",20098.4,2530.4,2128.2,17568,402.2,""oops"",""left"",""right"",""bad_move"",29635.6,9535.2,2323.8,26924.4,387.4,""oops"",""left"",""up"",""bad_move"",30347.3,711,2430.1,29636.3,-1719.1,""error"",""-"",""-"",""no_move"",34058.5,3710,2314.7,31354,389.9,""smooth"",""down"",""down"",""good_move"",36900.6,2841,2175.4,34059.7,665.6,""oops"",""down"",""down"",""good_move"",40066.4,3164.3,2799.7,36902.2,364.5,""smooth"",""down"",""down"",""good_move"",42922.2,2854.5,2529.9,40067.7,324.6,""smooth"",""left"",""left"",""good_move"",45403.5,2479.7,2175.6,42923.8,304.2,""smooth"",""left"",""left"",""good_move"",52391,6986.4,2531.6,49443.2,416.2,""oops"",""left"",""right"",""bad_move"",55008.6,2617.3,2294.3,52391.3,323,""oops"",""left"",""right"",""bad_move"",60816.3,5801.7,2198.1,58275.5,342.7,""oops"",""left"",""up"",""bad_move"",63416.5,2598.2,2802.8,60818.4,-204.7,""error"",""-"",""-"",""no_move"",67542,4124,2696.8,64424.1,421.2,""smooth"",""left"",""left"",""good_move""]"
"13585","","<div style=""width:500px;"">
  <p>What determined the result of this run?</p>
  </div>","5","html-slider-response","49","840106","0.0-7.0-1.7","168","1","2025-08-06 09:37:18","36c45c0696341be0efffe67d72a12abb","41.121.24.43","Mozilla/5.0 (Windows NT 10.0; Win64; x64) AppleWebKit/537.36 (KHTML, like Gecko) Chrome/138.0.0.0 Safari/537.36","WebKit","Chrome","138.0.0.0","Windows","10.0","https://app.prolific.com/","en-US,en;q=0.9","6697c4e76e01a2e71f34cd33","687a1a965b9f5b85a264363e","68932150bcdf82b4200ce636","1","6697c4e76e01a2e71f34cd33","1","2025-08-06T09:51:19.888Z","","","","AttribQ","","","","","","","","","","","50","","","","","","","","","","","","","","","","","","","","","","","","","","",""
"4312","","<div style=""width:500px;"">
  <p>How much control did you have over the ball?</p>
  </div>","20","html-slider-response","50","844423","0.0-7.0-2.7","168","1","2025-08-06 09:37:18","36c45c0696341be0efffe67d72a12abb","41.121.24.43","Mozilla/5.0 (Windows NT 10.0; Win64; x64) AppleWebKit/537.36 (KHTML, like Gecko) Chrome/138.0.0.0 Safari/537.36","WebKit","Chrome","138.0.0.0","Windows","10.0","https://app.prolific.com/","en-US,en;q=0.9","6697c4e76e01a2e71f34cd33","687a1a965b9f5b85a264363e","68932150bcdf82b4200ce636","1","6697c4e76e01a2e71f34cd33","1","2025-08-06T09:51:24.206Z","","","","ControlQ","","","","","","","","","","","50","","","","","","","","","","","","","","","","","","","","","","","","","","",""
"5135","","<div style=""width:500px;"">
  <p>How would you describe your current emotional state?</p>
  </div>","71","html-slider-response","51","849562","0.0-7.0-3.7","168","1","2025-08-06 09:37:18","36c45c0696341be0efffe67d72a12abb","41.121.24.43","Mozilla/5.0 (Windows NT 10.0; Win64; x64) AppleWebKit/537.36 (KHTML, like Gecko) Chrome/138.0.0.0 Safari/537.36","WebKit","Chrome","138.0.0.0","Windows","10.0","https://app.prolific.com/","en-US,en;q=0.9","6697c4e76e01a2e71f34cd33","687a1a965b9f5b85a264363e","68932150bcdf82b4200ce636","1","6697c4e76e01a2e71f34cd33","1","2025-08-06T09:51:29.344Z","","","","StressQ","","","","","","","","","","","50","","","","","","","","","","","","","","","","","","","","","","","","","","",""
"3351","","<div style=""width:500px;"">
  <p>What best describes how you currently feel?</p>
  </div>","42","html-slider-response","52","852915","0.0-7.0-4.7","168","1","2025-08-06 09:37:18","36c45c0696341be0efffe67d72a12abb","41.121.24.43","Mozilla/5.0 (Windows NT 10.0; Win64; x64) AppleWebKit/537.36 (KHTML, like Gecko) Chrome/138.0.0.0 Safari/537.36","WebKit","Chrome","138.0.0.0","Windows","10.0","https://app.prolific.com/","en-US,en;q=0.9","6697c4e76e01a2e71f34cd33","687a1a965b9f5b85a264363e","68932150bcdf82b4200ce636","1","6697c4e76e01a2e71f34cd33","1","2025-08-06T09:51:32.697Z","","","","MotivationQ","","","","","","","","","","","50","","","","","","","","","","","","","","","","","","","","","","","","","","",""
"","","","","ctl-task-cpt","53","1011825","0.0-7.0-0.8","168","1","2025-08-06 09:37:18","36c45c0696341be0efffe67d72a12abb","41.121.24.43","Mozilla/5.0 (Windows NT 10.0; Win64; x64) AppleWebKit/537.36 (KHTML, like Gecko) Chrome/138.0.0.0 Safari/537.36","WebKit","Chrome","138.0.0.0","Windows","10.0","https://app.prolific.com/","en-US,en;q=0.9","6697c4e76e01a2e71f34cd33","687a1a965b9f5b85a264363e","68932150bcdf82b4200ce636","1","6697c4e76e01a2e71f34cd33","1","2025-08-06T09:54:11.607Z","","","","","","","","","","","","","","","","win-only","3","g1:SW,g2:NE","0.4","9","0","855550.7","1771.7","6785","155828.2","1","4","4","6","1","1","0","13","13","0.09848484848484848","1427.4","3000","1575","[""down"",""left""]","{""num_key_presses"":25,""num_perfect"":11,""num_errors"":1,""num_randdir"":13,""num_randdir_good_moves"":4,""num_whilered"":0,""num_whileblue"":0,""num_blue"":4,""num_good_moves"":14}","[416.5714133126395,419.07142761775424,0.2,416.5714133126395,419.07142761775424,102.2,416.5714133126395,419.07142761775424,210,416.5714133126395,419.07142761775424,323.9,416.5714133126395,419.07142761775424,438.3,416.5714133126395,419.07142761775424,538.5,416.5714133126395,419.07142761775424,648.3,362.8214133126395,444.07142761775424,758.6,201.5714133126395,549.0714276177542,883.5,164.0714133126395,589.0714276177542,993.9,155.3214133126395,642.8214276177542,1098.5,116.5714133126395,715.3214276177542,1206.8,96.5714133126395,736.5714276177542,1309.6,96.5714133126395,736.5714276177542,1415.3,96.5714133126395,736.5714276177542,1521.5,96.5714133126395,736.5714276177542,1636,96.5714133126395,736.5714276177542,1746.2,-23.428586687360493,820.3214276177542,1859.3,-69.6785866873605,847.8214276177542,1967.3,-73.4285866873605,850.3214276177542,2068.2,-73.4285866873605,850.3214276177542,2178.5,-73.4285866873605,850.3214276177542,2279.9,-73.4285866873605,850.3214276177542,2385.3,-73.4285866873605,850.3214276177542,2502.1,-73.4285866873605,850.3214276177542,2605.1,-73.4285866873605,850.3214276177542,2711.2,-73.4285866873605,850.3214276177542,2830.7,-73.4285866873605,850.3214276177542,2933.4,-73.4285866873605,850.3214276177542,3044,-73.4285866873605,850.3214276177542,3144.2,-73.4285866873605,850.3214276177542,3261,-73.4285866873605,850.3214276177542,3362.8,-73.4285866873605,850.3214276177542,3468.8,-73.4285866873605,850.3214276177542,3584.3,-73.4285866873605,850.3214276177542,3713.1,-73.4285866873605,850.3214276177542,3822.5,-73.4285866873605,850.3214276177542,3932.4,-73.4285866873605,850.3214276177542,4064.7,-73.4285866873605,850.3214276177542,4169.1,-73.4285866873605,850.3214276177542,4283.8,-73.4285866873605,850.3214276177542,4413.4,-73.4285866873605,850.3214276177542,4514.6,-73.4285866873605,850.3214276177542,4634.1,-73.4285866873605,850.3214276177542,4735,-73.4285866873605,850.3214276177542,4848.9,-73.4285866873605,850.3214276177542,4958]","[1385.9,1385.9,1000,0,385.9,""smooth"",""down"",""down"",""good_move"",7937.1,6549.4,2977.5,4464.3,495.4,""oops"",""left"",""down"",""good_move"",15151.3,7213,2988.3,11750.5,412.6,""smooth"",""left"",""left"",""good_move"",20438,5278.3,2407,15159.7,2871.3,""oops"",""left"",""right"",""bad_move"",24040.9,3600.1,2534.8,20440.8,1065.3,""oops"",""left"",""right"",""bad_move"",27292.8,3251.3,2783.9,24041.5,467.4,""oops"",""up"",""up"",""bad_move"",34353.5,7059.9,2654.1,27293.7,4405.7,""smooth"",""left"",""left"",""good_move"",40438.9,6085,2516.4,34353.9,3568.6,""oops"",""left"",""down"",""good_move"",43111.3,2671.9,2204.3,40439.4,467.6,""oops"",""left"",""up"",""bad_move"",50458.5,7346.9,2477,43111.6,4869.9,""smooth"",""up"",""up"",""bad_move"",57927.7,7468.6,3085.4,50459.1,4383.2,""smooth"",""left"",""left"",""good_move"",65339.1,7410.6,2551.4,57928.5,4859.2,""smooth"",""left"",""left"",""good_move"",70656.6,5317,2189.8,65339.6,3127.4,""oops"",""down"",""right"",""bad_move"",76834.7,6176.1,2621.6,73647,566.1,""smooth"",""down"",""down"",""good_move"",79949.4,3114.1,2417.8,76835.3,696.3,""oops"",""left"",""up"",""bad_move"",87706.9,7757,2801.2,79949.9,4955.9,""oops"",""down"",""up"",""bad_move"",95178.5,7471.3,2320.5,87707.3,5150.8,""oops"",""left"",""right"",""bad_move"",96073.2,893.8,2820.4,95179.5,-1926.6,""error"",""-"",""-"",""no_move"",100971.2,4897.4,3210.1,97096.3,664.8,""smooth"",""down"",""down"",""good_move"",104266.5,3294.8,2734,100971.7,560.8,""oops"",""left"",""right"",""bad_move"",108221.7,3954.6,3384,104267.1,570.6,""oops"",""down"",""left"",""good_move"",117754.3,9532.2,2110.9,108222.1,7421.3,""smooth"",""down"",""down"",""good_move"",121553.4,3798.9,3323.1,117754.6,475.8,""smooth"",""left"",""left"",""good_move"",136920.8,15366.8,2421.3,133914.1,585.4,""smooth"",""left"",""left"",""good_move"",146462,9540.9,3032.7,136921.1,6508.2,""oops"",""down"",""down"",""good_move""]"
"3802","","<div style=""width:500px;"">
  <p>What determined the result of this run?</p>
  </div>","50","html-slider-response","54","1015634","0.0-7.0-1.8","168","1","2025-08-06 09:37:18","36c45c0696341be0efffe67d72a12abb","41.121.24.43","Mozilla/5.0 (Windows NT 10.0; Win64; x64) AppleWebKit/537.36 (KHTML, like Gecko) Chrome/138.0.0.0 Safari/537.36","WebKit","Chrome","138.0.0.0","Windows","10.0","https://app.prolific.com/","en-US,en;q=0.9","6697c4e76e01a2e71f34cd33","687a1a965b9f5b85a264363e","68932150bcdf82b4200ce636","1","6697c4e76e01a2e71f34cd33","1","2025-08-06T09:54:15.416Z","","","","AttribQ","","","","","","","","","","","50","","","","","","","","","","","","","","","","","","","","","","","","","","",""
"10928","","<div style=""width:500px;"">
  <p>How much control did you have over the ball?</p>
  </div>","44","html-slider-response","55","1026590","0.0-7.0-2.8","168","1","2025-08-06 09:37:18","36c45c0696341be0efffe67d72a12abb","41.121.24.43","Mozilla/5.0 (Windows NT 10.0; Win64; x64) AppleWebKit/537.36 (KHTML, like Gecko) Chrome/138.0.0.0 Safari/537.36","WebKit","Chrome","138.0.0.0","Windows","10.0","https://app.prolific.com/","en-US,en;q=0.9","6697c4e76e01a2e71f34cd33","687a1a965b9f5b85a264363e","68932150bcdf82b4200ce636","1","6697c4e76e01a2e71f34cd33","1","2025-08-06T09:54:26.372Z","","","","ControlQ","","","","","","","","","","","50","","","","","","","","","","","","","","","","","","","","","","","","","","",""
"5353","","<div style=""width:500px;"">
  <p>How would you describe your current emotional state?</p>
  </div>","66","html-slider-response","56","1031949","0.0-7.0-3.8","168","1","2025-08-06 09:37:18","36c45c0696341be0efffe67d72a12abb","41.121.24.43","Mozilla/5.0 (Windows NT 10.0; Win64; x64) AppleWebKit/537.36 (KHTML, like Gecko) Chrome/138.0.0.0 Safari/537.36","WebKit","Chrome","138.0.0.0","Windows","10.0","https://app.prolific.com/","en-US,en;q=0.9","6697c4e76e01a2e71f34cd33","687a1a965b9f5b85a264363e","68932150bcdf82b4200ce636","1","6697c4e76e01a2e71f34cd33","1","2025-08-06T09:54:31.731Z","","","","StressQ","","","","","","","","","","","50","","","","","","","","","","","","","","","","","","","","","","","","","","",""
"3706","","<div style=""width:500px;"">
  <p>What best describes how you currently feel?</p>
  </div>","43","html-slider-response","57","1035664","0.0-7.0-4.8","168","1","2025-08-06 09:37:18","36c45c0696341be0efffe67d72a12abb","41.121.24.43","Mozilla/5.0 (Windows NT 10.0; Win64; x64) AppleWebKit/537.36 (KHTML, like Gecko) Chrome/138.0.0.0 Safari/537.36","WebKit","Chrome","138.0.0.0","Windows","10.0","https://app.prolific.com/","en-US,en;q=0.9","6697c4e76e01a2e71f34cd33","687a1a965b9f5b85a264363e","68932150bcdf82b4200ce636","1","6697c4e76e01a2e71f34cd33","1","2025-08-06T09:54:35.446Z","","","","MotivationQ","","","","","","","","","","","50","","","","","","","","","","","","","","","","","","","","","","","","","","",""
"","","","","ctl-task-cpt","58","1070363","0.0-7.0-0.9","168","1","2025-08-06 09:37:18","36c45c0696341be0efffe67d72a12abb","41.121.24.43","Mozilla/5.0 (Windows NT 10.0; Win64; x64) AppleWebKit/537.36 (KHTML, like Gecko) Chrome/138.0.0.0 Safari/537.36","WebKit","Chrome","138.0.0.0","Windows","10.0","https://app.prolific.com/","en-US,en;q=0.9","6697c4e76e01a2e71f34cd33","687a1a965b9f5b85a264363e","68932150bcdf82b4200ce636","1","6697c4e76e01a2e71f34cd33","1","2025-08-06T09:55:10.145Z","","","","","","","","","","","","","","","","win-only","0","g1:NW,g2:SE","0.5","10","0","1038306.8","1789.5","6832.6","31595.7","1","4","8","6","2","8","8","21","13","0.1590909090909091","1469.3","3000","2515","[""down"",""right""]","{""num_key_presses"":6,""num_perfect"":3,""num_errors"":0,""num_randdir"":3,""num_randdir_good_moves"":3,""num_whilered"":0,""num_whileblue"":0,""num_blue"":1,""num_good_moves"":6}","[422.8214133126395,419.07142761775424,0.4,422.8214133126395,419.07142761775424,150.7,422.8214133126395,419.07142761775424,313.7,422.8214133126395,419.07142761775424,484.2,422.8214133126395,419.07142761775424,648.5,449.0714133126395,460.32142761775424,824.8,596.5714133126395,614.0714276177542,1000,706.5714133126395,757.8214276177542,1160.7,742.8214133126395,780.3214276177542,1289.9,742.8214133126395,780.3214276177542,1440.4,742.8214133126395,780.3214276177542,1594.2,742.8214133126395,780.3214276177542,1753.3,629.0714133126395,776.5714276177542,1917.8,564.0714133126395,776.5714276177542,2086.5,564.0714133126395,776.5714276177542,2249.4,564.0714133126395,776.5714276177542,2401.2,564.0714133126395,776.5714276177542,2558.5,564.0714133126395,776.5714276177542,2711.4,564.0714133126395,776.5714276177542,2869.5,564.0714133126395,776.5714276177542,3027.9,564.0714133126395,776.5714276177542,3185.9,564.0714133126395,776.5714276177542,3352.8,564.0714133126395,776.5714276177542,3513.7,564.0714133126395,776.5714276177542,3664.4,564.0714133126395,776.5714276177542,3827.8,564.0714133126395,776.5714276177542,3996.1,564.0714133126395,776.5714276177542,4118.2,564.0714133126395,776.5714276177542,4258.7,564.0714133126395,776.5714276177542,4405.8,564.0714133126395,776.5714276177542,4564.4,564.0714133126395,776.5714276177542,4718.3,564.0714133126395,776.5714276177542,4881.8]","[1549.3,1549.3,1000,0,549.3,""smooth"",""down"",""down"",""good_move"",5029.7,3479.9,2657.8,1549.8,822.1,""oops"",""right"",""down"",""good_move"",7934.5,2904.2,2524.8,5030.4,379.3,""smooth"",""right"",""right"",""good_move"",14901.1,6966.4,2282.2,11871.6,747.3,""oops"",""right"",""right"",""good_move"",18429.7,3528.1,2746,14901.6,782.1,""oops"",""down"",""right"",""good_move"",21482.7,3052.5,2332.9,18430.2,719.6,""smooth"",""down"",""down"",""good_move""]"
"3021","","<div style=""width:500px;"">
  <p>What determined the result of this run?</p>
  </div>","58","html-slider-response","59","1073393","0.0-7.0-1.9","168","1","2025-08-06 09:37:18","36c45c0696341be0efffe67d72a12abb","41.121.24.43","Mozilla/5.0 (Windows NT 10.0; Win64; x64) AppleWebKit/537.36 (KHTML, like Gecko) Chrome/138.0.0.0 Safari/537.36","WebKit","Chrome","138.0.0.0","Windows","10.0","https://app.prolific.com/","en-US,en;q=0.9","6697c4e76e01a2e71f34cd33","687a1a965b9f5b85a264363e","68932150bcdf82b4200ce636","1","6697c4e76e01a2e71f34cd33","1","2025-08-06T09:55:13.175Z","","","","AttribQ","","","","","","","","","","","50","","","","","","","","","","","","","","","","","","","","","","","","","","",""
"4858","","<div style=""width:500px;"">
  <p>How much control did you have over the ball?</p>
  </div>","61","html-slider-response","60","1078258","0.0-7.0-2.9","168","1","2025-08-06 09:37:18","36c45c0696341be0efffe67d72a12abb","41.121.24.43","Mozilla/5.0 (Windows NT 10.0; Win64; x64) AppleWebKit/537.36 (KHTML, like Gecko) Chrome/138.0.0.0 Safari/537.36","WebKit","Chrome","138.0.0.0","Windows","10.0","https://app.prolific.com/","en-US,en;q=0.9","6697c4e76e01a2e71f34cd33","687a1a965b9f5b85a264363e","68932150bcdf82b4200ce636","1","6697c4e76e01a2e71f34cd33","1","2025-08-06T09:55:18.040Z","","","","ControlQ","","","","","","","","","","","50","","","","","","","","","","","","","","","","","","","","","","","","","","",""
"7223","","<div style=""width:500px;"">
  <p>How would you describe your current emotional state?</p>
  </div>","39","html-slider-response","61","1085488","0.0-7.0-3.9","168","1","2025-08-06 09:37:18","36c45c0696341be0efffe67d72a12abb","41.121.24.43","Mozilla/5.0 (Windows NT 10.0; Win64; x64) AppleWebKit/537.36 (KHTML, like Gecko) Chrome/138.0.0.0 Safari/537.36","WebKit","Chrome","138.0.0.0","Windows","10.0","https://app.prolific.com/","en-US,en;q=0.9","6697c4e76e01a2e71f34cd33","687a1a965b9f5b85a264363e","68932150bcdf82b4200ce636","1","6697c4e76e01a2e71f34cd33","1","2025-08-06T09:55:25.270Z","","","","StressQ","","","","","","","","","","","50","","","","","","","","","","","","","","","","","","","","","","","","","","",""
"3042","","<div style=""width:500px;"">
  <p>What best describes how you currently feel?</p>
  </div>","60","html-slider-response","62","1088538","0.0-7.0-4.9","168","1","2025-08-06 09:37:18","36c45c0696341be0efffe67d72a12abb","41.121.24.43","Mozilla/5.0 (Windows NT 10.0; Win64; x64) AppleWebKit/537.36 (KHTML, like Gecko) Chrome/138.0.0.0 Safari/537.36","WebKit","Chrome","138.0.0.0","Windows","10.0","https://app.prolific.com/","en-US,en;q=0.9","6697c4e76e01a2e71f34cd33","687a1a965b9f5b85a264363e","68932150bcdf82b4200ce636","1","6697c4e76e01a2e71f34cd33","1","2025-08-06T09:55:28.321Z","","","","MotivationQ","","","","","","","","","","","50","","","","","","","","","","","","","","","","","","","","","","","","","","",""
"","","","","ctl-task-cpt","63","1139659","0.0-7.0-0.10","168","1","2025-08-06 09:37:18","36c45c0696341be0efffe67d72a12abb","41.121.24.43","Mozilla/5.0 (Windows NT 10.0; Win64; x64) AppleWebKit/537.36 (KHTML, like Gecko) Chrome/138.0.0.0 Safari/537.36","WebKit","Chrome","138.0.0.0","Windows","10.0","https://app.prolific.com/","en-US,en;q=0.9","6697c4e76e01a2e71f34cd33","687a1a965b9f5b85a264363e","68932150bcdf82b4200ce636","1","6697c4e76e01a2e71f34cd33","1","2025-08-06T09:56:19.441Z","","","","","","","","","","","","","","","","win-only","0","g1:NW,g2:SE","0.6","11","0","1091177.7","1463.4","6541.1","48000.3","1","4","4","6","2","4","4","25","21","0.1893939393939394","1272.1","3000","2645","[""down"",""right""]","{""num_key_presses"":10,""num_perfect"":6,""num_errors"":0,""num_randdir"":4,""num_randdir_good_moves"":3,""num_whilered"":0,""num_whileblue"":0,""num_blue"":0,""num_good_moves"":9}","[417.8214133126395,420.32142761775424,0.5,417.8214133126395,420.32142761775424,143.8,417.8214133126395,420.32142761775424,328.7,417.8214133126395,420.32142761775424,520,560.3214133126395,542.8214276177542,719.5,656.5714133126395,650.3214276177542,820.2,720.3214133126395,741.5714276177542,1002.4,761.5714133126395,797.8214276177542,1187.8,761.5714133126395,797.8214276177542,1288.2,761.5714133126395,797.8214276177542,1460.4,761.5714133126395,797.8214276177542,1651,676.5714133126395,794.0714276177542,1755.9,416.5714133126395,800.3214276177542,1942.3,416.5714133126395,800.3214276177542,2125.2,416.5714133126395,800.3214276177542,2303,416.5714133126395,800.3214276177542,2488.2,416.5714133126395,800.3214276177542,2678.8,416.5714133126395,800.3214276177542,2854.5,416.5714133126395,800.3214276177542,3043.4,416.5714133126395,800.3214276177542,3234.2,416.5714133126395,800.3214276177542,3421.4,416.5714133126395,800.3214276177542,3596.9,416.5714133126395,800.3214276177542,3793.6,416.5714133126395,800.3214276177542,3972.5,416.5714133126395,800.3214276177542,4160.4,416.5714133126395,800.3214276177542,4342.7,416.5714133126395,800.3214276177542,4522.6,416.5714133126395,800.3214276177542,4709.1,416.5714133126395,800.3214276177542,4886]","[1481.2,1481.2,1000,0,481.2,""oops"",""down"",""down"",""good_move"",4506.8,3025.2,2478,1481.7,547.2,""smooth"",""right"",""right"",""good_move"",7517.4,3009.7,2465,4507.7,544.7,""smooth"",""down"",""down"",""good_move"",10684.9,3166.9,2511.3,7518,655.6,""smooth"",""right"",""right"",""good_move"",14260.3,3575.1,2690.6,10685.3,884.5,""smooth"",""down"",""down"",""good_move"",16571.2,2309,1490.3,14262.2,818.8,""smooth"",""right"",""right"",""good_move"",19607.3,3035.4,1991.1,16571.9,1044.3,""oops"",""down"",""up"",""bad_move"",33286.6,13678.4,2211.1,19608.2,11467.3,""oops"",""right"",""down"",""good_move"",36591,3304.2,2653.9,33286.8,650.3,""oops"",""right"",""right"",""good_move"",39920.2,3328,2768.7,36592.3,559.3,""smooth"",""down"",""down"",""good_move""]"
"3934","","<div style=""width:500px;"">
  <p>What determined the result of this run?</p>
  </div>","65","html-slider-response","64","1143602","0.0-7.0-1.10","168","1","2025-08-06 09:37:18","36c45c0696341be0efffe67d72a12abb","41.121.24.43","Mozilla/5.0 (Windows NT 10.0; Win64; x64) AppleWebKit/537.36 (KHTML, like Gecko) Chrome/138.0.0.0 Safari/537.36","WebKit","Chrome","138.0.0.0","Windows","10.0","https://app.prolific.com/","en-US,en;q=0.9","6697c4e76e01a2e71f34cd33","687a1a965b9f5b85a264363e","68932150bcdf82b4200ce636","1","6697c4e76e01a2e71f34cd33","1","2025-08-06T09:56:23.384Z","","","","AttribQ","","","","","","","","","","","50","","","","","","","","","","","","","","","","","","","","","","","","","","",""
"4016","","<div style=""width:500px;"">
  <p>How much control did you have over the ball?</p>
  </div>","57","html-slider-response","65","1147627","0.0-7.0-2.10","168","1","2025-08-06 09:37:18","36c45c0696341be0efffe67d72a12abb","41.121.24.43","Mozilla/5.0 (Windows NT 10.0; Win64; x64) AppleWebKit/537.36 (KHTML, like Gecko) Chrome/138.0.0.0 Safari/537.36","WebKit","Chrome","138.0.0.0","Windows","10.0","https://app.prolific.com/","en-US,en;q=0.9","6697c4e76e01a2e71f34cd33","687a1a965b9f5b85a264363e","68932150bcdf82b4200ce636","1","6697c4e76e01a2e71f34cd33","1","2025-08-06T09:56:27.409Z","","","","ControlQ","","","","","","","","","","","50","","","","","","","","","","","","","","","","","","","","","","","","","","",""
"3780","","<div style=""width:500px;"">
  <p>How would you describe your current emotional state?</p>
  </div>","36","html-slider-response","66","1151419","0.0-7.0-3.10","168","1","2025-08-06 09:37:18","36c45c0696341be0efffe67d72a12abb","41.121.24.43","Mozilla/5.0 (Windows NT 10.0; Win64; x64) AppleWebKit/537.36 (KHTML, like Gecko) Chrome/138.0.0.0 Safari/537.36","WebKit","Chrome","138.0.0.0","Windows","10.0","https://app.prolific.com/","en-US,en;q=0.9","6697c4e76e01a2e71f34cd33","687a1a965b9f5b85a264363e","68932150bcdf82b4200ce636","1","6697c4e76e01a2e71f34cd33","1","2025-08-06T09:56:31.201Z","","","","StressQ","","","","","","","","","","","50","","","","","","","","","","","","","","","","","","","","","","","","","","",""
"2494","","<div style=""width:500px;"">
  <p>What best describes how you currently feel?</p>
  </div>","62","html-slider-response","67","1153920","0.0-7.0-4.10","168","1","2025-08-06 09:37:18","36c45c0696341be0efffe67d72a12abb","41.121.24.43","Mozilla/5.0 (Windows NT 10.0; Win64; x64) AppleWebKit/537.36 (KHTML, like Gecko) Chrome/138.0.0.0 Safari/537.36","WebKit","Chrome","138.0.0.0","Windows","10.0","https://app.prolific.com/","en-US,en;q=0.9","6697c4e76e01a2e71f34cd33","687a1a965b9f5b85a264363e","68932150bcdf82b4200ce636","1","6697c4e76e01a2e71f34cd33","1","2025-08-06T09:56:33.702Z","","","","MotivationQ","","","","","","","","","","","50","","","","","","","","","","","","","","","","","","","","","","","","","","",""
"","","","","ctl-task-cpt","68","1309255","0.0-7.0-0.11","168","1","2025-08-06 09:37:18","36c45c0696341be0efffe67d72a12abb","41.121.24.43","Mozilla/5.0 (Windows NT 10.0; Win64; x64) AppleWebKit/537.36 (KHTML, like Gecko) Chrome/138.0.0.0 Safari/537.36","WebKit","Chrome","138.0.0.0","Windows","10.0","https://app.prolific.com/","en-US,en;q=0.9","6697c4e76e01a2e71f34cd33","687a1a965b9f5b85a264363e","68932150bcdf82b4200ce636","1","6697c4e76e01a2e71f34cd33","1","2025-08-06T09:59:09.037Z","","","","","","","","","","","","","","","","win-only","1","g1:NE,g2:SW","0.7","12","0","1156558.7","1370.9","6460.2","152291.8","1","4","8","6","2","8","8","33","25","0.25","1113","3000","975","[""down"",""left""]","{""num_key_presses"":22,""num_perfect"":16,""num_errors"":0,""num_randdir"":6,""num_randdir_good_moves"":0,""num_whilered"":0,""num_whileblue"":0,""num_blue"":6,""num_good_moves"":14}","[422.8214133126395,411.57142761775424,0.8,422.8214133126395,411.57142761775424,129.7,422.8214133126395,411.57142761775424,236.4,422.8214133126395,411.57142761775424,344.7,422.8214133126395,411.57142761775424,456.8,347.8214133126395,501.57142761775424,576.2,250.3214133126395,581.5714276177542,695.5,152.8214133126395,654.0714276177542,812.4,96.5714133126395,702.8214276177542,918.8,84.0714133126395,714.0714276177542,1026.5,84.0714133126395,714.0714276177542,1139.2,84.0714133126395,714.0714276177542,1345.3,84.0714133126395,714.0714276177542,1447.6,84.0714133126395,714.0714276177542,1558.4,80.3214133126395,716.5714276177542,1674.8,-15.928586687360493,776.5714276177542,1869.4,-15.928586687360493,776.5714276177542,1974.9,-15.928586687360493,776.5714276177542,2167,-15.928586687360493,776.5714276177542,2271.6,-15.928586687360493,776.5714276177542,2376.6,-15.928586687360493,776.5714276177542,2485.5,-15.928586687360493,776.5714276177542,2592.2,-15.928586687360493,776.5714276177542,2699.2,-15.928586687360493,776.5714276177542,2803.6,-15.928586687360493,776.5714276177542,2997.3,-15.928586687360493,776.5714276177542,3101.7,-15.928586687360493,776.5714276177542,3211.2,-15.928586687360493,776.5714276177542,3416.9,-15.928586687360493,776.5714276177542,3523.1,-15.928586687360493,776.5714276177542,3625.5,-15.928586687360493,776.5714276177542,3726.9,-15.928586687360493,776.5714276177542,3827.7,-15.928586687360493,776.5714276177542,3930.7,-15.928586687360493,776.5714276177542,4130.5,-15.928586687360493,776.5714276177542,4237.4,-15.928586687360493,776.5714276177542,4344.2,-15.928586687360493,776.5714276177542,4451.7,-15.928586687360493,776.5714276177542,4558.3,-15.928586687360493,776.5714276177542,4663.8,-15.928586687360493,776.5714276177542,4769.9,-15.928586687360493,776.5714276177542,4874.6,-15.928586687360493,776.5714276177542,4983.5]","[1597.9,1597.9,1000,0,597.9,""smooth"",""down"",""down"",""good_move"",5262.3,3663.8,2831.5,1598.5,832.3,""oops"",""left"",""right"",""bad_move"",11343.7,6079.9,2333.6,8385.5,624.7,""smooth"",""down"",""down"",""good_move"",20530.1,9185.9,1640.9,18230.8,658.5,""smooth"",""left"",""left"",""good_move"",41943.2,21412.2,2274.5,39079,589.7,""smooth"",""down"",""down"",""good_move"",48900.9,6956.6,2779.8,45471.3,649.8,""smooth"",""left"",""left"",""good_move"",71049.8,22148.5,2565.3,48901.3,19583.2,""oops"",""left"",""right"",""bad_move"",74844,3793.6,2912.3,71050.4,881.3,""smooth"",""up"",""up"",""bad_move"",97725.7,22881.1,2638.3,74844.6,20242.8,""smooth"",""left"",""left"",""good_move"",101062.8,3336.2,2828.1,97726.6,508.1,""oops"",""left"",""right"",""bad_move"",104246.2,3182.9,2759.9,101063.3,423,""smooth"",""left"",""left"",""good_move"",108614.9,4367.9,2129.6,104247,2238.3,""smooth"",""down"",""down"",""good_move"",112588.2,3972.9,3536.7,108615.4,436.2,""oops"",""left"",""right"",""bad_move"",119437.7,6849.1,2607.5,116385.6,444.6,""oops"",""up"",""up"",""bad_move"",122938.9,3499.7,1468.6,119439.2,2031.1,""smooth"",""up"",""up"",""bad_move"",125759.8,2820.8,1941.5,122939.1,879.3,""smooth"",""left"",""left"",""good_move"",129123,3361,2802.6,125762,558.4,""smooth"",""left"",""left"",""good_move"",133096.9,3972.3,2219.8,129124.6,1752.5,""oops"",""left"",""up"",""bad_move"",137554.5,4457.1,3134,133097.4,1323.1,""smooth"",""down"",""down"",""good_move"",139733.7,2178.9,1661.7,137554.9,517.1,""smooth"",""down"",""down"",""good_move"",141743.6,2009,1516.1,139734.6,492.9,""smooth"",""down"",""down"",""good_move"",145718,3974,3497.4,141744,476.6,""smooth"",""left"",""left"",""good_move""]"
"3183","","<div style=""width:500px;"">
  <p>What determined the result of this run?</p>
  </div>","63","html-slider-response","69","1312446","0.0-7.0-1.11","168","1","2025-08-06 09:37:18","36c45c0696341be0efffe67d72a12abb","41.121.24.43","Mozilla/5.0 (Windows NT 10.0; Win64; x64) AppleWebKit/537.36 (KHTML, like Gecko) Chrome/138.0.0.0 Safari/537.36","WebKit","Chrome","138.0.0.0","Windows","10.0","https://app.prolific.com/","en-US,en;q=0.9","6697c4e76e01a2e71f34cd33","687a1a965b9f5b85a264363e","68932150bcdf82b4200ce636","1","6697c4e76e01a2e71f34cd33","1","2025-08-06T09:59:12.229Z","","","","AttribQ","","","","","","","","","","","50","","","","","","","","","","","","","","","","","","","","","","","","","","",""
"3029","","<div style=""width:500px;"">
  <p>How much control did you have over the ball?</p>
  </div>","59","html-slider-response","70","1315479","0.0-7.0-2.11","168","1","2025-08-06 09:37:18","36c45c0696341be0efffe67d72a12abb","41.121.24.43","Mozilla/5.0 (Windows NT 10.0; Win64; x64) AppleWebKit/537.36 (KHTML, like Gecko) Chrome/138.0.0.0 Safari/537.36","WebKit","Chrome","138.0.0.0","Windows","10.0","https://app.prolific.com/","en-US,en;q=0.9","6697c4e76e01a2e71f34cd33","687a1a965b9f5b85a264363e","68932150bcdf82b4200ce636","1","6697c4e76e01a2e71f34cd33","1","2025-08-06T09:59:15.262Z","","","","ControlQ","","","","","","","","","","","50","","","","","","","","","","","","","","","","","","","","","","","","","","",""
"3324","","<div style=""width:500px;"">
  <p>How would you describe your current emotional state?</p>
  </div>","35","html-slider-response","71","1318808","0.0-7.0-3.11","168","1","2025-08-06 09:37:18","36c45c0696341be0efffe67d72a12abb","41.121.24.43","Mozilla/5.0 (Windows NT 10.0; Win64; x64) AppleWebKit/537.36 (KHTML, like Gecko) Chrome/138.0.0.0 Safari/537.36","WebKit","Chrome","138.0.0.0","Windows","10.0","https://app.prolific.com/","en-US,en;q=0.9","6697c4e76e01a2e71f34cd33","687a1a965b9f5b85a264363e","68932150bcdf82b4200ce636","1","6697c4e76e01a2e71f34cd33","1","2025-08-06T09:59:18.590Z","","","","StressQ","","","","","","","","","","","50","","","","","","","","","","","","","","","","","","","","","","","","","","",""
"2884","","<div style=""width:500px;"">
  <p>What best describes how you currently feel?</p>
  </div>","62","html-slider-response","72","1321696","0.0-7.0-4.11","168","1","2025-08-06 09:37:18","36c45c0696341be0efffe67d72a12abb","41.121.24.43","Mozilla/5.0 (Windows NT 10.0; Win64; x64) AppleWebKit/537.36 (KHTML, like Gecko) Chrome/138.0.0.0 Safari/537.36","WebKit","Chrome","138.0.0.0","Windows","10.0","https://app.prolific.com/","en-US,en;q=0.9","6697c4e76e01a2e71f34cd33","687a1a965b9f5b85a264363e","68932150bcdf82b4200ce636","1","6697c4e76e01a2e71f34cd33","1","2025-08-06T09:59:21.478Z","","","","MotivationQ","","","","","","","","","","","50","","","","","","","","","","","","","","","","","","","","","","","","","","",""
"","","","","ctl-task-cpt","73","1368716","0.0-7.0-0.12","168","1","2025-08-06 09:37:18","36c45c0696341be0efffe67d72a12abb","41.121.24.43","Mozilla/5.0 (Windows NT 10.0; Win64; x64) AppleWebKit/537.36 (KHTML, like Gecko) Chrome/138.0.0.0 Safari/537.36","WebKit","Chrome","138.0.0.0","Windows","10.0","https://app.prolific.com/","en-US,en;q=0.9","6697c4e76e01a2e71f34cd33","687a1a965b9f5b85a264363e","68932150bcdf82b4200ce636","1","6697c4e76e01a2e71f34cd33","1","2025-08-06T10:00:08.498Z","","","","","","","","","","","","","","","","win-only","3","g1:SW,g2:NE","0.8","13","0","1324333.8","1551.1","6590.3","43949.9","1","4","4","6","2","4","4","37","33","0.2803030303030303","1309.8","3000","2685","[""up"",""right""]","{""num_key_presses"":6,""num_perfect"":6,""num_errors"":0,""num_randdir"":0,""num_randdir_good_moves"":0,""num_whilered"":0,""num_whileblue"":0,""num_blue"":0,""num_good_moves"":6}","[407.8214133126395,414.07142761775424,1.2,407.8214133126395,414.07142761775424,108.5,407.8214133126395,414.07142761775424,265.7,407.8214133126395,414.07142761775424,417.6,407.8214133126395,414.07142761775424,546.9,539.0714133126395,301.57142761775424,684.7,671.5714133126395,157.82142761775424,811.8,702.8214133126395,130.32142761775424,945.8,715.3214133126395,129.07142761775424,1080.3,715.3214133126395,129.07142761775424,1228,715.3214133126395,129.07142761775424,1360.5,715.3214133126395,129.07142761775424,1480.6,715.3214133126395,129.07142761775424,1606.6,715.3214133126395,129.07142761775424,1720.1,621.5714133126395,165.32142761775424,1836.2,546.5714133126395,230.32142761775424,1940.4,531.5714133126395,250.32142761775424,2043.3,531.5714133126395,250.32142761775424,2144.5,531.5714133126395,250.32142761775424,2253.4,531.5714133126395,250.32142761775424,2371.9,531.5714133126395,250.32142761775424,2499.1,531.5714133126395,250.32142761775424,2613.1,531.5714133126395,250.32142761775424,2743.7,531.5714133126395,250.32142761775424,2844.4,531.5714133126395,250.32142761775424,2955.6,531.5714133126395,250.32142761775424,3063.8,531.5714133126395,250.32142761775424,3166.6,531.5714133126395,250.32142761775424,3271.3,531.5714133126395,250.32142761775424,3376.9,531.5714133126395,250.32142761775424,3504.4,531.5714133126395,250.32142761775424,3637.6,531.5714133126395,250.32142761775424,3749.5,531.5714133126395,250.32142761775424,3854.7,531.5714133126395,250.32142761775424,3970,531.5714133126395,250.32142761775424,4070.2,531.5714133126395,250.32142761775424,4179.4,531.5714133126395,250.32142761775424,4300.8,531.5714133126395,250.32142761775424,4409.4,531.5714133126395,250.32142761775424,4540.2,531.5714133126395,250.32142761775424,4669.7,531.5714133126395,250.32142761775424,4774.5,531.5714133126395,250.32142761775424,4890.6,531.5714133126395,250.32142761775424,4996.8]","[1427.1,1427.1,1000,0,427.1,""smooth"",""right"",""right"",""good_move"",4402.4,2974.5,2319.1,1427.9,655.4,""smooth"",""up"",""up"",""good_move"",14600.5,10195.1,2836.1,4405.5,7358.9,""smooth"",""up"",""up"",""good_move"",23118.7,8517,2737.7,14601.7,5779.3,""smooth"",""right"",""right"",""good_move"",25822,2703,2106.1,23119.1,596.8,""smooth"",""up"",""up"",""good_move"",35626.4,9804.1,1952.3,25822.4,7851.7,""smooth"",""right"",""right"",""good_move""]"
"4339","","<div style=""width:500px;"">
  <p>What determined the result of this run?</p>
  </div>","62","html-slider-response","74","1373060","0.0-7.0-1.12","168","1","2025-08-06 09:37:18","36c45c0696341be0efffe67d72a12abb","41.121.24.43","Mozilla/5.0 (Windows NT 10.0; Win64; x64) AppleWebKit/537.36 (KHTML, like Gecko) Chrome/138.0.0.0 Safari/537.36","WebKit","Chrome","138.0.0.0","Windows","10.0","https://app.prolific.com/","en-US,en;q=0.9","6697c4e76e01a2e71f34cd33","687a1a965b9f5b85a264363e","68932150bcdf82b4200ce636","1","6697c4e76e01a2e71f34cd33","1","2025-08-06T10:00:12.842Z","","","","AttribQ","","","","","","","","","","","50","","","","","","","","","","","","","","","","","","","","","","","","","","",""
"3415","","<div style=""width:500px;"">
  <p>How much control did you have over the ball?</p>
  </div>","58","html-slider-response","75","1376478","0.0-7.0-2.12","168","1","2025-08-06 09:37:18","36c45c0696341be0efffe67d72a12abb","41.121.24.43","Mozilla/5.0 (Windows NT 10.0; Win64; x64) AppleWebKit/537.36 (KHTML, like Gecko) Chrome/138.0.0.0 Safari/537.36","WebKit","Chrome","138.0.0.0","Windows","10.0","https://app.prolific.com/","en-US,en;q=0.9","6697c4e76e01a2e71f34cd33","687a1a965b9f5b85a264363e","68932150bcdf82b4200ce636","1","6697c4e76e01a2e71f34cd33","1","2025-08-06T10:00:16.260Z","","","","ControlQ","","","","","","","","","","","50","","","","","","","","","","","","","","","","","","","","","","","","","","",""
"3151","","<div style=""width:500px;"">
  <p>How would you describe your current emotional state?</p>
  </div>","40","html-slider-response","76","1379632","0.0-7.0-3.12","168","1","2025-08-06 09:37:18","36c45c0696341be0efffe67d72a12abb","41.121.24.43","Mozilla/5.0 (Windows NT 10.0; Win64; x64) AppleWebKit/537.36 (KHTML, like Gecko) Chrome/138.0.0.0 Safari/537.36","WebKit","Chrome","138.0.0.0","Windows","10.0","https://app.prolific.com/","en-US,en;q=0.9","6697c4e76e01a2e71f34cd33","687a1a965b9f5b85a264363e","68932150bcdf82b4200ce636","1","6697c4e76e01a2e71f34cd33","1","2025-08-06T10:00:19.414Z","","","","StressQ","","","","","","","","","","","50","","","","","","","","","","","","","","","","","","","","","","","","","","",""
"7691","","<div style=""width:500px;"">
  <p>What best describes how you currently feel?</p>
  </div>","63","html-slider-response","77","1387330","0.0-7.0-4.12","168","1","2025-08-06 09:37:18","36c45c0696341be0efffe67d72a12abb","41.121.24.43","Mozilla/5.0 (Windows NT 10.0; Win64; x64) AppleWebKit/537.36 (KHTML, like Gecko) Chrome/138.0.0.0 Safari/537.36","WebKit","Chrome","138.0.0.0","Windows","10.0","https://app.prolific.com/","en-US,en;q=0.9","6697c4e76e01a2e71f34cd33","687a1a965b9f5b85a264363e","68932150bcdf82b4200ce636","1","6697c4e76e01a2e71f34cd33","1","2025-08-06T10:00:27.113Z","","","","MotivationQ","","","","","","","","","","","50","","","","","","","","","","","","","","","","","","","","","","","","","","",""
