"rt","response_timestamp","stimulus","response","trial_type","trial_index","time_elapsed","internal_node_id","run_id","condition","recorded_at","source_code_version","ip","user_agent","device","browser","browser_version","platform","platform_version","referer","accept_language","PROLIFIC_PID","STUDY_ID","SESSION_ID","BATCH","prolific_id","batch","realtime","success","question_order","question_id","eventType","responses","item_order","radio_event_ids","radio_event_times","key_event_times","mouse_event_times","straightlining","zigzagging","honeypot","view_history","slider_start","which_type","canvas_config","goals_layout","control_level","trial_number","tutorial_trial_number","trial_start_time","phase1_start_time","phase2_start_time","phase3_start_time","goal_1_value","goal_1_distance","goal_2_value","goal_2_distance","goal_selected","outcome","outcome_total","participant_final_score","participant_initial_score","participant_final_score_prop","goal_choice_rt","allocated_time","allocated_time_remaining","goal_direction","counts","mouse_movements","key_presses"
"5163","1753954308964","<p style='font-size:40px;line-height:1.25'><strong>Welcome to the experiment!</strong></p><p style='font-size:1.1em;line-height:1.25'>Thank you for participanting in our experiment again! You will be asked to play the Dysfunctional Ball Game again. We will briefly recap the rules before we start.</p><p style='font-size:1.1em;line-height:1.25'>Press <strong>Next</strong> to continue.</p>","0","custom-html-button-response","0","5314","0.0-0.0","108","1","2025-07-31 09:31:38","36c45c0696341be0efffe67d72a12abb","41.121.38.210","Mozilla/5.0 (Windows NT 10.0; Win64; x64) AppleWebKit/537.36 (KHTML, like Gecko) Chrome/138.0.0.0 Safari/537.36","WebKit","Chrome","138.0.0.0","Windows","10.0","https://app.prolific.com/","en-GB,en-US;q=0.9,en;q=0.8","669bd8ce24b83b4652aebd40","687a360dabe5252b5ada7185","688b37d754018fec676f1688","0","669bd8ce24b83b4652aebd40","0","2025-07-31T09:31:48.973Z","","","","","","","","","","","","","","","","","","","","","","","","","","","","","","","","","","","","","","","","","",""
"8729","","","","fullscreen","1","15065","0.0-1.0","108","1","2025-07-31 09:31:38","36c45c0696341be0efffe67d72a12abb","41.121.38.210","Mozilla/5.0 (Windows NT 10.0; Win64; x64) AppleWebKit/537.36 (KHTML, like Gecko) Chrome/138.0.0.0 Safari/537.36","WebKit","Chrome","138.0.0.0","Windows","10.0","https://app.prolific.com/","en-GB,en-US;q=0.9,en;q=0.8","669bd8ce24b83b4652aebd40","687a360dabe5252b5ada7185","688b37d754018fec676f1688","0","669bd8ce24b83b4652aebd40","0","","true","","","","","","","","","","","","","","","","","","","","","","","","","","","","","","","","","","","","","","","","",""
"6119","1753954324848"," <p style='font-size:1.1em;line-height:1.25'>Thank you for closing all other tabs.</p><p style='font-size:1.1em;line-height:1.25'>We will now invite you to fill in some questionnaires, before starting the game.<br>This will take about 5 minutes.<br></p><p style='font-size:1.1em;line-height:1.25'>Press the <strong>Next</strong> button to continue.</p>","0","custom-html-button-response","2","21191","0.0-2.0","108","1","2025-07-31 09:31:38","36c45c0696341be0efffe67d72a12abb","41.121.38.210","Mozilla/5.0 (Windows NT 10.0; Win64; x64) AppleWebKit/537.36 (KHTML, like Gecko) Chrome/138.0.0.0 Safari/537.36","WebKit","Chrome","138.0.0.0","Windows","10.0","https://app.prolific.com/","en-GB,en-US;q=0.9,en;q=0.8","669bd8ce24b83b4652aebd40","687a360dabe5252b5ada7185","688b37d754018fec676f1688","0","669bd8ce24b83b4652aebd40","0","2025-07-31T09:32:04.851Z","","","","","","","","","","","","","","","","","","","","","","","","","","","","","","","","","","","","","","","","","",""
"12079","","","{""assigned_sex"":""female""}","survey-multi-choice","3","33283","0.0-3.0-0.0","108","1","2025-07-31 09:31:38","36c45c0696341be0efffe67d72a12abb","41.121.38.210","Mozilla/5.0 (Windows NT 10.0; Win64; x64) AppleWebKit/537.36 (KHTML, like Gecko) Chrome/138.0.0.0 Safari/537.36","WebKit","Chrome","138.0.0.0","Windows","10.0","https://app.prolific.com/","en-GB,en-US;q=0.9,en;q=0.8","669bd8ce24b83b4652aebd40","687a360dabe5252b5ada7185","688b37d754018fec676f1688","0","669bd8ce24b83b4652aebd40","0","","","[0]","0","demographics","","","","","","","","","","","","","","","","","","","","","","","","","","","","","","","","","","","","","",""
"5129","1753954342077","<p style='font-size:1.1em;line-height:1.25'>In the following, we will perform a baseline assessment. This means that we will ask you a few questions relating to your experiences over the past month.<br></p><p style='font-size:1.1em;line-height:1.25'>Press the <strong>Next</strong> button to continue.</p>","0","custom-html-button-response","4","38423","0.0-4.0-0.0","108","1","2025-07-31 09:31:38","36c45c0696341be0efffe67d72a12abb","41.121.38.210","Mozilla/5.0 (Windows NT 10.0; Win64; x64) AppleWebKit/537.36 (KHTML, like Gecko) Chrome/138.0.0.0 Safari/537.36","WebKit","Chrome","138.0.0.0","Windows","10.0","https://app.prolific.com/","en-GB,en-US;q=0.9,en;q=0.8","669bd8ce24b83b4652aebd40","687a360dabe5252b5ada7185","688b37d754018fec676f1688","0","669bd8ce24b83b4652aebd40","0","2025-07-31T09:32:22.082Z","","","","","","","","","","","","","","","","","","","","","","","","","","","","","","","","","","","","","","","","","",""
"106631.09999999986","","","","survey-template","5","145099","0.0-4.0-1.0","108","1","2025-07-31 09:31:38","36c45c0696341be0efffe67d72a12abb","41.121.38.210","Mozilla/5.0 (Windows NT 10.0; Win64; x64) AppleWebKit/537.36 (KHTML, like Gecko) Chrome/138.0.0.0 Safari/537.36","WebKit","Chrome","138.0.0.0","Windows","10.0","https://app.prolific.com/","en-GB,en-US;q=0.9,en;q=0.8","669bd8ce24b83b4652aebd40","687a360dabe5252b5ada7185","688b37d754018fec676f1688","0","669bd8ce24b83b4652aebd40","0","2025-07-31T09:34:08.759Z","","","","pss","{""Q01"":""3"",""Q02"":""2"",""Q03"":""3"",""Q04"":""0"",""Q05"":""1"",""Q06"":""2"",""Q07"":""2"",""Q08"":""1"",""Q09"":""2"",""Q10"":""2""}","[0,1,2,3,4,5,6,7,8,9]","[""Q01"",""Q02"",""Q03"",""Q04"",""Q05"",""Q06"",""Q07"",""Q08"",""Q09"",""Q10""]","[6630,13631.299999999814,16897.59999999986,26132.199999999953,30408.899999999907,50125.59999999986,62270.09999999986,88819.19999999995,99937.19999999995,105176.8999999999]","[]","[60.799999999813735,6630,13631.299999999814,16897.59999999986,25026.199999999953,26132.199999999953,30408.899999999907,50125.59999999986,62270.09999999986,88819.19999999995,99937.19999999995,105176.8999999999,106618.19999999995]","0.5","0.7777777777777778","0","","","","","","","","","","","","","","","","","","","","","","","","","","","","",""
"3977","1753954452740","<p style='font-size:1.1em;line-height:1.25'>Thank you for your answers! Now we will ask you a few more questions relating to your feelings in the last 24 hours.<br></p><p style='font-size:1.1em;line-height:1.25'>Press the <strong>Next</strong> button to continue.</p>","0","custom-html-button-response","6","149088","0.0-4.0-2.0","108","1","2025-07-31 09:31:38","36c45c0696341be0efffe67d72a12abb","41.121.38.210","Mozilla/5.0 (Windows NT 10.0; Win64; x64) AppleWebKit/537.36 (KHTML, like Gecko) Chrome/138.0.0.0 Safari/537.36","WebKit","Chrome","138.0.0.0","Windows","10.0","https://app.prolific.com/","en-GB,en-US;q=0.9,en;q=0.8","669bd8ce24b83b4652aebd40","687a360dabe5252b5ada7185","688b37d754018fec676f1688","0","669bd8ce24b83b4652aebd40","0","2025-07-31T09:34:12.747Z","","","","","","","","","","","","","","","","","","","","","","","","","","","","","","","","","","","","","","","","","",""
"167416.40000000014","","","","survey-template","7","316569","0.0-4.0-3.0","108","1","2025-07-31 09:31:38","36c45c0696341be0efffe67d72a12abb","41.121.38.210","Mozilla/5.0 (Windows NT 10.0; Win64; x64) AppleWebKit/537.36 (KHTML, like Gecko) Chrome/138.0.0.0 Safari/537.36","WebKit","Chrome","138.0.0.0","Windows","10.0","https://app.prolific.com/","en-GB,en-US;q=0.9,en;q=0.8","669bd8ce24b83b4652aebd40","687a360dabe5252b5ada7185","688b37d754018fec676f1688","0","669bd8ce24b83b4652aebd40","0","2025-07-31T09:37:00.229Z","","","","drsp","{""Q01"":""3"",""Q02"":""4"",""Q03"":""1"",""Q04"":""2"",""Q05"":""2"",""Q06"":""3"",""Q07"":""3"",""Q08"":""1"",""Q09"":""1"",""Q10"":""0"",""Q11"":""2"",""Q12"":""3"",""Q13"":""5"",""Q14"":""4"",""Q15"":""4"",""Q16"":""4"",""Q17"":""3"",""Q18"":""2"",""Q19"":""0"",""Q20"":""2"",""Q21"":""1"",""Q22"":""1""}","[0,1,2,3,4,5,6,7,8,9,10,11,12,13,14,15,16,17,18,19,20,21]","[""Q01"",""Q02"",""Q03"",""Q04"",""Q05"",""Q06"",""Q07"",""Q08"",""Q09"",""Q10"",""Q11"",""Q12"",""Q13"",""Q14"",""Q15"",""Q15"",""Q16"",""Q17"",""Q19"",""Q20"",""Q21"",""Q22"",""Q18""]","[3932.8000000000466,10802.300000000047,13967.800000000047,15997.5,17887.5,26783.100000000093,29155,38137.19999999995,53560.5,57681.19999999995,61439.80000000005,63458.69999999995,66490.90000000014,71453.69999999995,82982.90000000014,106012.30000000005,112623.90000000014,114736.6000000001,123223.19999999995,136448.80000000005,148613.5,152542.90000000014,165472]","[]","[54,3932.8000000000466,10802.300000000047,13967.800000000047,15997.5,17887.5,26783.100000000093,29155,38137.19999999995,53560.5,57681.19999999995,61439.80000000005,63458.69999999995,66490.90000000014,71453.69999999995,79326.40000000014,82982.90000000014,103227.80000000005,106012.30000000005,112623.90000000014,114736.6000000001,117599.40000000014,122112.80000000005,123223.19999999995,136448.80000000005,148613.5,152542.90000000014,155760.5,165472,167394.6000000001]","0.22727272727272727","0.42857142857142855","0","","","","","","","","","","","","","","","","","","","","","","","","","","","","",""
"16653.300000000047","","","","survey-template","8","333231","0.0-4.0-4.0","108","1","2025-07-31 09:31:38","36c45c0696341be0efffe67d72a12abb","41.121.38.210","Mozilla/5.0 (Windows NT 10.0; Win64; x64) AppleWebKit/537.36 (KHTML, like Gecko) Chrome/138.0.0.0 Safari/537.36","WebKit","Chrome","138.0.0.0","Windows","10.0","https://app.prolific.com/","en-GB,en-US;q=0.9,en;q=0.8","669bd8ce24b83b4652aebd40","687a360dabe5252b5ada7185","688b37d754018fec676f1688","0","669bd8ce24b83b4652aebd40","0","2025-07-31T09:37:16.890Z","","","","stress","{""Q01"":""4"",""Q02"":""1"",""Q03"":""1""}","[0,1,2]","[""Q01"",""Q02"",""Q03""]","[6994.5,9629.09999999986,14330.699999999953]","[]","[6994.5,9629.09999999986,14330.699999999953,15943.199999999953,16647.09999999986]","0.6666666666666666","0","0","","","","","","","","","","","","","","","","","","","","","","","","","","","","",""
"65382","","","","instructions","9","398632","0.0-5.0-0.0","108","1","2025-07-31 09:31:38","36c45c0696341be0efffe67d72a12abb","41.121.38.210","Mozilla/5.0 (Windows NT 10.0; Win64; x64) AppleWebKit/537.36 (KHTML, like Gecko) Chrome/138.0.0.0 Safari/537.36","WebKit","Chrome","138.0.0.0","Windows","10.0","https://app.prolific.com/","en-GB,en-US;q=0.9,en;q=0.8","669bd8ce24b83b4652aebd40","687a360dabe5252b5ada7185","688b37d754018fec676f1688","0","669bd8ce24b83b4652aebd40","0","","","","","","","","","","","","","","","[{""page_index"":0,""viewing_time"":65376}]","","","","","","","","","","","","","","","","","","","","","","","","","","","",""
"11574","","<p>Before you start with this game please answer the following three questions yourself. </p>
  <p>Through this game, we measure several aspects of your cognitive performance, such as reaction times, multi-tasking capabilities </p>
  <p>and the ability to assess the situation you are in.</p>
  <p></p>
  <p><b>How good do you usually are in such tasks?</b></p>","61","html-slider-response","10","410215","0.0-6.0-0.0","108","1","2025-07-31 09:31:38","36c45c0696341be0efffe67d72a12abb","41.121.38.210","Mozilla/5.0 (Windows NT 10.0; Win64; x64) AppleWebKit/537.36 (KHTML, like Gecko) Chrome/138.0.0.0 Safari/537.36","WebKit","Chrome","138.0.0.0","Windows","10.0","https://app.prolific.com/","en-GB,en-US;q=0.9,en;q=0.8","669bd8ce24b83b4652aebd40","687a360dabe5252b5ada7185","688b37d754018fec676f1688","0","669bd8ce24b83b4652aebd40","0","2025-07-31T09:38:33.875Z","","","","PreSkillQ","","","","","","","","","","","50","","","","","","","","","","","","","","","","","","","","","","","","","","",""
"7519","","<div style=""width:500px;"">
  <p>How well do you think you will perform in this task compared to other participants?</p>
  </div>","68","html-slider-response","11","417744","0.0-6.0-1.0","108","1","2025-07-31 09:31:38","36c45c0696341be0efffe67d72a12abb","41.121.38.210","Mozilla/5.0 (Windows NT 10.0; Win64; x64) AppleWebKit/537.36 (KHTML, like Gecko) Chrome/138.0.0.0 Safari/537.36","WebKit","Chrome","138.0.0.0","Windows","10.0","https://app.prolific.com/","en-GB,en-US;q=0.9,en;q=0.8","669bd8ce24b83b4652aebd40","687a360dabe5252b5ada7185","688b37d754018fec676f1688","0","669bd8ce24b83b4652aebd40","0","2025-07-31T09:38:41.403Z","","","","PrePerfQ","","","","","","","","","","","50","","","","","","","","","","","","","","","","","","","","","","","","","","",""
"5337","","<div style=""width:500px;"">
  <p>What best describes how you currently feel?</p>
  </div>","70","html-slider-response","12","423087","0.0-6.0-2.0","108","1","2025-07-31 09:31:38","36c45c0696341be0efffe67d72a12abb","41.121.38.210","Mozilla/5.0 (Windows NT 10.0; Win64; x64) AppleWebKit/537.36 (KHTML, like Gecko) Chrome/138.0.0.0 Safari/537.36","WebKit","Chrome","138.0.0.0","Windows","10.0","https://app.prolific.com/","en-GB,en-US;q=0.9,en;q=0.8","669bd8ce24b83b4652aebd40","687a360dabe5252b5ada7185","688b37d754018fec676f1688","0","669bd8ce24b83b4652aebd40","0","2025-07-31T09:38:46.747Z","","","","PreMotivationQ","","","","","","","","","","","50","","","","","","","","","","","","","","","","","","","","","","","","","","",""
"","","","","ctl-task-cpt","13","458293","0.0-7.0-0.0","108","1","2025-07-31 09:31:38","36c45c0696341be0efffe67d72a12abb","41.121.38.210","Mozilla/5.0 (Windows NT 10.0; Win64; x64) AppleWebKit/537.36 (KHTML, like Gecko) Chrome/138.0.0.0 Safari/537.36","WebKit","Chrome","138.0.0.0","Windows","10.0","https://app.prolific.com/","en-GB,en-US;q=0.9,en;q=0.8","669bd8ce24b83b4652aebd40","687a360dabe5252b5ada7185","688b37d754018fec676f1688","0","669bd8ce24b83b4652aebd40","0","2025-07-31T09:39:21.952Z","","","","","","","","","","","","","","","","win-only","1","g1:NE,g2:SW","1","1","0","430230.8","9419.3","14440.8","32169.7","1","4","8","6","1","1","0","0","0","0","5021.4","3000","1160","[""up"",""right""]","{""num_key_presses"":5,""num_perfect"":4,""num_errors"":1,""num_randdir"":0,""num_randdir_good_moves"":0,""num_whilered"":0,""num_whileblue"":0,""num_blue"":1,""num_good_moves"":4}","[295.22232142857143,294.12857142857143,2.3,295.22232142857143,294.12857142857143,102.4,295.22232142857143,294.12857142857143,202.6,295.22232142857143,294.12857142857143,324.6,295.22232142857143,294.12857142857143,439,295.22232142857143,294.12857142857143,541.2,295.22232142857143,294.12857142857143,650.8,295.22232142857143,294.12857142857143,752.1,295.22232142857143,294.12857142857143,852.6,295.22232142857143,294.12857142857143,953.1,295.22232142857143,294.12857142857143,1053.2,295.22232142857143,294.12857142857143,1160.6,295.22232142857143,294.12857142857143,1291.4,295.22232142857143,294.12857142857143,1395.6,295.22232142857143,294.12857142857143,1499.3,296.22232142857143,292.12857142857143,1599.4,297.22232142857143,291.12857142857143,1704.5,299.22232142857143,290.12857142857143,1813.3,313.22232142857143,273.12857142857143,1941.1,392.22232142857143,195.12857142857143,2053.9,438.22232142857143,164.12857142857143,2156.4,445.22232142857143,156.12857142857143,2263.3,445.22232142857143,156.12857142857143,2365.1,445.22232142857143,156.12857142857143,2470.2,445.22232142857143,156.12857142857143,2570.4,445.22232142857143,156.12857142857143,2671.9,445.22232142857143,156.12857142857143,2771.9,445.22232142857143,156.12857142857143,2873.7,445.22232142857143,156.12857142857143,2974.7,445.22232142857143,156.12857142857143,3078.4,445.22232142857143,156.12857142857143,3189.9,445.22232142857143,156.12857142857143,3289.9,445.22232142857143,156.12857142857143,3392.4,445.22232142857143,156.12857142857143,3496,445.22232142857143,156.12857142857143,3599.5,445.22232142857143,156.12857142857143,3699.7,445.22232142857143,156.12857142857143,3809.6,445.22232142857143,156.12857142857143,3918.4,445.22232142857143,156.12857142857143,4026,445.22232142857143,156.12857142857143,4126.4,445.22232142857143,156.12857142857143,4233.3,445.22232142857143,156.12857142857143,4340.1,445.22232142857143,156.12857142857143,4444.1,445.22232142857143,156.12857142857143,4564.8,445.22232142857143,156.12857142857143,4672.2,445.22232142857143,156.12857142857143,4783.2,445.22232142857143,156.12857142857143,4899.1]","[4403.7,4403.7,3001.4,2010,-607.7,""error"",""-"",""-"",""no_move"",8850.3,4443.2,2682,5414.4,754,""smooth"",""right"",""right"",""good_move"",12023.1,3167.1,2548.8,8856.1,618.2,""smooth"",""right"",""right"",""good_move"",14893.6,2866.2,2380,12027.4,486.2,""smooth"",""up"",""up"",""good_move"",17579,2677.2,2139.2,14901.8,538.1,""smooth"",""up"",""up"",""good_move""]"
"24757","","<div style=""width:500px;"">
  <p>What determined the result of this run?</p>
  </div>","67","html-slider-response","14","483056","0.0-7.0-1.0","108","1","2025-07-31 09:31:38","36c45c0696341be0efffe67d72a12abb","41.121.38.210","Mozilla/5.0 (Windows NT 10.0; Win64; x64) AppleWebKit/537.36 (KHTML, like Gecko) Chrome/138.0.0.0 Safari/537.36","WebKit","Chrome","138.0.0.0","Windows","10.0","https://app.prolific.com/","en-GB,en-US;q=0.9,en;q=0.8","669bd8ce24b83b4652aebd40","687a360dabe5252b5ada7185","688b37d754018fec676f1688","0","669bd8ce24b83b4652aebd40","0","2025-07-31T09:39:46.716Z","","","","AttribQ","","","","","","","","","","","50","","","","","","","","","","","","","","","","","","","","","","","","","","",""
"3754","","<div style=""width:500px;"">
  <p>How much control did you have over the ball?</p>
  </div>","75","html-slider-response","15","486819","0.0-7.0-2.0","108","1","2025-07-31 09:31:38","36c45c0696341be0efffe67d72a12abb","41.121.38.210","Mozilla/5.0 (Windows NT 10.0; Win64; x64) AppleWebKit/537.36 (KHTML, like Gecko) Chrome/138.0.0.0 Safari/537.36","WebKit","Chrome","138.0.0.0","Windows","10.0","https://app.prolific.com/","en-GB,en-US;q=0.9,en;q=0.8","669bd8ce24b83b4652aebd40","687a360dabe5252b5ada7185","688b37d754018fec676f1688","0","669bd8ce24b83b4652aebd40","0","2025-07-31T09:39:50.478Z","","","","ControlQ","","","","","","","","","","","50","","","","","","","","","","","","","","","","","","","","","","","","","","",""
"4647","","<div style=""width:500px;"">
  <p>How would you describe your current emotional state?</p>
  </div>","71","html-slider-response","16","491475","0.0-7.0-3.0","108","1","2025-07-31 09:31:38","36c45c0696341be0efffe67d72a12abb","41.121.38.210","Mozilla/5.0 (Windows NT 10.0; Win64; x64) AppleWebKit/537.36 (KHTML, like Gecko) Chrome/138.0.0.0 Safari/537.36","WebKit","Chrome","138.0.0.0","Windows","10.0","https://app.prolific.com/","en-GB,en-US;q=0.9,en;q=0.8","669bd8ce24b83b4652aebd40","687a360dabe5252b5ada7185","688b37d754018fec676f1688","0","669bd8ce24b83b4652aebd40","0","2025-07-31T09:39:55.135Z","","","","StressQ","","","","","","","","","","","50","","","","","","","","","","","","","","","","","","","","","","","","","","",""
"4081","","<div style=""width:500px;"">
  <p>What best describes how you currently feel?</p>
  </div>","73","html-slider-response","17","495576","0.0-7.0-4.0","108","1","2025-07-31 09:31:38","36c45c0696341be0efffe67d72a12abb","41.121.38.210","Mozilla/5.0 (Windows NT 10.0; Win64; x64) AppleWebKit/537.36 (KHTML, like Gecko) Chrome/138.0.0.0 Safari/537.36","WebKit","Chrome","138.0.0.0","Windows","10.0","https://app.prolific.com/","en-GB,en-US;q=0.9,en;q=0.8","669bd8ce24b83b4652aebd40","687a360dabe5252b5ada7185","688b37d754018fec676f1688","0","669bd8ce24b83b4652aebd40","0","2025-07-31T09:39:59.236Z","","","","MotivationQ","","","","","","","","","","","50","","","","","","","","","","","","","","","","","","","","","","","","","","",""
"","","","","ctl-task-cpt","18","529074","0.0-7.0-0.1","108","1","2025-07-31 09:31:38","36c45c0696341be0efffe67d72a12abb","41.121.38.210","Mozilla/5.0 (Windows NT 10.0; Win64; x64) AppleWebKit/537.36 (KHTML, like Gecko) Chrome/138.0.0.0 Safari/537.36","WebKit","Chrome","138.0.0.0","Windows","10.0","https://app.prolific.com/","en-GB,en-US;q=0.9,en;q=0.8","669bd8ce24b83b4652aebd40","687a360dabe5252b5ada7185","688b37d754018fec676f1688","0","669bd8ce24b83b4652aebd40","0","2025-07-31T09:40:32.733Z","","","","","","","","","","","","","","","","win-only","1","g1:NE,g2:SW","0.9","2","0","502690.8","3175.7","8184.6","30471.5","1","4","4","6","2","4","4","4","0","0.030303030303030304","1603.5","3000","910","[""down"",""left""]","{""num_key_presses"":6,""num_perfect"":6,""num_errors"":0,""num_randdir"":0,""num_randdir_good_moves"":0,""num_whilered"":0,""num_whileblue"":0,""num_blue"":2,""num_good_moves"":6}","[291.22232142857143,292.12857142857143,1.6,291.22232142857143,292.12857142857143,191.7,291.22232142857143,292.12857142857143,298.1,291.22232142857143,292.12857142857143,399.6,291.22232142857143,292.12857142857143,502,291.22232142857143,292.12857142857143,603.8,291.22232142857143,292.12857142857143,711.8,288.22232142857143,295.12857142857143,813.6,240.22232142857143,346.12857142857143,917.4,162.22232142857143,420.12857142857143,1020.6,65.22232142857143,514.1285714285714,1121.7,65.22232142857143,514.1285714285714,1224.6,65.22232142857143,514.1285714285714,1334,65.22232142857143,514.1285714285714,1628.4,65.22232142857143,514.1285714285714,1743.7,65.22232142857143,514.1285714285714,1858,65.22232142857143,514.1285714285714,1958.4,65.22232142857143,514.1285714285714,2067.5,65.22232142857143,514.1285714285714,2197.9,65.22232142857143,514.1285714285714,2304.1,65.22232142857143,514.1285714285714,2436.9,65.22232142857143,514.1285714285714,2537.2,65.22232142857143,514.1285714285714,2637.7,65.22232142857143,514.1285714285714,2744.3,65.22232142857143,514.1285714285714,2846.6,65.22232142857143,514.1285714285714,2948.7,65.22232142857143,514.1285714285714,3049.1,81.22232142857143,494.12857142857143,3155.2,152.22232142857143,460.12857142857143,3268,241.22232142857143,420.12857142857143,3386.1,289.22232142857143,390.12857142857143,3494.4,289.22232142857143,390.12857142857143,3598.4,289.22232142857143,390.12857142857143,3703.9,289.22232142857143,388.12857142857143,3810.8,299.22232142857143,354.12857142857143,3924.4,312.22232142857143,328.12857142857143,4037.4,338.22232142857143,287.12857142857143,4146,353.22232142857143,253.12857142857143,4249.2,353.22232142857143,253.12857142857143,4350.3,353.22232142857143,253.12857142857143,4458.4,353.22232142857143,253.12857142857143,4588.5,353.22232142857143,253.12857142857143,4699.5,353.22232142857143,253.12857142857143,4800.7,353.22232142857143,253.12857142857143,4913.7]","[1588.5,1588.4,1000,0.1,588.4,""smooth"",""left"",""left"",""good_move"",8331.5,6739.5,2973.7,4846.4,511.4,""smooth"",""left"",""left"",""good_move"",14160.2,5815.5,2365.2,11232.7,562.3,""smooth"",""left"",""left"",""good_move"",16284.4,2118.5,1601.3,14165.9,517.2,""smooth"",""down"",""down"",""good_move"",18911.5,2619.4,2142.9,16292.1,476.5,""smooth"",""down"",""down"",""good_move"",22140.8,3226.1,2764.3,18914.8,461.7,""smooth"",""down"",""down"",""good_move""]"
"3528","","<div style=""width:500px;"">
  <p>What determined the result of this run?</p>
  </div>","83","html-slider-response","19","532611","0.0-7.0-1.1","108","1","2025-07-31 09:31:38","36c45c0696341be0efffe67d72a12abb","41.121.38.210","Mozilla/5.0 (Windows NT 10.0; Win64; x64) AppleWebKit/537.36 (KHTML, like Gecko) Chrome/138.0.0.0 Safari/537.36","WebKit","Chrome","138.0.0.0","Windows","10.0","https://app.prolific.com/","en-GB,en-US;q=0.9,en;q=0.8","669bd8ce24b83b4652aebd40","687a360dabe5252b5ada7185","688b37d754018fec676f1688","0","669bd8ce24b83b4652aebd40","0","2025-07-31T09:40:36.270Z","","","","AttribQ","","","","","","","","","","","50","","","","","","","","","","","","","","","","","","","","","","","","","","",""
"3997","","<div style=""width:500px;"">
  <p>How much control did you have over the ball?</p>
  </div>","90","html-slider-response","20","536624","0.0-7.0-2.1","108","1","2025-07-31 09:31:38","36c45c0696341be0efffe67d72a12abb","41.121.38.210","Mozilla/5.0 (Windows NT 10.0; Win64; x64) AppleWebKit/537.36 (KHTML, like Gecko) Chrome/138.0.0.0 Safari/537.36","WebKit","Chrome","138.0.0.0","Windows","10.0","https://app.prolific.com/","en-GB,en-US;q=0.9,en;q=0.8","669bd8ce24b83b4652aebd40","687a360dabe5252b5ada7185","688b37d754018fec676f1688","0","669bd8ce24b83b4652aebd40","0","2025-07-31T09:40:40.283Z","","","","ControlQ","","","","","","","","","","","50","","","","","","","","","","","","","","","","","","","","","","","","","","",""
"3867","","<div style=""width:500px;"">
  <p>How would you describe your current emotional state?</p>
  </div>","9","html-slider-response","21","540503","0.0-7.0-3.1","108","1","2025-07-31 09:31:38","36c45c0696341be0efffe67d72a12abb","41.121.38.210","Mozilla/5.0 (Windows NT 10.0; Win64; x64) AppleWebKit/537.36 (KHTML, like Gecko) Chrome/138.0.0.0 Safari/537.36","WebKit","Chrome","138.0.0.0","Windows","10.0","https://app.prolific.com/","en-GB,en-US;q=0.9,en;q=0.8","669bd8ce24b83b4652aebd40","687a360dabe5252b5ada7185","688b37d754018fec676f1688","0","669bd8ce24b83b4652aebd40","0","2025-07-31T09:40:44.164Z","","","","StressQ","","","","","","","","","","","50","","","","","","","","","","","","","","","","","","","","","","","","","","",""
"3173","","<div style=""width:500px;"">
  <p>What best describes how you currently feel?</p>
  </div>","81","html-slider-response","22","543691","0.0-7.0-4.1","108","1","2025-07-31 09:31:38","36c45c0696341be0efffe67d72a12abb","41.121.38.210","Mozilla/5.0 (Windows NT 10.0; Win64; x64) AppleWebKit/537.36 (KHTML, like Gecko) Chrome/138.0.0.0 Safari/537.36","WebKit","Chrome","138.0.0.0","Windows","10.0","https://app.prolific.com/","en-GB,en-US;q=0.9,en;q=0.8","669bd8ce24b83b4652aebd40","687a360dabe5252b5ada7185","688b37d754018fec676f1688","0","669bd8ce24b83b4652aebd40","0","2025-07-31T09:40:47.350Z","","","","MotivationQ","","","","","","","","","","","50","","","","","","","","","","","","","","","","","","","","","","","","","","",""
"","","","","ctl-task-cpt","23","573963","0.0-7.0-0.2","108","1","2025-07-31 09:31:38","36c45c0696341be0efffe67d72a12abb","41.121.38.210","Mozilla/5.0 (Windows NT 10.0; Win64; x64) AppleWebKit/537.36 (KHTML, like Gecko) Chrome/138.0.0.0 Safari/537.36","WebKit","Chrome","138.0.0.0","Windows","10.0","https://app.prolific.com/","en-GB,en-US;q=0.9,en;q=0.8","669bd8ce24b83b4652aebd40","687a360dabe5252b5ada7185","688b37d754018fec676f1688","0","669bd8ce24b83b4652aebd40","0","2025-07-31T09:41:17.623Z","","","","","","","","","","","","","","","","win-only","3","g1:SW,g2:NE","0.8","3","0","550807.3","1950.8","6957.1","27217","1","4","8","6","2","8","8","12","4","0.09090909090909091","1668.8","3000","1385","[""up"",""right""]","{""num_key_presses"":6,""num_perfect"":5,""num_errors"":0,""num_randdir"":1,""num_randdir_good_moves"":1,""num_whilered"":0,""num_whileblue"":0,""num_blue"":1,""num_good_moves"":6}","[299.22232142857143,294.12857142857143,4.5,299.22232142857143,294.12857142857143,109.1,299.22232142857143,294.12857142857143,220.6,299.22232142857143,294.12857142857143,328.5,299.22232142857143,294.12857142857143,439.9,299.22232142857143,294.12857142857143,541,299.22232142857143,294.12857142857143,647.7,299.22232142857143,294.12857142857143,749.5,363.22232142857143,230.12857142857143,850.8,494.22232142857143,121.12857142857143,970.8,551.2223214285714,53.128571428571426,1090.8,568.2223214285714,30.128571428571426,1200,564.2223214285714,33.128571428571426,1300.4,559.2223214285714,37.128571428571426,1402.4,559.2223214285714,37.128571428571426,1508,559.2223214285714,37.128571428571426,1658.7,559.2223214285714,37.128571428571426,1763.4,559.2223214285714,37.128571428571426,1865.1,559.2223214285714,37.128571428571426,1999,559.2223214285714,37.128571428571426,2099.4,559.2223214285714,37.128571428571426,2203.9,559.2223214285714,37.128571428571426,2308.4,510.22232142857143,152.12857142857143,2468.2,421.22232142857143,379.12857142857143,2573.5,409.22232142857143,403.12857142857143,2677.3,409.22232142857143,403.12857142857143,2783.9,409.22232142857143,403.12857142857143,2890.6,409.22232142857143,403.12857142857143,3015.3,409.22232142857143,403.12857142857143,3116.3,409.22232142857143,403.12857142857143,3220.3,409.22232142857143,403.12857142857143,3360.2,409.22232142857143,403.12857142857143,3467.1,409.22232142857143,403.12857142857143,3576.7,409.22232142857143,403.12857142857143,3688.5,409.22232142857143,403.12857142857143,3794.9,409.22232142857143,403.12857142857143,3898.4,409.22232142857143,403.12857142857143,4000.6,409.22232142857143,403.12857142857143,4104.5,409.22232142857143,403.12857142857143,4210.6,409.22232142857143,403.12857142857143,4316.5,409.22232142857143,403.12857142857143,4418.1,409.22232142857143,403.12857142857143,4521.1,409.22232142857143,403.12857142857143,4621.8,409.22232142857143,403.12857142857143,4729.7,409.22232142857143,403.12857142857143,4832,409.22232142857143,403.12857142857143,4938.9]","[1525.6,1525.6,1000,0,525.6,""smooth"",""up"",""up"",""good_move"",4265,2731.5,2199.3,1533.5,532.2,""smooth"",""up"",""up"",""good_move"",7692.3,3411.8,2974,4280.6,437.8,""oops"",""up"",""up"",""good_move"",13709.1,6001.9,2321.6,10930.6,456.9,""smooth"",""right"",""right"",""good_move"",16933.1,3221.2,2720.2,13711.9,501,""smooth"",""right"",""right"",""good_move"",20078.6,3134.9,2711.9,16943.7,423,""smooth"",""right"",""right"",""good_move""]"
"3938","","<div style=""width:500px;"">
  <p>What determined the result of this run?</p>
  </div>","88","html-slider-response","24","577906","0.0-7.0-1.2","108","1","2025-07-31 09:31:38","36c45c0696341be0efffe67d72a12abb","41.121.38.210","Mozilla/5.0 (Windows NT 10.0; Win64; x64) AppleWebKit/537.36 (KHTML, like Gecko) Chrome/138.0.0.0 Safari/537.36","WebKit","Chrome","138.0.0.0","Windows","10.0","https://app.prolific.com/","en-GB,en-US;q=0.9,en;q=0.8","669bd8ce24b83b4652aebd40","687a360dabe5252b5ada7185","688b37d754018fec676f1688","0","669bd8ce24b83b4652aebd40","0","2025-07-31T09:41:21.565Z","","","","AttribQ","","","","","","","","","","","50","","","","","","","","","","","","","","","","","","","","","","","","","","",""
"3273","","<div style=""width:500px;"">
  <p>How much control did you have over the ball?</p>
  </div>","92","html-slider-response","25","581183","0.0-7.0-2.2","108","1","2025-07-31 09:31:38","36c45c0696341be0efffe67d72a12abb","41.121.38.210","Mozilla/5.0 (Windows NT 10.0; Win64; x64) AppleWebKit/537.36 (KHTML, like Gecko) Chrome/138.0.0.0 Safari/537.36","WebKit","Chrome","138.0.0.0","Windows","10.0","https://app.prolific.com/","en-GB,en-US;q=0.9,en;q=0.8","669bd8ce24b83b4652aebd40","687a360dabe5252b5ada7185","688b37d754018fec676f1688","0","669bd8ce24b83b4652aebd40","0","2025-07-31T09:41:24.843Z","","","","ControlQ","","","","","","","","","","","50","","","","","","","","","","","","","","","","","","","","","","","","","","",""
"3297","","<div style=""width:500px;"">
  <p>How would you describe your current emotional state?</p>
  </div>","10","html-slider-response","26","584496","0.0-7.0-3.2","108","1","2025-07-31 09:31:38","36c45c0696341be0efffe67d72a12abb","41.121.38.210","Mozilla/5.0 (Windows NT 10.0; Win64; x64) AppleWebKit/537.36 (KHTML, like Gecko) Chrome/138.0.0.0 Safari/537.36","WebKit","Chrome","138.0.0.0","Windows","10.0","https://app.prolific.com/","en-GB,en-US;q=0.9,en;q=0.8","669bd8ce24b83b4652aebd40","687a360dabe5252b5ada7185","688b37d754018fec676f1688","0","669bd8ce24b83b4652aebd40","0","2025-07-31T09:41:28.156Z","","","","StressQ","","","","","","","","","","","50","","","","","","","","","","","","","","","","","","","","","","","","","","",""
"4113","","<div style=""width:500px;"">
  <p>What best describes how you currently feel?</p>
  </div>","79","html-slider-response","27","588625","0.0-7.0-4.2","108","1","2025-07-31 09:31:38","36c45c0696341be0efffe67d72a12abb","41.121.38.210","Mozilla/5.0 (Windows NT 10.0; Win64; x64) AppleWebKit/537.36 (KHTML, like Gecko) Chrome/138.0.0.0 Safari/537.36","WebKit","Chrome","138.0.0.0","Windows","10.0","https://app.prolific.com/","en-GB,en-US;q=0.9,en;q=0.8","669bd8ce24b83b4652aebd40","687a360dabe5252b5ada7185","688b37d754018fec676f1688","0","669bd8ce24b83b4652aebd40","0","2025-07-31T09:41:32.284Z","","","","MotivationQ","","","","","","","","","","","50","","","","","","","","","","","","","","","","","","","","","","","","","","",""
"","","","","ctl-task-cpt","28","627848","0.0-7.0-0.3","108","1","2025-07-31 09:31:38","36c45c0696341be0efffe67d72a12abb","41.121.38.210","Mozilla/5.0 (Windows NT 10.0; Win64; x64) AppleWebKit/537.36 (KHTML, like Gecko) Chrome/138.0.0.0 Safari/537.36","WebKit","Chrome","138.0.0.0","Windows","10.0","https://app.prolific.com/","en-GB,en-US;q=0.9,en;q=0.8","669bd8ce24b83b4652aebd40","687a360dabe5252b5ada7185","688b37d754018fec676f1688","0","669bd8ce24b83b4652aebd40","0","2025-07-31T09:42:11.507Z","","","","","","","","","","","","","","","","win-only","0","g1:NW,g2:SE","0.7","4","0","595730.3","2192.3","7220.4","36184.7","1","4","4","6","2","4","4","16","12","0.12121212121212122","1889.2","3000","1025","[""down"",""right""]","{""num_key_presses"":6,""num_perfect"":3,""num_errors"":0,""num_randdir"":3,""num_randdir_good_moves"":3,""num_whilered"":0,""num_whileblue"":0,""num_blue"":3,""num_good_moves"":6}","[289.22232142857143,291.12857142857143,2.2,289.22232142857143,291.12857142857143,105.6,289.22232142857143,291.12857142857143,220.3,289.22232142857143,291.12857142857143,326.1,289.22232142857143,291.12857142857143,437.4,289.22232142857143,291.12857142857143,547.9,289.22232142857143,291.12857142857143,653.6,290.22232142857143,293.12857142857143,754.7,342.22232142857143,351.12857142857143,859.3,411.22232142857143,425.12857142857143,964,445.22232142857143,470.12857142857143,1072.5,471.22232142857143,513.1285714285714,1177.6,480.22232142857143,525.1285714285714,1281.5,480.22232142857143,525.1285714285714,1386.3,480.22232142857143,525.1285714285714,1487.4,493.22232142857143,526.1285714285714,1596.3,508.22232142857143,532.1285714285714,1720.8,508.22232142857143,532.1285714285714,1821.8,508.22232142857143,532.1285714285714,1930.7,508.22232142857143,532.1285714285714,2048.9,508.22232142857143,532.1285714285714,2155.3,508.22232142857143,532.1285714285714,2306.8,508.22232142857143,532.1285714285714,2414.3,508.22232142857143,532.1285714285714,2523.2,508.22232142857143,532.1285714285714,2636,508.22232142857143,532.1285714285714,2761.6,508.22232142857143,532.1285714285714,2933.9,508.22232142857143,532.1285714285714,3044.6,508.22232142857143,532.1285714285714,3146.9,508.22232142857143,532.1285714285714,3270.2,508.22232142857143,532.1285714285714,3384.8,508.22232142857143,532.1285714285714,3485.5,508.22232142857143,532.1285714285714,3596.3,508.22232142857143,532.1285714285714,3706.1,508.22232142857143,532.1285714285714,3812.9,508.22232142857143,532.1285714285714,3913.6,508.22232142857143,532.1285714285714,4014.5,508.22232142857143,532.1285714285714,4118,508.22232142857143,532.1285714285714,4223.8,508.22232142857143,532.1285714285714,4331.2,508.22232142857143,532.1285714285714,4441.1,508.22232142857143,532.1285714285714,4555.4,508.22232142857143,532.1285714285714,4664.9,508.22232142857143,532.1285714285714,4765.7,508.22232142857143,532.1285714285714,4865.9,508.22232142857143,532.1285714285714,4969.8]","[1726.8,1726.8,1000,0,726.8,""smooth"",""right"",""right"",""good_move"",4638.3,2902.9,2390.8,1735.5,512.1,""oops"",""right"",""right"",""good_move"",7827,3181.5,2657.7,4645.5,524.1,""smooth"",""right"",""right"",""good_move"",18782.1,10952.1,3023.6,15047.4,711.2,""smooth"",""down"",""down"",""good_move"",21767,2979.8,2384.5,18787.4,595.2,""oops"",""down"",""down"",""good_move"",28796.4,7018.1,2509.1,25678.3,609,""oops"",""down"",""down"",""good_move""]"
"3900","","<div style=""width:500px;"">
  <p>What determined the result of this run?</p>
  </div>","83","html-slider-response","29","631752","0.0-7.0-1.3","108","1","2025-07-31 09:31:38","36c45c0696341be0efffe67d72a12abb","41.121.38.210","Mozilla/5.0 (Windows NT 10.0; Win64; x64) AppleWebKit/537.36 (KHTML, like Gecko) Chrome/138.0.0.0 Safari/537.36","WebKit","Chrome","138.0.0.0","Windows","10.0","https://app.prolific.com/","en-GB,en-US;q=0.9,en;q=0.8","669bd8ce24b83b4652aebd40","687a360dabe5252b5ada7185","688b37d754018fec676f1688","0","669bd8ce24b83b4652aebd40","0","2025-07-31T09:42:15.411Z","","","","AttribQ","","","","","","","","","","","50","","","","","","","","","","","","","","","","","","","","","","","","","","",""
"23772","","<div style=""width:500px;"">
  <p>How much control did you have over the ball?</p>
  </div>","85","html-slider-response","30","655528","0.0-7.0-2.3","108","1","2025-07-31 09:31:38","36c45c0696341be0efffe67d72a12abb","41.121.38.210","Mozilla/5.0 (Windows NT 10.0; Win64; x64) AppleWebKit/537.36 (KHTML, like Gecko) Chrome/138.0.0.0 Safari/537.36","WebKit","Chrome","138.0.0.0","Windows","10.0","https://app.prolific.com/","en-GB,en-US;q=0.9,en;q=0.8","669bd8ce24b83b4652aebd40","687a360dabe5252b5ada7185","688b37d754018fec676f1688","0","669bd8ce24b83b4652aebd40","0","2025-07-31T09:42:39.190Z","","","","ControlQ","","","","","","","","","","","50","","","","","","","","","","","","","","","","","","","","","","","","","","",""
"3707","","<div style=""width:500px;"">
  <p>How would you describe your current emotional state?</p>
  </div>","17","html-slider-response","31","659255","0.0-7.0-3.3","108","1","2025-07-31 09:31:38","36c45c0696341be0efffe67d72a12abb","41.121.38.210","Mozilla/5.0 (Windows NT 10.0; Win64; x64) AppleWebKit/537.36 (KHTML, like Gecko) Chrome/138.0.0.0 Safari/537.36","WebKit","Chrome","138.0.0.0","Windows","10.0","https://app.prolific.com/","en-GB,en-US;q=0.9,en;q=0.8","669bd8ce24b83b4652aebd40","687a360dabe5252b5ada7185","688b37d754018fec676f1688","0","669bd8ce24b83b4652aebd40","0","2025-07-31T09:42:42.915Z","","","","StressQ","","","","","","","","","","","50","","","","","","","","","","","","","","","","","","","","","","","","","","",""
"2778","","<div style=""width:500px;"">
  <p>What best describes how you currently feel?</p>
  </div>","74","html-slider-response","32","662044","0.0-7.0-4.3","108","1","2025-07-31 09:31:38","36c45c0696341be0efffe67d72a12abb","41.121.38.210","Mozilla/5.0 (Windows NT 10.0; Win64; x64) AppleWebKit/537.36 (KHTML, like Gecko) Chrome/138.0.0.0 Safari/537.36","WebKit","Chrome","138.0.0.0","Windows","10.0","https://app.prolific.com/","en-GB,en-US;q=0.9,en;q=0.8","669bd8ce24b83b4652aebd40","687a360dabe5252b5ada7185","688b37d754018fec676f1688","0","669bd8ce24b83b4652aebd40","0","2025-07-31T09:42:45.704Z","","","","MotivationQ","","","","","","","","","","","50","","","","","","","","","","","","","","","","","","","","","","","","","","",""
"","","","","ctl-task-cpt","33","705863","0.0-7.0-0.4","108","1","2025-07-31 09:31:38","36c45c0696341be0efffe67d72a12abb","41.121.38.210","Mozilla/5.0 (Windows NT 10.0; Win64; x64) AppleWebKit/537.36 (KHTML, like Gecko) Chrome/138.0.0.0 Safari/537.36","WebKit","Chrome","138.0.0.0","Windows","10.0","https://app.prolific.com/","en-GB,en-US;q=0.9,en;q=0.8","669bd8ce24b83b4652aebd40","687a360dabe5252b5ada7185","688b37d754018fec676f1688","0","669bd8ce24b83b4652aebd40","0","2025-07-31T09:43:29.522Z","","","","","","","","","","","","","","","","win-only","0","g1:NW,g2:SE","0.6","5","0","669174.2","2416.5","7419.6","40739.5","1","4","8","6","2","8","8","24","16","0.18181818181818182","1645.1","3000","400","[""down"",""right""]","{""num_key_presses"":10,""num_perfect"":6,""num_errors"":0,""num_randdir"":4,""num_randdir_good_moves"":2,""num_whilered"":0,""num_whileblue"":0,""num_blue"":1,""num_good_moves"":8}","[292.22232142857143,296.12857142857143,1,292.22232142857143,296.12857142857143,105.6,292.22232142857143,296.12857142857143,213.3,292.22232142857143,296.12857142857143,320.4,292.22232142857143,296.12857142857143,425.7,292.22232142857143,296.12857142857143,533.2,292.22232142857143,296.12857142857143,646.7,361.22232142857143,368.12857142857143,756.8,430.22232142857143,483.12857142857143,859.9,487.22232142857143,553.1285714285714,963.9,541.2223214285714,564.1285714285714,1063.9,545.2223214285714,564.1285714285714,1168.9,545.2223214285714,560.1285714285714,1284.4,538.2223214285714,548.1285714285714,1387.4,538.2223214285714,548.1285714285714,1498,538.2223214285714,548.1285714285714,1599.5,538.2223214285714,548.1285714285714,1830,538.2223214285714,548.1285714285714,1937.3,538.2223214285714,548.1285714285714,2048.7,538.2223214285714,548.1285714285714,2151.5,538.2223214285714,548.1285714285714,2258.9,538.2223214285714,548.1285714285714,2374.7,538.2223214285714,548.1285714285714,2476.3,538.2223214285714,548.1285714285714,2578.1,538.2223214285714,548.1285714285714,2680.2,538.2223214285714,548.1285714285714,2791.2,538.2223214285714,548.1285714285714,2895.1,538.2223214285714,548.1285714285714,2997.8,538.2223214285714,548.1285714285714,3101.4,538.2223214285714,548.1285714285714,3201.8,538.2223214285714,548.1285714285714,3304.6,538.2223214285714,548.1285714285714,3405.1,538.2223214285714,548.1285714285714,3511.8,538.2223214285714,548.1285714285714,3621.7,538.2223214285714,548.1285714285714,3727.2,538.2223214285714,548.1285714285714,3829.7,538.2223214285714,548.1285714285714,3939,538.2223214285714,548.1285714285714,4048.5,538.2223214285714,548.1285714285714,4149.5,538.2223214285714,548.1285714285714,4252.7,538.2223214285714,548.1285714285714,4361.2,538.2223214285714,548.1285714285714,4476.7,538.2223214285714,548.1285714285714,4576.7,538.2223214285714,548.1285714285714,4682.8,538.2223214285714,548.1285714285714,4789,538.2223214285714,548.1285714285714,4890.8]","[1859.5,1859.5,1000,0,859.5,""smooth"",""right"",""right"",""good_move"",5404.4,3531.8,3051.7,1872.6,480.1,""smooth"",""right"",""right"",""good_move"",8629.4,3216.8,2650.6,5412.6,566.2,""oops"",""right"",""left"",""bad_move"",11628.2,2991,2539.4,8637.2,451.6,""smooth"",""right"",""right"",""good_move"",14019.8,2384.2,1998.4,11635.7,385.8,""oops"",""right"",""up"",""bad_move"",17414.2,3380.4,3020.9,14033.8,359.5,""oops"",""down"",""down"",""good_move"",23771.7,6351.8,2448.4,20944.3,379,""smooth"",""down"",""down"",""good_move"",26372.4,2595.3,2141.5,23777.1,457.7,""oops"",""down"",""right"",""good_move"",29503.6,3123.8,2671.4,26379.8,452.4,""smooth"",""down"",""down"",""good_move"",33160.2,3650.7,3267.4,29509.5,383.3,""smooth"",""down"",""down"",""good_move""]"
"3020","","<div style=""width:500px;"">
  <p>What determined the result of this run?</p>
  </div>","83","html-slider-response","34","708890","0.0-7.0-1.4","108","1","2025-07-31 09:31:38","36c45c0696341be0efffe67d72a12abb","41.121.38.210","Mozilla/5.0 (Windows NT 10.0; Win64; x64) AppleWebKit/537.36 (KHTML, like Gecko) Chrome/138.0.0.0 Safari/537.36","WebKit","Chrome","138.0.0.0","Windows","10.0","https://app.prolific.com/","en-GB,en-US;q=0.9,en;q=0.8","669bd8ce24b83b4652aebd40","687a360dabe5252b5ada7185","688b37d754018fec676f1688","0","669bd8ce24b83b4652aebd40","0","2025-07-31T09:43:32.550Z","","","","AttribQ","","","","","","","","","","","50","","","","","","","","","","","","","","","","","","","","","","","","","","",""
"3338","","<div style=""width:500px;"">
  <p>How much control did you have over the ball?</p>
  </div>","67","html-slider-response","35","712241","0.0-7.0-2.4","108","1","2025-07-31 09:31:38","36c45c0696341be0efffe67d72a12abb","41.121.38.210","Mozilla/5.0 (Windows NT 10.0; Win64; x64) AppleWebKit/537.36 (KHTML, like Gecko) Chrome/138.0.0.0 Safari/537.36","WebKit","Chrome","138.0.0.0","Windows","10.0","https://app.prolific.com/","en-GB,en-US;q=0.9,en;q=0.8","669bd8ce24b83b4652aebd40","687a360dabe5252b5ada7185","688b37d754018fec676f1688","0","669bd8ce24b83b4652aebd40","0","2025-07-31T09:43:35.900Z","","","","ControlQ","","","","","","","","","","","50","","","","","","","","","","","","","","","","","","","","","","","","","","",""
"4247","","<div style=""width:500px;"">
  <p>How would you describe your current emotional state?</p>
  </div>","21","html-slider-response","36","716499","0.0-7.0-3.4","108","1","2025-07-31 09:31:38","36c45c0696341be0efffe67d72a12abb","41.121.38.210","Mozilla/5.0 (Windows NT 10.0; Win64; x64) AppleWebKit/537.36 (KHTML, like Gecko) Chrome/138.0.0.0 Safari/537.36","WebKit","Chrome","138.0.0.0","Windows","10.0","https://app.prolific.com/","en-GB,en-US;q=0.9,en;q=0.8","669bd8ce24b83b4652aebd40","687a360dabe5252b5ada7185","688b37d754018fec676f1688","0","669bd8ce24b83b4652aebd40","0","2025-07-31T09:43:40.160Z","","","","StressQ","","","","","","","","","","","50","","","","","","","","","","","","","","","","","","","","","","","","","","",""
"2642","","<div style=""width:500px;"">
  <p>What best describes how you currently feel?</p>
  </div>","72","html-slider-response","37","719154","0.0-7.0-4.4","108","1","2025-07-31 09:31:38","36c45c0696341be0efffe67d72a12abb","41.121.38.210","Mozilla/5.0 (Windows NT 10.0; Win64; x64) AppleWebKit/537.36 (KHTML, like Gecko) Chrome/138.0.0.0 Safari/537.36","WebKit","Chrome","138.0.0.0","Windows","10.0","https://app.prolific.com/","en-GB,en-US;q=0.9,en;q=0.8","669bd8ce24b83b4652aebd40","687a360dabe5252b5ada7185","688b37d754018fec676f1688","0","669bd8ce24b83b4652aebd40","0","2025-07-31T09:43:42.813Z","","","","MotivationQ","","","","","","","","","","","50","","","","","","","","","","","","","","","","","","","","","","","","","","",""
"","","","","ctl-task-cpt","38","795186","0.0-7.0-0.5","108","1","2025-07-31 09:31:38","36c45c0696341be0efffe67d72a12abb","41.121.38.210","Mozilla/5.0 (Windows NT 10.0; Win64; x64) AppleWebKit/537.36 (KHTML, like Gecko) Chrome/138.0.0.0 Safari/537.36","WebKit","Chrome","138.0.0.0","Windows","10.0","https://app.prolific.com/","en-GB,en-US;q=0.9,en;q=0.8","669bd8ce24b83b4652aebd40","687a360dabe5252b5ada7185","688b37d754018fec676f1688","0","669bd8ce24b83b4652aebd40","0","2025-07-31T09:44:58.845Z","","","","","","","","","","","","","","","","win-only","2","g1:SE,g2:NW","0.5","6","0","726231.6","1544.3","6558.6","72939.9","1","4","4","6","2","-4","-4","20","24","0.15151515151515152","1542.5","3000","-695","[""left"",""up""]","{""num_key_presses"":20,""num_perfect"":10,""num_errors"":0,""num_randdir"":10,""num_randdir_good_moves"":1,""num_whilered"":0,""num_whileblue"":0,""num_blue"":1,""num_good_moves"":11}","[294.22232142857143,301.12857142857143,1.5,294.22232142857143,301.12857142857143,107.9,294.22232142857143,301.12857142857143,216.1,294.22232142857143,301.12857142857143,318.9,294.22232142857143,301.12857142857143,428.5,294.22232142857143,301.12857142857143,535.9,294.22232142857143,301.12857142857143,642,223.22232142857143,250.12857142857143,753.5,119.22232142857143,172.12857142857143,856.8,72.22232142857143,124.12857142857143,959.4,49.222321428571426,97.12857142857143,1081.3,51.222321428571426,81.12857142857143,1192.6,52.222321428571426,75.12857142857143,1301.1,52.222321428571426,75.12857142857143,1408.6,52.222321428571426,75.12857142857143,1514.7,52.222321428571426,75.12857142857143,1637,52.222321428571426,75.12857142857143,1737.8,52.222321428571426,75.12857142857143,1843.4,52.222321428571426,75.12857142857143,1950.4,52.222321428571426,75.12857142857143,2054.3,52.222321428571426,75.12857142857143,2167.6,60.222321428571426,88.12857142857143,2268.4,113.22232142857143,162.12857142857143,2373.2,151.22232142857143,216.12857142857143,2475.8,151.22232142857143,216.12857142857143,2584.1,151.22232142857143,216.12857142857143,2689,151.22232142857143,216.12857142857143,2789.6,151.22232142857143,216.12857142857143,2898.5,151.22232142857143,216.12857142857143,3014.6,151.22232142857143,216.12857142857143,3116.8,151.22232142857143,216.12857142857143,3226.5,151.22232142857143,216.12857142857143,3332.8,151.22232142857143,216.12857142857143,3440.5,151.22232142857143,216.12857142857143,3548.4,151.22232142857143,216.12857142857143,3656.7,151.22232142857143,216.12857142857143,3758.9,151.22232142857143,216.12857142857143,3866.5,151.22232142857143,216.12857142857143,3973.3,151.22232142857143,216.12857142857143,4078.7,151.22232142857143,216.12857142857143,4182.6,151.22232142857143,216.12857142857143,4288.2,151.22232142857143,216.12857142857143,4392.7,151.22232142857143,216.12857142857143,4504.4,151.22232142857143,216.12857142857143,4608.8,151.22232142857143,216.12857142857143,4716.6,151.22232142857143,216.12857142857143,4818.3,151.22232142857143,216.12857142857143,4922.4]","[1538.4,1538.4,1000,0,538.4,""smooth"",""up"",""up"",""good_move"",4799.3,3259,2821.4,1540.3,437.7,""smooth"",""up"",""up"",""good_move"",8045,3231.8,2816,4813.2,415.9,""smooth"",""up"",""up"",""good_move"",10955.7,2897.9,2478.4,8057.8,419.5,""smooth"",""left"",""left"",""good_move"",14314.4,3351.4,2949.6,10963.1,401.8,""oops"",""left"",""right"",""bad_move"",17402,3078.5,2677.4,14323.5,401.1,""oops"",""left"",""left"",""good_move"",21032.8,3616.5,3200.8,17416.3,415.7,""oops"",""left"",""down"",""bad_move"",23704.1,2661,2211.1,21043.1,449.9,""oops"",""left"",""right"",""bad_move"",26815.9,3103.2,2749.7,23712.9,353.3,""smooth"",""left"",""left"",""good_move"",29268.9,2443.2,1728.3,26826,715.3,""oops"",""left"",""right"",""bad_move"",32393.4,3121.1,2686.5,29272.3,434.6,""smooth"",""left"",""left"",""good_move"",35224.6,2822,2447.6,32402.6,374.4,""smooth"",""left"",""left"",""good_move"",38008.9,2775.7,2242.8,35233.2,532.9,""smooth"",""left"",""left"",""good_move"",40986,2970.9,2370.7,38015.1,600.2,""oops"",""up"",""down"",""bad_move"",43743,2745.7,2343.5,40997.7,402.1,""smooth"",""up"",""up"",""good_move"",47150,3399.3,2581.5,43750.7,817.8,""oops"",""up"",""right"",""bad_move"",50568.7,3409.5,3049.5,47159.3,359.9,""oops"",""up"",""right"",""bad_move"",53263,2685.2,2170.9,50577.8,514.3,""oops"",""up"",""right"",""bad_move"",56248.4,2978.5,2545.3,53270.1,433,""smooth"",""up"",""up"",""good_move"",59849.3,3594.4,2189.2,56255,1405.1,""oops"",""left"",""right"",""bad_move""]"
"6882","","<div style=""width:500px;"">
  <p>What determined the result of this run?</p>
  </div>","18","html-slider-response","39","802077","0.0-7.0-1.5","108","1","2025-07-31 09:31:38","36c45c0696341be0efffe67d72a12abb","41.121.38.210","Mozilla/5.0 (Windows NT 10.0; Win64; x64) AppleWebKit/537.36 (KHTML, like Gecko) Chrome/138.0.0.0 Safari/537.36","WebKit","Chrome","138.0.0.0","Windows","10.0","https://app.prolific.com/","en-GB,en-US;q=0.9,en;q=0.8","669bd8ce24b83b4652aebd40","687a360dabe5252b5ada7185","688b37d754018fec676f1688","0","669bd8ce24b83b4652aebd40","0","2025-07-31T09:45:05.736Z","","","","AttribQ","","","","","","","","","","","50","","","","","","","","","","","","","","","","","","","","","","","","","","",""
"4797","","<div style=""width:500px;"">
  <p>How much control did you have over the ball?</p>
  </div>","16","html-slider-response","40","806885","0.0-7.0-2.5","108","1","2025-07-31 09:31:38","36c45c0696341be0efffe67d72a12abb","41.121.38.210","Mozilla/5.0 (Windows NT 10.0; Win64; x64) AppleWebKit/537.36 (KHTML, like Gecko) Chrome/138.0.0.0 Safari/537.36","WebKit","Chrome","138.0.0.0","Windows","10.0","https://app.prolific.com/","en-GB,en-US;q=0.9,en;q=0.8","669bd8ce24b83b4652aebd40","687a360dabe5252b5ada7185","688b37d754018fec676f1688","0","669bd8ce24b83b4652aebd40","0","2025-07-31T09:45:10.544Z","","","","ControlQ","","","","","","","","","","","50","","","","","","","","","","","","","","","","","","","","","","","","","","",""
"3072","","<div style=""width:500px;"">
  <p>How would you describe your current emotional state?</p>
  </div>","76","html-slider-response","41","809974","0.0-7.0-3.5","108","1","2025-07-31 09:31:38","36c45c0696341be0efffe67d72a12abb","41.121.38.210","Mozilla/5.0 (Windows NT 10.0; Win64; x64) AppleWebKit/537.36 (KHTML, like Gecko) Chrome/138.0.0.0 Safari/537.36","WebKit","Chrome","138.0.0.0","Windows","10.0","https://app.prolific.com/","en-GB,en-US;q=0.9,en;q=0.8","669bd8ce24b83b4652aebd40","687a360dabe5252b5ada7185","688b37d754018fec676f1688","0","669bd8ce24b83b4652aebd40","0","2025-07-31T09:45:13.633Z","","","","StressQ","","","","","","","","","","","50","","","","","","","","","","","","","","","","","","","","","","","","","","",""
"7259","","<div style=""width:500px;"">
  <p>What best describes how you currently feel?</p>
  </div>","36","html-slider-response","42","817256","0.0-7.0-4.5","108","1","2025-07-31 09:31:38","36c45c0696341be0efffe67d72a12abb","41.121.38.210","Mozilla/5.0 (Windows NT 10.0; Win64; x64) AppleWebKit/537.36 (KHTML, like Gecko) Chrome/138.0.0.0 Safari/537.36","WebKit","Chrome","138.0.0.0","Windows","10.0","https://app.prolific.com/","en-GB,en-US;q=0.9,en;q=0.8","669bd8ce24b83b4652aebd40","687a360dabe5252b5ada7185","688b37d754018fec676f1688","0","669bd8ce24b83b4652aebd40","0","2025-07-31T09:45:20.915Z","","","","MotivationQ","","","","","","","","","","","50","","","","","","","","","","","","","","","","","","","","","","","","","","",""
"","","","","ctl-task-cpt","43","887087","0.0-7.0-0.6","108","1","2025-07-31 09:31:38","36c45c0696341be0efffe67d72a12abb","41.121.38.210","Mozilla/5.0 (Windows NT 10.0; Win64; x64) AppleWebKit/537.36 (KHTML, like Gecko) Chrome/138.0.0.0 Safari/537.36","WebKit","Chrome","138.0.0.0","Windows","10.0","https://app.prolific.com/","en-GB,en-US;q=0.9,en;q=0.8","669bd8ce24b83b4652aebd40","687a360dabe5252b5ada7185","688b37d754018fec676f1688","0","669bd8ce24b83b4652aebd40","0","2025-07-31T09:46:30.746Z","","","","","","","","","","","","","","","","win-only","2","g1:SE,g2:NW","0.4","7","0","824307.2","2974.6","7983.8","66778.5","1","4","8","6","2","8","8","28","20","0.21212121212121213","1697.5","3000","1680","[""left"",""up""]","{""num_key_presses"":12,""num_perfect"":5,""num_errors"":0,""num_randdir"":7,""num_randdir_good_moves"":4,""num_whilered"":0,""num_whileblue"":0,""num_blue"":2,""num_good_moves"":9}","[292.22232142857143,299.12857142857143,2.4,292.22232142857143,299.12857142857143,150.6,292.22232142857143,299.12857142857143,274.6,292.22232142857143,299.12857142857143,405.3,292.22232142857143,299.12857142857143,544.7,292.22232142857143,299.12857142857143,646.3,214.22232142857143,255.12857142857143,756.6,139.22232142857143,186.12857142857143,911.4,110.22232142857143,149.12857142857143,1026.1,81.22232142857143,108.12857142857143,1138.7,70.22232142857143,81.12857142857143,1239.2,69.22232142857143,76.12857142857143,1363.4,69.22232142857143,76.12857142857143,1493.2,69.22232142857143,76.12857142857143,1606.3,69.22232142857143,76.12857142857143,1756.3,69.22232142857143,76.12857142857143,1890.3,69.22232142857143,76.12857142857143,2003.9,69.22232142857143,76.12857142857143,2121.4,69.22232142857143,76.12857142857143,2241,91.22232142857143,146.12857142857143,2358.6,157.22232142857143,317.12857142857143,2513.9,157.22232142857143,317.12857142857143,2653,157.22232142857143,317.12857142857143,2758.8,157.22232142857143,317.12857142857143,2865.6,157.22232142857143,317.12857142857143,2987.9,157.22232142857143,317.12857142857143,3094.9,157.22232142857143,317.12857142857143,3214,157.22232142857143,317.12857142857143,3347.4,157.22232142857143,317.12857142857143,3453.2,157.22232142857143,317.12857142857143,3614.8,157.22232142857143,317.12857142857143,3741.2,157.22232142857143,317.12857142857143,3843.4,157.22232142857143,317.12857142857143,3948.3,157.22232142857143,317.12857142857143,4057.8,157.22232142857143,317.12857142857143,4174,157.22232142857143,317.12857142857143,4288.3,157.22232142857143,317.12857142857143,4393.6,157.22232142857143,317.12857142857143,4504.2,157.22232142857143,317.12857142857143,4608.3,157.22232142857143,317.12857142857143,4711.9,157.22232142857143,317.12857142857143,4822.3,157.22232142857143,317.12857142857143,4922.8]","[1484.5,1484.5,1000,0,484.5,""smooth"",""up"",""up"",""good_move"",7789.5,6299.3,2356.9,1490.6,3942.4,""oops"",""up"",""down"",""bad_move"",15137.4,7343,2832.8,11804.3,500.3,""smooth"",""up"",""up"",""good_move"",21640.2,6500.6,1845.8,15139.7,4654.7,""oops"",""up"",""up"",""good_move"",27941.1,6296.7,2363.7,21644.4,3933,""smooth"",""left"",""left"",""good_move"",34486.6,6539.6,2857.3,27947,3682.3,""smooth"",""up"",""up"",""good_move"",41182.7,6688,2014.6,34494.7,4673.4,""oops"",""left"",""down"",""bad_move"",43957.9,2763.1,2239.7,41195.3,523.4,""oops"",""left"",""left"",""good_move"",50536.8,6570,2066.5,48007.9,462.4,""oops"",""up"",""right"",""bad_move"",52671.2,2125.8,1582.6,50545.4,543.2,""oops"",""up"",""left"",""good_move"",55839.1,3164.3,2736.3,52675.1,428,""oops"",""up"",""left"",""good_move"",58547.6,2701.1,2158.7,55846.5,542.4,""smooth"",""up"",""up"",""good_move""]"
"3523","","<div style=""width:500px;"">
  <p>What determined the result of this run?</p>
  </div>","72","html-slider-response","44","890614","0.0-7.0-1.6","108","1","2025-07-31 09:31:38","36c45c0696341be0efffe67d72a12abb","41.121.38.210","Mozilla/5.0 (Windows NT 10.0; Win64; x64) AppleWebKit/537.36 (KHTML, like Gecko) Chrome/138.0.0.0 Safari/537.36","WebKit","Chrome","138.0.0.0","Windows","10.0","https://app.prolific.com/","en-GB,en-US;q=0.9,en;q=0.8","669bd8ce24b83b4652aebd40","687a360dabe5252b5ada7185","688b37d754018fec676f1688","0","669bd8ce24b83b4652aebd40","0","2025-07-31T09:46:34.274Z","","","","AttribQ","","","","","","","","","","","50","","","","","","","","","","","","","","","","","","","","","","","","","","",""
"3264","","<div style=""width:500px;"">
  <p>How much control did you have over the ball?</p>
  </div>","28","html-slider-response","45","893888","0.0-7.0-2.6","108","1","2025-07-31 09:31:38","36c45c0696341be0efffe67d72a12abb","41.121.38.210","Mozilla/5.0 (Windows NT 10.0; Win64; x64) AppleWebKit/537.36 (KHTML, like Gecko) Chrome/138.0.0.0 Safari/537.36","WebKit","Chrome","138.0.0.0","Windows","10.0","https://app.prolific.com/","en-GB,en-US;q=0.9,en;q=0.8","669bd8ce24b83b4652aebd40","687a360dabe5252b5ada7185","688b37d754018fec676f1688","0","669bd8ce24b83b4652aebd40","0","2025-07-31T09:46:37.548Z","","","","ControlQ","","","","","","","","","","","50","","","","","","","","","","","","","","","","","","","","","","","","","","",""
"3584","","<div style=""width:500px;"">
  <p>How would you describe your current emotional state?</p>
  </div>","72","html-slider-response","46","897485","0.0-7.0-3.6","108","1","2025-07-31 09:31:38","36c45c0696341be0efffe67d72a12abb","41.121.38.210","Mozilla/5.0 (Windows NT 10.0; Win64; x64) AppleWebKit/537.36 (KHTML, like Gecko) Chrome/138.0.0.0 Safari/537.36","WebKit","Chrome","138.0.0.0","Windows","10.0","https://app.prolific.com/","en-GB,en-US;q=0.9,en;q=0.8","669bd8ce24b83b4652aebd40","687a360dabe5252b5ada7185","688b37d754018fec676f1688","0","669bd8ce24b83b4652aebd40","0","2025-07-31T09:46:41.146Z","","","","StressQ","","","","","","","","","","","50","","","","","","","","","","","","","","","","","","","","","","","","","","",""
"3712","","<div style=""width:500px;"">
  <p>What best describes how you currently feel?</p>
  </div>","73","html-slider-response","47","901216","0.0-7.0-4.6","108","1","2025-07-31 09:31:38","36c45c0696341be0efffe67d72a12abb","41.121.38.210","Mozilla/5.0 (Windows NT 10.0; Win64; x64) AppleWebKit/537.36 (KHTML, like Gecko) Chrome/138.0.0.0 Safari/537.36","WebKit","Chrome","138.0.0.0","Windows","10.0","https://app.prolific.com/","en-GB,en-US;q=0.9,en;q=0.8","669bd8ce24b83b4652aebd40","687a360dabe5252b5ada7185","688b37d754018fec676f1688","0","669bd8ce24b83b4652aebd40","0","2025-07-31T09:46:44.876Z","","","","MotivationQ","","","","","","","","","","","50","","","","","","","","","","","","","","","","","","","","","","","","","","",""
"","","","","ctl-task-cpt","48","979293","0.0-7.0-0.7","108","1","2025-07-31 09:31:38","36c45c0696341be0efffe67d72a12abb","41.121.38.210","Mozilla/5.0 (Windows NT 10.0; Win64; x64) AppleWebKit/537.36 (KHTML, like Gecko) Chrome/138.0.0.0 Safari/537.36","WebKit","Chrome","138.0.0.0","Windows","10.0","https://app.prolific.com/","en-GB,en-US;q=0.9,en;q=0.8","669bd8ce24b83b4652aebd40","687a360dabe5252b5ada7185","688b37d754018fec676f1688","0","669bd8ce24b83b4652aebd40","0","2025-07-31T09:48:02.953Z","","","","","","","","","","","","","","","","win-only","0","g1:NW,g2:SE","0.3","8","0","908243.4","1698.8","6718.4","75017.2","1","4","4","6","2","4","4","32","28","0.24242424242424243","1518.9","3000","105","[""down"",""right""]","{""num_key_presses"":20,""num_perfect"":6,""num_errors"":0,""num_randdir"":14,""num_randdir_good_moves"":7,""num_whilered"":0,""num_whileblue"":0,""num_blue"":3,""num_good_moves"":13}","[297.22232142857143,298.12857142857143,0.7,297.22232142857143,298.12857142857143,110.6,297.22232142857143,298.12857142857143,220.1,297.22232142857143,298.12857142857143,321.6,297.22232142857143,298.12857142857143,430.7,297.22232142857143,298.12857142857143,541.3,297.22232142857143,298.12857142857143,657,353.22232142857143,332.12857142857143,758.6,476.22232142857143,468.12857142857143,901.3,505.22232142857143,517.1285714285714,1007.8,521.2223214285714,534.1285714285714,1117.3,527.2223214285714,541.1285714285714,1222.2,528.2223214285714,542.1285714285714,1333.2,528.2223214285714,542.1285714285714,1440.6,528.2223214285714,542.1285714285714,1551.3,528.2223214285714,542.1285714285714,1652.9,528.2223214285714,542.1285714285714,1755.5,528.2223214285714,542.1285714285714,1874,528.2223214285714,542.1285714285714,1981.6,508.22232142857143,528.1285714285714,2087.3,409.22232142857143,375.12857142857143,2191.6,375.22232142857143,231.12857142857143,2305.7,375.22232142857143,229.12857142857143,2408.7,375.22232142857143,229.12857142857143,2517,375.22232142857143,229.12857142857143,2617.3,375.22232142857143,229.12857142857143,2729.3,375.22232142857143,229.12857142857143,2841.2,375.22232142857143,229.12857142857143,2950.3,375.22232142857143,229.12857142857143,3052,375.22232142857143,229.12857142857143,3153.1,375.22232142857143,229.12857142857143,3589.8,375.22232142857143,229.12857142857143,3692.2,375.22232142857143,229.12857142857143,3809.8,375.22232142857143,229.12857142857143,3918.3,375.22232142857143,229.12857142857143,4028.5,375.22232142857143,229.12857142857143,4140,375.22232142857143,229.12857142857143,4250.6,375.22232142857143,229.12857142857143,4361.5,375.22232142857143,229.12857142857143,4463.6,375.22232142857143,229.12857142857143,4585.1,375.22232142857143,229.12857142857143,4698.7,375.22232142857143,229.12857142857143,4810.2,375.22232142857143,229.12857142857143,4916.7]","[1553.4,1553.5,1000,0,553.5,""oops"",""right"",""down"",""good_move"",4626.4,3061.5,2589.4,1564.9,472.1,""oops"",""right"",""left"",""bad_move"",8087,3450.5,1744,4636.5,1706.5,""oops"",""down"",""up"",""bad_move"",11778.7,3679.5,3244.5,8099.3,435,""smooth"",""right"",""right"",""good_move"",18005.9,6221.6,2600.6,14924.2,481.1,""oops"",""right"",""down"",""good_move"",20823.4,2814.1,2325.6,18009.3,488.5,""oops"",""right"",""right"",""good_move"",23793.4,2962.1,2487.4,20831.3,474.7,""oops"",""right"",""up"",""bad_move"",27348.1,3548.5,2652.7,23799.7,895.7,""smooth"",""right"",""right"",""good_move"",30040.3,2684.1,2228.6,27356.3,455.5,""smooth"",""down"",""down"",""good_move"",32797.8,2749.7,2287,30048.4,462.7,""oops"",""down"",""left"",""bad_move"",35503.7,2702.2,2302.5,32802,399.7,""oops"",""down"",""down"",""good_move"",38707.9,3195.3,2798.1,35512.6,397.2,""oops"",""down"",""up"",""bad_move"",42304.3,3591.4,3142,38712.9,449.4,""smooth"",""down"",""down"",""good_move"",45525.4,3212.4,2832.6,42313,379.8,""smooth"",""down"",""down"",""good_move"",51183.8,5649.9,2215.9,48537.4,430.5,""oops"",""right"",""up"",""bad_move"",54596.2,3409.4,2508.3,51186.8,901.1,""oops"",""right"",""down"",""good_move"",57662.4,3052.7,2594.7,54609.7,458,""oops"",""right"",""up"",""bad_move"",60455.3,2771.1,2328.9,57684.3,442.1,""smooth"",""right"",""right"",""good_move"",65305.3,4824.8,1312.6,63506.9,485.8,""oops"",""right"",""down"",""good_move"",67991.9,2684.6,2184.2,65307.3,500.4,""oops"",""right"",""right"",""good_move""]"
"3283","","<div style=""width:500px;"">
  <p>What determined the result of this run?</p>
  </div>","68","html-slider-response","49","982648","0.0-7.0-1.7","108","1","2025-07-31 09:31:38","36c45c0696341be0efffe67d72a12abb","41.121.38.210","Mozilla/5.0 (Windows NT 10.0; Win64; x64) AppleWebKit/537.36 (KHTML, like Gecko) Chrome/138.0.0.0 Safari/537.36","WebKit","Chrome","138.0.0.0","Windows","10.0","https://app.prolific.com/","en-GB,en-US;q=0.9,en;q=0.8","669bd8ce24b83b4652aebd40","687a360dabe5252b5ada7185","688b37d754018fec676f1688","0","669bd8ce24b83b4652aebd40","0","2025-07-31T09:48:06.307Z","","","","AttribQ","","","","","","","","","","","50","","","","","","","","","","","","","","","","","","","","","","","","","","",""
"2949","","<div style=""width:500px;"">
  <p>How much control did you have over the ball?</p>
  </div>","20","html-slider-response","50","985603","0.0-7.0-2.7","108","1","2025-07-31 09:31:38","36c45c0696341be0efffe67d72a12abb","41.121.38.210","Mozilla/5.0 (Windows NT 10.0; Win64; x64) AppleWebKit/537.36 (KHTML, like Gecko) Chrome/138.0.0.0 Safari/537.36","WebKit","Chrome","138.0.0.0","Windows","10.0","https://app.prolific.com/","en-GB,en-US;q=0.9,en;q=0.8","669bd8ce24b83b4652aebd40","687a360dabe5252b5ada7185","688b37d754018fec676f1688","0","669bd8ce24b83b4652aebd40","0","2025-07-31T09:48:09.263Z","","","","ControlQ","","","","","","","","","","","50","","","","","","","","","","","","","","","","","","","","","","","","","","",""
"3129","","<div style=""width:500px;"">
  <p>How would you describe your current emotional state?</p>
  </div>","67","html-slider-response","51","988747","0.0-7.0-3.7","108","1","2025-07-31 09:31:38","36c45c0696341be0efffe67d72a12abb","41.121.38.210","Mozilla/5.0 (Windows NT 10.0; Win64; x64) AppleWebKit/537.36 (KHTML, like Gecko) Chrome/138.0.0.0 Safari/537.36","WebKit","Chrome","138.0.0.0","Windows","10.0","https://app.prolific.com/","en-GB,en-US;q=0.9,en;q=0.8","669bd8ce24b83b4652aebd40","687a360dabe5252b5ada7185","688b37d754018fec676f1688","0","669bd8ce24b83b4652aebd40","0","2025-07-31T09:48:12.406Z","","","","StressQ","","","","","","","","","","","50","","","","","","","","","","","","","","","","","","","","","","","","","","",""
"3180","","<div style=""width:500px;"">
  <p>What best describes how you currently feel?</p>
  </div>","66","html-slider-response","52","991932","0.0-7.0-4.7","108","1","2025-07-31 09:31:38","36c45c0696341be0efffe67d72a12abb","41.121.38.210","Mozilla/5.0 (Windows NT 10.0; Win64; x64) AppleWebKit/537.36 (KHTML, like Gecko) Chrome/138.0.0.0 Safari/537.36","WebKit","Chrome","138.0.0.0","Windows","10.0","https://app.prolific.com/","en-GB,en-US;q=0.9,en;q=0.8","669bd8ce24b83b4652aebd40","687a360dabe5252b5ada7185","688b37d754018fec676f1688","0","669bd8ce24b83b4652aebd40","0","2025-07-31T09:48:15.592Z","","","","MotivationQ","","","","","","","","","","","50","","","","","","","","","","","","","","","","","","","","","","","","","","",""
"","","","","ctl-task-cpt","53","1044639","0.0-7.0-0.8","108","1","2025-07-31 09:31:38","36c45c0696341be0efffe67d72a12abb","41.121.38.210","Mozilla/5.0 (Windows NT 10.0; Win64; x64) AppleWebKit/537.36 (KHTML, like Gecko) Chrome/138.0.0.0 Safari/537.36","WebKit","Chrome","138.0.0.0","Windows","10.0","https://app.prolific.com/","en-GB,en-US;q=0.9,en;q=0.8","669bd8ce24b83b4652aebd40","687a360dabe5252b5ada7185","688b37d754018fec676f1688","0","669bd8ce24b83b4652aebd40","0","2025-07-31T09:49:08.298Z","","","","","","","","","","","","","","","","win-only","3","g1:SW,g2:NE","0.4","9","0","998942.7","2517.2","7550.1","49664.2","1","4","8","6","2","8","8","40","32","0.30303030303030304","1297.5","3000","1505","[""up"",""right""]","{""num_key_presses"":14,""num_perfect"":8,""num_errors"":0,""num_randdir"":6,""num_randdir_good_moves"":2,""num_whilered"":0,""num_whileblue"":0,""num_blue"":0,""num_good_moves"":10}","[288.22232142857143,293.12857142857143,2.3,288.22232142857143,293.12857142857143,141.6,288.22232142857143,293.12857142857143,267.7,288.22232142857143,293.12857142857143,380.5,288.22232142857143,293.12857142857143,511.6,449.22232142857143,148.12857142857143,633.4,497.22232142857143,106.12857142857143,750.4,511.22232142857143,92.12857142857143,870.6,528.2223214285714,65.12857142857143,994.3,529.2223214285714,63.128571428571426,1121.2,529.2223214285714,63.128571428571426,1241.2,529.2223214285714,63.128571428571426,1373,529.2223214285714,63.128571428571426,1481.4,529.2223214285714,63.128571428571426,1598.1,529.2223214285714,63.128571428571426,1710.6,459.22232142857143,130.12857142857143,1842.5,256.22232142857143,393.12857142857143,1962.9,256.22232142857143,393.12857142857143,2079.9,256.22232142857143,393.12857142857143,2188.3,256.22232142857143,393.12857142857143,2308.9,256.22232142857143,393.12857142857143,2431.9,256.22232142857143,393.12857142857143,2558.7,256.22232142857143,393.12857142857143,2666.5,256.22232142857143,393.12857142857143,2772.2,256.22232142857143,393.12857142857143,2875.8,256.22232142857143,393.12857142857143,3000.9,256.22232142857143,393.12857142857143,3121.8,256.22232142857143,393.12857142857143,3223.4,256.22232142857143,393.12857142857143,3326,256.22232142857143,393.12857142857143,3434.9,256.22232142857143,393.12857142857143,3560.9,256.22232142857143,393.12857142857143,3662.4,256.22232142857143,393.12857142857143,3765.4,256.22232142857143,393.12857142857143,3868.1,256.22232142857143,393.12857142857143,3977.3,256.22232142857143,393.12857142857143,4083,256.22232142857143,393.12857142857143,4209.5,256.22232142857143,393.12857142857143,4317.7,256.22232142857143,393.12857142857143,4433.4,256.22232142857143,393.12857142857143,4545.9,256.22232142857143,393.12857142857143,4672.1,256.22232142857143,393.12857142857143,4775,256.22232142857143,393.12857142857143,4891.2,256.22232142857143,393.12857142857143,5000]","[1508.7,1508.8,1000,0,508.8,""smooth"",""up"",""up"",""good_move"",5735,4219.1,2362.2,1515.9,1856.9,""oops"",""up"",""left"",""bad_move"",9094.9,3332.3,2786.3,5763.1,546,""oops"",""up"",""up"",""good_move"",12252.5,3139.7,2740,9112.9,403.4,""oops"",""right"",""down"",""bad_move"",14467.9,2207.6,1739,12260.3,468.6,""smooth"",""right"",""right"",""good_move"",17628.5,3152.7,2789.9,14475.9,362.8,""smooth"",""right"",""right"",""good_move"",20246.9,2611,2135.1,17636,475.9,""smooth"",""right"",""right"",""good_move"",22697.9,2444,2013.6,20254,430.3,""oops"",""right"",""up"",""good_move"",26552.3,3852,2183.4,22700.3,1668.6,""oops"",""right"",""left"",""bad_move"",29443.7,2888.5,2221,26555.2,667.5,""oops"",""up"",""down"",""bad_move"",32827.5,3371.7,3064.1,29456.1,307.6,""smooth"",""right"",""right"",""good_move"",35720.4,2884.6,2461.7,32835.8,422.9,""smooth"",""right"",""right"",""good_move"",38495.2,2765.1,2392.8,35730.3,372.2,""smooth"",""up"",""up"",""good_move"",41782.6,3273.8,2305.5,38508.8,968.3,""smooth"",""up"",""up"",""good_move""]"
"3550","","<div style=""width:500px;"">
  <p>What determined the result of this run?</p>
  </div>","83","html-slider-response","54","1048192","0.0-7.0-1.8","108","1","2025-07-31 09:31:38","36c45c0696341be0efffe67d72a12abb","41.121.38.210","Mozilla/5.0 (Windows NT 10.0; Win64; x64) AppleWebKit/537.36 (KHTML, like Gecko) Chrome/138.0.0.0 Safari/537.36","WebKit","Chrome","138.0.0.0","Windows","10.0","https://app.prolific.com/","en-GB,en-US;q=0.9,en;q=0.8","669bd8ce24b83b4652aebd40","687a360dabe5252b5ada7185","688b37d754018fec676f1688","0","669bd8ce24b83b4652aebd40","0","2025-07-31T09:49:11.851Z","","","","AttribQ","","","","","","","","","","","50","","","","","","","","","","","","","","","","","","","","","","","","","","",""
"2425","","<div style=""width:500px;"">
  <p>How much control did you have over the ball?</p>
  </div>","74","html-slider-response","55","1050623","0.0-7.0-2.8","108","1","2025-07-31 09:31:38","36c45c0696341be0efffe67d72a12abb","41.121.38.210","Mozilla/5.0 (Windows NT 10.0; Win64; x64) AppleWebKit/537.36 (KHTML, like Gecko) Chrome/138.0.0.0 Safari/537.36","WebKit","Chrome","138.0.0.0","Windows","10.0","https://app.prolific.com/","en-GB,en-US;q=0.9,en;q=0.8","669bd8ce24b83b4652aebd40","687a360dabe5252b5ada7185","688b37d754018fec676f1688","0","669bd8ce24b83b4652aebd40","0","2025-07-31T09:49:14.283Z","","","","ControlQ","","","","","","","","","","","50","","","","","","","","","","","","","","","","","","","","","","","","","","",""
"3742","","<div style=""width:500px;"">
  <p>How would you describe your current emotional state?</p>
  </div>","22","html-slider-response","56","1054376","0.0-7.0-3.8","108","1","2025-07-31 09:31:38","36c45c0696341be0efffe67d72a12abb","41.121.38.210","Mozilla/5.0 (Windows NT 10.0; Win64; x64) AppleWebKit/537.36 (KHTML, like Gecko) Chrome/138.0.0.0 Safari/537.36","WebKit","Chrome","138.0.0.0","Windows","10.0","https://app.prolific.com/","en-GB,en-US;q=0.9,en;q=0.8","669bd8ce24b83b4652aebd40","687a360dabe5252b5ada7185","688b37d754018fec676f1688","0","669bd8ce24b83b4652aebd40","0","2025-07-31T09:49:18.037Z","","","","StressQ","","","","","","","","","","","50","","","","","","","","","","","","","","","","","","","","","","","","","","",""
"2585","","<div style=""width:500px;"">
  <p>What best describes how you currently feel?</p>
  </div>","69","html-slider-response","57","1056972","0.0-7.0-4.8","108","1","2025-07-31 09:31:38","36c45c0696341be0efffe67d72a12abb","41.121.38.210","Mozilla/5.0 (Windows NT 10.0; Win64; x64) AppleWebKit/537.36 (KHTML, like Gecko) Chrome/138.0.0.0 Safari/537.36","WebKit","Chrome","138.0.0.0","Windows","10.0","https://app.prolific.com/","en-GB,en-US;q=0.9,en;q=0.8","669bd8ce24b83b4652aebd40","687a360dabe5252b5ada7185","688b37d754018fec676f1688","0","669bd8ce24b83b4652aebd40","0","2025-07-31T09:49:20.632Z","","","","MotivationQ","","","","","","","","","","","50","","","","","","","","","","","","","","","","","","","","","","","","","","",""
"","","","","ctl-task-cpt","58","1118444","0.0-7.0-0.9","108","1","2025-07-31 09:31:38","36c45c0696341be0efffe67d72a12abb","41.121.38.210","Mozilla/5.0 (Windows NT 10.0; Win64; x64) AppleWebKit/537.36 (KHTML, like Gecko) Chrome/138.0.0.0 Safari/537.36","WebKit","Chrome","138.0.0.0","Windows","10.0","https://app.prolific.com/","en-GB,en-US;q=0.9,en;q=0.8","669bd8ce24b83b4652aebd40","687a360dabe5252b5ada7185","688b37d754018fec676f1688","0","669bd8ce24b83b4652aebd40","0","2025-07-31T09:50:22.103Z","","","","","","","","","","","","","","","","win-only","2","g1:SE,g2:NW","0.5","10","0","1063970.8","2314.3","7332.8","58426.9","1","4","4","6","2","4","4","44","40","0.3333333333333333","1847.6","3000","1475","[""left"",""up""]","{""num_key_presses"":14,""num_perfect"":8,""num_errors"":0,""num_randdir"":6,""num_randdir_good_moves"":2,""num_whilered"":0,""num_whileblue"":0,""num_blue"":1,""num_good_moves"":10}","[301.22232142857143,304.12857142857143,3.1,301.22232142857143,304.12857142857143,112.2,301.22232142857143,304.12857142857143,216.7,301.22232142857143,304.12857142857143,329.8,301.22232142857143,304.12857142857143,434,301.22232142857143,304.12857142857143,552.8,301.22232142857143,304.12857142857143,660.3,301.22232142857143,304.12857142857143,772,301.22232142857143,304.12857142857143,889.6,301.22232142857143,304.12857142857143,996.8,291.22232142857143,301.12857142857143,1123.4,76.22232142857143,161.12857142857143,1237.5,45.222321428571426,134.12857142857143,1349.5,44.222321428571426,107.12857142857143,1472.6,49.222321428571426,66.12857142857143,1593.8,49.222321428571426,65.12857142857143,1710,49.222321428571426,65.12857142857143,1831.9,49.222321428571426,65.12857142857143,1945.8,49.222321428571426,65.12857142857143,2062.6,49.222321428571426,65.12857142857143,2167.7,49.222321428571426,65.12857142857143,2278.4,49.222321428571426,65.12857142857143,2395.4,49.222321428571426,65.12857142857143,2527.7,63.222321428571426,89.12857142857143,2632.2,154.22232142857143,229.12857142857143,2751.6,192.22232142857143,286.12857142857143,2864.1,192.22232142857143,286.12857142857143,2972.2,192.22232142857143,286.12857142857143,3089.6,192.22232142857143,286.12857142857143,3191,192.22232142857143,286.12857142857143,3292.3,192.22232142857143,286.12857142857143,3399.4,192.22232142857143,286.12857142857143,3513.7,192.22232142857143,286.12857142857143,3617.4,192.22232142857143,286.12857142857143,3719.6,192.22232142857143,286.12857142857143,3833.3,192.22232142857143,286.12857142857143,3944.6,192.22232142857143,286.12857142857143,4059.8,192.22232142857143,286.12857142857143,4185,192.22232142857143,286.12857142857143,4293.1,192.22232142857143,286.12857142857143,4416.1,192.22232142857143,286.12857142857143,4531.4,192.22232142857143,286.12857142857143,4642.7,192.22232142857143,286.12857142857143,4744.6,192.22232142857143,286.12857142857143,4849.3,192.22232142857143,286.12857142857143,4949.3]","[1483.4,1483.4,1000,0,483.4,""smooth"",""up"",""up"",""good_move"",4795.8,3310.6,2121.6,1485.2,1189.1,""smooth"",""up"",""up"",""good_move"",8704.3,3904.4,3488.9,4799.9,415.5,""smooth"",""up"",""up"",""good_move"",12217.1,3482.9,2415.4,8734.3,1067.5,""oops"",""left"",""down"",""bad_move"",14857.3,2630.9,2194.9,12226.4,436,""smooth"",""left"",""left"",""good_move"",19179.6,4302.5,1499.9,14877.2,2802.5,""smooth"",""left"",""left"",""good_move"",26869.7,7684.6,2914.6,23357.5,597.6,""oops"",""left"",""up"",""good_move"",30291.3,3409.5,2693.5,26881.8,716,""oops"",""left"",""right"",""bad_move"",33257.4,2959.4,2536.2,30298,423.2,""oops"",""left"",""right"",""bad_move"",35763.9,2503.9,2074.2,33260,429.7,""oops"",""left"",""left"",""good_move"",39991.6,4221.3,2399.5,35770.3,1821.8,""smooth"",""left"",""left"",""good_move"",44344.4,4345.9,3103.9,39998.5,1242,""oops"",""left"",""right"",""bad_move"",46995.6,2641.7,2116.9,44353.9,524.8,""smooth"",""left"",""left"",""good_move"",50721.2,3719.2,2793.8,47002.3,925.2,""smooth"",""left"",""left"",""good_move""]"
"6670","","<div style=""width:500px;"">
  <p>What determined the result of this run?</p>
  </div>","78","html-slider-response","59","1125118","0.0-7.0-1.9","108","1","2025-07-31 09:31:38","36c45c0696341be0efffe67d72a12abb","41.121.38.210","Mozilla/5.0 (Windows NT 10.0; Win64; x64) AppleWebKit/537.36 (KHTML, like Gecko) Chrome/138.0.0.0 Safari/537.36","WebKit","Chrome","138.0.0.0","Windows","10.0","https://app.prolific.com/","en-GB,en-US;q=0.9,en;q=0.8","669bd8ce24b83b4652aebd40","687a360dabe5252b5ada7185","688b37d754018fec676f1688","0","669bd8ce24b83b4652aebd40","0","2025-07-31T09:50:28.777Z","","","","AttribQ","","","","","","","","","","","50","","","","","","","","","","","","","","","","","","","","","","","","","","",""
"3803","","<div style=""width:500px;"">
  <p>How much control did you have over the ball?</p>
  </div>","78","html-slider-response","60","1128933","0.0-7.0-2.9","108","1","2025-07-31 09:31:38","36c45c0696341be0efffe67d72a12abb","41.121.38.210","Mozilla/5.0 (Windows NT 10.0; Win64; x64) AppleWebKit/537.36 (KHTML, like Gecko) Chrome/138.0.0.0 Safari/537.36","WebKit","Chrome","138.0.0.0","Windows","10.0","https://app.prolific.com/","en-GB,en-US;q=0.9,en;q=0.8","669bd8ce24b83b4652aebd40","687a360dabe5252b5ada7185","688b37d754018fec676f1688","0","669bd8ce24b83b4652aebd40","0","2025-07-31T09:50:32.592Z","","","","ControlQ","","","","","","","","","","","50","","","","","","","","","","","","","","","","","","","","","","","","","","",""
"2618","","<div style=""width:500px;"">
  <p>How would you describe your current emotional state?</p>
  </div>","70","html-slider-response","61","1131558","0.0-7.0-3.9","108","1","2025-07-31 09:31:38","36c45c0696341be0efffe67d72a12abb","41.121.38.210","Mozilla/5.0 (Windows NT 10.0; Win64; x64) AppleWebKit/537.36 (KHTML, like Gecko) Chrome/138.0.0.0 Safari/537.36","WebKit","Chrome","138.0.0.0","Windows","10.0","https://app.prolific.com/","en-GB,en-US;q=0.9,en;q=0.8","669bd8ce24b83b4652aebd40","687a360dabe5252b5ada7185","688b37d754018fec676f1688","0","669bd8ce24b83b4652aebd40","0","2025-07-31T09:50:35.217Z","","","","StressQ","","","","","","","","","","","50","","","","","","","","","","","","","","","","","","","","","","","","","","",""
"6243","","<div style=""width:500px;"">
  <p>What best describes how you currently feel?</p>
  </div>","80","html-slider-response","62","1137808","0.0-7.0-4.9","108","1","2025-07-31 09:31:38","36c45c0696341be0efffe67d72a12abb","41.121.38.210","Mozilla/5.0 (Windows NT 10.0; Win64; x64) AppleWebKit/537.36 (KHTML, like Gecko) Chrome/138.0.0.0 Safari/537.36","WebKit","Chrome","138.0.0.0","Windows","10.0","https://app.prolific.com/","en-GB,en-US;q=0.9,en;q=0.8","669bd8ce24b83b4652aebd40","687a360dabe5252b5ada7185","688b37d754018fec676f1688","0","669bd8ce24b83b4652aebd40","0","2025-07-31T09:50:41.468Z","","","","MotivationQ","","","","","","","","","","","50","","","","","","","","","","","","","","","","","","","","","","","","","","",""
"","","","","ctl-task-cpt","63","1170214","0.0-7.0-0.10","108","1","2025-07-31 09:31:38","36c45c0696341be0efffe67d72a12abb","41.121.38.210","Mozilla/5.0 (Windows NT 10.0; Win64; x64) AppleWebKit/537.36 (KHTML, like Gecko) Chrome/138.0.0.0 Safari/537.36","WebKit","Chrome","138.0.0.0","Windows","10.0","https://app.prolific.com/","en-GB,en-US;q=0.9,en;q=0.8","669bd8ce24b83b4652aebd40","687a360dabe5252b5ada7185","688b37d754018fec676f1688","0","669bd8ce24b83b4652aebd40","0","2025-07-31T09:51:13.873Z","","","","","","","","","","","","","","","","win-only","1","g1:NE,g2:SW","0.6","11","0","1144797.5","1665.1","6686","29358.8","1","4","4","6","2","4","4","48","44","0.36363636363636365","1515","3000","2315","[""down"",""left""]","{""num_key_presses"":6,""num_perfect"":4,""num_errors"":0,""num_randdir"":2,""num_randdir_good_moves"":2,""num_whilered"":0,""num_whileblue"":0,""num_blue"":1,""num_good_moves"":6}","[301.22232142857143,296.12857142857143,1.7,301.22232142857143,296.12857142857143,102.2,301.22232142857143,296.12857142857143,215.9,301.22232142857143,296.12857142857143,387.2,301.22232142857143,296.12857142857143,509.3,301.22232142857143,296.12857142857143,631.6,287.22232142857143,305.12857142857143,798.4,67.22232142857143,501.12857142857143,920.6,63.222321428571426,505.12857142857143,1026.3,50.222321428571426,520.1285714285714,1150.4,49.222321428571426,521.1285714285714,1262.8,49.222321428571426,521.1285714285714,1378.8,49.222321428571426,521.1285714285714,1479.7,49.222321428571426,521.1285714285714,1591.1,49.222321428571426,521.1285714285714,1699.8,49.222321428571426,521.1285714285714,1816,52.222321428571426,509.12857142857143,1950,188.22232142857143,363.12857142857143,2058.2,392.22232142857143,236.12857142857143,2159.8,392.22232142857143,236.12857142857143,2270,392.22232142857143,236.12857142857143,2388,392.22232142857143,236.12857142857143,2497.5,392.22232142857143,236.12857142857143,2641.2,392.22232142857143,236.12857142857143,2762,392.22232142857143,236.12857142857143,2868,392.22232142857143,236.12857142857143,2983.2,392.22232142857143,236.12857142857143,3098.5,392.22232142857143,236.12857142857143,3218.7,392.22232142857143,236.12857142857143,3340.2,392.22232142857143,236.12857142857143,3461.1,392.22232142857143,236.12857142857143,3581.7,392.22232142857143,236.12857142857143,3692.8,392.22232142857143,236.12857142857143,3812.3,392.22232142857143,236.12857142857143,3927.3,392.22232142857143,236.12857142857143,4041.6,392.22232142857143,236.12857142857143,4152,392.22232142857143,236.12857142857143,4269.2,392.22232142857143,236.12857142857143,4384.3,392.22232142857143,236.12857142857143,4501.1,392.22232142857143,236.12857142857143,4613.6,392.22232142857143,236.12857142857143,4726,392.22232142857143,236.12857142857143,4835.3,392.22232142857143,236.12857142857143,4952.9]","[1468.8,1469.2,1000,0,469.2,""smooth"",""left"",""left"",""good_move"",4849,3370.4,2007.5,1478.6,1362.9,""oops"",""left"",""down"",""good_move"",8435,3578.7,3161.9,4856.3,416.8,""smooth"",""left"",""left"",""good_move"",11924.4,3484.6,2663.7,8439.8,820.9,""smooth"",""left"",""left"",""good_move"",19297.7,7354.7,2483.3,16334.7,479.7,""oops"",""down"",""down"",""good_move"",22208.6,2902.3,2350.1,19306.3,552.2,""smooth"",""down"",""down"",""good_move""]"
"5546","","<div style=""width:500px;"">
  <p>What determined the result of this run?</p>
  </div>","70","html-slider-response","64","1175765","0.0-7.0-1.10","108","1","2025-07-31 09:31:38","36c45c0696341be0efffe67d72a12abb","41.121.38.210","Mozilla/5.0 (Windows NT 10.0; Win64; x64) AppleWebKit/537.36 (KHTML, like Gecko) Chrome/138.0.0.0 Safari/537.36","WebKit","Chrome","138.0.0.0","Windows","10.0","https://app.prolific.com/","en-GB,en-US;q=0.9,en;q=0.8","669bd8ce24b83b4652aebd40","687a360dabe5252b5ada7185","688b37d754018fec676f1688","0","669bd8ce24b83b4652aebd40","0","2025-07-31T09:51:19.424Z","","","","AttribQ","","","","","","","","","","","50","","","","","","","","","","","","","","","","","","","","","","","","","","",""
"3427","","<div style=""width:500px;"">
  <p>How much control did you have over the ball?</p>
  </div>","70","html-slider-response","65","1179200","0.0-7.0-2.10","108","1","2025-07-31 09:31:38","36c45c0696341be0efffe67d72a12abb","41.121.38.210","Mozilla/5.0 (Windows NT 10.0; Win64; x64) AppleWebKit/537.36 (KHTML, like Gecko) Chrome/138.0.0.0 Safari/537.36","WebKit","Chrome","138.0.0.0","Windows","10.0","https://app.prolific.com/","en-GB,en-US;q=0.9,en;q=0.8","669bd8ce24b83b4652aebd40","687a360dabe5252b5ada7185","688b37d754018fec676f1688","0","669bd8ce24b83b4652aebd40","0","2025-07-31T09:51:22.860Z","","","","ControlQ","","","","","","","","","","","50","","","","","","","","","","","","","","","","","","","","","","","","","","",""
"67943","","<div style=""width:500px;"">
  <p>How would you describe your current emotional state?</p>
  </div>","30","html-slider-response","66","1247168","0.0-7.0-3.10","108","1","2025-07-31 09:31:38","36c45c0696341be0efffe67d72a12abb","41.121.38.210","Mozilla/5.0 (Windows NT 10.0; Win64; x64) AppleWebKit/537.36 (KHTML, like Gecko) Chrome/138.0.0.0 Safari/537.36","WebKit","Chrome","138.0.0.0","Windows","10.0","https://app.prolific.com/","en-GB,en-US;q=0.9,en;q=0.8","669bd8ce24b83b4652aebd40","687a360dabe5252b5ada7185","688b37d754018fec676f1688","0","669bd8ce24b83b4652aebd40","0","2025-07-31T09:52:30.828Z","","","","StressQ","","","","","","","","","","","50","","","","","","","","","","","","","","","","","","","","","","","","","","",""
"2941","","<div style=""width:500px;"">
  <p>What best describes how you currently feel?</p>
  </div>","69","html-slider-response","67","1250120","0.0-7.0-4.10","108","1","2025-07-31 09:31:38","36c45c0696341be0efffe67d72a12abb","41.121.38.210","Mozilla/5.0 (Windows NT 10.0; Win64; x64) AppleWebKit/537.36 (KHTML, like Gecko) Chrome/138.0.0.0 Safari/537.36","WebKit","Chrome","138.0.0.0","Windows","10.0","https://app.prolific.com/","en-GB,en-US;q=0.9,en;q=0.8","669bd8ce24b83b4652aebd40","687a360dabe5252b5ada7185","688b37d754018fec676f1688","0","669bd8ce24b83b4652aebd40","0","2025-07-31T09:52:33.779Z","","","","MotivationQ","","","","","","","","","","","50","","","","","","","","","","","","","","","","","","","","","","","","","","",""
"","","","","ctl-task-cpt","68","1325095","0.0-7.0-0.11","108","1","2025-07-31 09:31:38","36c45c0696341be0efffe67d72a12abb","41.121.38.210","Mozilla/5.0 (Windows NT 10.0; Win64; x64) AppleWebKit/537.36 (KHTML, like Gecko) Chrome/138.0.0.0 Safari/537.36","WebKit","Chrome","138.0.0.0","Windows","10.0","https://app.prolific.com/","en-GB,en-US;q=0.9,en;q=0.8","669bd8ce24b83b4652aebd40","687a360dabe5252b5ada7185","688b37d754018fec676f1688","0","669bd8ce24b83b4652aebd40","0","2025-07-31T09:53:48.755Z","","","","","","","","","","","","","","","","win-only","2","g1:SE,g2:NW","0.7","12","0","1257088.2","1976.8","6982.3","71926.6","1","4","8","6","2","8","8","56","48","0.42424242424242425","1614.8","3000","2075","[""left"",""up""]","{""num_key_presses"":10,""num_perfect"":7,""num_errors"":0,""num_randdir"":3,""num_randdir_good_moves"":1,""num_whilered"":0,""num_whileblue"":0,""num_blue"":5,""num_good_moves"":8}","[297.22232142857143,299.12857142857143,1.5,297.22232142857143,299.12857142857143,108.5,297.22232142857143,299.12857142857143,214.8,297.22232142857143,299.12857142857143,333.8,297.22232142857143,299.12857142857143,452.3,297.22232142857143,299.12857142857143,569.6,272.22232142857143,287.12857142857143,706.4,177.22232142857143,228.12857142857143,811.3,177.22232142857143,228.12857142857143,929.5,177.22232142857143,228.12857142857143,1044.6,177.22232142857143,228.12857142857143,1152.1,67.22232142857143,68.12857142857143,1262.8,67.22232142857143,68.12857142857143,1376,67.22232142857143,68.12857142857143,1486.3,67.22232142857143,68.12857142857143,1602.6,67.22232142857143,68.12857142857143,1727.8,67.22232142857143,68.12857142857143,1863.7,67.22232142857143,68.12857142857143,1981.1,67.22232142857143,68.12857142857143,2082.8,67.22232142857143,68.12857142857143,2188.4,69.22232142857143,72.12857142857143,2338.3,134.22232142857143,229.12857142857143,2468.5,161.22232142857143,310.12857142857143,2582.6,161.22232142857143,310.12857142857143,2705.5,161.22232142857143,310.12857142857143,2823.5,161.22232142857143,310.12857142857143,2943.2,161.22232142857143,310.12857142857143,3063.3,161.22232142857143,310.12857142857143,3184.8,161.22232142857143,310.12857142857143,3285.4,161.22232142857143,310.12857142857143,3397.2,161.22232142857143,310.12857142857143,3508.9,161.22232142857143,310.12857142857143,3617.1,161.22232142857143,310.12857142857143,3743.8,161.22232142857143,310.12857142857143,3853.8,161.22232142857143,310.12857142857143,3957.7,161.22232142857143,310.12857142857143,4081.8,161.22232142857143,310.12857142857143,4198.2,161.22232142857143,310.12857142857143,4308.9,161.22232142857143,310.12857142857143,4422.9,161.22232142857143,310.12857142857143,4535.3,161.22232142857143,310.12857142857143,4644.8,161.22232142857143,310.12857142857143,4762.6,161.22232142857143,310.12857142857143,4882.8]","[1436.9,1436.9,1000,0,436.9,""smooth"",""up"",""up"",""good_move"",12016.9,10571.7,3031.7,8454.2,531,""smooth"",""up"",""up"",""good_move"",29906.8,17885.4,2281.3,27061.3,564.3,""oops"",""up"",""right"",""bad_move"",32959.6,3046.6,2354.9,29913.1,691.7,""oops"",""up"",""left"",""good_move"",42066,9100.7,2806.4,32965.3,6294.3,""smooth"",""up"",""up"",""good_move"",49503.4,7431,2387.4,46666.7,449.5,""oops"",""left"",""down"",""bad_move"",52108.7,2602.4,2083,49506.4,519.4,""smooth"",""left"",""left"",""good_move"",55865.2,3750.7,1855.3,52114.5,1895.4,""smooth"",""left"",""left"",""good_move"",60145,4276.2,2928.8,55868.8,1347.4,""smooth"",""left"",""left"",""good_move"",64632,4480.6,2797.9,60151.4,1682.7,""smooth"",""up"",""up"",""good_move""]"
"3094","","<div style=""width:500px;"">
  <p>What determined the result of this run?</p>
  </div>","68","html-slider-response","69","1328196","0.0-7.0-1.11","108","1","2025-07-31 09:31:38","36c45c0696341be0efffe67d72a12abb","41.121.38.210","Mozilla/5.0 (Windows NT 10.0; Win64; x64) AppleWebKit/537.36 (KHTML, like Gecko) Chrome/138.0.0.0 Safari/537.36","WebKit","Chrome","138.0.0.0","Windows","10.0","https://app.prolific.com/","en-GB,en-US;q=0.9,en;q=0.8","669bd8ce24b83b4652aebd40","687a360dabe5252b5ada7185","688b37d754018fec676f1688","0","669bd8ce24b83b4652aebd40","0","2025-07-31T09:53:51.856Z","","","","AttribQ","","","","","","","","","","","50","","","","","","","","","","","","","","","","","","","","","","","","","","",""
"2448","","<div style=""width:500px;"">
  <p>How much control did you have over the ball?</p>
  </div>","72","html-slider-response","70","1330650","0.0-7.0-2.11","108","1","2025-07-31 09:31:38","36c45c0696341be0efffe67d72a12abb","41.121.38.210","Mozilla/5.0 (Windows NT 10.0; Win64; x64) AppleWebKit/537.36 (KHTML, like Gecko) Chrome/138.0.0.0 Safari/537.36","WebKit","Chrome","138.0.0.0","Windows","10.0","https://app.prolific.com/","en-GB,en-US;q=0.9,en;q=0.8","669bd8ce24b83b4652aebd40","687a360dabe5252b5ada7185","688b37d754018fec676f1688","0","669bd8ce24b83b4652aebd40","0","2025-07-31T09:53:54.309Z","","","","ControlQ","","","","","","","","","","","50","","","","","","","","","","","","","","","","","","","","","","","","","","",""
"3892","","<div style=""width:500px;"">
  <p>How would you describe your current emotional state?</p>
  </div>","31","html-slider-response","71","1334562","0.0-7.0-3.11","108","1","2025-07-31 09:31:38","36c45c0696341be0efffe67d72a12abb","41.121.38.210","Mozilla/5.0 (Windows NT 10.0; Win64; x64) AppleWebKit/537.36 (KHTML, like Gecko) Chrome/138.0.0.0 Safari/537.36","WebKit","Chrome","138.0.0.0","Windows","10.0","https://app.prolific.com/","en-GB,en-US;q=0.9,en;q=0.8","669bd8ce24b83b4652aebd40","687a360dabe5252b5ada7185","688b37d754018fec676f1688","0","669bd8ce24b83b4652aebd40","0","2025-07-31T09:53:58.222Z","","","","StressQ","","","","","","","","","","","50","","","","","","","","","","","","","","","","","","","","","","","","","","",""
"6132","","<div style=""width:500px;"">
  <p>What best describes how you currently feel?</p>
  </div>","76","html-slider-response","72","1340703","0.0-7.0-4.11","108","1","2025-07-31 09:31:38","36c45c0696341be0efffe67d72a12abb","41.121.38.210","Mozilla/5.0 (Windows NT 10.0; Win64; x64) AppleWebKit/537.36 (KHTML, like Gecko) Chrome/138.0.0.0 Safari/537.36","WebKit","Chrome","138.0.0.0","Windows","10.0","https://app.prolific.com/","en-GB,en-US;q=0.9,en;q=0.8","669bd8ce24b83b4652aebd40","687a360dabe5252b5ada7185","688b37d754018fec676f1688","0","669bd8ce24b83b4652aebd40","0","2025-07-31T09:54:04.363Z","","","","MotivationQ","","","","","","","","","","","50","","","","","","","","","","","","","","","","","","","","","","","","","","",""
"","","","","ctl-task-cpt","73","1398081","0.0-7.0-0.12","108","1","2025-07-31 09:31:38","36c45c0696341be0efffe67d72a12abb","41.121.38.210","Mozilla/5.0 (Windows NT 10.0; Win64; x64) AppleWebKit/537.36 (KHTML, like Gecko) Chrome/138.0.0.0 Safari/537.36","WebKit","Chrome","138.0.0.0","Windows","10.0","https://app.prolific.com/","en-GB,en-US;q=0.9,en;q=0.8","669bd8ce24b83b4652aebd40","687a360dabe5252b5ada7185","688b37d754018fec676f1688","0","669bd8ce24b83b4652aebd40","0","2025-07-31T09:55:01.740Z","","","","","","","","","","","","","","","","win-only","1","g1:NE,g2:SW","0.8","13","0","1347653.7","1478.6","6486","54312.8","1","4","8","6","2","8","8","64","56","0.48484848484848486","1393.1","3000","2165","[""down"",""left""]","{""num_key_presses"":8,""num_perfect"":6,""num_errors"":0,""num_randdir"":2,""num_randdir_good_moves"":1,""num_whilered"":0,""num_whileblue"":0,""num_blue"":4,""num_good_moves"":7}","[295.22232142857143,296.12857142857143,2,295.22232142857143,296.12857142857143,141.6,295.22232142857143,296.12857142857143,264.8,295.22232142857143,296.12857142857143,378.1,295.22232142857143,296.12857142857143,483.9,295.22232142857143,296.12857142857143,584.2,284.22232142857143,303.12857142857143,704.7,72.22232142857143,497.12857142857143,840.4,40.222321428571426,530.1285714285714,972.3,37.222321428571426,532.1285714285714,1074.6,37.222321428571426,532.1285714285714,1204.8,37.222321428571426,532.1285714285714,1335.4,37.222321428571426,532.1285714285714,1459.1,37.222321428571426,532.1285714285714,1578.5,37.222321428571426,532.1285714285714,1712.8,37.222321428571426,532.1285714285714,1813.4,247.22232142857143,301.12857142857143,2004.2,280.22232142857143,281.12857142857143,2121,281.22232142857143,280.12857142857143,2252.5,281.22232142857143,280.12857142857143,2370.6,281.22232142857143,280.12857142857143,2482.9,281.22232142857143,280.12857142857143,2602,281.22232142857143,280.12857142857143,2718.3,281.22232142857143,280.12857142857143,2822.1,281.22232142857143,280.12857142857143,2940.6,281.22232142857143,280.12857142857143,3048.1,281.22232142857143,280.12857142857143,3173.5,281.22232142857143,280.12857142857143,3284.9,281.22232142857143,280.12857142857143,3434.5,281.22232142857143,280.12857142857143,3555.3,281.22232142857143,280.12857142857143,3668,281.22232142857143,280.12857142857143,3780.9,281.22232142857143,280.12857142857143,3894.4,281.22232142857143,280.12857142857143,4003.4,281.22232142857143,280.12857142857143,4110.5,281.22232142857143,280.12857142857143,4231.4,281.22232142857143,280.12857142857143,4337.1,281.22232142857143,280.12857142857143,4440.9,281.22232142857143,280.12857142857143,4562.2,281.22232142857143,280.12857142857143,4674.7,281.22232142857143,280.12857142857143,4787.4,281.22232142857143,280.12857142857143,4893]","[1555.8,1555.9,1000,0,555.9,""smooth"",""left"",""left"",""good_move"",8016,6458.4,2934.3,1557.8,3524,""smooth"",""left"",""left"",""good_move"",12816.9,4795.1,2117.6,8021.8,2677.5,""oops"",""left"",""down"",""good_move"",20373.9,7549.2,3137.9,16780.6,455.4,""oops"",""left"",""up"",""bad_move"",36307.2,15923.6,1316.6,34312.5,678.1,""smooth"",""left"",""left"",""good_move"",41018.8,4703.6,2127.2,36315.2,2576.4,""smooth"",""down"",""down"",""good_move"",44271.8,3243,2679.3,41028.9,563.6,""smooth"",""down"",""down"",""good_move"",47439.5,3164.1,2724.7,44275.5,439.4,""smooth"",""down"",""down"",""good_move""]"
"4762","","<div style=""width:500px;"">
  <p>What determined the result of this run?</p>
  </div>","67","html-slider-response","74","1402850","0.0-7.0-1.12","108","1","2025-07-31 09:31:38","36c45c0696341be0efffe67d72a12abb","41.121.38.210","Mozilla/5.0 (Windows NT 10.0; Win64; x64) AppleWebKit/537.36 (KHTML, like Gecko) Chrome/138.0.0.0 Safari/537.36","WebKit","Chrome","138.0.0.0","Windows","10.0","https://app.prolific.com/","en-GB,en-US;q=0.9,en;q=0.8","669bd8ce24b83b4652aebd40","687a360dabe5252b5ada7185","688b37d754018fec676f1688","0","669bd8ce24b83b4652aebd40","0","2025-07-31T09:55:06.510Z","","","","AttribQ","","","","","","","","","","","50","","","","","","","","","","","","","","","","","","","","","","","","","","",""
"3582","","<div style=""width:500px;"">
  <p>How much control did you have over the ball?</p>
  </div>","69","html-slider-response","75","1406442","0.0-7.0-2.12","108","1","2025-07-31 09:31:38","36c45c0696341be0efffe67d72a12abb","41.121.38.210","Mozilla/5.0 (Windows NT 10.0; Win64; x64) AppleWebKit/537.36 (KHTML, like Gecko) Chrome/138.0.0.0 Safari/537.36","WebKit","Chrome","138.0.0.0","Windows","10.0","https://app.prolific.com/","en-GB,en-US;q=0.9,en;q=0.8","669bd8ce24b83b4652aebd40","687a360dabe5252b5ada7185","688b37d754018fec676f1688","0","669bd8ce24b83b4652aebd40","0","2025-07-31T09:55:10.101Z","","","","ControlQ","","","","","","","","","","","50","","","","","","","","","","","","","","","","","","","","","","","","","","",""
"5080","","<div style=""width:500px;"">
  <p>How would you describe your current emotional state?</p>
  </div>","26","html-slider-response","76","1411535","0.0-7.0-3.12","108","1","2025-07-31 09:31:38","36c45c0696341be0efffe67d72a12abb","41.121.38.210","Mozilla/5.0 (Windows NT 10.0; Win64; x64) AppleWebKit/537.36 (KHTML, like Gecko) Chrome/138.0.0.0 Safari/537.36","WebKit","Chrome","138.0.0.0","Windows","10.0","https://app.prolific.com/","en-GB,en-US;q=0.9,en;q=0.8","669bd8ce24b83b4652aebd40","687a360dabe5252b5ada7185","688b37d754018fec676f1688","0","669bd8ce24b83b4652aebd40","0","2025-07-31T09:55:15.194Z","","","","StressQ","","","","","","","","","","","50","","","","","","","","","","","","","","","","","","","","","","","","","","",""
"4984","","<div style=""width:500px;"">
  <p>What best describes how you currently feel?</p>
