"rt","response_timestamp","stimulus","response","trial_type","trial_index","time_elapsed","internal_node_id","run_id","condition","recorded_at","source_code_version","ip","user_agent","device","browser","browser_version","platform","platform_version","referer","accept_language","PROLIFIC_PID","STUDY_ID","SESSION_ID","BATCH","prolific_id","batch","realtime","success","question_order","question_id","eventType","responses","item_order","radio_event_ids","radio_event_times","key_event_times","mouse_event_times","straightlining","zigzagging","honeypot","view_history","slider_start","which_type","canvas_config","goals_layout","control_level","trial_number","tutorial_trial_number","trial_start_time","phase1_start_time","phase2_start_time","phase3_start_time","goal_1_value","goal_1_distance","goal_2_value","goal_2_distance","goal_selected","outcome","outcome_total","participant_final_score","participant_initial_score","participant_final_score_prop","goal_choice_rt","allocated_time","allocated_time_remaining","goal_direction","counts","mouse_movements","key_presses"
"22757","1754470708025","<p style='font-size:40px;line-height:1.25'><strong>Welcome to the experiment!</strong></p><p style='font-size:1.1em;line-height:1.25'>Thank you for participanting in our experiment again! You will be asked to play the Dysfunctional Ball Game again. We will briefly recap the rules before we start.</p><p style='font-size:1.1em;line-height:1.25'>Press <strong>Next</strong> to continue.</p>","0","custom-html-button-response","0","22764","0.0-0.0","148","1","2025-08-06 08:58:00","36c45c0696341be0efffe67d72a12abb","105.245.112.154","Mozilla/5.0 (Windows NT 10.0; Win64; x64) AppleWebKit/537.36 (KHTML, like Gecko) Chrome/135.0.0.0 Safari/537.36 OPR/120.0.0.0","WebKit","Opera","120.0.0.0","Windows","10.0","https://app.prolific.com/","en-US,en;q=0.9,ja;q=0.8","669bba2714caa691679bff24","687a1a965b9f5b85a264363e","68931788ed4ec11ab9644917","1","669bba2714caa691679bff24","1","2025-08-06T08:58:28.029Z","","","","","","","","","","","","","","","","","","","","","","","","","","","","","","","","","","","","","","","","","",""
"10929","","","","fullscreen","1","34837","0.0-1.0","148","1","2025-08-06 08:58:00","36c45c0696341be0efffe67d72a12abb","105.245.112.154","Mozilla/5.0 (Windows NT 10.0; Win64; x64) AppleWebKit/537.36 (KHTML, like Gecko) Chrome/135.0.0.0 Safari/537.36 OPR/120.0.0.0","WebKit","Opera","120.0.0.0","Windows","10.0","https://app.prolific.com/","en-US,en;q=0.9,ja;q=0.8","669bba2714caa691679bff24","687a1a965b9f5b85a264363e","68931788ed4ec11ab9644917","1","669bba2714caa691679bff24","1","","true","","","","","","","","","","","","","","","","","","","","","","","","","","","","","","","","","","","","","","","","",""
"8705","1754470728810"," <p style='font-size:1.1em;line-height:1.25'>Thank you for closing all other tabs.</p><p style='font-size:1.1em;line-height:1.25'>We will now invite you to fill in some questionnaires, before starting the game.<br>This will take about 5 minutes.<br></p><p style='font-size:1.1em;line-height:1.25'>Press the <strong>Next</strong> button to continue.</p>","0","custom-html-button-response","2","43547","0.0-2.0","148","1","2025-08-06 08:58:00","36c45c0696341be0efffe67d72a12abb","105.245.112.154","Mozilla/5.0 (Windows NT 10.0; Win64; x64) AppleWebKit/537.36 (KHTML, like Gecko) Chrome/135.0.0.0 Safari/537.36 OPR/120.0.0.0","WebKit","Opera","120.0.0.0","Windows","10.0","https://app.prolific.com/","en-US,en;q=0.9,ja;q=0.8","669bba2714caa691679bff24","687a1a965b9f5b85a264363e","68931788ed4ec11ab9644917","1","669bba2714caa691679bff24","1","2025-08-06T08:58:48.812Z","","","","","","","","","","","","","","","","","","","","","","","","","","","","","","","","","","","","","","","","","",""
"5336","","","{""assigned_sex"":""female""}","survey-multi-choice","3","48912","0.0-3.0-0.0","148","1","2025-08-06 08:58:00","36c45c0696341be0efffe67d72a12abb","105.245.112.154","Mozilla/5.0 (Windows NT 10.0; Win64; x64) AppleWebKit/537.36 (KHTML, like Gecko) Chrome/135.0.0.0 Safari/537.36 OPR/120.0.0.0","WebKit","Opera","120.0.0.0","Windows","10.0","https://app.prolific.com/","en-US,en;q=0.9,ja;q=0.8","669bba2714caa691679bff24","687a1a965b9f5b85a264363e","68931788ed4ec11ab9644917","1","669bba2714caa691679bff24","1","","","[0]","0","demographics","","","","","","","","","","","","","","","","","","","","","","","","","","","","","","","","","","","","","",""
"20909","1754470755089","<p style='font-size:1.1em;line-height:1.25'>In the following, we will perform a baseline assessment. This means that we will ask you a few questions relating to your experiences over the past month.<br></p><p style='font-size:1.1em;line-height:1.25'>Press the <strong>Next</strong> button to continue.</p>","0","custom-html-button-response","4","69826","0.0-4.0-0.0","148","1","2025-08-06 08:58:00","36c45c0696341be0efffe67d72a12abb","105.245.112.154","Mozilla/5.0 (Windows NT 10.0; Win64; x64) AppleWebKit/537.36 (KHTML, like Gecko) Chrome/135.0.0.0 Safari/537.36 OPR/120.0.0.0","WebKit","Opera","120.0.0.0","Windows","10.0","https://app.prolific.com/","en-US,en;q=0.9,ja;q=0.8","669bba2714caa691679bff24","687a1a965b9f5b85a264363e","68931788ed4ec11ab9644917","1","669bba2714caa691679bff24","1","2025-08-06T08:59:15.091Z","","","","","","","","","","","","","","","","","","","","","","","","","","","","","","","","","","","","","","","","","",""
"87717.10000000894","","","","survey-template","5","157761","0.0-4.0-1.0","148","1","2025-08-06 08:58:00","36c45c0696341be0efffe67d72a12abb","105.245.112.154","Mozilla/5.0 (Windows NT 10.0; Win64; x64) AppleWebKit/537.36 (KHTML, like Gecko) Chrome/135.0.0.0 Safari/537.36 OPR/120.0.0.0","WebKit","Opera","120.0.0.0","Windows","10.0","https://app.prolific.com/","en-US,en;q=0.9,ja;q=0.8","669bba2714caa691679bff24","687a1a965b9f5b85a264363e","68931788ed4ec11ab9644917","1","669bba2714caa691679bff24","1","2025-08-06T09:00:43.026Z","","","","pss","{""Q01"":""2"",""Q02"":""3"",""Q03"":""3"",""Q04"":""1"",""Q05"":""0"",""Q06"":""3"",""Q07"":""2"",""Q08"":""2"",""Q09"":""3"",""Q10"":""2""}","[0,1,2,3,4,5,6,7,8,9]","[""Q01"",""Q02"",""Q03"",""Q04"",""Q05"",""Q05"",""Q06"",""Q07"",""Q08"",""Q09"",""Q10"",""Q09""]","[14945.40000000596,23567.20000000298,38779.80000001192,40781.5,45089.10000000894,53263.20000000298,60117.30000001192,65064.30000001192,67192.30000001192,70302.30000001192,74395.60000000894,84047.5]","[]","[0.6000000089406967,13726.20000000298,14945.40000000596,23567.20000000298,35985.70000000298,38779.80000001192,40781.5,45089.10000000894,53263.20000000298,58943.5,60117.30000001192,65064.30000001192,67192.30000001192,70302.30000001192,73221.80000001192,74395.60000000894,84047.5,87712.5]","0.5","0.6666666666666666","0","","","","","","","","","","","","","","","","","","","","","","","","","","","","",""
"6273","1754470849302","<p style='font-size:1.1em;line-height:1.25'>Thank you for your answers! Now we will ask you a few more questions relating to your feelings in the last 24 hours.<br></p><p style='font-size:1.1em;line-height:1.25'>Press the <strong>Next</strong> button to continue.</p>","0","custom-html-button-response","6","164038","0.0-4.0-2.0","148","1","2025-08-06 08:58:00","36c45c0696341be0efffe67d72a12abb","105.245.112.154","Mozilla/5.0 (Windows NT 10.0; Win64; x64) AppleWebKit/537.36 (KHTML, like Gecko) Chrome/135.0.0.0 Safari/537.36 OPR/120.0.0.0","WebKit","Opera","120.0.0.0","Windows","10.0","https://app.prolific.com/","en-US,en;q=0.9,ja;q=0.8","669bba2714caa691679bff24","687a1a965b9f5b85a264363e","68931788ed4ec11ab9644917","1","669bba2714caa691679bff24","1","2025-08-06T09:00:49.303Z","","","","","","","","","","","","","","","","","","","","","","","","","","","","","","","","","","","","","","","","","",""
"154688.60000000894","","","","survey-template","7","318740","0.0-4.0-3.0","148","1","2025-08-06 08:58:00","36c45c0696341be0efffe67d72a12abb","105.245.112.154","Mozilla/5.0 (Windows NT 10.0; Win64; x64) AppleWebKit/537.36 (KHTML, like Gecko) Chrome/135.0.0.0 Safari/537.36 OPR/120.0.0.0","WebKit","Opera","120.0.0.0","Windows","10.0","https://app.prolific.com/","en-US,en;q=0.9,ja;q=0.8","669bba2714caa691679bff24","687a1a965b9f5b85a264363e","68931788ed4ec11ab9644917","1","669bba2714caa691679bff24","1","2025-08-06T09:03:24.006Z","","","","drsp","{""Q01"":""1"",""Q02"":""0"",""Q03"":""0"",""Q04"":""0"",""Q05"":""3"",""Q06"":""1"",""Q07"":""2"",""Q08"":""1"",""Q09"":""0"",""Q10"":""1"",""Q11"":""0"",""Q12"":""3"",""Q13"":""5"",""Q14"":""3"",""Q15"":""2"",""Q16"":""1"",""Q17"":""1"",""Q18"":""0"",""Q19"":""1"",""Q20"":""0"",""Q21"":""1"",""Q22"":""0""}","[0,1,2,3,4,5,6,7,8,9,10,11,12,13,14,15,16,17,18,19,20,21]","[""Q01"",""Q03"",""Q04"",""Q05"",""Q05"",""Q06"",""Q07"",""Q08"",""Q09"",""Q09"",""Q10"",""Q11"",""Q12"",""Q13"",""Q14"",""Q14"",""Q15"",""Q15"",""Q16"",""Q17"",""Q18"",""Q19"",""Q20"",""Q21"",""Q22"",""Q02""]","[56402.29999999702,60296.20000000298,61986.5,65897.60000000894,68405.70000000298,72985,75609.10000000894,76709.79999999702,77835.29999999702,81370.29999999702,85390,88214.29999999702,91992.20000000298,95950.70000000298,99429.40000000596,101303.40000000596,103531.79999999702,104738.20000000298,107058.90000000596,108818.70000000298,110805.10000000894,113647.40000000596,117903.60000000894,129764.40000000596,135169.70000000298,147346.20000000298]","[]","[0.20000000298023224,56402.29999999702,60296.20000000298,61986.5,64087.40000000596,65897.60000000894,68405.70000000298,72985,75609.10000000894,76709.79999999702,77835.29999999702,81370.29999999702,84245,85390,88214.29999999702,91992.20000000298,95950.70000000298,99429.40000000596,101303.40000000596,103531.79999999702,104738.20000000298,107058.90000000596,108818.70000000298,110805.10000000894,113647.40000000596,117903.60000000894,129764.40000000596,135169.70000000298,138254.20000000298,147346.20000000298,154672.29999999702]","0.36363636363636365","0.6190476190476191","0","","","","","","","","","","","","","","","","","","","","","","","","","","","","",""
"38688.69999998808","","","","survey-template","8","357435","0.0-4.0-4.0","148","1","2025-08-06 08:58:00","36c45c0696341be0efffe67d72a12abb","105.245.112.154","Mozilla/5.0 (Windows NT 10.0; Win64; x64) AppleWebKit/537.36 (KHTML, like Gecko) Chrome/135.0.0.0 Safari/537.36 OPR/120.0.0.0","WebKit","Opera","120.0.0.0","Windows","10.0","https://app.prolific.com/","en-US,en;q=0.9,ja;q=0.8","669bba2714caa691679bff24","687a1a965b9f5b85a264363e","68931788ed4ec11ab9644917","1","669bba2714caa691679bff24","1","2025-08-06T09:04:02.700Z","","","","stress","{""Q01"":""1"",""Q02"":""2"",""Q03"":""3""}","[0,1,2]","[""Q01"",""Q02"",""Q03""]","[10194.59999999404,15430.29999999702,20604.69999998808]","[]","[10194.59999999404,13606.39999999106,15430.29999999702,20604.69999998808,38683.59999999404]","0.6666666666666666","0","0","","","","","","","","","","","","","","","","","","","","","","","","","","","","",""
"34882","","","","instructions","9","392323","0.0-5.0-0.0","148","1","2025-08-06 08:58:00","36c45c0696341be0efffe67d72a12abb","105.245.112.154","Mozilla/5.0 (Windows NT 10.0; Win64; x64) AppleWebKit/537.36 (KHTML, like Gecko) Chrome/135.0.0.0 Safari/537.36 OPR/120.0.0.0","WebKit","Opera","120.0.0.0","Windows","10.0","https://app.prolific.com/","en-US,en;q=0.9,ja;q=0.8","669bba2714caa691679bff24","687a1a965b9f5b85a264363e","68931788ed4ec11ab9644917","1","669bba2714caa691679bff24","1","","","","","","","","","","","","","","","[{""page_index"":0,""viewing_time"":34881}]","","","","","","","","","","","","","","","","","","","","","","","","","","","",""
"17609","","<p>Before you start with this game please answer the following three questions yourself. </p>
  <p>Through this game, we measure several aspects of your cognitive performance, such as reaction times, multi-tasking capabilities </p>
  <p>and the ability to assess the situation you are in.</p>
  <p></p>
  <p><b>How good do you usually are in such tasks?</b></p>","59","html-slider-response","10","409993","0.0-6.0-0.0","148","1","2025-08-06 08:58:00","36c45c0696341be0efffe67d72a12abb","105.245.112.154","Mozilla/5.0 (Windows NT 10.0; Win64; x64) AppleWebKit/537.36 (KHTML, like Gecko) Chrome/135.0.0.0 Safari/537.36 OPR/120.0.0.0","WebKit","Opera","120.0.0.0","Windows","10.0","https://app.prolific.com/","en-US,en;q=0.9,ja;q=0.8","669bba2714caa691679bff24","687a1a965b9f5b85a264363e","68931788ed4ec11ab9644917","1","669bba2714caa691679bff24","1","2025-08-06T09:04:55.259Z","","","","PreSkillQ","","","","","","","","","","","50","","","","","","","","","","","","","","","","","","","","","","","","","","",""
"4963","","<div style=""width:500px;"">
  <p>How well do you think you will perform in this task compared to other participants?</p>
  </div>","73","html-slider-response","11","414961","0.0-6.0-1.0","148","1","2025-08-06 08:58:00","36c45c0696341be0efffe67d72a12abb","105.245.112.154","Mozilla/5.0 (Windows NT 10.0; Win64; x64) AppleWebKit/537.36 (KHTML, like Gecko) Chrome/135.0.0.0 Safari/537.36 OPR/120.0.0.0","WebKit","Opera","120.0.0.0","Windows","10.0","https://app.prolific.com/","en-US,en;q=0.9,ja;q=0.8","669bba2714caa691679bff24","687a1a965b9f5b85a264363e","68931788ed4ec11ab9644917","1","669bba2714caa691679bff24","1","2025-08-06T09:05:00.226Z","","","","PrePerfQ","","","","","","","","","","","50","","","","","","","","","","","","","","","","","","","","","","","","","","",""
"8552","","<div style=""width:500px;"">
  <p>What best describes how you currently feel?</p>
  </div>","88","html-slider-response","12","423518","0.0-6.0-2.0","148","1","2025-08-06 08:58:00","36c45c0696341be0efffe67d72a12abb","105.245.112.154","Mozilla/5.0 (Windows NT 10.0; Win64; x64) AppleWebKit/537.36 (KHTML, like Gecko) Chrome/135.0.0.0 Safari/537.36 OPR/120.0.0.0","WebKit","Opera","120.0.0.0","Windows","10.0","https://app.prolific.com/","en-US,en;q=0.9,ja;q=0.8","669bba2714caa691679bff24","687a1a965b9f5b85a264363e","68931788ed4ec11ab9644917","1","669bba2714caa691679bff24","1","2025-08-06T09:05:08.783Z","","","","PreMotivationQ","","","","","","","","","","","50","","","","","","","","","","","","","","","","","","","","","","","","","","",""
"","","","","ctl-task-cpt","13","462462","0.0-7.0-0.0","148","1","2025-08-06 08:58:00","36c45c0696341be0efffe67d72a12abb","105.245.112.154","Mozilla/5.0 (Windows NT 10.0; Win64; x64) AppleWebKit/537.36 (KHTML, like Gecko) Chrome/135.0.0.0 Safari/537.36 OPR/120.0.0.0","WebKit","Opera","120.0.0.0","Windows","10.0","https://app.prolific.com/","en-US,en;q=0.9,ja;q=0.8","669bba2714caa691679bff24","687a1a965b9f5b85a264363e","68931788ed4ec11ab9644917","1","669bba2714caa691679bff24","1","2025-08-06T09:05:47.727Z","","","","","","","","","","","","","","","","win-only","1","g1:NE,g2:SW","1","1","0","429138","13467.5","18477.5","35840.6","1","4","4","6","1","1","1","1","0","0.007575757575757576","5009.8","3000","1300","[""up"",""right""]","{""num_key_presses"":4,""num_perfect"":4,""num_errors"":0,""num_randdir"":0,""num_randdir_good_moves"":0,""num_whilered"":0,""num_whileblue"":0,""num_blue"":2,""num_good_moves"":4}","[299.22232142857143,300.12857142857143,0.9,299.22232142857143,300.12857142857143,104.9,299.22232142857143,300.12857142857143,208.1,299.22232142857143,300.12857142857143,309.6,299.22232142857143,300.12857142857143,414.5,299.22232142857143,300.12857142857143,514.7,299.22232142857143,300.12857142857143,619.3,299.22232142857143,300.12857142857143,724.4,299.22232142857143,300.12857142857143,828.8,299.22232142857143,300.12857142857143,929.1,299.22232142857143,300.12857142857143,1039.6,299.22232142857143,300.12857142857143,1140,299.22232142857143,300.12857142857143,1243.7,299.22232142857143,300.12857142857143,1343.7,299.22232142857143,300.12857142857143,1449.1,299.22232142857143,300.12857142857143,1558.1,299.22232142857143,300.12857142857143,1658.7,299.22232142857143,300.12857142857143,1759.6,299.22232142857143,300.12857142857143,1859.8,299.22232142857143,300.12857142857143,1959.8,299.22232142857143,300.12857142857143,2065.1,299.22232142857143,300.12857142857143,2169.6,299.22232142857143,300.12857142857143,2270,299.22232142857143,300.12857142857143,2373.6,299.22232142857143,300.12857142857143,2474.3,299.22232142857143,300.12857142857143,2578.6,299.22232142857143,300.12857142857143,2679.5,299.22232142857143,300.12857142857143,2784.9,299.22232142857143,300.12857142857143,2889.6,299.22232142857143,300.12857142857143,2990.2,299.22232142857143,300.12857142857143,3093.6,299.22232142857143,300.12857142857143,3193.6,299.22232142857143,300.12857142857143,3306.3,299.22232142857143,300.12857142857143,3408.4,299.22232142857143,300.12857142857143,3508.5,299.22232142857143,300.12857142857143,3609.4,299.22232142857143,300.12857142857143,3709.9,299.22232142857143,300.12857142857143,3814.1,299.22232142857143,300.12857142857143,3914.2,299.22232142857143,300.12857142857143,4025.6,299.22232142857143,300.12857142857143,4129,299.22232142857143,300.12857142857143,4234.2,299.22232142857143,300.12857142857143,4339,299.22232142857143,300.12857142857143,4444.4,299.22232142857143,300.12857142857143,4545.2,299.22232142857143,300.12857142857143,4657.3,299.22232142857143,300.12857142857143,4757.5,299.22232142857143,300.12857142857143,4857.5,299.22232142857143,300.12857142857143,4958.9]","[8869.3,8869.3,2618.8,5804.1,446.4,""smooth"",""right"",""right"",""good_move"",11321.7,2450.3,1797.8,8871.4,652.5,""smooth"",""right"",""right"",""good_move"",15010.4,3687.2,3235.7,11323.2,451.5,""smooth"",""up"",""up"",""good_move"",17253.3,2241.2,1754,15012.1,487.2,""smooth"",""up"",""up"",""good_move""]"
"8618","","<div style=""width:500px;"">
  <p>What determined the result of this run?</p>
  </div>","100","html-slider-response","14","471083","0.0-7.0-1.0","148","1","2025-08-06 08:58:00","36c45c0696341be0efffe67d72a12abb","105.245.112.154","Mozilla/5.0 (Windows NT 10.0; Win64; x64) AppleWebKit/537.36 (KHTML, like Gecko) Chrome/135.0.0.0 Safari/537.36 OPR/120.0.0.0","WebKit","Opera","120.0.0.0","Windows","10.0","https://app.prolific.com/","en-US,en;q=0.9,ja;q=0.8","669bba2714caa691679bff24","687a1a965b9f5b85a264363e","68931788ed4ec11ab9644917","1","669bba2714caa691679bff24","1","2025-08-06T09:05:56.349Z","","","","AttribQ","","","","","","","","","","","50","","","","","","","","","","","","","","","","","","","","","","","","","","",""
"8385","","<div style=""width:500px;"">
  <p>How much control did you have over the ball?</p>
  </div>","100","html-slider-response","15","479473","0.0-7.0-2.0","148","1","2025-08-06 08:58:00","36c45c0696341be0efffe67d72a12abb","105.245.112.154","Mozilla/5.0 (Windows NT 10.0; Win64; x64) AppleWebKit/537.36 (KHTML, like Gecko) Chrome/135.0.0.0 Safari/537.36 OPR/120.0.0.0","WebKit","Opera","120.0.0.0","Windows","10.0","https://app.prolific.com/","en-US,en;q=0.9,ja;q=0.8","669bba2714caa691679bff24","687a1a965b9f5b85a264363e","68931788ed4ec11ab9644917","1","669bba2714caa691679bff24","1","2025-08-06T09:06:04.738Z","","","","ControlQ","","","","","","","","","","","50","","","","","","","","","","","","","","","","","","","","","","","","","","",""
"6862","","<div style=""width:500px;"">
  <p>How would you describe your current emotional state?</p>
  </div>","3","html-slider-response","16","486338","0.0-7.0-3.0","148","1","2025-08-06 08:58:00","36c45c0696341be0efffe67d72a12abb","105.245.112.154","Mozilla/5.0 (Windows NT 10.0; Win64; x64) AppleWebKit/537.36 (KHTML, like Gecko) Chrome/135.0.0.0 Safari/537.36 OPR/120.0.0.0","WebKit","Opera","120.0.0.0","Windows","10.0","https://app.prolific.com/","en-US,en;q=0.9,ja;q=0.8","669bba2714caa691679bff24","687a1a965b9f5b85a264363e","68931788ed4ec11ab9644917","1","669bba2714caa691679bff24","1","2025-08-06T09:06:11.603Z","","","","StressQ","","","","","","","","","","","50","","","","","","","","","","","","","","","","","","","","","","","","","","",""
"6306","","<div style=""width:500px;"">
  <p>What best describes how you currently feel?</p>
  </div>","98","html-slider-response","17","492649","0.0-7.0-4.0","148","1","2025-08-06 08:58:00","36c45c0696341be0efffe67d72a12abb","105.245.112.154","Mozilla/5.0 (Windows NT 10.0; Win64; x64) AppleWebKit/537.36 (KHTML, like Gecko) Chrome/135.0.0.0 Safari/537.36 OPR/120.0.0.0","WebKit","Opera","120.0.0.0","Windows","10.0","https://app.prolific.com/","en-US,en;q=0.9,ja;q=0.8","669bba2714caa691679bff24","687a1a965b9f5b85a264363e","68931788ed4ec11ab9644917","1","669bba2714caa691679bff24","1","2025-08-06T09:06:17.914Z","","","","MotivationQ","","","","","","","","","","","50","","","","","","","","","","","","","","","","","","","","","","","","","","",""
"","","","","ctl-task-cpt","18","534342","0.0-7.0-0.1","148","1","2025-08-06 08:58:00","36c45c0696341be0efffe67d72a12abb","105.245.112.154","Mozilla/5.0 (Windows NT 10.0; Win64; x64) AppleWebKit/537.36 (KHTML, like Gecko) Chrome/135.0.0.0 Safari/537.36 OPR/120.0.0.0","WebKit","Opera","120.0.0.0","Windows","10.0","https://app.prolific.com/","en-US,en;q=0.9,ja;q=0.8","669bba2714caa691679bff24","687a1a965b9f5b85a264363e","68931788ed4ec11ab9644917","1","669bba2714caa691679bff24","1","2025-08-06T09:06:59.607Z","","","","","","","","","","","","","","","","win-only","2","g1:SE,g2:NW","0.9","2","0","498173.8","3337.8","8354.8","38682","1","4","8","6","2","8","8","9","1","0.06818181818181818","5016.9","3000","715","[""left"",""up""]","{""num_key_presses"":8,""num_perfect"":7,""num_errors"":0,""num_randdir"":1,""num_randdir_good_moves"":0,""num_whilered"":0,""num_whileblue"":0,""num_blue"":2,""num_good_moves"":7}","[300.22232142857143,295.12857142857143,3.7,300.22232142857143,295.12857142857143,103.8,300.22232142857143,295.12857142857143,209.1,300.22232142857143,295.12857142857143,309.1,300.22232142857143,295.12857142857143,415.5,300.22232142857143,295.12857142857143,518.5,300.22232142857143,295.12857142857143,619,300.22232142857143,295.12857142857143,730.9,300.22232142857143,295.12857142857143,850.7,300.22232142857143,295.12857142857143,956.3,300.22232142857143,295.12857142857143,1064.5,300.22232142857143,295.12857142857143,1169.3,300.22232142857143,295.12857142857143,1275.5,300.22232142857143,295.12857142857143,1380.1,300.22232142857143,295.12857142857143,1483.8,300.22232142857143,295.12857142857143,1597.5,300.22232142857143,295.12857142857143,1698.3,300.22232142857143,295.12857142857143,1804.5,300.22232142857143,295.12857142857143,1915.5,300.22232142857143,295.12857142857143,2031.3,300.22232142857143,295.12857142857143,2133.1,300.22232142857143,295.12857142857143,2234.2,300.22232142857143,295.12857142857143,2338.1,300.22232142857143,295.12857142857143,2442,300.22232142857143,295.12857142857143,2548.2,300.22232142857143,295.12857142857143,2654.1,300.22232142857143,295.12857142857143,2756.9,300.22232142857143,295.12857142857143,2858.1,300.22232142857143,295.12857142857143,2958.5,300.22232142857143,295.12857142857143,3059.8,300.22232142857143,295.12857142857143,3166.9,300.22232142857143,295.12857142857143,3267.9,300.22232142857143,295.12857142857143,3374.4,300.22232142857143,295.12857142857143,3475.8,300.22232142857143,295.12857142857143,3579.4,300.22232142857143,295.12857142857143,3681.7,300.22232142857143,295.12857142857143,3783.1,300.22232142857143,295.12857142857143,3883.1,300.22232142857143,295.12857142857143,3988.3,300.22232142857143,295.12857142857143,4089,300.22232142857143,295.12857142857143,4193.3,300.22232142857143,295.12857142857143,4299.2,300.22232142857143,295.12857142857143,4417.3,300.22232142857143,295.12857142857143,4517.6,300.22232142857143,295.12857142857143,4618.1,300.22232142857143,295.12857142857143,4718.8,300.22232142857143,295.12857142857143,4823.4,300.22232142857143,295.12857142857143,4923.4]","[1548.6,1548.6,1000,0,548.6,""smooth"",""up"",""up"",""good_move"",4107.7,2557.2,1990.8,1550.6,566.3,""smooth"",""up"",""up"",""good_move"",6485,2375.6,1861.8,4109.4,513.8,""smooth"",""up"",""up"",""good_move"",9210,2723.5,2301.1,6486.5,422.4,""oops"",""left"",""right"",""bad_move"",20533.3,11321.8,3481.8,16639.6,412,""smooth"",""left"",""left"",""good_move"",24149.7,3615.3,3176.5,20534.4,438.8,""smooth"",""left"",""left"",""good_move"",27397.7,3246.2,2869.3,24151.5,376.9,""smooth"",""left"",""left"",""good_move"",30188.9,2788.3,2433.2,27400.7,355,""smooth"",""left"",""left"",""good_move""]"
"5317","","<div style=""width:500px;"">
  <p>What determined the result of this run?</p>
  </div>","99","html-slider-response","19","539661","0.0-7.0-1.1","148","1","2025-08-06 08:58:00","36c45c0696341be0efffe67d72a12abb","105.245.112.154","Mozilla/5.0 (Windows NT 10.0; Win64; x64) AppleWebKit/537.36 (KHTML, like Gecko) Chrome/135.0.0.0 Safari/537.36 OPR/120.0.0.0","WebKit","Opera","120.0.0.0","Windows","10.0","https://app.prolific.com/","en-US,en;q=0.9,ja;q=0.8","669bba2714caa691679bff24","687a1a965b9f5b85a264363e","68931788ed4ec11ab9644917","1","669bba2714caa691679bff24","1","2025-08-06T09:07:04.926Z","","","","AttribQ","","","","","","","","","","","50","","","","","","","","","","","","","","","","","","","","","","","","","","",""
"4039","","<div style=""width:500px;"">
  <p>How much control did you have over the ball?</p>
  </div>","100","html-slider-response","20","543705","0.0-7.0-2.1","148","1","2025-08-06 08:58:00","36c45c0696341be0efffe67d72a12abb","105.245.112.154","Mozilla/5.0 (Windows NT 10.0; Win64; x64) AppleWebKit/537.36 (KHTML, like Gecko) Chrome/135.0.0.0 Safari/537.36 OPR/120.0.0.0","WebKit","Opera","120.0.0.0","Windows","10.0","https://app.prolific.com/","en-US,en;q=0.9,ja;q=0.8","669bba2714caa691679bff24","687a1a965b9f5b85a264363e","68931788ed4ec11ab9644917","1","669bba2714caa691679bff24","1","2025-08-06T09:07:08.970Z","","","","ControlQ","","","","","","","","","","","50","","","","","","","","","","","","","","","","","","","","","","","","","","",""
"4836","","<div style=""width:500px;"">
  <p>How would you describe your current emotional state?</p>
  </div>","0","html-slider-response","21","548544","0.0-7.0-3.1","148","1","2025-08-06 08:58:00","36c45c0696341be0efffe67d72a12abb","105.245.112.154","Mozilla/5.0 (Windows NT 10.0; Win64; x64) AppleWebKit/537.36 (KHTML, like Gecko) Chrome/135.0.0.0 Safari/537.36 OPR/120.0.0.0","WebKit","Opera","120.0.0.0","Windows","10.0","https://app.prolific.com/","en-US,en;q=0.9,ja;q=0.8","669bba2714caa691679bff24","687a1a965b9f5b85a264363e","68931788ed4ec11ab9644917","1","669bba2714caa691679bff24","1","2025-08-06T09:07:13.809Z","","","","StressQ","","","","","","","","","","","50","","","","","","","","","","","","","","","","","","","","","","","","","","",""
"8006","","<div style=""width:500px;"">
  <p>What best describes how you currently feel?</p>
  </div>","100","html-slider-response","22","556554","0.0-7.0-4.1","148","1","2025-08-06 08:58:00","36c45c0696341be0efffe67d72a12abb","105.245.112.154","Mozilla/5.0 (Windows NT 10.0; Win64; x64) AppleWebKit/537.36 (KHTML, like Gecko) Chrome/135.0.0.0 Safari/537.36 OPR/120.0.0.0","WebKit","Opera","120.0.0.0","Windows","10.0","https://app.prolific.com/","en-US,en;q=0.9,ja;q=0.8","669bba2714caa691679bff24","687a1a965b9f5b85a264363e","68931788ed4ec11ab9644917","1","669bba2714caa691679bff24","1","2025-08-06T09:07:21.819Z","","","","MotivationQ","","","","","","","","","","","50","","","","","","","","","","","","","","","","","","","","","","","","","","",""
"","","","","ctl-task-cpt","23","584949","0.0-7.0-0.2","148","1","2025-08-06 08:58:00","36c45c0696341be0efffe67d72a12abb","105.245.112.154","Mozilla/5.0 (Windows NT 10.0; Win64; x64) AppleWebKit/537.36 (KHTML, like Gecko) Chrome/135.0.0.0 Safari/537.36 OPR/120.0.0.0","WebKit","Opera","120.0.0.0","Windows","10.0","https://app.prolific.com/","en-US,en;q=0.9,ja;q=0.8","669bba2714caa691679bff24","687a1a965b9f5b85a264363e","68931788ed4ec11ab9644917","1","669bba2714caa691679bff24","1","2025-08-06T09:07:50.214Z","","","","","","","","","","","","","","","","win-only","0","g1:NW,g2:SE","0.8","3","0","562080.2","2489.1","7499.1","25365.5","1","4","8","6","2","8","8","17","9","0.12878787878787878","5009.9","3000","525","[""down"",""right""]","{""num_key_presses"":6,""num_perfect"":5,""num_errors"":0,""num_randdir"":1,""num_randdir_good_moves"":1,""num_whilered"":0,""num_whileblue"":0,""num_blue"":0,""num_good_moves"":6}","[300.22232142857143,294.12857142857143,0.7,300.22232142857143,294.12857142857143,102.2,300.22232142857143,294.12857142857143,207.2,300.22232142857143,294.12857142857143,325.3,300.22232142857143,294.12857142857143,426.5,300.22232142857143,294.12857142857143,529.1,300.22232142857143,294.12857142857143,631.6,300.22232142857143,294.12857142857143,736.3,300.22232142857143,294.12857142857143,843.7,300.22232142857143,294.12857142857143,946.8,300.22232142857143,294.12857142857143,1047,300.22232142857143,294.12857142857143,1152.2,300.22232142857143,294.12857142857143,1252.6,300.22232142857143,294.12857142857143,1376.1,300.22232142857143,294.12857142857143,1491.9,300.22232142857143,294.12857142857143,1616.2,300.22232142857143,294.12857142857143,1717.3,300.22232142857143,294.12857142857143,1817.5,300.22232142857143,294.12857142857143,1917.7,300.22232142857143,294.12857142857143,2021.9,300.22232142857143,294.12857142857143,2122,300.22232142857143,294.12857142857143,2237.9,300.22232142857143,294.12857142857143,2342.6,300.22232142857143,294.12857142857143,2442.8,300.22232142857143,294.12857142857143,2547.6,300.22232142857143,294.12857142857143,2647.6,300.22232142857143,294.12857142857143,2759.9,300.22232142857143,294.12857142857143,2870.1,300.22232142857143,294.12857142857143,2976.8,300.22232142857143,294.12857142857143,3085.2,300.22232142857143,294.12857142857143,3186.4,300.22232142857143,294.12857142857143,3292.4,300.22232142857143,294.12857142857143,3393.1,300.22232142857143,294.12857142857143,3497,300.22232142857143,294.12857142857143,3605.8,300.22232142857143,294.12857142857143,3707.1,300.22232142857143,294.12857142857143,3808.9,300.22232142857143,294.12857142857143,3924.3,300.22232142857143,294.12857142857143,4027.1,300.22232142857143,294.12857142857143,4127.4,300.22232142857143,294.12857142857143,4227.4,300.22232142857143,294.12857142857143,4332.6,300.22232142857143,294.12857142857143,4436.6,300.22232142857143,294.12857142857143,4536.9,300.22232142857143,294.12857142857143,4641.8,300.22232142857143,294.12857142857143,4743.9,300.22232142857143,294.12857142857143,4847.7,300.22232142857143,294.12857142857143,4952.4]","[1448.8,1448.8,1000,0,448.8,""oops"",""right"",""right"",""good_move"",5186,3736.1,3241.7,1449.9,494.4,""smooth"",""right"",""right"",""good_move"",8087,2899.9,2460.1,5187.1,439.8,""smooth"",""right"",""right"",""good_move"",11489.8,3401.7,1847.2,8088.1,1554.6,""smooth"",""down"",""down"",""good_move"",14619.3,3127.6,2558.6,11491.7,569,""smooth"",""down"",""down"",""good_move"",17719.8,3096.5,2410.4,14623.4,686,""smooth"",""down"",""down"",""good_move""]"
"4372","","<div style=""width:500px;"">
  <p>What determined the result of this run?</p>
  </div>","100","html-slider-response","24","589324","0.0-7.0-1.2","148","1","2025-08-06 08:58:00","36c45c0696341be0efffe67d72a12abb","105.245.112.154","Mozilla/5.0 (Windows NT 10.0; Win64; x64) AppleWebKit/537.36 (KHTML, like Gecko) Chrome/135.0.0.0 Safari/537.36 OPR/120.0.0.0","WebKit","Opera","120.0.0.0","Windows","10.0","https://app.prolific.com/","en-US,en;q=0.9,ja;q=0.8","669bba2714caa691679bff24","687a1a965b9f5b85a264363e","68931788ed4ec11ab9644917","1","669bba2714caa691679bff24","1","2025-08-06T09:07:54.589Z","","","","AttribQ","","","","","","","","","","","50","","","","","","","","","","","","","","","","","","","","","","","","","","",""
"3116","","<div style=""width:500px;"">
  <p>How much control did you have over the ball?</p>
  </div>","100","html-slider-response","25","592443","0.0-7.0-2.2","148","1","2025-08-06 08:58:00","36c45c0696341be0efffe67d72a12abb","105.245.112.154","Mozilla/5.0 (Windows NT 10.0; Win64; x64) AppleWebKit/537.36 (KHTML, like Gecko) Chrome/135.0.0.0 Safari/537.36 OPR/120.0.0.0","WebKit","Opera","120.0.0.0","Windows","10.0","https://app.prolific.com/","en-US,en;q=0.9,ja;q=0.8","669bba2714caa691679bff24","687a1a965b9f5b85a264363e","68931788ed4ec11ab9644917","1","669bba2714caa691679bff24","1","2025-08-06T09:07:57.708Z","","","","ControlQ","","","","","","","","","","","50","","","","","","","","","","","","","","","","","","","","","","","","","","",""
"3747","","<div style=""width:500px;"">
  <p>How would you describe your current emotional state?</p>
  </div>","0","html-slider-response","26","596193","0.0-7.0-3.2","148","1","2025-08-06 08:58:00","36c45c0696341be0efffe67d72a12abb","105.245.112.154","Mozilla/5.0 (Windows NT 10.0; Win64; x64) AppleWebKit/537.36 (KHTML, like Gecko) Chrome/135.0.0.0 Safari/537.36 OPR/120.0.0.0","WebKit","Opera","120.0.0.0","Windows","10.0","https://app.prolific.com/","en-US,en;q=0.9,ja;q=0.8","669bba2714caa691679bff24","687a1a965b9f5b85a264363e","68931788ed4ec11ab9644917","1","669bba2714caa691679bff24","1","2025-08-06T09:08:01.458Z","","","","StressQ","","","","","","","","","","","50","","","","","","","","","","","","","","","","","","","","","","","","","","",""
"5870","","<div style=""width:500px;"">
  <p>What best describes how you currently feel?</p>
  </div>","100","html-slider-response","27","602066","0.0-7.0-4.2","148","1","2025-08-06 08:58:00","36c45c0696341be0efffe67d72a12abb","105.245.112.154","Mozilla/5.0 (Windows NT 10.0; Win64; x64) AppleWebKit/537.36 (KHTML, like Gecko) Chrome/135.0.0.0 Safari/537.36 OPR/120.0.0.0","WebKit","Opera","120.0.0.0","Windows","10.0","https://app.prolific.com/","en-US,en;q=0.9,ja;q=0.8","669bba2714caa691679bff24","687a1a965b9f5b85a264363e","68931788ed4ec11ab9644917","1","669bba2714caa691679bff24","1","2025-08-06T09:08:07.331Z","","","","MotivationQ","","","","","","","","","","","50","","","","","","","","","","","","","","","","","","","","","","","","","","",""
"","","","","ctl-task-cpt","28","636074","0.0-7.0-0.3","148","1","2025-08-06 08:58:00","36c45c0696341be0efffe67d72a12abb","105.245.112.154","Mozilla/5.0 (Windows NT 10.0; Win64; x64) AppleWebKit/537.36 (KHTML, like Gecko) Chrome/135.0.0.0 Safari/537.36 OPR/120.0.0.0","WebKit","Opera","120.0.0.0","Windows","10.0","https://app.prolific.com/","en-US,en;q=0.9,ja;q=0.8","669bba2714caa691679bff24","687a1a965b9f5b85a264363e","68931788ed4ec11ab9644917","1","669bba2714caa691679bff24","1","2025-08-06T09:08:41.340Z","","","","","","","","","","","","","","","","win-only","0","g1:NW,g2:SE","0.7","4","0","607590.7","2032.8","7033.8","30982.6","1","4","4","6","2","4","4","21","17","0.1590909090909091","5001","3000","510","[""down"",""right""]","{""num_key_presses"":8,""num_perfect"":5,""num_errors"":0,""num_randdir"":3,""num_randdir_good_moves"":2,""num_whilered"":0,""num_whileblue"":0,""num_blue"":0,""num_good_moves"":7}","[301.22232142857143,301.12857142857143,0.7,301.22232142857143,301.12857142857143,105.8,301.22232142857143,301.12857142857143,210.4,301.22232142857143,301.12857142857143,326.5,301.22232142857143,301.12857142857143,429.1,301.22232142857143,301.12857142857143,533.1,301.22232142857143,301.12857142857143,637.8,301.22232142857143,301.12857142857143,761.5,301.22232142857143,301.12857142857143,867.6,301.22232142857143,301.12857142857143,982.9,301.22232142857143,301.12857142857143,1091.6,301.22232142857143,301.12857142857143,1214.2,301.22232142857143,301.12857142857143,1317.7,301.22232142857143,301.12857142857143,1451.6,301.22232142857143,301.12857142857143,1553.1,301.22232142857143,301.12857142857143,1653.6,301.22232142857143,301.12857142857143,1775.4,301.22232142857143,301.12857142857143,1876.5,301.22232142857143,301.12857142857143,1979.7,301.22232142857143,301.12857142857143,2082.6,301.22232142857143,301.12857142857143,2187.2,301.22232142857143,301.12857142857143,2288.4,301.22232142857143,301.12857142857143,2399.1,301.22232142857143,301.12857142857143,2513.2,301.22232142857143,301.12857142857143,2617.6,301.22232142857143,301.12857142857143,2728.1,301.22232142857143,301.12857142857143,2829.5,301.22232142857143,301.12857142857143,2930.5,301.22232142857143,301.12857142857143,3032.9,301.22232142857143,301.12857142857143,3143.1,301.22232142857143,301.12857142857143,3265.7,301.22232142857143,301.12857142857143,3368,301.22232142857143,301.12857142857143,3469.1,301.22232142857143,301.12857142857143,3592.7,301.22232142857143,301.12857142857143,3696.3,301.22232142857143,301.12857142857143,3819.4,301.22232142857143,301.12857142857143,3927.4,301.22232142857143,301.12857142857143,4029.6,301.22232142857143,301.12857142857143,4133.4,301.22232142857143,301.12857142857143,4234.4,301.22232142857143,301.12857142857143,4345,301.22232142857143,301.12857142857143,4448.9,301.22232142857143,301.12857142857143,4550.7,301.22232142857143,301.12857142857143,4652.5,301.22232142857143,301.12857142857143,4754.4,301.22232142857143,301.12857142857143,4870.2]","[1487.9,1487.9,1000,0,487.9,""oops"",""right"",""down"",""good_move"",4643.6,3153.3,2698.4,1490.3,454.9,""smooth"",""right"",""right"",""good_move"",7822.6,3177.4,2706.9,4645.3,470.5,""smooth"",""right"",""right"",""good_move"",11084,3259.8,2683.7,7824.3,576,""smooth"",""right"",""right"",""good_move"",14770.9,3685.2,2696.6,11085.7,988.6,""oops"",""down"",""up"",""bad_move"",18122.7,3350.2,2393,14772.5,957.2,""smooth"",""down"",""down"",""good_move"",21113.9,2989.7,2551.5,18124.3,438.1,""oops"",""down"",""down"",""good_move"",23764.1,2646.1,2102.1,21118.1,543.9,""smooth"",""down"",""down"",""good_move""]"
"5044","","<div style=""width:500px;"">
  <p>What determined the result of this run?</p>
  </div>","100","html-slider-response","29","641121","0.0-7.0-1.3","148","1","2025-08-06 08:58:00","36c45c0696341be0efffe67d72a12abb","105.245.112.154","Mozilla/5.0 (Windows NT 10.0; Win64; x64) AppleWebKit/537.36 (KHTML, like Gecko) Chrome/135.0.0.0 Safari/537.36 OPR/120.0.0.0","WebKit","Opera","120.0.0.0","Windows","10.0","https://app.prolific.com/","en-US,en;q=0.9,ja;q=0.8","669bba2714caa691679bff24","687a1a965b9f5b85a264363e","68931788ed4ec11ab9644917","1","669bba2714caa691679bff24","1","2025-08-06T09:08:46.386Z","","","","AttribQ","","","","","","","","","","","50","","","","","","","","","","","","","","","","","","","","","","","","","","",""
"7625","","<div style=""width:500px;"">
  <p>How much control did you have over the ball?</p>
  </div>","93","html-slider-response","30","648749","0.0-7.0-2.3","148","1","2025-08-06 08:58:00","36c45c0696341be0efffe67d72a12abb","105.245.112.154","Mozilla/5.0 (Windows NT 10.0; Win64; x64) AppleWebKit/537.36 (KHTML, like Gecko) Chrome/135.0.0.0 Safari/537.36 OPR/120.0.0.0","WebKit","Opera","120.0.0.0","Windows","10.0","https://app.prolific.com/","en-US,en;q=0.9,ja;q=0.8","669bba2714caa691679bff24","687a1a965b9f5b85a264363e","68931788ed4ec11ab9644917","1","669bba2714caa691679bff24","1","2025-08-06T09:08:54.014Z","","","","ControlQ","","","","","","","","","","","50","","","","","","","","","","","","","","","","","","","","","","","","","","",""
"5159","","<div style=""width:500px;"">
  <p>How would you describe your current emotional state?</p>
  </div>","0","html-slider-response","31","653911","0.0-7.0-3.3","148","1","2025-08-06 08:58:00","36c45c0696341be0efffe67d72a12abb","105.245.112.154","Mozilla/5.0 (Windows NT 10.0; Win64; x64) AppleWebKit/537.36 (KHTML, like Gecko) Chrome/135.0.0.0 Safari/537.36 OPR/120.0.0.0","WebKit","Opera","120.0.0.0","Windows","10.0","https://app.prolific.com/","en-US,en;q=0.9,ja;q=0.8","669bba2714caa691679bff24","687a1a965b9f5b85a264363e","68931788ed4ec11ab9644917","1","669bba2714caa691679bff24","1","2025-08-06T09:08:59.177Z","","","","StressQ","","","","","","","","","","","50","","","","","","","","","","","","","","","","","","","","","","","","","","",""
"18145","","<div style=""width:500px;"">
  <p>What best describes how you currently feel?</p>
  </div>","100","html-slider-response","32","672059","0.0-7.0-4.3","148","1","2025-08-06 08:58:00","36c45c0696341be0efffe67d72a12abb","105.245.112.154","Mozilla/5.0 (Windows NT 10.0; Win64; x64) AppleWebKit/537.36 (KHTML, like Gecko) Chrome/135.0.0.0 Safari/537.36 OPR/120.0.0.0","WebKit","Opera","120.0.0.0","Windows","10.0","https://app.prolific.com/","en-US,en;q=0.9,ja;q=0.8","669bba2714caa691679bff24","687a1a965b9f5b85a264363e","68931788ed4ec11ab9644917","1","669bba2714caa691679bff24","1","2025-08-06T09:09:17.324Z","","","","MotivationQ","","","","","","","","","","","50","","","","","","","","","","","","","","","","","","","","","","","","","","",""
"","","","","ctl-task-cpt","33","713701","0.0-7.0-0.4","148","1","2025-08-06 08:58:00","36c45c0696341be0efffe67d72a12abb","105.245.112.154","Mozilla/5.0 (Windows NT 10.0; Win64; x64) AppleWebKit/537.36 (KHTML, like Gecko) Chrome/135.0.0.0 Safari/537.36 OPR/120.0.0.0","WebKit","Opera","120.0.0.0","Windows","10.0","https://app.prolific.com/","en-US,en;q=0.9,ja;q=0.8","669bba2714caa691679bff24","687a1a965b9f5b85a264363e","68931788ed4ec11ab9644917","1","669bba2714caa691679bff24","1","2025-08-06T09:09:58.966Z","","","","","","","","","","","","","","","","win-only","2","g1:SE,g2:NW","0.6","5","0","677584.7","17708.1","22720.8","38606.6","1","4","4","6","1","1","1","22","21","0.16666666666666666","5012.6","3000","1695","[""down"",""right""]","{""num_key_presses"":4,""num_perfect"":3,""num_errors"":0,""num_randdir"":1,""num_randdir_good_moves"":1,""num_whilered"":0,""num_whileblue"":0,""num_blue"":1,""num_good_moves"":4}","[298.22232142857143,297.12857142857143,1,298.22232142857143,297.12857142857143,129.7,298.22232142857143,297.12857142857143,233.6,298.22232142857143,297.12857142857143,338.2,298.22232142857143,297.12857142857143,439.6,298.22232142857143,297.12857142857143,543.9,298.22232142857143,297.12857142857143,648.8,298.22232142857143,297.12857142857143,754.1,298.22232142857143,297.12857142857143,882.4,298.22232142857143,297.12857142857143,986.9,298.22232142857143,297.12857142857143,1089.2,298.22232142857143,297.12857142857143,1202.3,298.22232142857143,297.12857142857143,1313.3,298.22232142857143,297.12857142857143,1434.4,298.22232142857143,297.12857142857143,1550.4,298.22232142857143,297.12857142857143,1653.4,298.22232142857143,297.12857142857143,1758.4,298.22232142857143,297.12857142857143,1864.1,298.22232142857143,297.12857142857143,1968.5,298.22232142857143,297.12857142857143,2068.7,298.22232142857143,297.12857142857143,2184.9,298.22232142857143,297.12857142857143,2287.6,298.22232142857143,297.12857142857143,2389,298.22232142857143,297.12857142857143,2509.9,298.22232142857143,297.12857142857143,2613.8,298.22232142857143,297.12857142857143,2720,298.22232142857143,297.12857142857143,2822.7,298.22232142857143,297.12857142857143,2923.1,298.22232142857143,297.12857142857143,3023.3,298.22232142857143,297.12857142857143,3127.7,298.22232142857143,297.12857142857143,3233.3,298.22232142857143,297.12857142857143,3333.5,298.22232142857143,297.12857142857143,3444.2,298.22232142857143,297.12857142857143,3544.3,298.22232142857143,297.12857142857143,3645.4,298.22232142857143,297.12857142857143,3749,298.22232142857143,297.12857142857143,3863.8,298.22232142857143,297.12857142857143,3988.1,298.22232142857143,297.12857142857143,4088.7,298.22232142857143,297.12857142857143,4221.4,298.22232142857143,297.12857142857143,4323.3,298.22232142857143,297.12857142857143,4429.6,298.22232142857143,297.12857142857143,4569.8,298.22232142857143,297.12857142857143,4673.4,298.22232142857143,297.12857142857143,4785,298.22232142857143,297.12857142857143,4885.2,298.22232142857143,297.12857142857143,4985.4]","[1402.7,1402.7,1000,0,402.7,""smooth"",""right"",""right"",""good_move"",4207.7,2803.1,2383.6,1404.6,419.5,""smooth"",""right"",""right"",""good_move"",8385.7,4176.9,3604,4208.8,572.9,""oops"",""down"",""down"",""good_move"",15697.5,7310.4,2471,11816.7,1409.8,""smooth"",""down"",""down"",""good_move""]"
"28154","","<div style=""width:500px;"">
  <p>What determined the result of this run?</p>
  </div>","98","html-slider-response","34","741859","0.0-7.0-1.4","148","1","2025-08-06 08:58:00","36c45c0696341be0efffe67d72a12abb","105.245.112.154","Mozilla/5.0 (Windows NT 10.0; Win64; x64) AppleWebKit/537.36 (KHTML, like Gecko) Chrome/135.0.0.0 Safari/537.36 OPR/120.0.0.0","WebKit","Opera","120.0.0.0","Windows","10.0","https://app.prolific.com/","en-US,en;q=0.9,ja;q=0.8","669bba2714caa691679bff24","687a1a965b9f5b85a264363e","68931788ed4ec11ab9644917","1","669bba2714caa691679bff24","1","2025-08-06T09:10:27.124Z","","","","AttribQ","","","","","","","","","","","50","","","","","","","","","","","","","","","","","","","","","","","","","","",""
"5227","","<div style=""width:500px;"">
  <p>How much control did you have over the ball?</p>
  </div>","98","html-slider-response","35","747093","0.0-7.0-2.4","148","1","2025-08-06 08:58:00","36c45c0696341be0efffe67d72a12abb","105.245.112.154","Mozilla/5.0 (Windows NT 10.0; Win64; x64) AppleWebKit/537.36 (KHTML, like Gecko) Chrome/135.0.0.0 Safari/537.36 OPR/120.0.0.0","WebKit","Opera","120.0.0.0","Windows","10.0","https://app.prolific.com/","en-US,en;q=0.9,ja;q=0.8","669bba2714caa691679bff24","687a1a965b9f5b85a264363e","68931788ed4ec11ab9644917","1","669bba2714caa691679bff24","1","2025-08-06T09:10:32.358Z","","","","ControlQ","","","","","","","","","","","50","","","","","","","","","","","","","","","","","","","","","","","","","","",""
"9718","","<div style=""width:500px;"">
  <p>How would you describe your current emotional state?</p>
  </div>","5","html-slider-response","36","756816","0.0-7.0-3.4","148","1","2025-08-06 08:58:00","36c45c0696341be0efffe67d72a12abb","105.245.112.154","Mozilla/5.0 (Windows NT 10.0; Win64; x64) AppleWebKit/537.36 (KHTML, like Gecko) Chrome/135.0.0.0 Safari/537.36 OPR/120.0.0.0","WebKit","Opera","120.0.0.0","Windows","10.0","https://app.prolific.com/","en-US,en;q=0.9,ja;q=0.8","669bba2714caa691679bff24","687a1a965b9f5b85a264363e","68931788ed4ec11ab9644917","1","669bba2714caa691679bff24","1","2025-08-06T09:10:42.081Z","","","","StressQ","","","","","","","","","","","50","","","","","","","","","","","","","","","","","","","","","","","","","","",""
"5690","","<div style=""width:500px;"">
  <p>What best describes how you currently feel?</p>
  </div>","99","html-slider-response","37","762509","0.0-7.0-4.4","148","1","2025-08-06 08:58:00","36c45c0696341be0efffe67d72a12abb","105.245.112.154","Mozilla/5.0 (Windows NT 10.0; Win64; x64) AppleWebKit/537.36 (KHTML, like Gecko) Chrome/135.0.0.0 Safari/537.36 OPR/120.0.0.0","WebKit","Opera","120.0.0.0","Windows","10.0","https://app.prolific.com/","en-US,en;q=0.9,ja;q=0.8","669bba2714caa691679bff24","687a1a965b9f5b85a264363e","68931788ed4ec11ab9644917","1","669bba2714caa691679bff24","1","2025-08-06T09:10:47.774Z","","","","MotivationQ","","","","","","","","","","","50","","","","","","","","","","","","","","","","","","","","","","","","","","",""
"","","","","ctl-task-cpt","38","847751","0.0-7.0-0.5","148","1","2025-08-06 08:58:00","36c45c0696341be0efffe67d72a12abb","105.245.112.154","Mozilla/5.0 (Windows NT 10.0; Win64; x64) AppleWebKit/537.36 (KHTML, like Gecko) Chrome/135.0.0.0 Safari/537.36 OPR/120.0.0.0","WebKit","Opera","120.0.0.0","Windows","10.0","https://app.prolific.com/","en-US,en;q=0.9,ja;q=0.8","669bba2714caa691679bff24","687a1a965b9f5b85a264363e","68931788ed4ec11ab9644917","1","669bba2714caa691679bff24","1","2025-08-06T09:12:13.016Z","","","","","","","","","","","","","","","","win-only","3","g1:SW,g2:NE","0.5","6","0","768037.2","15668.9","20675","82211.6","1","4","8","6","2","-8","-9","13","22","0.09848484848484848","5006.1","3000","-1390","[""up"",""right""]","{""num_key_presses"":15,""num_perfect"":7,""num_errors"":1,""num_randdir"":7,""num_randdir_good_moves"":2,""num_whilered"":0,""num_whileblue"":0,""num_blue"":4,""num_good_moves"":9}","[301.22232142857143,297.12857142857143,2.3,301.22232142857143,297.12857142857143,103.4,301.22232142857143,297.12857142857143,207,301.22232142857143,297.12857142857143,308,301.22232142857143,297.12857142857143,415.5,301.22232142857143,297.12857142857143,532,301.22232142857143,297.12857142857143,632.8,301.22232142857143,297.12857142857143,734.8,301.22232142857143,297.12857142857143,846.4,301.22232142857143,297.12857142857143,947.7,301.22232142857143,297.12857142857143,1048.1,301.22232142857143,297.12857142857143,1148.3,301.22232142857143,297.12857142857143,1249.3,301.22232142857143,297.12857142857143,1351.9,301.22232142857143,297.12857142857143,1452.1,301.22232142857143,297.12857142857143,1555,301.22232142857143,297.12857142857143,1660.1,301.22232142857143,297.12857142857143,1763.8,301.22232142857143,297.12857142857143,1868.8,301.22232142857143,297.12857142857143,2026.3,301.22232142857143,297.12857142857143,2126.7,301.22232142857143,297.12857142857143,2227,301.22232142857143,297.12857142857143,2327.1,301.22232142857143,297.12857142857143,2431.6,301.22232142857143,297.12857142857143,2532.5,301.22232142857143,297.12857142857143,2666.8,301.22232142857143,297.12857142857143,2772.1,301.22232142857143,297.12857142857143,2888.2,301.22232142857143,297.12857142857143,3014.8,301.22232142857143,297.12857142857143,3117.8,301.22232142857143,297.12857142857143,3223.6,301.22232142857143,297.12857142857143,3349.3,301.22232142857143,297.12857142857143,3453.8,301.22232142857143,297.12857142857143,3571.2,301.22232142857143,297.12857142857143,3671.6,301.22232142857143,297.12857142857143,3772.7,301.22232142857143,297.12857142857143,3873.3,301.22232142857143,297.12857142857143,3979.7,301.22232142857143,297.12857142857143,4112.7,301.22232142857143,297.12857142857143,4222.6,301.22232142857143,297.12857142857143,4340.1,301.22232142857143,297.12857142857143,4440.1,301.22232142857143,297.12857142857143,4540.4,301.22232142857143,297.12857142857143,4664.4,301.22232142857143,297.12857142857143,4767.8,301.22232142857143,297.12857142857143,4889.1,301.22232142857143,297.12857142857143,4994]","[1401.2,1401.2,1000,0,401.2,""oops"",""up"",""down"",""bad_move"",8877.1,7473.5,2474.5,5892.6,510,""oops"",""up"",""left"",""bad_move"",12110.9,3231.7,2540.5,8879.2,691.2,""smooth"",""right"",""right"",""good_move"",14865.2,2752.5,2329.5,12112.8,422.9,""oops"",""right"",""right"",""good_move"",21152.3,6285.6,2040.7,18519.5,592.2,""smooth"",""right"",""right"",""good_move"",24100.6,2946.5,2389.5,21154.1,557,""smooth"",""right"",""right"",""good_move"",27164.9,3062.3,2524,24102.6,538.3,""oops"",""up"",""up"",""good_move"",31072.3,3905.9,3456.6,27166.4,449.3,""oops"",""up"",""left"",""bad_move"",34490.3,3416.4,2792.5,31074.1,623.7,""smooth"",""right"",""right"",""good_move"",37672.8,3180.5,2759.3,34492.4,421.1,""smooth"",""up"",""up"",""good_move"",41142.3,3468,3002.3,37674.4,465.6,""oops"",""up"",""down"",""bad_move"",43937.2,2793.2,2324.9,41144,468.3,""smooth"",""up"",""up"",""good_move"",46307.3,2368.6,1693.9,43938.7,674.7,""smooth"",""up"",""up"",""good_move"",57132.4,10822.9,2624.2,54097.5,410.7,""oops"",""up"",""down"",""bad_move"",57637.1,503.5,2954.1,57133.7,-2450.6,""error"",""-"",""-"",""no_move""]"
"7631","","<div style=""width:500px;"">
  <p>What determined the result of this run?</p>
  </div>","1","html-slider-response","39","855385","0.0-7.0-1.5","148","1","2025-08-06 08:58:00","36c45c0696341be0efffe67d72a12abb","105.245.112.154","Mozilla/5.0 (Windows NT 10.0; Win64; x64) AppleWebKit/537.36 (KHTML, like Gecko) Chrome/135.0.0.0 Safari/537.36 OPR/120.0.0.0","WebKit","Opera","120.0.0.0","Windows","10.0","https://app.prolific.com/","en-US,en;q=0.9,ja;q=0.8","669bba2714caa691679bff24","687a1a965b9f5b85a264363e","68931788ed4ec11ab9644917","1","669bba2714caa691679bff24","1","2025-08-06T09:12:20.650Z","","","","AttribQ","","","","","","","","","","","50","","","","","","","","","","","","","","","","","","","","","","","","","","",""
"8609","","<div style=""width:500px;"">
  <p>How much control did you have over the ball?</p>
  </div>","13","html-slider-response","40","863996","0.0-7.0-2.5","148","1","2025-08-06 08:58:00","36c45c0696341be0efffe67d72a12abb","105.245.112.154","Mozilla/5.0 (Windows NT 10.0; Win64; x64) AppleWebKit/537.36 (KHTML, like Gecko) Chrome/135.0.0.0 Safari/537.36 OPR/120.0.0.0","WebKit","Opera","120.0.0.0","Windows","10.0","https://app.prolific.com/","en-US,en;q=0.9,ja;q=0.8","669bba2714caa691679bff24","687a1a965b9f5b85a264363e","68931788ed4ec11ab9644917","1","669bba2714caa691679bff24","1","2025-08-06T09:12:29.261Z","","","","ControlQ","","","","","","","","","","","50","","","","","","","","","","","","","","","","","","","","","","","","","","",""
"7067","","<div style=""width:500px;"">
  <p>How would you describe your current emotional state?</p>
  </div>","80","html-slider-response","41","871067","0.0-7.0-3.5","148","1","2025-08-06 08:58:00","36c45c0696341be0efffe67d72a12abb","105.245.112.154","Mozilla/5.0 (Windows NT 10.0; Win64; x64) AppleWebKit/537.36 (KHTML, like Gecko) Chrome/135.0.0.0 Safari/537.36 OPR/120.0.0.0","WebKit","Opera","120.0.0.0","Windows","10.0","https://app.prolific.com/","en-US,en;q=0.9,ja;q=0.8","669bba2714caa691679bff24","687a1a965b9f5b85a264363e","68931788ed4ec11ab9644917","1","669bba2714caa691679bff24","1","2025-08-06T09:12:36.332Z","","","","StressQ","","","","","","","","","","","50","","","","","","","","","","","","","","","","","","","","","","","","","","",""
"15577","","<div style=""width:500px;"">
  <p>What best describes how you currently feel?</p>
  </div>","39","html-slider-response","42","886648","0.0-7.0-4.5","148","1","2025-08-06 08:58:00","36c45c0696341be0efffe67d72a12abb","105.245.112.154","Mozilla/5.0 (Windows NT 10.0; Win64; x64) AppleWebKit/537.36 (KHTML, like Gecko) Chrome/135.0.0.0 Safari/537.36 OPR/120.0.0.0","WebKit","Opera","120.0.0.0","Windows","10.0","https://app.prolific.com/","en-US,en;q=0.9,ja;q=0.8","669bba2714caa691679bff24","687a1a965b9f5b85a264363e","68931788ed4ec11ab9644917","1","669bba2714caa691679bff24","1","2025-08-06T09:12:51.913Z","","","","MotivationQ","","","","","","","","","","","50","","","","","","","","","","","","","","","","","","","","","","","","","","",""
"","","","","ctl-task-cpt","43","1040854","0.0-7.0-0.6","148","1","2025-08-06 08:58:00","36c45c0696341be0efffe67d72a12abb","105.245.112.154","Mozilla/5.0 (Windows NT 10.0; Win64; x64) AppleWebKit/537.36 (KHTML, like Gecko) Chrome/135.0.0.0 Safari/537.36 OPR/120.0.0.0","WebKit","Opera","120.0.0.0","Windows","10.0","https://app.prolific.com/","en-US,en;q=0.9,ja;q=0.8","669bba2714caa691679bff24","687a1a965b9f5b85a264363e","68931788ed4ec11ab9644917","1","669bba2714caa691679bff24","1","2025-08-06T09:15:26.119Z","","","","","","","","","","","","","","","","win-only","3","g1:SW,g2:NE","0.4","7","0","892177.5","146142.2","-9999","151181.5","1","4","4","6","-9999","-4","-4","9","13","0.06818181818181818","-9999","3000","3000","[]","{""num_key_presses"":0,""num_perfect"":0,""num_errors"":0,""num_randdir"":0,""num_randdir_good_moves"":0,""num_whilered"":0,""num_whileblue"":0,""num_blue"":0,""num_good_moves"":0}","[299.22232142857143,296.12857142857143,1,299.22232142857143,296.12857142857143,146.9,299.22232142857143,296.12857142857143,303.6,299.22232142857143,296.12857142857143,404.8,299.22232142857143,296.12857142857143,539.1,299.22232142857143,296.12857142857143,643.8,299.22232142857143,296.12857142857143,744.2,299.22232142857143,296.12857142857143,849,299.22232142857143,296.12857142857143,949.6,299.22232142857143,296.12857142857143,1068.6,299.22232142857143,296.12857142857143,1173.5,299.22232142857143,296.12857142857143,1275.3,299.22232142857143,296.12857142857143,1379.3,299.22232142857143,296.12857142857143,1484.5,299.22232142857143,296.12857142857143,1590.8,299.22232142857143,296.12857142857143,1697.6,299.22232142857143,296.12857142857143,1800.5,299.22232142857143,296.12857142857143,1934.4,299.22232142857143,296.12857142857143,2057.1,299.22232142857143,296.12857142857143,2183.1,299.22232142857143,296.12857142857143,2290.2,299.22232142857143,296.12857142857143,2391.3,299.22232142857143,296.12857142857143,2494.6,299.22232142857143,296.12857142857143,2669.8,299.22232142857143,296.12857142857143,2770,299.22232142857143,296.12857142857143,2873.9,299.22232142857143,296.12857142857143,2977.1,299.22232142857143,296.12857142857143,3080.3,299.22232142857143,296.12857142857143,3210.4,299.22232142857143,296.12857142857143,3334.4,299.22232142857143,296.12857142857143,3440.8,299.22232142857143,296.12857142857143,3544.7,299.22232142857143,296.12857142857143,3646.7,299.22232142857143,296.12857142857143,3750.1,299.22232142857143,296.12857142857143,3854,299.22232142857143,296.12857142857143,3955.4,299.22232142857143,296.12857142857143,4088.5,299.22232142857143,296.12857142857143,4189.6,299.22232142857143,296.12857142857143,4290.1,299.22232142857143,296.12857142857143,4395.5,299.22232142857143,296.12857142857143,4500,299.22232142857143,296.12857142857143,4600.3,299.22232142857143,296.12857142857143,4722.4,299.22232142857143,296.12857142857143,4823.6,299.22232142857143,296.12857142857143,4945.7]","[]"
"16254","","<div style=""width:500px;"">
  <p>What determined the result of this run?</p>
  </div>","5","html-slider-response","44","1057111","0.0-7.0-1.6","148","1","2025-08-06 08:58:00","36c45c0696341be0efffe67d72a12abb","105.245.112.154","Mozilla/5.0 (Windows NT 10.0; Win64; x64) AppleWebKit/537.36 (KHTML, like Gecko) Chrome/135.0.0.0 Safari/537.36 OPR/120.0.0.0","WebKit","Opera","120.0.0.0","Windows","10.0","https://app.prolific.com/","en-US,en;q=0.9,ja;q=0.8","669bba2714caa691679bff24","687a1a965b9f5b85a264363e","68931788ed4ec11ab9644917","1","669bba2714caa691679bff24","1","2025-08-06T09:15:42.376Z","","","","AttribQ","","","","","","","","","","","50","","","","","","","","","","","","","","","","","","","","","","","","","","",""
"10421","","<div style=""width:500px;"">
  <p>How much control did you have over the ball?</p>
  </div>","30","html-slider-response","45","1067537","0.0-7.0-2.6","148","1","2025-08-06 08:58:00","36c45c0696341be0efffe67d72a12abb","105.245.112.154","Mozilla/5.0 (Windows NT 10.0; Win64; x64) AppleWebKit/537.36 (KHTML, like Gecko) Chrome/135.0.0.0 Safari/537.36 OPR/120.0.0.0","WebKit","Opera","120.0.0.0","Windows","10.0","https://app.prolific.com/","en-US,en;q=0.9,ja;q=0.8","669bba2714caa691679bff24","687a1a965b9f5b85a264363e","68931788ed4ec11ab9644917","1","669bba2714caa691679bff24","1","2025-08-06T09:15:52.802Z","","","","ControlQ","","","","","","","","","","","50","","","","","","","","","","","","","","","","","","","","","","","","","","",""
"11336","","<div style=""width:500px;"">
  <p>How would you describe your current emotional state?</p>
  </div>","37","html-slider-response","46","1078876","0.0-7.0-3.6","148","1","2025-08-06 08:58:00","36c45c0696341be0efffe67d72a12abb","105.245.112.154","Mozilla/5.0 (Windows NT 10.0; Win64; x64) AppleWebKit/537.36 (KHTML, like Gecko) Chrome/135.0.0.0 Safari/537.36 OPR/120.0.0.0","WebKit","Opera","120.0.0.0","Windows","10.0","https://app.prolific.com/","en-US,en;q=0.9,ja;q=0.8","669bba2714caa691679bff24","687a1a965b9f5b85a264363e","68931788ed4ec11ab9644917","1","669bba2714caa691679bff24","1","2025-08-06T09:16:04.142Z","","","","StressQ","","","","","","","","","","","50","","","","","","","","","","","","","","","","","","","","","","","","","","",""
"22464","","<div style=""width:500px;"">
  <p>What best describes how you currently feel?</p>
  </div>","40","html-slider-response","47","1101345","0.0-7.0-4.6","148","1","2025-08-06 08:58:00","36c45c0696341be0efffe67d72a12abb","105.245.112.154","Mozilla/5.0 (Windows NT 10.0; Win64; x64) AppleWebKit/537.36 (KHTML, like Gecko) Chrome/135.0.0.0 Safari/537.36 OPR/120.0.0.0","WebKit","Opera","120.0.0.0","Windows","10.0","https://app.prolific.com/","en-US,en;q=0.9,ja;q=0.8","669bba2714caa691679bff24","687a1a965b9f5b85a264363e","68931788ed4ec11ab9644917","1","669bba2714caa691679bff24","1","2025-08-06T09:16:26.610Z","","","","MotivationQ","","","","","","","","","","","50","","","","","","","","","","","","","","","","","","","","","","","","","","",""
"","","","","ctl-task-cpt","48","1213629","0.0-7.0-0.7","148","1","2025-08-06 08:58:00","36c45c0696341be0efffe67d72a12abb","105.245.112.154","Mozilla/5.0 (Windows NT 10.0; Win64; x64) AppleWebKit/537.36 (KHTML, like Gecko) Chrome/135.0.0.0 Safari/537.36 OPR/120.0.0.0","WebKit","Opera","120.0.0.0","Windows","10.0","https://app.prolific.com/","en-US,en;q=0.9,ja;q=0.8","669bba2714caa691679bff24","687a1a965b9f5b85a264363e","68931788ed4ec11ab9644917","1","669bba2714caa691679bff24","1","2025-08-06T09:18:18.894Z","","","","","","","","","","","","","","","","win-only","3","g1:SW,g2:NE","0.3","8","0","1106877.3","33209.5","38215","109263","1","4","8","6","2","-8","-10","0","9","0","5005.5","3000","-1140","[""up"",""right""]","{""num_key_presses"":15,""num_perfect"":3,""num_errors"":2,""num_randdir"":10,""num_randdir_good_moves"":3,""num_whilered"":0,""num_whileblue"":0,""num_blue"":7,""num_good_moves"":6}","[304.22232142857143,298.12857142857143,1,304.22232142857143,298.12857142857143,102.1,304.22232142857143,298.12857142857143,204.1,304.22232142857143,298.12857142857143,307.4,304.22232142857143,298.12857142857143,440.6,304.22232142857143,298.12857142857143,603.7,304.22232142857143,298.12857142857143,708.5,304.22232142857143,298.12857142857143,844.1,304.22232142857143,298.12857142857143,977.7,304.22232142857143,298.12857142857143,1108.2,304.22232142857143,298.12857142857143,1233.1,304.22232142857143,298.12857142857143,1368.7,304.22232142857143,298.12857142857143,1498,304.22232142857143,298.12857142857143,1602.7,304.22232142857143,298.12857142857143,1727.8,304.22232142857143,298.12857142857143,1864.5,304.22232142857143,298.12857142857143,1973.5,304.22232142857143,298.12857142857143,2076.6,304.22232142857143,298.12857142857143,2211.6,304.22232142857143,298.12857142857143,2319.8,304.22232142857143,298.12857142857143,2430.6,304.22232142857143,298.12857142857143,2562.5,304.22232142857143,298.12857142857143,2685.8,304.22232142857143,298.12857142857143,2810.1,304.22232142857143,298.12857142857143,2912.3,304.22232142857143,298.12857142857143,3012.5,304.22232142857143,298.12857142857143,3113.6,304.22232142857143,298.12857142857143,3238.6,304.22232142857143,298.12857142857143,3374.3,304.22232142857143,298.12857142857143,3476.9,304.22232142857143,298.12857142857143,3578.7,304.22232142857143,298.12857142857143,3679.8,304.22232142857143,298.12857142857143,3822.4,304.22232142857143,298.12857142857143,3936.1,304.22232142857143,298.12857142857143,4074.2,304.22232142857143,298.12857142857143,4176.1,304.22232142857143,298.12857142857143,4300.1,304.22232142857143,298.12857142857143,4404.9,304.22232142857143,298.12857142857143,4507.5,304.22232142857143,298.12857142857143,4628.6,304.22232142857143,298.12857142857143,4737.9,304.22232142857143,298.12857142857143,4871.4,304.22232142857143,298.12857142857143,4995.3]","[818.1,818.2,1000,0,-181.8,""error"",""-"",""-"",""no_move"",4778,3958.1,2341,1844.8,592.2,""oops"",""right"",""down"",""bad_move"",8217.4,3437.5,2883.2,4780,554.3,""oops"",""right"",""down"",""bad_move"",11349,3130.2,2687.6,8218.8,442.6,""oops"",""right"",""left"",""bad_move"",14105.8,2755,2181.6,11350.8,573.4,""smooth"",""up"",""up"",""good_move"",20439,6331.4,2420.4,17498.8,519.8,""oops"",""up"",""up"",""good_move"",29523,9083.1,2003.7,27060.1,459.2,""smooth"",""up"",""up"",""good_move"",36364.4,6839.4,2374.3,33380.1,610,""oops"",""up"",""left"",""bad_move"",39353.4,2987.5,1965.9,36365.9,1021.6,""oops"",""up"",""down"",""bad_move"",40724.2,1369.3,2492,39354.9,-1122.7,""error"",""-"",""-"",""no_move"",48002.3,7277.4,2404.6,44680.8,916.9,""oops"",""right"",""down"",""bad_move"",51281.4,3277.8,2526.5,48003.7,751.3,""smooth"",""right"",""right"",""good_move"",54629.3,3346.4,2798.9,51283,547.4,""oops"",""up"",""up"",""good_move"",58057.2,3426,2688.2,54631.2,737.8,""oops"",""up"",""up"",""good_move"",61613.1,3553.2,2955.7,58059.9,597.5,""oops"",""up"",""down"",""bad_move""]"
"8503","","<div style=""width:500px;"">
  <p>What determined the result of this run?</p>
  </div>","5","html-slider-response","49","1222134","0.0-7.0-1.7","148","1","2025-08-06 08:58:00","36c45c0696341be0efffe67d72a12abb","105.245.112.154","Mozilla/5.0 (Windows NT 10.0; Win64; x64) AppleWebKit/537.36 (KHTML, like Gecko) Chrome/135.0.0.0 Safari/537.36 OPR/120.0.0.0","WebKit","Opera","120.0.0.0","Windows","10.0","https://app.prolific.com/","en-US,en;q=0.9,ja;q=0.8","669bba2714caa691679bff24","687a1a965b9f5b85a264363e","68931788ed4ec11ab9644917","1","669bba2714caa691679bff24","1","2025-08-06T09:18:27.399Z","","","","AttribQ","","","","","","","","","","","50","","","","","","","","","","","","","","","","","","","","","","","","","","",""
"9813","","<div style=""width:500px;"">
  <p>How much control did you have over the ball?</p>
  </div>","2","html-slider-response","50","1231951","0.0-7.0-2.7","148","1","2025-08-06 08:58:00","36c45c0696341be0efffe67d72a12abb","105.245.112.154","Mozilla/5.0 (Windows NT 10.0; Win64; x64) AppleWebKit/537.36 (KHTML, like Gecko) Chrome/135.0.0.0 Safari/537.36 OPR/120.0.0.0","WebKit","Opera","120.0.0.0","Windows","10.0","https://app.prolific.com/","en-US,en;q=0.9,ja;q=0.8","669bba2714caa691679bff24","687a1a965b9f5b85a264363e","68931788ed4ec11ab9644917","1","669bba2714caa691679bff24","1","2025-08-06T09:18:37.216Z","","","","ControlQ","","","","","","","","","","","50","","","","","","","","","","","","","","","","","","","","","","","","","","",""
"22394","","<div style=""width:500px;"">
  <p>How would you describe your current emotional state?</p>
  </div>","84","html-slider-response","51","1254349","0.0-7.0-3.7","148","1","2025-08-06 08:58:00","36c45c0696341be0efffe67d72a12abb","105.245.112.154","Mozilla/5.0 (Windows NT 10.0; Win64; x64) AppleWebKit/537.36 (KHTML, like Gecko) Chrome/135.0.0.0 Safari/537.36 OPR/120.0.0.0","WebKit","Opera","120.0.0.0","Windows","10.0","https://app.prolific.com/","en-US,en;q=0.9,ja;q=0.8","669bba2714caa691679bff24","687a1a965b9f5b85a264363e","68931788ed4ec11ab9644917","1","669bba2714caa691679bff24","1","2025-08-06T09:18:59.614Z","","","","StressQ","","","","","","","","","","","50","","","","","","","","","","","","","","","","","","","","","","","","","","",""
"19708","","<div style=""width:500px;"">
  <p>What best describes how you currently feel?</p>
  </div>","50","html-slider-response","52","1274061","0.0-7.0-4.7","148","1","2025-08-06 08:58:00","36c45c0696341be0efffe67d72a12abb","105.245.112.154","Mozilla/5.0 (Windows NT 10.0; Win64; x64) AppleWebKit/537.36 (KHTML, like Gecko) Chrome/135.0.0.0 Safari/537.36 OPR/120.0.0.0","WebKit","Opera","120.0.0.0","Windows","10.0","https://app.prolific.com/","en-US,en;q=0.9,ja;q=0.8","669bba2714caa691679bff24","687a1a965b9f5b85a264363e","68931788ed4ec11ab9644917","1","669bba2714caa691679bff24","1","2025-08-06T09:19:19.327Z","","","","MotivationQ","","","","","","","","","","","50","","","","","","","","","","","","","","","","","","","","","","","","","","",""
"","","","","ctl-task-cpt","53","1406440","0.0-7.0-0.8","148","1","2025-08-06 08:58:00","36c45c0696341be0efffe67d72a12abb","105.245.112.154","Mozilla/5.0 (Windows NT 10.0; Win64; x64) AppleWebKit/537.36 (KHTML, like Gecko) Chrome/135.0.0.0 Safari/537.36 OPR/120.0.0.0","WebKit","Opera","120.0.0.0","Windows","10.0","https://app.prolific.com/","en-US,en;q=0.9,ja;q=0.8","669bba2714caa691679bff24","687a1a965b9f5b85a264363e","68931788ed4ec11ab9644917","1","669bba2714caa691679bff24","1","2025-08-06T09:21:31.705Z","","","","","","","","","","","","","","","","win-only","1","g1:NE,g2:SW","0.4","9","0","1279588.6","12285","17292.9","129355.8","1","4","8","6","2","-8","-8","0","0","0","5007.9","3000","-940","[""down"",""left""]","{""num_key_presses"":21,""num_perfect"":9,""num_errors"":0,""num_randdir"":12,""num_randdir_good_moves"":4,""num_whilered"":0,""num_whileblue"":0,""num_blue"":1,""num_good_moves"":13}","[301.22232142857143,293.12857142857143,1.4,301.22232142857143,293.12857142857143,104.2,301.22232142857143,293.12857142857143,352.8,301.22232142857143,293.12857142857143,459,301.22232142857143,293.12857142857143,568.3,301.22232142857143,293.12857142857143,668.7,301.22232142857143,293.12857142857143,844.7,301.22232142857143,293.12857142857143,946.5,301.22232142857143,293.12857142857143,1047.2,301.22232142857143,293.12857142857143,1284.4,301.22232142857143,293.12857142857143,1390,301.22232142857143,293.12857142857143,1498.7,301.22232142857143,293.12857142857143,1600.4,301.22232142857143,293.12857142857143,1704.1,301.22232142857143,293.12857142857143,1872.9,301.22232142857143,293.12857142857143,1982.7,301.22232142857143,293.12857142857143,2082.7,301.22232142857143,293.12857142857143,2193.1,301.22232142857143,293.12857142857143,2458.4,301.22232142857143,293.12857142857143,2568.3,301.22232142857143,293.12857142857143,2671.1,301.22232142857143,293.12857142857143,2774.3,301.22232142857143,293.12857142857143,2880.3,301.22232142857143,293.12857142857143,2983.4,301.22232142857143,293.12857142857143,3088.7,301.22232142857143,293.12857142857143,3276.2,301.22232142857143,293.12857142857143,3380.7,301.22232142857143,293.12857142857143,3481.6,301.22232142857143,293.12857142857143,3584.3,301.22232142857143,293.12857142857143,3690.4,301.22232142857143,293.12857142857143,3794.2,301.22232142857143,293.12857142857143,3898.2,301.22232142857143,293.12857142857143,4052.5,301.22232142857143,293.12857142857143,4153.9,301.22232142857143,293.12857142857143,4261.7,301.22232142857143,293.12857142857143,4371.5,301.22232142857143,293.12857142857143,4472.6,301.22232142857143,293.12857142857143,4574.1,301.22232142857143,293.12857142857143,4805.6,301.22232142857143,293.12857142857143,4913.5]","[1632.9,1632.9,1000,0,632.9,""oops"",""left"",""down"",""good_move"",5619.5,3985.1,3120.2,1634.5,864.8,""smooth"",""down"",""down"",""good_move"",8326.1,2704.2,2044.9,5621.9,659.3,""oops"",""down"",""down"",""good_move"",14902.6,6574.2,2884.6,11326.2,691.8,""smooth"",""left"",""left"",""good_move"",18719.6,3814.9,2457.4,14904.8,1357.5,""oops"",""left"",""right"",""bad_move"",21607.1,2885,2155.1,18722.1,729.9,""smooth"",""left"",""left"",""good_move"",26909.7,5300.3,2126.5,21609.5,3173.7,""smooth"",""left"",""left"",""good_move"",32564.5,5652.7,2208.6,26911.8,3444.1,""oops"",""left"",""right"",""bad_move"",36062.3,3495.7,2865.2,32566.6,630.5,""oops"",""left"",""right"",""bad_move"",39353.9,3290.2,2737,36063.8,553.1,""oops"",""left"",""right"",""bad_move"",42616.4,3260.4,2715.4,39356,545,""smooth"",""left"",""left"",""good_move"",48574.8,5956,1739.4,42618.8,4216.6,""oops"",""left"",""up"",""bad_move"",56540.9,7963.8,1776.4,48577.1,6187.5,""oops"",""left"",""down"",""good_move"",59783.6,3240.5,2572.6,56543.2,667.8,""oops"",""left"",""right"",""bad_move"",63635.4,3847.9,2270.8,59787.5,1577.1,""smooth"",""left"",""left"",""good_move"",72252.9,8613.1,3501.3,63639.8,5111.8,""smooth"",""left"",""left"",""good_move"",81200.7,8945.8,1686.5,72254.9,7259.3,""oops"",""left"",""right"",""bad_move"",84641.5,3438.7,2768.5,81202.8,670.2,""smooth"",""left"",""left"",""good_move"",93805.9,9162.4,2296.7,84643.7,6865.5,""oops"",""left"",""left"",""good_move"",103285.9,9478.2,2397.5,93807.9,7080.5,""oops"",""left"",""up"",""bad_move"",108898.1,5610.1,2135.4,103288,3474.7,""smooth"",""down"",""down"",""good_move""]"
"3635","","<div style=""width:500px;"">
  <p>What determined the result of this run?</p>
  </div>","1","html-slider-response","54","1410078","0.0-7.0-1.8","148","1","2025-08-06 08:58:00","36c45c0696341be0efffe67d72a12abb","105.245.112.154","Mozilla/5.0 (Windows NT 10.0; Win64; x64) AppleWebKit/537.36 (KHTML, like Gecko) Chrome/135.0.0.0 Safari/537.36 OPR/120.0.0.0","WebKit","Opera","120.0.0.0","Windows","10.0","https://app.prolific.com/","en-US,en;q=0.9,ja;q=0.8","669bba2714caa691679bff24","687a1a965b9f5b85a264363e","68931788ed4ec11ab9644917","1","669bba2714caa691679bff24","1","2025-08-06T09:21:35.344Z","","","","AttribQ","","","","","","","","","","","50","","","","","","","","","","","","","","","","","","","","","","","","","","",""
"3440","","<div style=""width:500px;"">
  <p>How much control did you have over the ball?</p>
  </div>","3","html-slider-response","55","1413523","0.0-7.0-2.8","148","1","2025-08-06 08:58:00","36c45c0696341be0efffe67d72a12abb","105.245.112.154","Mozilla/5.0 (Windows NT 10.0; Win64; x64) AppleWebKit/537.36 (KHTML, like Gecko) Chrome/135.0.0.0 Safari/537.36 OPR/120.0.0.0","WebKit","Opera","120.0.0.0","Windows","10.0","https://app.prolific.com/","en-US,en;q=0.9,ja;q=0.8","669bba2714caa691679bff24","687a1a965b9f5b85a264363e","68931788ed4ec11ab9644917","1","669bba2714caa691679bff24","1","2025-08-06T09:21:38.788Z","","","","ControlQ","","","","","","","","","","","50","","","","","","","","","","","","","","","","","","","","","","","","","","",""
"4354","","<div style=""width:500px;"">
  <p>How would you describe your current emotional state?</p>
  </div>","54","html-slider-response","56","1417883","0.0-7.0-3.8","148","1","2025-08-06 08:58:00","36c45c0696341be0efffe67d72a12abb","105.245.112.154","Mozilla/5.0 (Windows NT 10.0; Win64; x64) AppleWebKit/537.36 (KHTML, like Gecko) Chrome/135.0.0.0 Safari/537.36 OPR/120.0.0.0","WebKit","Opera","120.0.0.0","Windows","10.0","https://app.prolific.com/","en-US,en;q=0.9,ja;q=0.8","669bba2714caa691679bff24","687a1a965b9f5b85a264363e","68931788ed4ec11ab9644917","1","669bba2714caa691679bff24","1","2025-08-06T09:21:43.149Z","","","","StressQ","","","","","","","","","","","50","","","","","","","","","","","","","","","","","","","","","","","","","","",""
"6129","","<div style=""width:500px;"">
  <p>What best describes how you currently feel?</p>
  </div>","47","html-slider-response","57","1424018","0.0-7.0-4.8","148","1","2025-08-06 08:58:00","36c45c0696341be0efffe67d72a12abb","105.245.112.154","Mozilla/5.0 (Windows NT 10.0; Win64; x64) AppleWebKit/537.36 (KHTML, like Gecko) Chrome/135.0.0.0 Safari/537.36 OPR/120.0.0.0","WebKit","Opera","120.0.0.0","Windows","10.0","https://app.prolific.com/","en-US,en;q=0.9,ja;q=0.8","669bba2714caa691679bff24","687a1a965b9f5b85a264363e","68931788ed4ec11ab9644917","1","669bba2714caa691679bff24","1","2025-08-06T09:21:49.283Z","","","","MotivationQ","","","","","","","","","","","50","","","","","","","","","","","","","","","","","","","","","","","","","","",""
"","","","","ctl-task-cpt","58","1514858","0.0-7.0-0.9","148","1","2025-08-06 08:58:00","36c45c0696341be0efffe67d72a12abb","105.245.112.154","Mozilla/5.0 (Windows NT 10.0; Win64; x64) AppleWebKit/537.36 (KHTML, like Gecko) Chrome/135.0.0.0 Safari/537.36 OPR/120.0.0.0","WebKit","Opera","120.0.0.0","Windows","10.0","https://app.prolific.com/","en-US,en;q=0.9,ja;q=0.8","669bba2714caa691679bff24","687a1a965b9f5b85a264363e","68931788ed4ec11ab9644917","1","669bba2714caa691679bff24","1","2025-08-06T09:23:20.123Z","","","","","","","","","","","","","","","","win-only","2","g1:SE,g2:NW","0.5","10","0","1429545.1","3342.2","8353","87815.2","1","4","4","6","2","4","4","4","0","0.030303030303030304","5010.8","3000","2575","[""left"",""up""]","{""num_key_presses"":8,""num_perfect"":5,""num_errors"":0,""num_randdir"":3,""num_randdir_good_moves"":2,""num_whilered"":0,""num_whileblue"":0,""num_blue"":5,""num_good_moves"":7}","[297.22232142857143,300.12857142857143,0.7,297.22232142857143,300.12857142857143,110,297.22232142857143,300.12857142857143,217.3,297.22232142857143,300.12857142857143,326.1,297.22232142857143,300.12857142857143,430.3,297.22232142857143,300.12857142857143,533.8,297.22232142857143,300.12857142857143,642.6,297.22232142857143,300.12857142857143,743,297.22232142857143,300.12857142857143,845.4,297.22232142857143,300.12857142857143,946,297.22232142857143,300.12857142857143,1049.5,297.22232142857143,300.12857142857143,1156.3,297.22232142857143,300.12857142857143,1256.6,297.22232142857143,300.12857142857143,1356.9,297.22232142857143,300.12857142857143,1460.2,297.22232142857143,300.12857142857143,1567.9,297.22232142857143,300.12857142857143,1670.4,297.22232142857143,300.12857142857143,1772.8,297.22232142857143,300.12857142857143,1872.8,297.22232142857143,300.12857142857143,1973.6,297.22232142857143,300.12857142857143,2075,297.22232142857143,300.12857142857143,2184.4,297.22232142857143,300.12857142857143,2284.6,297.22232142857143,300.12857142857143,2390,297.22232142857143,300.12857142857143,2490.4,297.22232142857143,300.12857142857143,2602.4,297.22232142857143,300.12857142857143,2703.9,297.22232142857143,300.12857142857143,2837.2,297.22232142857143,300.12857142857143,2937.9,297.22232142857143,300.12857142857143,3044.9,297.22232142857143,300.12857142857143,3174,297.22232142857143,300.12857142857143,3319.5,297.22232142857143,300.12857142857143,3425.5,297.22232142857143,300.12857142857143,3537.4,297.22232142857143,300.12857142857143,3653.9,297.22232142857143,300.12857142857143,3757.1,297.22232142857143,300.12857142857143,3890.1,297.22232142857143,300.12857142857143,3993.8,297.22232142857143,300.12857142857143,4099.9,297.22232142857143,300.12857142857143,4208.4,297.22232142857143,300.12857142857143,4313.3,297.22232142857143,300.12857142857143,4415.6,297.22232142857143,300.12857142857143,4521.3,297.22232142857143,300.12857142857143,4632.4,297.22232142857143,300.12857142857143,4736.8,297.22232142857143,300.12857142857143,4838.7,297.22232142857143,300.12857142857143,4942.1]","[1485.8,1485.8,1000,0,485.8,""smooth"",""left"",""left"",""good_move"",8007.3,6519.5,2088,1487.9,4431.5,""oops"",""up"",""up"",""good_move"",16405.2,8393.6,2103.2,8011.6,6290.4,""smooth"",""left"",""left"",""good_move"",25627.6,9220.4,2560.8,16407.2,6659.6,""smooth"",""up"",""up"",""good_move"",35341.5,9711.8,2702.4,25629.7,7009.4,""oops"",""left"",""right"",""bad_move"",46168.8,10826,2707.4,42983,478.5,""smooth"",""up"",""up"",""good_move"",64403.8,18233.1,3169.4,60318,916.4,""smooth"",""left"",""left"",""good_move"",78377.2,13972.2,2380.1,75322,675.1,""oops"",""left"",""left"",""good_move""]"
"41309","","<div style=""width:500px;"">
  <p>What determined the result of this run?</p>
  </div>","2","html-slider-response","59","1556171","0.0-7.0-1.9","148","1","2025-08-06 08:58:00","36c45c0696341be0efffe67d72a12abb","105.245.112.154","Mozilla/5.0 (Windows NT 10.0; Win64; x64) AppleWebKit/537.36 (KHTML, like Gecko) Chrome/135.0.0.0 Safari/537.36 OPR/120.0.0.0","WebKit","Opera","120.0.0.0","Windows","10.0","https://app.prolific.com/","en-US,en;q=0.9,ja;q=0.8","669bba2714caa691679bff24","687a1a965b9f5b85a264363e","68931788ed4ec11ab9644917","1","669bba2714caa691679bff24","1","2025-08-06T09:24:01.436Z","","","","AttribQ","","","","","","","","","","","50","","","","","","","","","","","","","","","","","","","","","","","","","","",""
"3138","","<div style=""width:500px;"">
  <p>How much control did you have over the ball?</p>
  </div>","19","html-slider-response","60","1559317","0.0-7.0-2.9","148","1","2025-08-06 08:58:00","36c45c0696341be0efffe67d72a12abb","105.245.112.154","Mozilla/5.0 (Windows NT 10.0; Win64; x64) AppleWebKit/537.36 (KHTML, like Gecko) Chrome/135.0.0.0 Safari/537.36 OPR/120.0.0.0","WebKit","Opera","120.0.0.0","Windows","10.0","https://app.prolific.com/","en-US,en;q=0.9,ja;q=0.8","669bba2714caa691679bff24","687a1a965b9f5b85a264363e","68931788ed4ec11ab9644917","1","669bba2714caa691679bff24","1","2025-08-06T09:24:04.582Z","","","","ControlQ","","","","","","","","","","","50","","","","","","","","","","","","","","","","","","","","","","","","","","",""
"9386","","<div style=""width:500px;"">
  <p>How would you describe your current emotional state?</p>
  </div>","47","html-slider-response","61","1568710","0.0-7.0-3.9","148","1","2025-08-06 08:58:00","36c45c0696341be0efffe67d72a12abb","105.245.112.154","Mozilla/5.0 (Windows NT 10.0; Win64; x64) AppleWebKit/537.36 (KHTML, like Gecko) Chrome/135.0.0.0 Safari/537.36 OPR/120.0.0.0","WebKit","Opera","120.0.0.0","Windows","10.0","https://app.prolific.com/","en-US,en;q=0.9,ja;q=0.8","669bba2714caa691679bff24","687a1a965b9f5b85a264363e","68931788ed4ec11ab9644917","1","669bba2714caa691679bff24","1","2025-08-06T09:24:13.975Z","","","","StressQ","","","","","","","","","","","50","","","","","","","","","","","","","","","","","","","","","","","","","","",""
"4635","","<div style=""width:500px;"">
  <p>What best describes how you currently feel?</p>
  </div>","45","html-slider-response","62","1573352","0.0-7.0-4.9","148","1","2025-08-06 08:58:00","36c45c0696341be0efffe67d72a12abb","105.245.112.154","Mozilla/5.0 (Windows NT 10.0; Win64; x64) AppleWebKit/537.36 (KHTML, like Gecko) Chrome/135.0.0.0 Safari/537.36 OPR/120.0.0.0","WebKit","Opera","120.0.0.0","Windows","10.0","https://app.prolific.com/","en-US,en;q=0.9,ja;q=0.8","669bba2714caa691679bff24","687a1a965b9f5b85a264363e","68931788ed4ec11ab9644917","1","669bba2714caa691679bff24","1","2025-08-06T09:24:18.617Z","","","","MotivationQ","","","","","","","","","","","50","","","","","","","","","","","","","","","","","","","","","","","","","","",""
"","","","","ctl-task-cpt","63","1629517","0.0-7.0-0.10","148","1","2025-08-06 08:58:00","36c45c0696341be0efffe67d72a12abb","105.245.112.154","Mozilla/5.0 (Windows NT 10.0; Win64; x64) AppleWebKit/537.36 (KHTML, like Gecko) Chrome/135.0.0.0 Safari/537.36 OPR/120.0.0.0","WebKit","Opera","120.0.0.0","Windows","10.0","https://app.prolific.com/","en-US,en;q=0.9,ja;q=0.8","669bba2714caa691679bff24","687a1a965b9f5b85a264363e","68931788ed4ec11ab9644917","1","669bba2714caa691679bff24","1","2025-08-06T09:25:14.782Z","","","","","","","","","","","","","","","","win-only","1","g1:NE,g2:SW","0.6","11","0","1578877.1","7414.2","12441.3","53143.9","1","4","4","6","2","4","4","8","4","0.06060606060606061","5027.1","3000","1390","[""down"",""left""]","{""num_key_presses"":8,""num_perfect"":5,""num_errors"":0,""num_randdir"":3,""num_randdir_good_moves"":2,""num_whilered"":0,""num_whileblue"":0,""num_blue"":3,""num_good_moves"":7}","[302.22232142857143,295.12857142857143,2.2,302.22232142857143,295.12857142857143,216.3,302.22232142857143,295.12857142857143,350.9,302.22232142857143,295.12857142857143,451.3,302.22232142857143,295.12857142857143,553.8,302.22232142857143,295.12857142857143,658.4,302.22232142857143,295.12857142857143,759.4,302.22232142857143,295.12857142857143,939.5,302.22232142857143,295.12857142857143,1047.9,302.22232142857143,295.12857142857143,1156.7,302.22232142857143,295.12857142857143,1270,302.22232142857143,295.12857142857143,1375.9,302.22232142857143,295.12857142857143,1628.7,302.22232142857143,295.12857142857143,1740.8,302.22232142857143,295.12857142857143,1841.5,302.22232142857143,295.12857142857143,1955.4,302.22232142857143,295.12857142857143,2071.7,302.22232142857143,295.12857142857143,2177.9,302.22232142857143,295.12857142857143,2282.5,302.22232142857143,295.12857142857143,2387.1,302.22232142857143,295.12857142857143,2640.1,302.22232142857143,295.12857142857143,2744.1,302.22232142857143,295.12857142857143,2858.6,302.22232142857143,295.12857142857143,2972.2,302.22232142857143,295.12857142857143,3073,302.22232142857143,295.12857142857143,3193.2,302.22232142857143,295.12857142857143,3301.9,302.22232142857143,295.12857142857143,3409.4,302.22232142857143,295.12857142857143,3524.9,302.22232142857143,295.12857142857143,3636.1,302.22232142857143,295.12857142857143,3898.6,302.22232142857143,295.12857142857143,4015.5,302.22232142857143,295.12857142857143,4121.6,302.22232142857143,295.12857142857143,4236.6,302.22232142857143,295.12857142857143,4349.8,302.22232142857143,295.12857142857143,4454.8,302.22232142857143,295.12857142857143,4570.2,302.22232142857143,295.12857142857143,4679.2,302.22232142857143,295.12857142857143,4795.5]","[11058.7,11058.7,1972.9,8423.9,661.9,""oops"",""left"",""left"",""good_move"",15554.1,4492.1,3083.6,11062,1408.5,""smooth"",""down"",""down"",""good_move"",18136.5,2580.3,1916.1,15556.2,664.2,""oops"",""left"",""right"",""bad_move"",21302.9,3164.7,2278.1,18138.2,886.6,""smooth"",""down"",""down"",""good_move"",23957.4,2652.1,2076.7,21305.6,575.1,""oops"",""left"",""left"",""good_move"",30732.7,6772.6,2135.3,23960.1,4637.3,""smooth"",""left"",""left"",""good_move"",37018.6,6283.9,2407.4,30734.8,3876.5,""smooth"",""down"",""down"",""good_move"",40337.1,3315.4,2723,37025.3,588.8,""smooth"",""left"",""left"",""good_move""]"
"7628","","<div style=""width:500px;"">
  <p>What determined the result of this run?</p>
  </div>","55","html-slider-response","64","1637149","0.0-7.0-1.10","148","1","2025-08-06 08:58:00","36c45c0696341be0efffe67d72a12abb","105.245.112.154","Mozilla/5.0 (Windows NT 10.0; Win64; x64) AppleWebKit/537.36 (KHTML, like Gecko) Chrome/135.0.0.0 Safari/537.36 OPR/120.0.0.0","WebKit","Opera","120.0.0.0","Windows","10.0","https://app.prolific.com/","en-US,en;q=0.9,ja;q=0.8","669bba2714caa691679bff24","687a1a965b9f5b85a264363e","68931788ed4ec11ab9644917","1","669bba2714caa691679bff24","1","2025-08-06T09:25:22.414Z","","","","AttribQ","","","","","","","","","","","50","","","","","","","","","","","","","","","","","","","","","","","","","","",""
"11210","","<div style=""width:500px;"">
  <p>How much control did you have over the ball?</p>
  </div>","40","html-slider-response","65","1648363","0.0-7.0-2.10","148","1","2025-08-06 08:58:00","36c45c0696341be0efffe67d72a12abb","105.245.112.154","Mozilla/5.0 (Windows NT 10.0; Win64; x64) AppleWebKit/537.36 (KHTML, like Gecko) Chrome/135.0.0.0 Safari/537.36 OPR/120.0.0.0","WebKit","Opera","120.0.0.0","Windows","10.0","https://app.prolific.com/","en-US,en;q=0.9,ja;q=0.8","669bba2714caa691679bff24","687a1a965b9f5b85a264363e","68931788ed4ec11ab9644917","1","669bba2714caa691679bff24","1","2025-08-06T09:25:33.629Z","","","","ControlQ","","","","","","","","","","","50","","","","","","","","","","","","","","","","","","","","","","","","","","",""
"2504","","<div style=""width:500px;"">
  <p>How would you describe your current emotional state?</p>
  </div>","43","html-slider-response","66","1650876","0.0-7.0-3.10","148","1","2025-08-06 08:58:00","36c45c0696341be0efffe67d72a12abb","105.245.112.154","Mozilla/5.0 (Windows NT 10.0; Win64; x64) AppleWebKit/537.36 (KHTML, like Gecko) Chrome/135.0.0.0 Safari/537.36 OPR/120.0.0.0","WebKit","Opera","120.0.0.0","Windows","10.0","https://app.prolific.com/","en-US,en;q=0.9,ja;q=0.8","669bba2714caa691679bff24","687a1a965b9f5b85a264363e","68931788ed4ec11ab9644917","1","669bba2714caa691679bff24","1","2025-08-06T09:25:36.141Z","","","","StressQ","","","","","","","","","","","50","","","","","","","","","","","","","","","","","","","","","","","","","","",""
"2673","","<div style=""width:500px;"">
  <p>What best describes how you currently feel?</p>
  </div>","48","html-slider-response","67","1653554","0.0-7.0-4.10","148","1","2025-08-06 08:58:00","36c45c0696341be0efffe67d72a12abb","105.245.112.154","Mozilla/5.0 (Windows NT 10.0; Win64; x64) AppleWebKit/537.36 (KHTML, like Gecko) Chrome/135.0.0.0 Safari/537.36 OPR/120.0.0.0","WebKit","Opera","120.0.0.0","Windows","10.0","https://app.prolific.com/","en-US,en;q=0.9,ja;q=0.8","669bba2714caa691679bff24","687a1a965b9f5b85a264363e","68931788ed4ec11ab9644917","1","669bba2714caa691679bff24","1","2025-08-06T09:25:38.819Z","","","","MotivationQ","","","","","","","","","","","50","","","","","","","","","","","","","","","","","","","","","","","","","","",""
"","","","","ctl-task-cpt","68","1684676","0.0-7.0-0.11","148","1","2025-08-06 08:58:00","36c45c0696341be0efffe67d72a12abb","105.245.112.154","Mozilla/5.0 (Windows NT 10.0; Win64; x64) AppleWebKit/537.36 (KHTML, like Gecko) Chrome/135.0.0.0 Safari/537.36 OPR/120.0.0.0","WebKit","Opera","120.0.0.0","Windows","10.0","https://app.prolific.com/","en-US,en;q=0.9,ja;q=0.8","669bba2714caa691679bff24","687a1a965b9f5b85a264363e","68931788ed4ec11ab9644917","1","669bba2714caa691679bff24","1","2025-08-06T09:26:09.941Z","","","","","","","","","","","","","","","","win-only","0","g1:NW,g2:SE","0.7","12","0","1659081.6","2071.2","7118.4","28089.5","1","4","8","6","2","8","8","16","8","0.12121212121212122","5047.2","3000","2555","[""down"",""right""]","{""num_key_presses"":6,""num_perfect"":4,""num_errors"":0,""num_randdir"":2,""num_randdir_good_moves"":2,""num_whilered"":0,""num_whileblue"":0,""num_blue"":1,""num_good_moves"":6}","[297.22232142857143,299.12857142857143,0.7,297.22232142857143,299.12857142857143,130.8,297.22232142857143,299.12857142857143,271.7,297.22232142857143,299.12857142857143,398.6,297.22232142857143,299.12857142857143,525.2,297.22232142857143,299.12857142857143,657.7,297.22232142857143,299.12857142857143,784.1,297.22232142857143,299.12857142857143,909.8,297.22232142857143,299.12857142857143,1033,297.22232142857143,299.12857142857143,1160.4,297.22232142857143,299.12857142857143,1285.9,297.22232142857143,299.12857142857143,1418.1,297.22232142857143,299.12857142857143,1552.6,297.22232142857143,299.12857142857143,1686.1,297.22232142857143,299.12857142857143,1813.6,297.22232142857143,299.12857142857143,1941.4,297.22232142857143,299.12857142857143,2069.8,297.22232142857143,299.12857142857143,2203.6,297.22232142857143,299.12857142857143,2333,297.22232142857143,299.12857142857143,2462.6,297.22232142857143,299.12857142857143,2591,297.22232142857143,299.12857142857143,2721.5,297.22232142857143,299.12857142857143,2851.2,297.22232142857143,299.12857142857143,2978.1,297.22232142857143,299.12857142857143,3105.7,297.22232142857143,299.12857142857143,3242,297.22232142857143,299.12857142857143,3368.7,297.22232142857143,299.12857142857143,3505.3,297.22232142857143,299.12857142857143,3633.5,297.22232142857143,299.12857142857143,3766.7,297.22232142857143,299.12857142857143,3894.2,297.22232142857143,299.12857142857143,4026,297.22232142857143,299.12857142857143,4159.9,297.22232142857143,299.12857142857143,4295.8,297.22232142857143,299.12857142857143,4425.7,297.22232142857143,299.12857142857143,4551.5,297.22232142857143,299.12857142857143,4688.1,297.22232142857143,299.12857142857143,4818.3,297.22232142857143,299.12857142857143,4937.6]","[1636.5,1636.5,1000,0,636.5,""smooth"",""down"",""down"",""good_move"",8370.4,6731.5,2407.9,5393.2,569.3,""smooth"",""down"",""down"",""good_move"",11816.4,3443.8,2538.8,8372.6,905,""smooth"",""down"",""down"",""good_move"",14658.2,2839.7,2181.8,11818.5,657.9,""smooth"",""right"",""right"",""good_move"",17798.5,3137.6,2658.3,14661,479.2,""oops"",""right"",""right"",""good_move"",20732.3,2929,2407.2,17803.3,521.8,""oops"",""right"",""right"",""good_move""]"
"14101","","<div style=""width:500px;"">
  <p>What determined the result of this run?</p>
  </div>","47","html-slider-response","69","1698780","0.0-7.0-1.11","148","1","2025-08-06 08:58:00","36c45c0696341be0efffe67d72a12abb","105.245.112.154","Mozilla/5.0 (Windows NT 10.0; Win64; x64) AppleWebKit/537.36 (KHTML, like Gecko) Chrome/135.0.0.0 Safari/537.36 OPR/120.0.0.0","WebKit","Opera","120.0.0.0","Windows","10.0","https://app.prolific.com/","en-US,en;q=0.9,ja;q=0.8","669bba2714caa691679bff24","687a1a965b9f5b85a264363e","68931788ed4ec11ab9644917","1","669bba2714caa691679bff24","1","2025-08-06T09:26:24.045Z","","","","AttribQ","","","","","","","","","","","50","","","","","","","","","","","","","","","","","","","","","","","","","","",""
"15015","","<div style=""width:500px;"">
  <p>How much control did you have over the ball?</p>
  </div>","54","html-slider-response","70","1713801","0.0-7.0-2.11","148","1","2025-08-06 08:58:00","36c45c0696341be0efffe67d72a12abb","105.245.112.154","Mozilla/5.0 (Windows NT 10.0; Win64; x64) AppleWebKit/537.36 (KHTML, like Gecko) Chrome/135.0.0.0 Safari/537.36 OPR/120.0.0.0","WebKit","Opera","120.0.0.0","Windows","10.0","https://app.prolific.com/","en-US,en;q=0.9,ja;q=0.8","669bba2714caa691679bff24","687a1a965b9f5b85a264363e","68931788ed4ec11ab9644917","1","669bba2714caa691679bff24","1","2025-08-06T09:26:39.066Z","","","","ControlQ","","","","","","","","","","","50","","","","","","","","","","","","","","","","","","","","","","","","","","",""
"5739","","<div style=""width:500px;"">
  <p>How would you describe your current emotional state?</p>
  </div>","57","html-slider-response","71","1719545","0.0-7.0-3.11","148","1","2025-08-06 08:58:00","36c45c0696341be0efffe67d72a12abb","105.245.112.154","Mozilla/5.0 (Windows NT 10.0; Win64; x64) AppleWebKit/537.36 (KHTML, like Gecko) Chrome/135.0.0.0 Safari/537.36 OPR/120.0.0.0","WebKit","Opera","120.0.0.0","Windows","10.0","https://app.prolific.com/","en-US,en;q=0.9,ja;q=0.8","669bba2714caa691679bff24","687a1a965b9f5b85a264363e","68931788ed4ec11ab9644917","1","669bba2714caa691679bff24","1","2025-08-06T09:26:44.811Z","","","","StressQ","","","","","","","","","","","50","","","","","","","","","","","","","","","","","","","","","","","","","","",""
"10691","","<div style=""width:500px;"">
  <p>What best describes how you currently feel?</p>
  </div>","61","html-slider-response","72","1730244","0.0-7.0-4.11","148","1","2025-08-06 08:58:00","36c45c0696341be0efffe67d72a12abb","105.245.112.154","Mozilla/5.0 (Windows NT 10.0; Win64; x64) AppleWebKit/537.36 (KHTML, like Gecko) Chrome/135.0.0.0 Safari/537.36 OPR/120.0.0.0","WebKit","Opera","120.0.0.0","Windows","10.0","https://app.prolific.com/","en-US,en;q=0.9,ja;q=0.8","669bba2714caa691679bff24","687a1a965b9f5b85a264363e","68931788ed4ec11ab9644917","1","669bba2714caa691679bff24","1","2025-08-06T09:26:55.509Z","","","","MotivationQ","","","","","","","","","","","50","","","","","","","","","","","","","","","","","","","","","","","","","","",""
"","","","","ctl-task-cpt","73","1755732","0.0-7.0-0.12","148","1","2025-08-06 08:58:00","36c45c0696341be0efffe67d72a12abb","105.245.112.154","Mozilla/5.0 (Windows NT 10.0; Win64; x64) AppleWebKit/537.36 (KHTML, like Gecko) Chrome/135.0.0.0 Safari/537.36 OPR/120.0.0.0","WebKit","Opera","120.0.0.0","Windows","10.0","https://app.prolific.com/","en-US,en;q=0.9,ja;q=0.8","669bba2714caa691679bff24","687a1a965b9f5b85a264363e","68931788ed4ec11ab9644917","1","669bba2714caa691679bff24","1","2025-08-06T09:27:20.997Z","","","","","","","","","","","","","","","","win-only","2","g1:SE,g2:NW","0.8","13","0","1735770.8","6297.1","11302.4","22452.3","1","4","8","6","1","1","1","17","16","0.12878787878787878","5005.3","3000","2665","[""down"",""right""]","{""num_key_presses"":4,""num_perfect"":3,""num_errors"":0,""num_randdir"":1,""num_randdir_good_moves"":1,""num_whilered"":0,""num_whileblue"":0,""num_blue"":0,""num_good_moves"":4}","[289.22232142857143,297.12857142857143,1.1,289.22232142857143,297.12857142857143,131.5,289.22232142857143,297.12857142857143,259.5,289.22232142857143,297.12857142857143,380.1,289.22232142857143,297.12857142857143,500.8,289.22232142857143,297.12857142857143,623.6,289.22232142857143,297.12857142857143,740.2,289.22232142857143,297.12857142857143,860,289.22232142857143,297.12857142857143,978.3,289.22232142857143,297.12857142857143,1100.3,289.22232142857143,297.12857142857143,1219.8,289.22232142857143,297.12857142857143,1346.5,289.22232142857143,297.12857142857143,1466.2,289.22232142857143,297.12857142857143,1585,289.22232142857143,297.12857142857143,1704.4,289.22232142857143,297.12857142857143,1827.4,289.22232142857143,297.12857142857143,1948.2,289.22232142857143,297.12857142857143,2072.6,289.22232142857143,297.12857142857143,2198.2,289.22232142857143,297.12857142857143,2324.8,289.22232142857143,297.12857142857143,2445.6,289.22232142857143,297.12857142857143,2568.7,289.22232142857143,297.12857142857143,2693.4,289.22232142857143,297.12857142857143,2818.4,289.22232142857143,297.12857142857143,2941.4,289.22232142857143,297.12857142857143,3066.9,289.22232142857143,297.12857142857143,3187,289.22232142857143,297.12857142857143,3320.1,289.22232142857143,297.12857142857143,3443.6,289.22232142857143,297.12857142857143,3567.8,289.22232142857143,297.12857142857143,3694.3,289.22232142857143,297.12857142857143,3815,289.22232142857143,297.12857142857143,3939.5,289.22232142857143,297.12857142857143,4062.5,289.22232142857143,297.12857142857143,4190.2,289.22232142857143,297.12857142857143,4325.3,289.22232142857143,297.12857142857143,4447.8,289.22232142857143,297.12857142857143,4570.9,289.22232142857143,297.12857142857143,4714.4,289.22232142857143,297.12857142857143,4839.5,289.22232142857143,297.12857142857143,4964.6]","[1645.9,1645.9,1000,0,645.9,""oops"",""right"",""right"",""good_move"",4330.5,2681.8,1833.6,1648.7,848.2,""smooth"",""right"",""right"",""good_move"",7513.9,3182,2632.6,4332,549.3,""smooth"",""down"",""down"",""good_move"",10355.6,2839.3,1761.6,7516.3,1077.7,""smooth"",""down"",""down"",""good_move""]"
"6765","","<div style=""width:500px;"">
  <p>What determined the result of this run?</p>
  </div>","45","html-slider-response","74","1762537","0.0-7.0-1.12","148","1","2025-08-06 08:58:00","36c45c0696341be0efffe67d72a12abb","105.245.112.154","Mozilla/5.0 (Windows NT 10.0; Win64; x64) AppleWebKit/537.36 (KHTML, like Gecko) Chrome/135.0.0.0 Safari/537.36 OPR/120.0.0.0","WebKit","Opera","120.0.0.0","Windows","10.0","https://app.prolific.com/","en-US,en;q=0.9,ja;q=0.8","669bba2714caa691679bff24","687a1a965b9f5b85a264363e","68931788ed4ec11ab9644917","1","669bba2714caa691679bff24","1","2025-08-06T09:27:27.802Z","","","","AttribQ","","","","","","","","","","","50","","","","","","","","","","","","","","","","","","","","","","","","","","",""
"24742","","<div style=""width:500px;"">
  <p>How much control did you have over the ball?</p>
  </div>","56","html-slider-response","75","1787284","0.0-7.0-2.12","148","1","2025-08-06 08:58:00","36c45c0696341be0efffe67d72a12abb","105.245.112.154","Mozilla/5.0 (Windows NT 10.0; Win64; x64) AppleWebKit/537.36 (KHTML, like Gecko) Chrome/135.0.0.0 Safari/537.36 OPR/120.0.0.0","WebKit","Opera","120.0.0.0","Windows","10.0","https://app.prolific.com/","en-US,en;q=0.9,ja;q=0.8","669bba2714caa691679bff24","687a1a965b9f5b85a264363e","68931788ed4ec11ab9644917","1","669bba2714caa691679bff24","1","2025-08-06T09:27:52.549Z","","","","ControlQ","","","","","","","","","","","50","","","","","","","","","","","","","","","","","","","","","","","","","","",""
"8606","","<div style=""width:500px;"">
  <p>How would you describe your current emotional state?</p>
  </div>","42","html-slider-response","76","1795896","0.0-7.0-3.12","148","1","2025-08-06 08:58:00","36c45c0696341be0efffe67d72a12abb","105.245.112.154","Mozilla/5.0 (Windows NT 10.0; Win64; x64) AppleWebKit/537.36 (KHTML, like Gecko) Chrome/135.0.0.0 Safari/537.36 OPR/120.0.0.0","WebKit","Opera","120.0.0.0","Windows","10.0","https://app.prolific.com/","en-US,en;q=0.9,ja;q=0.8","669bba2714caa691679bff24","687a1a965b9f5b85a264363e","68931788ed4ec11ab9644917","1","669bba2714caa691679bff24","1","2025-08-06T09:28:01.161Z","","","","StressQ","","","","","","","","","","","50","","","","","","","","","","","","","","","","","","","","","","","","","","",""
"3901","","<div style=""width:500px;"">
  <p>What best describes how you currently feel?</p>
  </div>","57","html-slider-response","77","1799805","0.0-7.0-4.12","148","1","2025-08-06 08:58:00","36c45c0696341be0efffe67d72a12abb","105.245.112.154","Mozilla/5.0 (Windows NT 10.0; Win64; x64) AppleWebKit/537.36 (KHTML, like Gecko) Chrome/135.0.0.0 Safari/537.36 OPR/120.0.0.0","WebKit","Opera","120.0.0.0","Windows","10.0","https://app.prolific.com/","en-US,en;q=0.9,ja;q=0.8","669bba2714caa691679bff24","687a1a965b9f5b85a264363e","68931788ed4ec11ab9644917","1","669bba2714caa691679bff24","1","2025-08-06T09:28:05.070Z","","","","MotivationQ","","","","","","","","","","","50","","","","","","","","","","","","","","","","","","","","","","","","","","",""
