"rt","response_timestamp","stimulus","response","trial_type","trial_index","time_elapsed","internal_node_id","run_id","condition","recorded_at","source_code_version","ip","user_agent","device","browser","browser_version","platform","platform_version","referer","accept_language","PROLIFIC_PID","STUDY_ID","SESSION_ID","BATCH","prolific_id","batch","realtime","success","question_order","question_id","eventType","responses","item_order","radio_event_ids","radio_event_times","key_event_times","mouse_event_times","straightlining","zigzagging","honeypot","view_history","slider_start","which_type","canvas_config","goals_layout","control_level","trial_number","tutorial_trial_number","trial_start_time","phase1_start_time","phase2_start_time","phase3_start_time","goal_1_value","goal_1_distance","goal_2_value","goal_2_distance","goal_selected","outcome","outcome_total","participant_final_score","participant_initial_score","participant_final_score_prop","goal_choice_rt","allocated_time","allocated_time_remaining","goal_direction","counts","mouse_movements","key_presses"
"37228","1753873220202","<p style='font-size:40px;line-height:1.25'><strong>Welcome to the experiment!</strong></p><p style='font-size:1.1em;line-height:1.25'>Thank you for participanting in our experiment again! You will be asked to play the Dysfunctional Ball Game again. We will briefly recap the rules before we start.</p><p style='font-size:1.1em;line-height:1.25'>Press <strong>Next</strong> to continue.</p>","0","custom-html-button-response","0","37234","0.0-0.0","90","1","2025-07-30 10:59:41","36c45c0696341be0efffe67d72a12abb","216.120.189.119","Mozilla/5.0 (Windows NT 10.0; Win64; x64) AppleWebKit/537.36 (KHTML, like Gecko) Chrome/138.0.0.0 Safari/537.36","WebKit","Chrome","138.0.0.0","Windows","10.0","https://app.prolific.com/","en-US,en;q=0.9","669c1e1fdb95a995eb1d3077","683dba9a53627eb9ab41b36a","6889faf5bb548d319e595a82","0","669c1e1fdb95a995eb1d3077","0","2025-07-30T11:00:20.204Z","","","","","","","","","","","","","","","","","","","","","","","","","","","","","","","","","","","","","","","","","",""
"1702","","","","fullscreen","1","39957","0.0-1.0","90","1","2025-07-30 10:59:41","36c45c0696341be0efffe67d72a12abb","216.120.189.119","Mozilla/5.0 (Windows NT 10.0; Win64; x64) AppleWebKit/537.36 (KHTML, like Gecko) Chrome/138.0.0.0 Safari/537.36","WebKit","Chrome","138.0.0.0","Windows","10.0","https://app.prolific.com/","en-US,en;q=0.9","669c1e1fdb95a995eb1d3077","683dba9a53627eb9ab41b36a","6889faf5bb548d319e595a82","0","669c1e1fdb95a995eb1d3077","0","","true","","","","","","","","","","","","","","","","","","","","","","","","","","","","","","","","","","","","","","","","",""
"5569","1753873228497"," <p style='font-size:1.1em;line-height:1.25'>Thank you for closing all other tabs.</p><p style='font-size:1.1em;line-height:1.25'>We will now invite you to fill in some questionnaires, before starting the game.<br>This will take about 5 minutes.<br></p><p style='font-size:1.1em;line-height:1.25'>Press the <strong>Next</strong> button to continue.</p>","0","custom-html-button-response","2","45527","0.0-2.0","90","1","2025-07-30 10:59:41","36c45c0696341be0efffe67d72a12abb","216.120.189.119","Mozilla/5.0 (Windows NT 10.0; Win64; x64) AppleWebKit/537.36 (KHTML, like Gecko) Chrome/138.0.0.0 Safari/537.36","WebKit","Chrome","138.0.0.0","Windows","10.0","https://app.prolific.com/","en-US,en;q=0.9","669c1e1fdb95a995eb1d3077","683dba9a53627eb9ab41b36a","6889faf5bb548d319e595a82","0","669c1e1fdb95a995eb1d3077","0","2025-07-30T11:00:28.498Z","","","","","","","","","","","","","","","","","","","","","","","","","","","","","","","","","","","","","","","","","",""
"6529","","","{""assigned_sex"":""female""}","survey-multi-choice","3","52062","0.0-3.0-0.0","90","1","2025-07-30 10:59:41","36c45c0696341be0efffe67d72a12abb","216.120.189.119","Mozilla/5.0 (Windows NT 10.0; Win64; x64) AppleWebKit/537.36 (KHTML, like Gecko) Chrome/138.0.0.0 Safari/537.36","WebKit","Chrome","138.0.0.0","Windows","10.0","https://app.prolific.com/","en-US,en;q=0.9","669c1e1fdb95a995eb1d3077","683dba9a53627eb9ab41b36a","6889faf5bb548d319e595a82","0","669c1e1fdb95a995eb1d3077","0","","","[0]","0","demographics","","","","","","","","","","","","","","","","","","","","","","","","","","","","","","","","","","","","","",""
"6684","1753873241717","<p style='font-size:1.1em;line-height:1.25'>In the following, we will perform a baseline assessment. This means that we will ask you a few questions relating to your experiences over the past month.<br></p><p style='font-size:1.1em;line-height:1.25'>Press the <strong>Next</strong> button to continue.</p>","0","custom-html-button-response","4","58748","0.0-4.0-0.0","90","1","2025-07-30 10:59:41","36c45c0696341be0efffe67d72a12abb","216.120.189.119","Mozilla/5.0 (Windows NT 10.0; Win64; x64) AppleWebKit/537.36 (KHTML, like Gecko) Chrome/138.0.0.0 Safari/537.36","WebKit","Chrome","138.0.0.0","Windows","10.0","https://app.prolific.com/","en-US,en;q=0.9","669c1e1fdb95a995eb1d3077","683dba9a53627eb9ab41b36a","6889faf5bb548d319e595a82","0","669c1e1fdb95a995eb1d3077","0","2025-07-30T11:00:41.718Z","","","","","","","","","","","","","","","","","","","","","","","","","","","","","","","","","","","","","","","","","",""
"164890.80000000447","","","","survey-template","5","223645","0.0-4.0-1.0","90","1","2025-07-30 10:59:41","36c45c0696341be0efffe67d72a12abb","216.120.189.119","Mozilla/5.0 (Windows NT 10.0; Win64; x64) AppleWebKit/537.36 (KHTML, like Gecko) Chrome/138.0.0.0 Safari/537.36","WebKit","Chrome","138.0.0.0","Windows","10.0","https://app.prolific.com/","en-US,en;q=0.9","669c1e1fdb95a995eb1d3077","683dba9a53627eb9ab41b36a","6889faf5bb548d319e595a82","0","669c1e1fdb95a995eb1d3077","0","2025-07-30T11:03:26.615Z","","","","pss","{""Q01"":""1"",""Q02"":""0"",""Q03"":""1"",""Q04"":""0"",""Q05"":""1"",""Q06"":""4"",""Q07"":""0"",""Q08"":""0"",""Q09"":""2"",""Q10"":""1""}","[0,1,2,3,4,5,6,7,8,9]","[""Q01"",""Q02"",""Q03"",""Q03"",""Q03"",""Q04"",""Q05"",""Q05"",""Q07"",""Q06"",""Q08"",""Q09"",""Q10""]","[24496.80000000447,34881.60000000149,39555.80000000447,41633.60000000149,46753.60000000149,66392.70000000298,103741.60000000149,107067.90000000596,125161.60000000149,132644.6000000015,140161.90000000596,148425,160726.6000000015]","[]","[0.10000000149011612,24496.80000000447,34881.60000000149,39555.80000000447,41633.60000000149,46753.60000000149,66392.70000000298,103741.60000000149,107067.90000000596,117421.60000000149,125161.60000000149,132644.6000000015,140161.90000000596,148425,159416.80000000447,160726.6000000015,164885.90000000596]","0.4","0.5555555555555556","0","","","","","","","","","","","","","","","","","","","","","","","","","","","","",""
"6709","1753873413325","<p style='font-size:1.1em;line-height:1.25'>Thank you for your answers! Now we will ask you a few more questions relating to your feelings in the last 24 hours.<br></p><p style='font-size:1.1em;line-height:1.25'>Press the <strong>Next</strong> button to continue.</p>","0","custom-html-button-response","6","230356","0.0-4.0-2.0","90","1","2025-07-30 10:59:41","36c45c0696341be0efffe67d72a12abb","216.120.189.119","Mozilla/5.0 (Windows NT 10.0; Win64; x64) AppleWebKit/537.36 (KHTML, like Gecko) Chrome/138.0.0.0 Safari/537.36","WebKit","Chrome","138.0.0.0","Windows","10.0","https://app.prolific.com/","en-US,en;q=0.9","669c1e1fdb95a995eb1d3077","683dba9a53627eb9ab41b36a","6889faf5bb548d319e595a82","0","669c1e1fdb95a995eb1d3077","0","2025-07-30T11:03:33.326Z","","","","","","","","","","","","","","","","","","","","","","","","","","","","","","","","","","","","","","","","","",""
"166757.29999999702","","","","survey-template","7","397123","0.0-4.0-3.0","90","1","2025-07-30 10:59:41","36c45c0696341be0efffe67d72a12abb","216.120.189.119","Mozilla/5.0 (Windows NT 10.0; Win64; x64) AppleWebKit/537.36 (KHTML, like Gecko) Chrome/138.0.0.0 Safari/537.36","WebKit","Chrome","138.0.0.0","Windows","10.0","https://app.prolific.com/","en-US,en;q=0.9","669c1e1fdb95a995eb1d3077","683dba9a53627eb9ab41b36a","6889faf5bb548d319e595a82","0","669c1e1fdb95a995eb1d3077","0","2025-07-30T11:06:20.093Z","","","","drsp","{""Q01"":""0"",""Q02"":""0"",""Q03"":""0"",""Q04"":""0"",""Q05"":""1"",""Q06"":""0"",""Q07"":""1"",""Q08"":""0"",""Q09"":""0"",""Q10"":""0"",""Q11"":""1"",""Q12"":""0"",""Q13"":""5"",""Q14"":""1"",""Q15"":""0"",""Q16"":""0"",""Q17"":""2"",""Q18"":""1"",""Q19"":""0"",""Q20"":""0"",""Q21"":""0"",""Q22"":""0""}","[0,1,2,3,4,5,6,7,8,9,10,11,12,13,14,15,16,17,18,19,20,21]","[""Q01"",""Q02"",""Q03"",""Q04"",""Q05"",""Q06"",""Q04"",""Q07"",""Q08"",""Q09"",""Q10"",""Q11"",""Q12"",""Q13"",""Q14"",""Q15"",""Q16"",""Q17"",""Q18"",""Q19"",""Q20"",""Q21"",""Q22"",""Q21"",""Q20"",""Q20"",""Q20"",""Q21""]","[3524.39999999851,4917.29999999702,6092.5,8176.60000000149,11318.60000000149,13791.60000000149,19382.39999999851,26144.79999999702,33509.89999999851,36166.79999999702,37894.19999999553,51775.39999999851,54237.79999999702,57723.29999999702,63617,66788.19999999553,72144.29999999702,74354.39999999851,90972.69999999553,124321,133428,136403.5,146525.8999999985,148735.69999999553,153594,155795.3999999985,162844.69999999553,165105.1000000015]","[]","[0.10000000149011612,3524.39999999851,4917.29999999702,6092.5,8176.60000000149,9964.79999999702,11318.60000000149,13791.60000000149,18435.60000000149,19382.39999999851,26144.79999999702,33509.89999999851,36166.79999999702,37894.19999999553,51775.39999999851,54237.79999999702,57723.29999999702,63617,66788.19999999553,72144.29999999702,74354.39999999851,81098.10000000149,90972.69999999553,123284.19999999553,124321,129238.79999999702,130502.89999999851,131712.1000000015,133428,136403.5,142566.79999999702,146525.8999999985,148735.69999999553,153594,155795.3999999985,162844.69999999553,164047.5,165105.1000000015,166743.1000000015]","0.6818181818181818","0.47619047619047616","0","","","","","","","","","","","","","","","","","","","","","","","","","","","","",""
"63939.20000000298","","","","survey-template","8","461066","0.0-4.0-4.0","90","1","2025-07-30 10:59:41","36c45c0696341be0efffe67d72a12abb","216.120.189.119","Mozilla/5.0 (Windows NT 10.0; Win64; x64) AppleWebKit/537.36 (KHTML, like Gecko) Chrome/138.0.0.0 Safari/537.36","WebKit","Chrome","138.0.0.0","Windows","10.0","https://app.prolific.com/","en-US,en;q=0.9","669c1e1fdb95a995eb1d3077","683dba9a53627eb9ab41b36a","6889faf5bb548d319e595a82","0","669c1e1fdb95a995eb1d3077","0","2025-07-30T11:07:24.037Z","","","","stress","{""Q01"":""0"",""Q02"":""1"",""Q03"":""0""}","[0,1,2]","[""Q01"",""Q02"",""Q03""]","[47676.80000000447,58472.10000000149,62167.5]","[]","[46774.20000000298,47676.80000000447,58472.10000000149,62167.5,63937.90000000596]","0.6666666666666666","0","0","","","","","","","","","","","","","","","","","","","","","","","","","","","","",""
"21893","","","","instructions","9","482961","0.0-5.0-0.0","90","1","2025-07-30 10:59:41","36c45c0696341be0efffe67d72a12abb","216.120.189.119","Mozilla/5.0 (Windows NT 10.0; Win64; x64) AppleWebKit/537.36 (KHTML, like Gecko) Chrome/138.0.0.0 Safari/537.36","WebKit","Chrome","138.0.0.0","Windows","10.0","https://app.prolific.com/","en-US,en;q=0.9","669c1e1fdb95a995eb1d3077","683dba9a53627eb9ab41b36a","6889faf5bb548d319e595a82","0","669c1e1fdb95a995eb1d3077","0","","","","","","","","","","","","","","","[{""page_index"":0,""viewing_time"":21892}]","","","","","","","","","","","","","","","","","","","","","","","","","","","",""
"55221","","<p>Before you start with this game please answer the following three questions yourself. </p>
  <p>Through this game, we measure several aspects of your cognitive performance, such as reaction times, multi-tasking capabilities </p>
  <p>and the ability to assess the situation you are in.</p>
  <p></p>
  <p><b>How good do you usually are in such tasks?</b></p>","100","html-slider-response","10","538186","0.0-6.0-0.0","90","1","2025-07-30 10:59:41","36c45c0696341be0efffe67d72a12abb","216.120.189.119","Mozilla/5.0 (Windows NT 10.0; Win64; x64) AppleWebKit/537.36 (KHTML, like Gecko) Chrome/138.0.0.0 Safari/537.36","WebKit","Chrome","138.0.0.0","Windows","10.0","https://app.prolific.com/","en-US,en;q=0.9","669c1e1fdb95a995eb1d3077","683dba9a53627eb9ab41b36a","6889faf5bb548d319e595a82","0","669c1e1fdb95a995eb1d3077","0","2025-07-30T11:08:41.156Z","","","","PreSkillQ","","","","","","","","","","","50","","","","","","","","","","","","","","","","","","","","","","","","","","",""
"10447","","<div style=""width:500px;"">
  <p>How well do you think you will perform in this task compared to other participants?</p>
  </div>","100","html-slider-response","11","548635","0.0-6.0-1.0","90","1","2025-07-30 10:59:41","36c45c0696341be0efffe67d72a12abb","216.120.189.119","Mozilla/5.0 (Windows NT 10.0; Win64; x64) AppleWebKit/537.36 (KHTML, like Gecko) Chrome/138.0.0.0 Safari/537.36","WebKit","Chrome","138.0.0.0","Windows","10.0","https://app.prolific.com/","en-US,en;q=0.9","669c1e1fdb95a995eb1d3077","683dba9a53627eb9ab41b36a","6889faf5bb548d319e595a82","0","669c1e1fdb95a995eb1d3077","0","2025-07-30T11:08:51.605Z","","","","PrePerfQ","","","","","","","","","","","50","","","","","","","","","","","","","","","","","","","","","","","","","","",""
"5735","","<div style=""width:500px;"">
  <p>What best describes how you currently feel?</p>
  </div>","100","html-slider-response","12","554371","0.0-6.0-2.0","90","1","2025-07-30 10:59:41","36c45c0696341be0efffe67d72a12abb","216.120.189.119","Mozilla/5.0 (Windows NT 10.0; Win64; x64) AppleWebKit/537.36 (KHTML, like Gecko) Chrome/138.0.0.0 Safari/537.36","WebKit","Chrome","138.0.0.0","Windows","10.0","https://app.prolific.com/","en-US,en;q=0.9","669c1e1fdb95a995eb1d3077","683dba9a53627eb9ab41b36a","6889faf5bb548d319e595a82","0","669c1e1fdb95a995eb1d3077","0","2025-07-30T11:08:57.341Z","","","","PreMotivationQ","","","","","","","","","","","50","","","","","","","","","","","","","","","","","","","","","","","","","","",""
"","","","","ctl-task-cpt","13","588139","0.0-7.0-0.0","90","1","2025-07-30 10:59:41","36c45c0696341be0efffe67d72a12abb","216.120.189.119","Mozilla/5.0 (Windows NT 10.0; Win64; x64) AppleWebKit/537.36 (KHTML, like Gecko) Chrome/138.0.0.0 Safari/537.36","WebKit","Chrome","138.0.0.0","Windows","10.0","https://app.prolific.com/","en-US,en;q=0.9","669c1e1fdb95a995eb1d3077","683dba9a53627eb9ab41b36a","6889faf5bb548d319e595a82","0","669c1e1fdb95a995eb1d3077","0","2025-07-30T11:09:31.109Z","","","","","","","","","","","","","","","","win-only","3","g1:SW,g2:NE","1","1","0","559342.5","3769.9","8774","30759.1","1","4","8","6","2","8","7","7","0","0.05303030303030303","2435.8","3000","1065","[""up"",""right""]","{""num_key_presses"":8,""num_perfect"":7,""num_errors"":1,""num_randdir"":0,""num_randdir_good_moves"":0,""num_whilered"":0,""num_whileblue"":1,""num_blue"":1,""num_good_moves"":7}","[296.22232142857143,299.12857142857143,0.6,296.22232142857143,299.12857142857143,103.6,296.22232142857143,299.12857142857143,211.1,297.22232142857143,299.12857142857143,311.1,308.22232142857143,297.12857142857143,411.2,310.22232142857143,295.12857142857143,523,310.22232142857143,295.12857142857143,627.9,431.22232142857143,183.12857142857143,733.1,461.22232142857143,147.12857142857143,844.6,490.22232142857143,114.12857142857143,944.9,564.2223214285714,8.128571428571426,1052,564.2223214285714,8.128571428571426,1154.4,900.2223214285714,-83.87142857142857,1264.1,900.2223214285714,-83.87142857142857,1373.7,888.2223214285714,-62.871428571428574,1477.7,885.2223214285714,-43.871428571428574,1582.8,877.2223214285714,-28.871428571428574,1683.9,745.2223214285714,-7.871428571428574,1796.9,652.2223214285714,20.128571428571426,1897.7,642.2223214285714,30.128571428571426,2003.5,630.2223214285714,28.128571428571426,2104,592.2223214285714,34.128571428571426,2213.7,565.2223214285714,35.128571428571426,2314.6,563.2223214285714,35.128571428571426,2424,563.2223214285714,35.128571428571426,2527.6,563.2223214285714,36.128571428571426,2630.4,563.2223214285714,33.128571428571426,2733.6,564.2223214285714,33.128571428571426,2833.7,565.2223214285714,33.128571428571426,2940.9,562.2223214285714,34.128571428571426,3044.8,562.2223214285714,33.128571428571426,3149,562.2223214285714,33.128571428571426,3253.1,562.2223214285714,33.128571428571426,3353.5,562.2223214285714,33.128571428571426,3461.4,562.2223214285714,33.128571428571426,3562.2,562.2223214285714,34.128571428571426,3662.6,562.2223214285714,34.128571428571426,3771.9,562.2223214285714,34.128571428571426,3878.8,562.2223214285714,34.128571428571426,3983.9,562.2223214285714,34.128571428571426,4094.3,562.2223214285714,34.128571428571426,4202.7,562.2223214285714,34.128571428571426,4303.8,562.2223214285714,34.128571428571426,4414.1,562.2223214285714,34.128571428571426,4516.9,562.2223214285714,34.128571428571426,4623.4,562.2223214285714,34.128571428571426,4729.8,562.2223214285714,34.128571428571426,4833.3,562.2223214285714,34.128571428571426,4933.4]","[1431.4,1431.2,1000,0.2,431.3,""smooth"",""right"",""right"",""good_move"",4388,2955.7,2504.1,1432.4,451.5,""smooth"",""right"",""right"",""good_move"",6481.7,2091.1,1560.5,4390.7,530.5,""smooth"",""up"",""up"",""good_move"",9343.3,2860.5,2451,6482.8,409.5,""smooth"",""up"",""up"",""good_move"",12403.4,3059.4,2695.7,9344,363.7,""while_blue"",""right"",""down"",""bad_move"",14873.1,2466.3,1998.9,12406.8,467.4,""smooth"",""up"",""up"",""good_move"",19050.8,4177.3,3735.4,14873.6,441.9,""smooth"",""up"",""up"",""good_move"",21834.3,2782.1,2376,19052.2,406.1,""smooth"",""right"",""right"",""good_move""]"
"4869","","<div style=""width:500px;"">
  <p>What determined the result of this run?</p>
  </div>","100","html-slider-response","14","593010","0.0-7.0-1.0","90","1","2025-07-30 10:59:41","36c45c0696341be0efffe67d72a12abb","216.120.189.119","Mozilla/5.0 (Windows NT 10.0; Win64; x64) AppleWebKit/537.36 (KHTML, like Gecko) Chrome/138.0.0.0 Safari/537.36","WebKit","Chrome","138.0.0.0","Windows","10.0","https://app.prolific.com/","en-US,en;q=0.9","669c1e1fdb95a995eb1d3077","683dba9a53627eb9ab41b36a","6889faf5bb548d319e595a82","0","669c1e1fdb95a995eb1d3077","0","2025-07-30T11:09:35.980Z","","","","AttribQ","","","","","","","","","","","50","","","","","","","","","","","","","","","","","","","","","","","","","","",""
"3876","","<div style=""width:500px;"">
  <p>How much control did you have over the ball?</p>
  </div>","100","html-slider-response","15","596887","0.0-7.0-2.0","90","1","2025-07-30 10:59:41","36c45c0696341be0efffe67d72a12abb","216.120.189.119","Mozilla/5.0 (Windows NT 10.0; Win64; x64) AppleWebKit/537.36 (KHTML, like Gecko) Chrome/138.0.0.0 Safari/537.36","WebKit","Chrome","138.0.0.0","Windows","10.0","https://app.prolific.com/","en-US,en;q=0.9","669c1e1fdb95a995eb1d3077","683dba9a53627eb9ab41b36a","6889faf5bb548d319e595a82","0","669c1e1fdb95a995eb1d3077","0","2025-07-30T11:09:39.857Z","","","","ControlQ","","","","","","","","","","","50","","","","","","","","","","","","","","","","","","","","","","","","","","",""
"3420","","<div style=""width:500px;"">
  <p>How would you describe your current emotional state?</p>
  </div>","0","html-slider-response","16","600308","0.0-7.0-3.0","90","1","2025-07-30 10:59:41","36c45c0696341be0efffe67d72a12abb","216.120.189.119","Mozilla/5.0 (Windows NT 10.0; Win64; x64) AppleWebKit/537.36 (KHTML, like Gecko) Chrome/138.0.0.0 Safari/537.36","WebKit","Chrome","138.0.0.0","Windows","10.0","https://app.prolific.com/","en-US,en;q=0.9","669c1e1fdb95a995eb1d3077","683dba9a53627eb9ab41b36a","6889faf5bb548d319e595a82","0","669c1e1fdb95a995eb1d3077","0","2025-07-30T11:09:43.278Z","","","","StressQ","","","","","","","","","","","50","","","","","","","","","","","","","","","","","","","","","","","","","","",""
"3127","","<div style=""width:500px;"">
  <p>What best describes how you currently feel?</p>
  </div>","100","html-slider-response","17","603437","0.0-7.0-4.0","90","1","2025-07-30 10:59:41","36c45c0696341be0efffe67d72a12abb","216.120.189.119","Mozilla/5.0 (Windows NT 10.0; Win64; x64) AppleWebKit/537.36 (KHTML, like Gecko) Chrome/138.0.0.0 Safari/537.36","WebKit","Chrome","138.0.0.0","Windows","10.0","https://app.prolific.com/","en-US,en;q=0.9","669c1e1fdb95a995eb1d3077","683dba9a53627eb9ab41b36a","6889faf5bb548d319e595a82","0","669c1e1fdb95a995eb1d3077","0","2025-07-30T11:09:46.407Z","","","","MotivationQ","","","","","","","","","","","50","","","","","","","","","","","","","","","","","","","","","","","","","","",""
"","","","","ctl-task-cpt","18","634004","0.0-7.0-0.1","90","1","2025-07-30 10:59:41","36c45c0696341be0efffe67d72a12abb","216.120.189.119","Mozilla/5.0 (Windows NT 10.0; Win64; x64) AppleWebKit/537.36 (KHTML, like Gecko) Chrome/138.0.0.0 Safari/537.36","WebKit","Chrome","138.0.0.0","Windows","10.0","https://app.prolific.com/","en-US,en;q=0.9","669c1e1fdb95a995eb1d3077","683dba9a53627eb9ab41b36a","6889faf5bb548d319e595a82","0","669c1e1fdb95a995eb1d3077","0","2025-07-30T11:10:16.974Z","","","","","","","","","","","","","","","","win-only","1","g1:NE,g2:SW","0.9","2","0","608405.8","934.6","5944.4","27556.9","1","4","4","6","2","4","2","9","7","0.06818181818181818","1086.3","3000","1210","[""down"",""left""]","{""num_key_presses"":8,""num_perfect"":5,""num_errors"":2,""num_randdir"":1,""num_randdir_good_moves"":1,""num_whilered"":0,""num_whileblue"":2,""num_blue"":2,""num_good_moves"":7}","[297.22232142857143,293.12857142857143,0.9,297.22232142857143,293.12857142857143,104.2,297.22232142857143,293.12857142857143,209.3,368.22232142857143,248.12857142857143,315.2,433.22232142857143,169.12857142857143,423.8,279.22232142857143,296.12857142857143,531.7,132.22232142857143,465.12857142857143,637.2,83.22232142857143,524.1285714285714,739.6,82.22232142857143,524.1285714285714,845.2,75.22232142857143,531.1285714285714,946.9,75.22232142857143,534.1285714285714,1048.2,75.22232142857143,534.1285714285714,1150.3,96.22232142857143,510.12857142857143,1254.7,328.22232142857143,434.12857142857143,1355.9,575.2223214285714,314.12857142857143,1458.2,710.2223214285714,240.12857142857143,1564,710.2223214285714,240.12857142857143,1664.1,710.2223214285714,240.12857142857143,1772.2,710.2223214285714,240.12857142857143,1880.8,710.2223214285714,240.12857142857143,1983,710.2223214285714,240.12857142857143,2089.2,710.2223214285714,240.12857142857143,2190.3,710.2223214285714,240.12857142857143,2291.4,710.2223214285714,240.12857142857143,2395.9,710.2223214285714,240.12857142857143,2496.8,710.2223214285714,240.12857142857143,2597.1,710.2223214285714,240.12857142857143,2698.9,710.2223214285714,240.12857142857143,2799.3,710.2223214285714,240.12857142857143,2903.9,710.2223214285714,240.12857142857143,3008.6,710.2223214285714,240.12857142857143,3108.8,710.2223214285714,240.12857142857143,3209.2,710.2223214285714,240.12857142857143,3313,710.2223214285714,240.12857142857143,3418.5,710.2223214285714,240.12857142857143,3529.4,710.2223214285714,240.12857142857143,3630.1,710.2223214285714,240.12857142857143,3736.5,710.2223214285714,240.12857142857143,3838.8,710.2223214285714,240.12857142857143,3946.8,710.2223214285714,240.12857142857143,4051,710.2223214285714,240.12857142857143,4157.9,710.2223214285714,240.12857142857143,4258,710.2223214285714,240.12857142857143,4358.7,710.2223214285714,240.12857142857143,4464.4,710.2223214285714,240.12857142857143,4564.5,710.2223214285714,240.12857142857143,4666.5,710.2223214285714,240.12857142857143,4769.8,710.2223214285714,240.12857142857143,4879.4,710.2223214285714,240.12857142857143,4980]","[1348.4,1348.5,1000,0,348.5,""smooth"",""left"",""left"",""good_move"",3139,1789.9,1362.3,1349.1,427.6,""smooth"",""down"",""down"",""good_move"",6435.6,3294.8,2859.7,3140.8,435.2,""oops"",""left"",""down"",""good_move"",9119.2,2682.4,2258.5,6436.9,423.8,""smooth"",""left"",""left"",""good_move"",12095.7,2975.2,2598.1,9120.5,377.1,""while_blue"",""down"",""down"",""good_move"",15254.6,3158.6,2789.5,12096.1,369,""while_blue"",""left"",""right"",""bad_move"",17923.7,2667.6,2113.5,15256.2,554.1,""smooth"",""left"",""left"",""good_move"",21459.8,3535.2,3064.7,17924.6,470.5,""smooth"",""left"",""left"",""good_move""]"
"10350","","<div style=""width:500px;"">
  <p>What determined the result of this run?</p>
  </div>","100","html-slider-response","19","644357","0.0-7.0-1.1","90","1","2025-07-30 10:59:41","36c45c0696341be0efffe67d72a12abb","216.120.189.119","Mozilla/5.0 (Windows NT 10.0; Win64; x64) AppleWebKit/537.36 (KHTML, like Gecko) Chrome/138.0.0.0 Safari/537.36","WebKit","Chrome","138.0.0.0","Windows","10.0","https://app.prolific.com/","en-US,en;q=0.9","669c1e1fdb95a995eb1d3077","683dba9a53627eb9ab41b36a","6889faf5bb548d319e595a82","0","669c1e1fdb95a995eb1d3077","0","2025-07-30T11:10:27.327Z","","","","AttribQ","","","","","","","","","","","50","","","","","","","","","","","","","","","","","","","","","","","","","","",""
"4479","","<div style=""width:500px;"">
  <p>How much control did you have over the ball?</p>
  </div>","100","html-slider-response","20","648838","0.0-7.0-2.1","90","1","2025-07-30 10:59:41","36c45c0696341be0efffe67d72a12abb","216.120.189.119","Mozilla/5.0 (Windows NT 10.0; Win64; x64) AppleWebKit/537.36 (KHTML, like Gecko) Chrome/138.0.0.0 Safari/537.36","WebKit","Chrome","138.0.0.0","Windows","10.0","https://app.prolific.com/","en-US,en;q=0.9","669c1e1fdb95a995eb1d3077","683dba9a53627eb9ab41b36a","6889faf5bb548d319e595a82","0","669c1e1fdb95a995eb1d3077","0","2025-07-30T11:10:31.808Z","","","","ControlQ","","","","","","","","","","","50","","","","","","","","","","","","","","","","","","","","","","","","","","",""
"4353","","<div style=""width:500px;"">
  <p>How would you describe your current emotional state?</p>
  </div>","0","html-slider-response","21","653192","0.0-7.0-3.1","90","1","2025-07-30 10:59:41","36c45c0696341be0efffe67d72a12abb","216.120.189.119","Mozilla/5.0 (Windows NT 10.0; Win64; x64) AppleWebKit/537.36 (KHTML, like Gecko) Chrome/138.0.0.0 Safari/537.36","WebKit","Chrome","138.0.0.0","Windows","10.0","https://app.prolific.com/","en-US,en;q=0.9","669c1e1fdb95a995eb1d3077","683dba9a53627eb9ab41b36a","6889faf5bb548d319e595a82","0","669c1e1fdb95a995eb1d3077","0","2025-07-30T11:10:36.163Z","","","","StressQ","","","","","","","","","","","50","","","","","","","","","","","","","","","","","","","","","","","","","","",""
"8472","","<div style=""width:500px;"">
  <p>What best describes how you currently feel?</p>
  </div>","100","html-slider-response","22","661666","0.0-7.0-4.1","90","1","2025-07-30 10:59:41","36c45c0696341be0efffe67d72a12abb","216.120.189.119","Mozilla/5.0 (Windows NT 10.0; Win64; x64) AppleWebKit/537.36 (KHTML, like Gecko) Chrome/138.0.0.0 Safari/537.36","WebKit","Chrome","138.0.0.0","Windows","10.0","https://app.prolific.com/","en-US,en;q=0.9","669c1e1fdb95a995eb1d3077","683dba9a53627eb9ab41b36a","6889faf5bb548d319e595a82","0","669c1e1fdb95a995eb1d3077","0","2025-07-30T11:10:44.636Z","","","","MotivationQ","","","","","","","","","","","50","","","","","","","","","","","","","","","","","","","","","","","","","","",""
"","","","","ctl-task-cpt","23","705936","0.0-7.0-0.2","90","1","2025-07-30 10:59:41","36c45c0696341be0efffe67d72a12abb","216.120.189.119","Mozilla/5.0 (Windows NT 10.0; Win64; x64) AppleWebKit/537.36 (KHTML, like Gecko) Chrome/138.0.0.0 Safari/537.36","WebKit","Chrome","138.0.0.0","Windows","10.0","https://app.prolific.com/","en-US,en;q=0.9","669c1e1fdb95a995eb1d3077","683dba9a53627eb9ab41b36a","6889faf5bb548d319e595a82","0","669c1e1fdb95a995eb1d3077","0","2025-07-30T11:11:28.907Z","","","","","","","","","","","","","","","","win-only","1","g1:NE,g2:SW","0.8","3","0","666637.5","5390.8","10396.2","41257.4","1","4","4","6","2","4","4","13","9","0.09848484848484848","1693","3000","1410","[""down"",""left""]","{""num_key_presses"":6,""num_perfect"":6,""num_errors"":0,""num_randdir"":0,""num_randdir_good_moves"":0,""num_whilered"":0,""num_whileblue"":0,""num_blue"":4,""num_good_moves"":6}","[296.22232142857143,296.12857142857143,0.5,296.22232142857143,296.12857142857143,104.5,296.22232142857143,296.12857142857143,207,296.22232142857143,296.12857142857143,312.9,296.22232142857143,296.12857142857143,414.4,296.22232142857143,296.12857142857143,515.2,296.22232142857143,296.12857142857143,622.7,126.22232142857143,505.12857142857143,724.1,73.22232142857143,610.1285714285714,824.7,73.22232142857143,610.1285714285714,925.4,64.22232142857143,614.1285714285714,1029.2,48.222321428571426,609.1285714285714,1134.4,47.222321428571426,580.1285714285714,1239.3,47.222321428571426,574.1285714285714,1340.6,47.222321428571426,563.1285714285714,1453.4,47.222321428571426,562.1285714285714,1553.4,47.222321428571426,562.1285714285714,1654.4,47.222321428571426,562.1285714285714,1755.6,47.222321428571426,562.1285714285714,1855.9,47.222321428571426,562.1285714285714,1962.2,47.222321428571426,562.1285714285714,2064.5,47.222321428571426,562.1285714285714,2166.3,47.222321428571426,562.1285714285714,2270.5,47.222321428571426,562.1285714285714,2372.1,47.222321428571426,562.1285714285714,2480.4,47.222321428571426,562.1285714285714,2584.5,47.222321428571426,562.1285714285714,2691.2,47.222321428571426,562.1285714285714,2805.3,47.222321428571426,562.1285714285714,2910.5,47.222321428571426,562.1285714285714,3016.8,47.222321428571426,562.1285714285714,3117.8,47.222321428571426,562.1285714285714,3225.4,47.222321428571426,562.1285714285714,3326.2,47.222321428571426,562.1285714285714,3440.3,47.222321428571426,562.1285714285714,3555,47.222321428571426,562.1285714285714,3663.2,47.222321428571426,562.1285714285714,3765.1,47.222321428571426,562.1285714285714,3867.5,47.222321428571426,562.1285714285714,3973.9,47.222321428571426,562.1285714285714,4075.5,47.222321428571426,562.1285714285714,4177.6,47.222321428571426,562.1285714285714,4284.5,47.222321428571426,562.1285714285714,4408.1,47.222321428571426,562.1285714285714,4514.1,47.222321428571426,562.1285714285714,4619,47.222321428571426,562.1285714285714,4721.7,47.222321428571426,562.1285714285714,4833.2,47.222321428571426,562.1285714285714,4938.5]","[4957,4957,2502.4,2015.4,439.2,""smooth"",""left"",""left"",""good_move"",8094.4,3136.4,2668.8,4958,467.6,""smooth"",""down"",""down"",""good_move"",11463.7,3368.1,2957.8,8095.6,410.3,""smooth"",""down"",""down"",""good_move"",14095.1,2631.1,2155.3,11464.1,475.8,""smooth"",""left"",""left"",""good_move"",20111.6,6015.5,2119.4,17560.2,432,""smooth"",""down"",""down"",""good_move"",30732.4,10620.3,2609.9,27660.1,462.4,""smooth"",""left"",""left"",""good_move""]"
"6286","","<div style=""width:500px;"">
  <p>What determined the result of this run?</p>
  </div>","100","html-slider-response","24","712227","0.0-7.0-1.2","90","1","2025-07-30 10:59:41","36c45c0696341be0efffe67d72a12abb","216.120.189.119","Mozilla/5.0 (Windows NT 10.0; Win64; x64) AppleWebKit/537.36 (KHTML, like Gecko) Chrome/138.0.0.0 Safari/537.36","WebKit","Chrome","138.0.0.0","Windows","10.0","https://app.prolific.com/","en-US,en;q=0.9","669c1e1fdb95a995eb1d3077","683dba9a53627eb9ab41b36a","6889faf5bb548d319e595a82","0","669c1e1fdb95a995eb1d3077","0","2025-07-30T11:11:35.197Z","","","","AttribQ","","","","","","","","","","","50","","","","","","","","","","","","","","","","","","","","","","","","","","",""
"3764","","<div style=""width:500px;"">
  <p>How much control did you have over the ball?</p>
  </div>","100","html-slider-response","25","715993","0.0-7.0-2.2","90","1","2025-07-30 10:59:41","36c45c0696341be0efffe67d72a12abb","216.120.189.119","Mozilla/5.0 (Windows NT 10.0; Win64; x64) AppleWebKit/537.36 (KHTML, like Gecko) Chrome/138.0.0.0 Safari/537.36","WebKit","Chrome","138.0.0.0","Windows","10.0","https://app.prolific.com/","en-US,en;q=0.9","669c1e1fdb95a995eb1d3077","683dba9a53627eb9ab41b36a","6889faf5bb548d319e595a82","0","669c1e1fdb95a995eb1d3077","0","2025-07-30T11:11:38.964Z","","","","ControlQ","","","","","","","","","","","50","","","","","","","","","","","","","","","","","","","","","","","","","","",""
"4303","","<div style=""width:500px;"">
  <p>How would you describe your current emotional state?</p>
  </div>","0","html-slider-response","26","720298","0.0-7.0-3.2","90","1","2025-07-30 10:59:41","36c45c0696341be0efffe67d72a12abb","216.120.189.119","Mozilla/5.0 (Windows NT 10.0; Win64; x64) AppleWebKit/537.36 (KHTML, like Gecko) Chrome/138.0.0.0 Safari/537.36","WebKit","Chrome","138.0.0.0","Windows","10.0","https://app.prolific.com/","en-US,en;q=0.9","669c1e1fdb95a995eb1d3077","683dba9a53627eb9ab41b36a","6889faf5bb548d319e595a82","0","669c1e1fdb95a995eb1d3077","0","2025-07-30T11:11:43.268Z","","","","StressQ","","","","","","","","","","","50","","","","","","","","","","","","","","","","","","","","","","","","","","",""
"3168","","<div style=""width:500px;"">
  <p>What best describes how you currently feel?</p>
  </div>","100","html-slider-response","27","723468","0.0-7.0-4.2","90","1","2025-07-30 10:59:41","36c45c0696341be0efffe67d72a12abb","216.120.189.119","Mozilla/5.0 (Windows NT 10.0; Win64; x64) AppleWebKit/537.36 (KHTML, like Gecko) Chrome/138.0.0.0 Safari/537.36","WebKit","Chrome","138.0.0.0","Windows","10.0","https://app.prolific.com/","en-US,en;q=0.9","669c1e1fdb95a995eb1d3077","683dba9a53627eb9ab41b36a","6889faf5bb548d319e595a82","0","669c1e1fdb95a995eb1d3077","0","2025-07-30T11:11:46.438Z","","","","MotivationQ","","","","","","","","","","","50","","","","","","","","","","","","","","","","","","","","","","","","","","",""
"","","","","ctl-task-cpt","28","772602","0.0-7.0-0.3","90","1","2025-07-30 10:59:41","36c45c0696341be0efffe67d72a12abb","216.120.189.119","Mozilla/5.0 (Windows NT 10.0; Win64; x64) AppleWebKit/537.36 (KHTML, like Gecko) Chrome/138.0.0.0 Safari/537.36","WebKit","Chrome","138.0.0.0","Windows","10.0","https://app.prolific.com/","en-US,en;q=0.9","669c1e1fdb95a995eb1d3077","683dba9a53627eb9ab41b36a","6889faf5bb548d319e595a82","0","669c1e1fdb95a995eb1d3077","0","2025-07-30T11:12:35.572Z","","","","","","","","","","","","","","","","win-only","0","g1:NW,g2:SE","0.7","4","0","728441.2","2824","7827.5","46109.2","1","4","8","6","2","8","8","21","13","0.1590909090909091","1476.4","3000","710","[""down"",""right""]","{""num_key_presses"":8,""num_perfect"":5,""num_errors"":0,""num_randdir"":3,""num_randdir_good_moves"":2,""num_whilered"":0,""num_whileblue"":0,""num_blue"":5,""num_good_moves"":7}","[296.22232142857143,294.12857142857143,1.8,296.22232142857143,294.12857142857143,100.5,296.22232142857143,294.12857142857143,204.4,296.22232142857143,294.12857142857143,313.1,296.22232142857143,294.12857142857143,413.8,296.22232142857143,294.12857142857143,514.6,296.22232142857143,294.12857142857143,641.5,532.2223214285714,483.12857142857143,743.7,545.2223214285714,501.12857142857143,854.6,545.2223214285714,501.12857142857143,961.2,545.2223214285714,501.12857142857143,1063.4,545.2223214285714,515.1285714285714,1178,541.2223214285714,530.1285714285714,1283.4,541.2223214285714,530.1285714285714,1394.6,541.2223214285714,530.1285714285714,1506.1,541.2223214285714,530.1285714285714,1609.4,541.2223214285714,530.1285714285714,1711.2,541.2223214285714,530.1285714285714,1814.7,541.2223214285714,530.1285714285714,1920.8,541.2223214285714,530.1285714285714,2028.9,541.2223214285714,530.1285714285714,2132.7,541.2223214285714,530.1285714285714,2234.3,541.2223214285714,530.1285714285714,2334.3,541.2223214285714,530.1285714285714,2443,541.2223214285714,530.1285714285714,2550.4,541.2223214285714,530.1285714285714,2664.7,541.2223214285714,530.1285714285714,2765,541.2223214285714,530.1285714285714,2865,541.2223214285714,530.1285714285714,2974.9,541.2223214285714,530.1285714285714,3083.9,541.2223214285714,530.1285714285714,3194.2,541.2223214285714,530.1285714285714,3294.2,541.2223214285714,530.1285714285714,3399.5,541.2223214285714,530.1285714285714,3500.6,541.2223214285714,530.1285714285714,3613.9,541.2223214285714,530.1285714285714,3718.6,541.2223214285714,530.1285714285714,3823.8,541.2223214285714,530.1285714285714,3928.2,541.2223214285714,530.1285714285714,4037.7,541.2223214285714,530.1285714285714,4137.7,541.2223214285714,530.1285714285714,4250.7,541.2223214285714,530.1285714285714,4371.9,541.2223214285714,530.1285714285714,4474.1,541.2223214285714,530.1285714285714,4574.4,541.2223214285714,530.1285714285714,4674.4,541.2223214285714,530.1285714285714,4774.8,541.2223214285714,530.1285714285714,4882.6,541.2223214285714,530.1285714285714,4992.9]","[7585.7,7585.7,2362.3,4725.8,497.7,""smooth"",""right"",""right"",""good_move"",9223.8,1636.9,923.8,7586.9,713.1,""smooth"",""right"",""right"",""good_move"",18637,9412.8,2305.8,15859.8,471.5,""smooth"",""down"",""down"",""good_move"",26387.3,7749,2810.5,23161.4,415.5,""oops"",""down"",""right"",""good_move"",29542.3,3153.7,2791.7,26388.8,361.9,""oops"",""down"",""left"",""bad_move"",32627.4,3083.2,2682.2,29544.3,401.1,""oops"",""down"",""down"",""good_move"",35119.1,2489.7,2001.2,32629.5,488.4,""smooth"",""down"",""down"",""good_move"",38118.4,2998.7,2536.4,35119.7,462.4,""smooth"",""right"",""right"",""good_move""]"
"8052","","<div style=""width:500px;"">
  <p>What determined the result of this run?</p>
  </div>","100","html-slider-response","29","780656","0.0-7.0-1.3","90","1","2025-07-30 10:59:41","36c45c0696341be0efffe67d72a12abb","216.120.189.119","Mozilla/5.0 (Windows NT 10.0; Win64; x64) AppleWebKit/537.36 (KHTML, like Gecko) Chrome/138.0.0.0 Safari/537.36","WebKit","Chrome","138.0.0.0","Windows","10.0","https://app.prolific.com/","en-US,en;q=0.9","669c1e1fdb95a995eb1d3077","683dba9a53627eb9ab41b36a","6889faf5bb548d319e595a82","0","669c1e1fdb95a995eb1d3077","0","2025-07-30T11:12:43.626Z","","","","AttribQ","","","","","","","","","","","50","","","","","","","","","","","","","","","","","","","","","","","","","","",""
"2972","","<div style=""width:500px;"">
  <p>How much control did you have over the ball?</p>
  </div>","100","html-slider-response","30","783630","0.0-7.0-2.3","90","1","2025-07-30 10:59:41","36c45c0696341be0efffe67d72a12abb","216.120.189.119","Mozilla/5.0 (Windows NT 10.0; Win64; x64) AppleWebKit/537.36 (KHTML, like Gecko) Chrome/138.0.0.0 Safari/537.36","WebKit","Chrome","138.0.0.0","Windows","10.0","https://app.prolific.com/","en-US,en;q=0.9","669c1e1fdb95a995eb1d3077","683dba9a53627eb9ab41b36a","6889faf5bb548d319e595a82","0","669c1e1fdb95a995eb1d3077","0","2025-07-30T11:12:46.600Z","","","","ControlQ","","","","","","","","","","","50","","","","","","","","","","","","","","","","","","","","","","","","","","",""
"7526","","<div style=""width:500px;"">
  <p>How would you describe your current emotional state?</p>
  </div>","2","html-slider-response","31","791158","0.0-7.0-3.3","90","1","2025-07-30 10:59:41","36c45c0696341be0efffe67d72a12abb","216.120.189.119","Mozilla/5.0 (Windows NT 10.0; Win64; x64) AppleWebKit/537.36 (KHTML, like Gecko) Chrome/138.0.0.0 Safari/537.36","WebKit","Chrome","138.0.0.0","Windows","10.0","https://app.prolific.com/","en-US,en;q=0.9","669c1e1fdb95a995eb1d3077","683dba9a53627eb9ab41b36a","6889faf5bb548d319e595a82","0","669c1e1fdb95a995eb1d3077","0","2025-07-30T11:12:54.128Z","","","","StressQ","","","","","","","","","","","50","","","","","","","","","","","","","","","","","","","","","","","","","","",""
"3669","","<div style=""width:500px;"">
  <p>What best describes how you currently feel?</p>
  </div>","100","html-slider-response","32","794829","0.0-7.0-4.3","90","1","2025-07-30 10:59:41","36c45c0696341be0efffe67d72a12abb","216.120.189.119","Mozilla/5.0 (Windows NT 10.0; Win64; x64) AppleWebKit/537.36 (KHTML, like Gecko) Chrome/138.0.0.0 Safari/537.36","WebKit","Chrome","138.0.0.0","Windows","10.0","https://app.prolific.com/","en-US,en;q=0.9","669c1e1fdb95a995eb1d3077","683dba9a53627eb9ab41b36a","6889faf5bb548d319e595a82","0","669c1e1fdb95a995eb1d3077","0","2025-07-30T11:12:57.799Z","","","","MotivationQ","","","","","","","","","","","50","","","","","","","","","","","","","","","","","","","","","","","","","","",""
"","","","","ctl-task-cpt","33","848397","0.0-7.0-0.4","90","1","2025-07-30 10:59:41","36c45c0696341be0efffe67d72a12abb","216.120.189.119","Mozilla/5.0 (Windows NT 10.0; Win64; x64) AppleWebKit/537.36 (KHTML, like Gecko) Chrome/138.0.0.0 Safari/537.36","WebKit","Chrome","138.0.0.0","Windows","10.0","https://app.prolific.com/","en-US,en;q=0.9","669c1e1fdb95a995eb1d3077","683dba9a53627eb9ab41b36a","6889faf5bb548d319e595a82","0","669c1e1fdb95a995eb1d3077","0","2025-07-30T11:13:51.367Z","","","","","","","","","","","","","","","","win-only","1","g1:NE,g2:SW","0.6","5","0","799801.4","3099.9","8106.9","50548.3","1","4","8","6","2","-8","-8","13","21","0.09848484848484848","1430.8","3000","-1820","[""down"",""left""]","{""num_key_presses"":12,""num_perfect"":7,""num_errors"":0,""num_randdir"":5,""num_randdir_good_moves"":1,""num_whilered"":0,""num_whileblue"":0,""num_blue"":2,""num_good_moves"":8}","[291.22232142857143,298.12857142857143,1.2,291.22232142857143,298.12857142857143,102.9,291.22232142857143,298.12857142857143,206,291.22232142857143,298.12857142857143,317.6,291.22232142857143,298.12857142857143,422.8,291.22232142857143,300.12857142857143,524.3,181.22232142857143,584.1285714285714,627.4,135.22232142857143,623.1285714285714,733.7,132.22232142857143,625.1285714285714,840.1,132.22232142857143,625.1285714285714,944.2,115.22232142857143,613.1285714285714,1047.5,84.22232142857143,574.1285714285714,1157.5,80.22232142857143,570.1285714285714,1261.3,79.22232142857143,570.1285714285714,1361.8,79.22232142857143,570.1285714285714,1473,79.22232142857143,570.1285714285714,1573.3,79.22232142857143,570.1285714285714,1677,79.22232142857143,570.1285714285714,1777.2,79.22232142857143,570.1285714285714,1888.3,79.22232142857143,570.1285714285714,1993.9,79.22232142857143,570.1285714285714,2104.6,79.22232142857143,570.1285714285714,2206.9,79.22232142857143,570.1285714285714,2310.5,79.22232142857143,570.1285714285714,2422.6,79.22232142857143,570.1285714285714,2527.1,79.22232142857143,570.1285714285714,2627.3,79.22232142857143,570.1285714285714,2727.4,79.22232142857143,570.1285714285714,2827.6,79.22232142857143,570.1285714285714,2933.3,79.22232142857143,570.1285714285714,3038.3,79.22232142857143,570.1285714285714,3138.3,79.22232142857143,570.1285714285714,3250.7,79.22232142857143,570.1285714285714,3366.5,79.22232142857143,570.1285714285714,3469.5,79.22232142857143,570.1285714285714,3589.5,79.22232142857143,570.1285714285714,3694.3,79.22232142857143,570.1285714285714,3809.2,79.22232142857143,570.1285714285714,3912.9,79.22232142857143,570.1285714285714,4016.8,79.22232142857143,570.1285714285714,4118.4,79.22232142857143,570.1285714285714,4222.3,79.22232142857143,570.1285714285714,4323.3,79.22232142857143,570.1285714285714,4423.6,79.22232142857143,570.1285714285714,4527.8,79.22232142857143,570.1285714285714,4634.1,79.22232142857143,570.1285714285714,4734.4,79.22232142857143,570.1285714285714,4845.6,79.22232142857143,570.1285714285714,4955.8]","[5039,5039,2579.1,2005.5,454.5,""smooth"",""down"",""down"",""good_move"",7816.9,2775.8,2282.1,5041.1,493.7,""oops"",""down"",""down"",""good_move"",10657.4,2838.2,2373.7,7819.2,464.5,""oops"",""left"",""up"",""bad_move"",13160.5,2502.3,2074.1,10658.2,428.2,""smooth"",""left"",""left"",""good_move"",15903.6,2741.8,2331.2,13161.9,410.5,""oops"",""left"",""right"",""bad_move"",18511.7,2606.7,2236.1,15905,370.7,""smooth"",""down"",""down"",""good_move"",22363.3,3850.5,3417.5,18512.8,433,""oops"",""down"",""right"",""bad_move"",24680.7,2317,1890.6,22363.7,426.4,""smooth"",""left"",""left"",""good_move"",27295.2,2614.1,2229,24681.2,385.1,""smooth"",""down"",""down"",""good_move"",33921.8,6625.3,2474.2,30993.7,453.9,""smooth"",""left"",""left"",""good_move"",36653,2730.5,2326.3,33922.5,404.2,""oops"",""left"",""up"",""bad_move"",40026.2,3372.1,2978.2,36654.1,393.9,""smooth"",""left"",""left"",""good_move""]"
"5994","","<div style=""width:500px;"">
  <p>What determined the result of this run?</p>
  </div>","100","html-slider-response","34","854393","0.0-7.0-1.4","90","1","2025-07-30 10:59:41","36c45c0696341be0efffe67d72a12abb","216.120.189.119","Mozilla/5.0 (Windows NT 10.0; Win64; x64) AppleWebKit/537.36 (KHTML, like Gecko) Chrome/138.0.0.0 Safari/537.36","WebKit","Chrome","138.0.0.0","Windows","10.0","https://app.prolific.com/","en-US,en;q=0.9","669c1e1fdb95a995eb1d3077","683dba9a53627eb9ab41b36a","6889faf5bb548d319e595a82","0","669c1e1fdb95a995eb1d3077","0","2025-07-30T11:13:57.364Z","","","","AttribQ","","","","","","","","","","","50","","","","","","","","","","","","","","","","","","","","","","","","","","",""
"7481","","<div style=""width:500px;"">
  <p>How much control did you have over the ball?</p>
  </div>","100","html-slider-response","35","861877","0.0-7.0-2.4","90","1","2025-07-30 10:59:41","36c45c0696341be0efffe67d72a12abb","216.120.189.119","Mozilla/5.0 (Windows NT 10.0; Win64; x64) AppleWebKit/537.36 (KHTML, like Gecko) Chrome/138.0.0.0 Safari/537.36","WebKit","Chrome","138.0.0.0","Windows","10.0","https://app.prolific.com/","en-US,en;q=0.9","669c1e1fdb95a995eb1d3077","683dba9a53627eb9ab41b36a","6889faf5bb548d319e595a82","0","669c1e1fdb95a995eb1d3077","0","2025-07-30T11:14:04.847Z","","","","ControlQ","","","","","","","","","","","50","","","","","","","","","","","","","","","","","","","","","","","","","","",""
"4275","","<div style=""width:500px;"">
  <p>How would you describe your current emotional state?</p>
  </div>","2","html-slider-response","36","866154","0.0-7.0-3.4","90","1","2025-07-30 10:59:41","36c45c0696341be0efffe67d72a12abb","216.120.189.119","Mozilla/5.0 (Windows NT 10.0; Win64; x64) AppleWebKit/537.36 (KHTML, like Gecko) Chrome/138.0.0.0 Safari/537.36","WebKit","Chrome","138.0.0.0","Windows","10.0","https://app.prolific.com/","en-US,en;q=0.9","669c1e1fdb95a995eb1d3077","683dba9a53627eb9ab41b36a","6889faf5bb548d319e595a82","0","669c1e1fdb95a995eb1d3077","0","2025-07-30T11:14:09.124Z","","","","StressQ","","","","","","","","","","","50","","","","","","","","","","","","","","","","","","","","","","","","","","",""
"5903","","<div style=""width:500px;"">
  <p>What best describes how you currently feel?</p>
  </div>","100","html-slider-response","37","872060","0.0-7.0-4.4","90","1","2025-07-30 10:59:41","36c45c0696341be0efffe67d72a12abb","216.120.189.119","Mozilla/5.0 (Windows NT 10.0; Win64; x64) AppleWebKit/537.36 (KHTML, like Gecko) Chrome/138.0.0.0 Safari/537.36","WebKit","Chrome","138.0.0.0","Windows","10.0","https://app.prolific.com/","en-US,en;q=0.9","669c1e1fdb95a995eb1d3077","683dba9a53627eb9ab41b36a","6889faf5bb548d319e595a82","0","669c1e1fdb95a995eb1d3077","0","2025-07-30T11:14:15.030Z","","","","MotivationQ","","","","","","","","","","","50","","","","","","","","","","","","","","","","","","","","","","","","","","",""
"","","","","ctl-task-cpt","38","898428","0.0-7.0-0.5","90","1","2025-07-30 10:59:41","36c45c0696341be0efffe67d72a12abb","216.120.189.119","Mozilla/5.0 (Windows NT 10.0; Win64; x64) AppleWebKit/537.36 (KHTML, like Gecko) Chrome/138.0.0.0 Safari/537.36","WebKit","Chrome","138.0.0.0","Windows","10.0","https://app.prolific.com/","en-US,en;q=0.9","669c1e1fdb95a995eb1d3077","683dba9a53627eb9ab41b36a","6889faf5bb548d319e595a82","0","669c1e1fdb95a995eb1d3077","0","2025-07-30T11:14:41.399Z","","","","","","","","","","","","","","","","win-only","3","g1:SW,g2:NE","0.5","6","0","877032.9","1595.6","6596.6","23342.4","1","4","4","6","2","4","4","17","13","0.12878787878787878","1555.8","3000","1585","[""up"",""right""]","{""num_key_presses"":6,""num_perfect"":3,""num_errors"":0,""num_randdir"":3,""num_randdir_good_moves"":3,""num_whilered"":0,""num_whileblue"":0,""num_blue"":0,""num_good_moves"":6}","[294.22232142857143,292.12857142857143,0.7,294.22232142857143,292.12857142857143,105.4,294.22232142857143,292.12857142857143,216.3,294.22232142857143,292.12857142857143,320.9,294.22232142857143,292.12857142857143,427,294.22232142857143,292.12857142857143,533.1,294.22232142857143,292.12857142857143,651.2,439.22232142857143,63.128571428571426,759.3,469.22232142857143,25.128571428571426,867.2,473.22232142857143,25.128571428571426,971.1,473.22232142857143,25.128571428571426,1081.8,547.2223214285714,79.12857142857143,1182.9,552.2223214285714,81.12857142857143,1286,554.2223214285714,81.12857142857143,1396,554.2223214285714,81.12857142857143,1498.5,554.2223214285714,81.12857142857143,1605.6,554.2223214285714,81.12857142857143,1708.2,554.2223214285714,81.12857142857143,1832,554.2223214285714,81.12857142857143,1936.7,554.2223214285714,81.12857142857143,2047.4,554.2223214285714,81.12857142857143,2155.1,554.2223214285714,81.12857142857143,2256.9,554.2223214285714,81.12857142857143,2365.5,554.2223214285714,81.12857142857143,2465.9,554.2223214285714,81.12857142857143,2565.9,554.2223214285714,81.12857142857143,2681.7,554.2223214285714,81.12857142857143,2787.4,554.2223214285714,81.12857142857143,2898,554.2223214285714,81.12857142857143,2998,554.2223214285714,81.12857142857143,3098.2,554.2223214285714,81.12857142857143,3206,554.2223214285714,81.12857142857143,3306.5,554.2223214285714,81.12857142857143,3406.6,554.2223214285714,81.12857142857143,3514.7,554.2223214285714,81.12857142857143,3633,554.2223214285714,81.12857142857143,3737.1,554.2223214285714,81.12857142857143,3838.2,554.2223214285714,81.12857142857143,3946.4,554.2223214285714,81.12857142857143,4047.5,554.2223214285714,81.12857142857143,4147.5,554.2223214285714,81.12857142857143,4256.4,554.2223214285714,81.12857142857143,4356.5,554.2223214285714,81.12857142857143,4456.6,554.2223214285714,81.12857142857143,4571.1,554.2223214285714,81.12857142857143,4681.3,554.2223214285714,81.12857142857143,4786,554.2223214285714,81.12857142857143,4886.1,554.2223214285714,81.12857142857143,4987.6]","[1420.2,1420.2,1000,0,420.2,""smooth"",""up"",""up"",""good_move"",4425.8,3004,2673.4,1421.8,330.6,""smooth"",""right"",""right"",""good_move"",7195.1,2767.6,2295,4427.5,472.6,""oops"",""up"",""right"",""good_move"",10901.8,3706.2,3201.6,7195.6,504.6,""smooth"",""up"",""up"",""good_move"",13671.3,2768.5,2341.7,10902.8,426.8,""oops"",""up"",""up"",""good_move"",16571.2,2899.5,2532,13671.7,367.5,""oops"",""right"",""right"",""good_move""]"
"5362","","<div style=""width:500px;"">
  <p>What determined the result of this run?</p>
  </div>","100","html-slider-response","39","903793","0.0-7.0-1.5","90","1","2025-07-30 10:59:41","36c45c0696341be0efffe67d72a12abb","216.120.189.119","Mozilla/5.0 (Windows NT 10.0; Win64; x64) AppleWebKit/537.36 (KHTML, like Gecko) Chrome/138.0.0.0 Safari/537.36","WebKit","Chrome","138.0.0.0","Windows","10.0","https://app.prolific.com/","en-US,en;q=0.9","669c1e1fdb95a995eb1d3077","683dba9a53627eb9ab41b36a","6889faf5bb548d319e595a82","0","669c1e1fdb95a995eb1d3077","0","2025-07-30T11:14:46.763Z","","","","AttribQ","","","","","","","","","","","50","","","","","","","","","","","","","","","","","","","","","","","","","","",""
"5411","","<div style=""width:500px;"">
  <p>How much control did you have over the ball?</p>
  </div>","100","html-slider-response","40","909207","0.0-7.0-2.5","90","1","2025-07-30 10:59:41","36c45c0696341be0efffe67d72a12abb","216.120.189.119","Mozilla/5.0 (Windows NT 10.0; Win64; x64) AppleWebKit/537.36 (KHTML, like Gecko) Chrome/138.0.0.0 Safari/537.36","WebKit","Chrome","138.0.0.0","Windows","10.0","https://app.prolific.com/","en-US,en;q=0.9","669c1e1fdb95a995eb1d3077","683dba9a53627eb9ab41b36a","6889faf5bb548d319e595a82","0","669c1e1fdb95a995eb1d3077","0","2025-07-30T11:14:52.177Z","","","","ControlQ","","","","","","","","","","","50","","","","","","","","","","","","","","","","","","","","","","","","","","",""
"6585","","<div style=""width:500px;"">
  <p>How would you describe your current emotional state?</p>
  </div>","1","html-slider-response","41","915794","0.0-7.0-3.5","90","1","2025-07-30 10:59:41","36c45c0696341be0efffe67d72a12abb","216.120.189.119","Mozilla/5.0 (Windows NT 10.0; Win64; x64) AppleWebKit/537.36 (KHTML, like Gecko) Chrome/138.0.0.0 Safari/537.36","WebKit","Chrome","138.0.0.0","Windows","10.0","https://app.prolific.com/","en-US,en;q=0.9","669c1e1fdb95a995eb1d3077","683dba9a53627eb9ab41b36a","6889faf5bb548d319e595a82","0","669c1e1fdb95a995eb1d3077","0","2025-07-30T11:14:58.764Z","","","","StressQ","","","","","","","","","","","50","","","","","","","","","","","","","","","","","","","","","","","","","","",""
"2951","","<div style=""width:500px;"">
  <p>What best describes how you currently feel?</p>
  </div>","100","html-slider-response","42","918748","0.0-7.0-4.5","90","1","2025-07-30 10:59:41","36c45c0696341be0efffe67d72a12abb","216.120.189.119","Mozilla/5.0 (Windows NT 10.0; Win64; x64) AppleWebKit/537.36 (KHTML, like Gecko) Chrome/138.0.0.0 Safari/537.36","WebKit","Chrome","138.0.0.0","Windows","10.0","https://app.prolific.com/","en-US,en;q=0.9","669c1e1fdb95a995eb1d3077","683dba9a53627eb9ab41b36a","6889faf5bb548d319e595a82","0","669c1e1fdb95a995eb1d3077","0","2025-07-30T11:15:01.719Z","","","","MotivationQ","","","","","","","","","","","50","","","","","","","","","","","","","","","","","","","","","","","","","","",""
"","","","","ctl-task-cpt","43","968605","0.0-7.0-0.6","90","1","2025-07-30 10:59:41","36c45c0696341be0efffe67d72a12abb","216.120.189.119","Mozilla/5.0 (Windows NT 10.0; Win64; x64) AppleWebKit/537.36 (KHTML, like Gecko) Chrome/138.0.0.0 Safari/537.36","WebKit","Chrome","138.0.0.0","Windows","10.0","https://app.prolific.com/","en-US,en;q=0.9","669c1e1fdb95a995eb1d3077","683dba9a53627eb9ab41b36a","6889faf5bb548d319e595a82","0","669c1e1fdb95a995eb1d3077","0","2025-07-30T11:15:51.575Z","","","","","","","","","","","","","","","","win-only","2","g1:SE,g2:NW","0.4","7","0","923719.9","1308.5","6311.2","46842.2","1","4","8","6","2","-8","-9","8","17","0.06060606060606061","1245.3","3000","-1885","[""left"",""up""]","{""num_key_presses"":14,""num_perfect"":4,""num_errors"":1,""num_randdir"":9,""num_randdir_good_moves"":3,""num_whilered"":0,""num_whileblue"":1,""num_blue"":1,""num_good_moves"":8}","[304.22232142857143,292.12857142857143,0.8,304.22232142857143,292.12857142857143,115,304.22232142857143,292.12857142857143,230.3,304.22232142857143,292.12857142857143,330.5,304.22232142857143,292.12857142857143,436.7,304.22232142857143,292.12857142857143,540.7,304.22232142857143,292.12857142857143,648.1,92.22232142857143,79.12857142857143,750.2,74.22232142857143,42.128571428571426,854.3,73.22232142857143,40.128571428571426,955.2,73.22232142857143,40.128571428571426,1057.7,73.22232142857143,40.128571428571426,1160.4,73.22232142857143,40.128571428571426,1266.8,73.22232142857143,40.128571428571426,1370.5,73.22232142857143,40.128571428571426,1477.5,73.22232142857143,40.128571428571426,1587.3,73.22232142857143,40.128571428571426,1692.8,73.22232142857143,40.128571428571426,1811.6,73.22232142857143,40.128571428571426,1916.6,73.22232142857143,40.128571428571426,2028.3,73.22232142857143,40.128571428571426,2130.4,73.22232142857143,40.128571428571426,2245.3,73.22232142857143,40.128571428571426,2347.4,73.22232142857143,40.128571428571426,2448,73.22232142857143,40.128571428571426,2554.6,73.22232142857143,40.128571428571426,2656.5,73.22232142857143,40.128571428571426,2757.1,73.22232142857143,40.128571428571426,2859,73.22232142857143,40.128571428571426,2967.5,73.22232142857143,40.128571428571426,3074.7,73.22232142857143,40.128571428571426,3175.5,73.22232142857143,40.128571428571426,3277.8,73.22232142857143,40.128571428571426,3391.1,73.22232142857143,40.128571428571426,3494.9,73.22232142857143,40.128571428571426,3597.7,73.22232142857143,40.128571428571426,3706.1,73.22232142857143,40.128571428571426,3823.7,73.22232142857143,40.128571428571426,3930.3,73.22232142857143,40.128571428571426,4040,73.22232142857143,40.128571428571426,4160.1,73.22232142857143,40.128571428571426,4281.7,73.22232142857143,40.128571428571426,4384,73.22232142857143,40.128571428571426,4498.7,73.22232142857143,40.128571428571426,4599.9,73.22232142857143,40.128571428571426,4704.8,73.22232142857143,40.128571428571426,4812.2,73.22232142857143,40.128571428571426,4915.6]","[1373.2,1373.5,1000,0,373.5,""smooth"",""up"",""up"",""good_move"",4256.7,2882.3,2438.5,1374.4,443.8,""smooth"",""up"",""up"",""good_move"",6689.9,2431.4,2080.8,4258.5,350.6,""oops"",""left"",""right"",""bad_move"",9270.4,2578.4,2171.2,6692,407.2,""smooth"",""left"",""left"",""good_move"",11911.6,2636.9,2186.3,9274.7,450.6,""smooth"",""left"",""left"",""good_move"",14894.3,2981.9,2523.7,11912.4,458.2,""oops"",""up"",""right"",""bad_move"",18032.1,3137.1,2764.8,14895,372.4,""oops"",""up"",""left"",""good_move"",20853.3,2820,2414.3,18033.3,405.7,""oops"",""left"",""up"",""good_move"",23713.3,2859.4,2488.9,20853.9,370.5,""oops"",""left"",""right"",""bad_move"",25679.1,1965.1,1452.9,23714.1,512.2,""oops"",""left"",""left"",""good_move"",28467.5,2788,2469.2,25679.5,318.8,""oops"",""left"",""right"",""bad_move"",31432.5,2964.1,2631.1,28468.4,333,""while_blue"",""left"",""left"",""good_move"",34301.4,2868,2453.4,31433.4,414.6,""oops"",""left"",""right"",""bad_move"",37362,3059.8,2639.9,34302.2,419.9,""oops"",""left"",""right"",""bad_move""]"
"4993","","<div style=""width:500px;"">
  <p>What determined the result of this run?</p>
  </div>","100","html-slider-response","44","973599","0.0-7.0-1.6","90","1","2025-07-30 10:59:41","36c45c0696341be0efffe67d72a12abb","216.120.189.119","Mozilla/5.0 (Windows NT 10.0; Win64; x64) AppleWebKit/537.36 (KHTML, like Gecko) Chrome/138.0.0.0 Safari/537.36","WebKit","Chrome","138.0.0.0","Windows","10.0","https://app.prolific.com/","en-US,en;q=0.9","669c1e1fdb95a995eb1d3077","683dba9a53627eb9ab41b36a","6889faf5bb548d319e595a82","0","669c1e1fdb95a995eb1d3077","0","2025-07-30T11:15:56.570Z","","","","AttribQ","","","","","","","","","","","50","","","","","","","","","","","","","","","","","","","","","","","","","","",""
"3912","","<div style=""width:500px;"">
  <p>How much control did you have over the ball?</p>
  </div>","100","html-slider-response","45","977515","0.0-7.0-2.6","90","1","2025-07-30 10:59:41","36c45c0696341be0efffe67d72a12abb","216.120.189.119","Mozilla/5.0 (Windows NT 10.0; Win64; x64) AppleWebKit/537.36 (KHTML, like Gecko) Chrome/138.0.0.0 Safari/537.36","WebKit","Chrome","138.0.0.0","Windows","10.0","https://app.prolific.com/","en-US,en;q=0.9","669c1e1fdb95a995eb1d3077","683dba9a53627eb9ab41b36a","6889faf5bb548d319e595a82","0","669c1e1fdb95a995eb1d3077","0","2025-07-30T11:16:00.485Z","","","","ControlQ","","","","","","","","","","","50","","","","","","","","","","","","","","","","","","","","","","","","","","",""
"3334","","<div style=""width:500px;"">
  <p>How would you describe your current emotional state?</p>
  </div>","1","html-slider-response","46","980851","0.0-7.0-3.6","90","1","2025-07-30 10:59:41","36c45c0696341be0efffe67d72a12abb","216.120.189.119","Mozilla/5.0 (Windows NT 10.0; Win64; x64) AppleWebKit/537.36 (KHTML, like Gecko) Chrome/138.0.0.0 Safari/537.36","WebKit","Chrome","138.0.0.0","Windows","10.0","https://app.prolific.com/","en-US,en;q=0.9","669c1e1fdb95a995eb1d3077","683dba9a53627eb9ab41b36a","6889faf5bb548d319e595a82","0","669c1e1fdb95a995eb1d3077","0","2025-07-30T11:16:03.822Z","","","","StressQ","","","","","","","","","","","50","","","","","","","","","","","","","","","","","","","","","","","","","","",""
"5006","","<div style=""width:500px;"">
  <p>What best describes how you currently feel?</p>
  </div>","100","html-slider-response","47","985859","0.0-7.0-4.6","90","1","2025-07-30 10:59:41","36c45c0696341be0efffe67d72a12abb","216.120.189.119","Mozilla/5.0 (Windows NT 10.0; Win64; x64) AppleWebKit/537.36 (KHTML, like Gecko) Chrome/138.0.0.0 Safari/537.36","WebKit","Chrome","138.0.0.0","Windows","10.0","https://app.prolific.com/","en-US,en;q=0.9","669c1e1fdb95a995eb1d3077","683dba9a53627eb9ab41b36a","6889faf5bb548d319e595a82","0","669c1e1fdb95a995eb1d3077","0","2025-07-30T11:16:08.829Z","","","","MotivationQ","","","","","","","","","","","50","","","","","","","","","","","","","","","","","","","","","","","","","","",""
"","","","","ctl-task-cpt","48","1051820","0.0-7.0-0.7","90","1","2025-07-30 10:59:41","36c45c0696341be0efffe67d72a12abb","216.120.189.119","Mozilla/5.0 (Windows NT 10.0; Win64; x64) AppleWebKit/537.36 (KHTML, like Gecko) Chrome/138.0.0.0 Safari/537.36","WebKit","Chrome","138.0.0.0","Windows","10.0","https://app.prolific.com/","en-US,en;q=0.9","669c1e1fdb95a995eb1d3077","683dba9a53627eb9ab41b36a","6889faf5bb548d319e595a82","0","669c1e1fdb95a995eb1d3077","0","2025-07-30T11:17:14.790Z","","","","","","","","","","","","","","","","win-only","2","g1:SE,g2:NW","0.3","8","0","990832","8655.4","13657.1","62937.9","1","4","4","6","2","-4","-4","4","8","0.030303030303030304","2937.1","3000","-1740","[""left"",""up""]","{""num_key_presses"":13,""num_perfect"":4,""num_errors"":0,""num_randdir"":9,""num_randdir_good_moves"":4,""num_whilered"":0,""num_whileblue"":0,""num_blue"":3,""num_good_moves"":8}","[292.22232142857143,293.12857142857143,1.3,292.22232142857143,293.12857142857143,102.5,292.22232142857143,293.12857142857143,217.7,292.22232142857143,293.12857142857143,319.1,292.22232142857143,293.12857142857143,421.1,292.22232142857143,293.12857142857143,532.4,292.22232142857143,293.12857142857143,655.2,292.22232142857143,293.12857142857143,765.8,292.22232142857143,293.12857142857143,879.7,292.22232142857143,293.12857142857143,982,292.22232142857143,293.12857142857143,1082.8,292.22232142857143,293.12857142857143,1186.1,292.22232142857143,293.12857142857143,1290.3,292.22232142857143,293.12857142857143,1395.8,292.22232142857143,293.12857142857143,1498.7,290.22232142857143,189.12857142857143,1615.1,292.22232142857143,184.12857142857143,1716.7,299.22232142857143,199.12857142857143,1825.2,247.22232142857143,245.12857142857143,1926.9,44.222321428571426,-83.87142857142857,2027.9,24.222321428571426,-83.87142857142857,2137.3,24.222321428571426,-83.87142857142857,2241.6,24.222321428571426,-83.87142857142857,2349.2,24.222321428571426,7.128571428571426,2460,24.222321428571426,22.128571428571426,2564.1,29.222321428571426,37.128571428571426,2666.2,36.222321428571426,42.128571428571426,2770.6,36.222321428571426,42.128571428571426,2885,36.222321428571426,42.128571428571426,2986.7,36.222321428571426,42.128571428571426,3094.5,36.222321428571426,42.128571428571426,3208,36.222321428571426,42.128571428571426,3311.4,36.222321428571426,42.128571428571426,3415.8,36.222321428571426,42.128571428571426,3527.2,36.222321428571426,42.128571428571426,3630.1,36.222321428571426,42.128571428571426,3732.9,36.222321428571426,42.128571428571426,3833.7,36.222321428571426,42.128571428571426,3934.2,36.222321428571426,42.128571428571426,4036.7,36.222321428571426,42.128571428571426,4141,36.222321428571426,42.128571428571426,4266.6,36.222321428571426,42.128571428571426,4366.8,36.222321428571426,42.128571428571426,4470.7,36.222321428571426,42.128571428571426,4580,36.222321428571426,42.128571428571426,4680.5,36.222321428571426,42.128571428571426,4783.9,36.222321428571426,42.128571428571426,4890.3]","[8396.1,8396.1,2705.3,5254.8,436,""smooth"",""up"",""up"",""good_move"",10982.3,2585,2231.6,8397.3,353.4,""smooth"",""up"",""up"",""good_move"",14055.2,3071.9,2717.2,10983.3,354.7,""smooth"",""left"",""left"",""good_move"",16278.8,2222.7,1863.1,14056.1,359.6,""oops"",""left"",""right"",""bad_move"",19653.6,3373.5,3021.3,16280.2,352.2,""oops"",""up"",""left"",""good_move"",22548.5,2894.2,2589.7,19654.3,304.5,""oops"",""left"",""left"",""good_move"",25463.8,2914.7,2437.4,22549.1,477.3,""oops"",""left"",""down"",""bad_move"",28399.8,2934.8,2091.8,25465,843,""oops"",""up"",""left"",""good_move"",31095.2,2694.8,2172.9,28400.4,522,""oops"",""up"",""up"",""good_move"",33734.3,2637.5,2224.6,31096.9,412.8,""oops"",""up"",""down"",""bad_move"",36573.9,2838.9,2419.9,33735,419,""smooth"",""up"",""up"",""good_move"",43208.6,6633.9,2943.9,39848.9,415.8,""oops"",""right"",""right"",""bad_move"",46445.2,3235.6,2859.5,43209.6,376.1,""oops"",""up"",""down"",""bad_move""]"
"9300","","<div style=""width:500px;"">
  <p>What determined the result of this run?</p>
  </div>","100","html-slider-response","49","1061122","0.0-7.0-1.7","90","1","2025-07-30 10:59:41","36c45c0696341be0efffe67d72a12abb","216.120.189.119","Mozilla/5.0 (Windows NT 10.0; Win64; x64) AppleWebKit/537.36 (KHTML, like Gecko) Chrome/138.0.0.0 Safari/537.36","WebKit","Chrome","138.0.0.0","Windows","10.0","https://app.prolific.com/","en-US,en;q=0.9","669c1e1fdb95a995eb1d3077","683dba9a53627eb9ab41b36a","6889faf5bb548d319e595a82","0","669c1e1fdb95a995eb1d3077","0","2025-07-30T11:17:24.092Z","","","","AttribQ","","","","","","","","","","","50","","","","","","","","","","","","","","","","","","","","","","","","","","",""
"3581","","<div style=""width:500px;"">
  <p>How much control did you have over the ball?</p>
  </div>","100","html-slider-response","50","1064706","0.0-7.0-2.7","90","1","2025-07-30 10:59:41","36c45c0696341be0efffe67d72a12abb","216.120.189.119","Mozilla/5.0 (Windows NT 10.0; Win64; x64) AppleWebKit/537.36 (KHTML, like Gecko) Chrome/138.0.0.0 Safari/537.36","WebKit","Chrome","138.0.0.0","Windows","10.0","https://app.prolific.com/","en-US,en;q=0.9","669c1e1fdb95a995eb1d3077","683dba9a53627eb9ab41b36a","6889faf5bb548d319e595a82","0","669c1e1fdb95a995eb1d3077","0","2025-07-30T11:17:27.677Z","","","","ControlQ","","","","","","","","","","","50","","","","","","","","","","","","","","","","","","","","","","","","","","",""
"5353","","<div style=""width:500px;"">
  <p>How would you describe your current emotional state?</p>
  </div>","2","html-slider-response","51","1070062","0.0-7.0-3.7","90","1","2025-07-30 10:59:41","36c45c0696341be0efffe67d72a12abb","216.120.189.119","Mozilla/5.0 (Windows NT 10.0; Win64; x64) AppleWebKit/537.36 (KHTML, like Gecko) Chrome/138.0.0.0 Safari/537.36","WebKit","Chrome","138.0.0.0","Windows","10.0","https://app.prolific.com/","en-US,en;q=0.9","669c1e1fdb95a995eb1d3077","683dba9a53627eb9ab41b36a","6889faf5bb548d319e595a82","0","669c1e1fdb95a995eb1d3077","0","2025-07-30T11:17:33.032Z","","","","StressQ","","","","","","","","","","","50","","","","","","","","","","","","","","","","","","","","","","","","","","",""
"6181","","<div style=""width:500px;"">
  <p>What best describes how you currently feel?</p>
  </div>","100","html-slider-response","52","1076246","0.0-7.0-4.7","90","1","2025-07-30 10:59:41","36c45c0696341be0efffe67d72a12abb","216.120.189.119","Mozilla/5.0 (Windows NT 10.0; Win64; x64) AppleWebKit/537.36 (KHTML, like Gecko) Chrome/138.0.0.0 Safari/537.36","WebKit","Chrome","138.0.0.0","Windows","10.0","https://app.prolific.com/","en-US,en;q=0.9","669c1e1fdb95a995eb1d3077","683dba9a53627eb9ab41b36a","6889faf5bb548d319e595a82","0","669c1e1fdb95a995eb1d3077","0","2025-07-30T11:17:39.217Z","","","","MotivationQ","","","","","","","","","","","50","","","","","","","","","","","","","","","","","","","","","","","","","","",""
"","","","","ctl-task-cpt","53","1140793","0.0-7.0-0.8","90","1","2025-07-30 10:59:41","36c45c0696341be0efffe67d72a12abb","216.120.189.119","Mozilla/5.0 (Windows NT 10.0; Win64; x64) AppleWebKit/537.36 (KHTML, like Gecko) Chrome/138.0.0.0 Safari/537.36","WebKit","Chrome","138.0.0.0","Windows","10.0","https://app.prolific.com/","en-US,en;q=0.9","669c1e1fdb95a995eb1d3077","683dba9a53627eb9ab41b36a","6889faf5bb548d319e595a82","0","669c1e1fdb95a995eb1d3077","0","2025-07-30T11:18:43.763Z","","","","","","","","","","","","","","","","win-only","1","g1:NE,g2:SW","0.4","9","0","1081218.4","7098.1","12105.1","61526.4","1","4","8","6","2","-8","-9","0","4","0","1454.8","3000","-1635","[""down"",""left""]","{""num_key_presses"":13,""num_perfect"":4,""num_errors"":1,""num_randdir"":8,""num_randdir_good_moves"":5,""num_whilered"":0,""num_whileblue"":1,""num_blue"":3,""num_good_moves"":8}","[302.22232142857143,292.12857142857143,1.3,302.22232142857143,292.12857142857143,101.8,302.22232142857143,292.12857142857143,205.6,302.22232142857143,292.12857142857143,317.3,302.22232142857143,292.12857142857143,423.3,302.22232142857143,292.12857142857143,526.1,266.22232142857143,310.12857142857143,626.1,83.22232142857143,438.12857142857143,727.5,80.22232142857143,444.12857142857143,852.7,80.22232142857143,447.12857142857143,953.6,63.222321428571426,509.12857142857143,1074.6,58.222321428571426,523.1285714285714,1174.6,56.222321428571426,528.1285714285714,1274.8,56.222321428571426,528.1285714285714,1377.9,56.222321428571426,528.1285714285714,1478,56.222321428571426,528.1285714285714,1602.2,56.222321428571426,528.1285714285714,1711.1,56.222321428571426,528.1285714285714,1824.7,56.222321428571426,528.1285714285714,1924.7,56.222321428571426,528.1285714285714,2036.2,56.222321428571426,528.1285714285714,2137.8,56.222321428571426,528.1285714285714,2238.2,56.222321428571426,528.1285714285714,2344,56.222321428571426,528.1285714285714,2445.1,56.222321428571426,528.1285714285714,2563.8,56.222321428571426,528.1285714285714,2667.6,56.222321428571426,528.1285714285714,2768,56.222321428571426,528.1285714285714,2873.8,56.222321428571426,528.1285714285714,2974.9,56.222321428571426,528.1285714285714,3080.7,56.222321428571426,528.1285714285714,3180.7,56.222321428571426,528.1285714285714,3286.6,56.222321428571426,528.1285714285714,3388.5,56.222321428571426,528.1285714285714,3490.1,56.222321428571426,528.1285714285714,3609.5,56.222321428571426,528.1285714285714,3715.7,56.222321428571426,528.1285714285714,3819,56.222321428571426,528.1285714285714,3920.7,56.222321428571426,528.1285714285714,4037.5,56.222321428571426,528.1285714285714,4140.9,56.222321428571426,528.1285714285714,4244.2,56.222321428571426,528.1285714285714,4372.2,56.222321428571426,528.1285714285714,4516.5,56.222321428571426,528.1285714285714,4678.9,56.222321428571426,528.1285714285714,4788.2,56.222321428571426,528.1285714285714,4889.6,56.222321428571426,528.1285714285714,4990.1]","[1431.8,1431.8,1000,0,431.8,""smooth"",""down"",""down"",""good_move"",4681.9,3248.6,2828.9,1433.4,419.6,""smooth"",""down"",""down"",""good_move"",7127.9,2445.1,2040,4682.9,405,""oops"",""left"",""down"",""good_move"",10544,3415.6,2969.8,7128.5,445.8,""smooth"",""left"",""left"",""good_move"",14007.3,3462,2887.2,10545.3,574.8,""oops"",""left"",""right"",""bad_move"",16515.5,2507.7,1790.5,14007.9,717.2,""oops"",""left"",""right"",""bad_move"",19532.9,3016.9,2659,16516,357.9,""oops"",""left"",""right"",""bad_move"",22600.8,3067.2,2598.3,19533.7,468.8,""oops"",""left"",""left"",""good_move"",25855.3,3253.5,2828.4,22601.8,425.2,""while_blue"",""left"",""right"",""bad_move"",32997.6,7141.2,3084.5,29458.5,454.6,""oops"",""left"",""left"",""good_move"",36158.6,3160.4,2764.1,32998.2,396.3,""smooth"",""up"",""up"",""bad_move"",39514.7,3355.1,2908.2,36159.6,446.9,""oops"",""left"",""down"",""good_move"",46827.4,7311.8,3013.9,43354.2,459.3,""oops"",""left"",""left"",""good_move""]"
"5021","","<div style=""width:500px;"">
  <p>What determined the result of this run?</p>
  </div>","100","html-slider-response","54","1145817","0.0-7.0-1.8","90","1","2025-07-30 10:59:41","36c45c0696341be0efffe67d72a12abb","216.120.189.119","Mozilla/5.0 (Windows NT 10.0; Win64; x64) AppleWebKit/537.36 (KHTML, like Gecko) Chrome/138.0.0.0 Safari/537.36","WebKit","Chrome","138.0.0.0","Windows","10.0","https://app.prolific.com/","en-US,en;q=0.9","669c1e1fdb95a995eb1d3077","683dba9a53627eb9ab41b36a","6889faf5bb548d319e595a82","0","669c1e1fdb95a995eb1d3077","0","2025-07-30T11:18:48.787Z","","","","AttribQ","","","","","","","","","","","50","","","","","","","","","","","","","","","","","","","","","","","","","","",""
"3249","","<div style=""width:500px;"">
  <p>How much control did you have over the ball?</p>
  </div>","100","html-slider-response","55","1149068","0.0-7.0-2.8","90","1","2025-07-30 10:59:41","36c45c0696341be0efffe67d72a12abb","216.120.189.119","Mozilla/5.0 (Windows NT 10.0; Win64; x64) AppleWebKit/537.36 (KHTML, like Gecko) Chrome/138.0.0.0 Safari/537.36","WebKit","Chrome","138.0.0.0","Windows","10.0","https://app.prolific.com/","en-US,en;q=0.9","669c1e1fdb95a995eb1d3077","683dba9a53627eb9ab41b36a","6889faf5bb548d319e595a82","0","669c1e1fdb95a995eb1d3077","0","2025-07-30T11:18:52.038Z","","","","ControlQ","","","","","","","","","","","50","","","","","","","","","","","","","","","","","","","","","","","","","","",""
"3028","","<div style=""width:500px;"">
  <p>How would you describe your current emotional state?</p>
  </div>","1","html-slider-response","56","1152098","0.0-7.0-3.8","90","1","2025-07-30 10:59:41","36c45c0696341be0efffe67d72a12abb","216.120.189.119","Mozilla/5.0 (Windows NT 10.0; Win64; x64) AppleWebKit/537.36 (KHTML, like Gecko) Chrome/138.0.0.0 Safari/537.36","WebKit","Chrome","138.0.0.0","Windows","10.0","https://app.prolific.com/","en-US,en;q=0.9","669c1e1fdb95a995eb1d3077","683dba9a53627eb9ab41b36a","6889faf5bb548d319e595a82","0","669c1e1fdb95a995eb1d3077","0","2025-07-30T11:18:55.068Z","","","","StressQ","","","","","","","","","","","50","","","","","","","","","","","","","","","","","","","","","","","","","","",""
"5652","","<div style=""width:500px;"">
  <p>What best describes how you currently feel?</p>
  </div>","100","html-slider-response","57","1157752","0.0-7.0-4.8","90","1","2025-07-30 10:59:41","36c45c0696341be0efffe67d72a12abb","216.120.189.119","Mozilla/5.0 (Windows NT 10.0; Win64; x64) AppleWebKit/537.36 (KHTML, like Gecko) Chrome/138.0.0.0 Safari/537.36","WebKit","Chrome","138.0.0.0","Windows","10.0","https://app.prolific.com/","en-US,en;q=0.9","669c1e1fdb95a995eb1d3077","683dba9a53627eb9ab41b36a","6889faf5bb548d319e595a82","0","669c1e1fdb95a995eb1d3077","0","2025-07-30T11:19:00.722Z","","","","MotivationQ","","","","","","","","","","","50","","","","","","","","","","","","","","","","","","","","","","","","","","",""
"","","","","ctl-task-cpt","58","1231514","0.0-7.0-0.9","90","1","2025-07-30 10:59:41","36c45c0696341be0efffe67d72a12abb","216.120.189.119","Mozilla/5.0 (Windows NT 10.0; Win64; x64) AppleWebKit/537.36 (KHTML, like Gecko) Chrome/138.0.0.0 Safari/537.36","WebKit","Chrome","138.0.0.0","Windows","10.0","https://app.prolific.com/","en-US,en;q=0.9","669c1e1fdb95a995eb1d3077","683dba9a53627eb9ab41b36a","6889faf5bb548d319e595a82","0","669c1e1fdb95a995eb1d3077","0","2025-07-30T11:20:14.484Z","","","","","","","","","","","","","","","","win-only","3","g1:SW,g2:NE","0.5","10","0","1162725","11648.9","16651.2","70738.6","1","4","4","6","2","-4","-4","0","0","0","1844.2","3000","-1580","[""up"",""right""]","{""num_key_presses"":13,""num_perfect"":7,""num_errors"":0,""num_randdir"":6,""num_randdir_good_moves"":2,""num_whilered"":0,""num_whileblue"":0,""num_blue"":4,""num_good_moves"":9}","[300.22232142857143,295.12857142857143,0.7,300.22232142857143,295.12857142857143,102.7,300.22232142857143,295.12857142857143,231,300.22232142857143,295.12857142857143,335.3,300.22232142857143,295.12857142857143,440.2,300.22232142857143,295.12857142857143,545.3,300.22232142857143,295.12857142857143,648.2,304.22232142857143,289.12857142857143,749,452.22232142857143,145.12857142857143,854,641.2223214285714,-42.871428571428574,955,641.2223214285714,-42.871428571428574,1060,641.2223214285714,-42.871428571428574,1174.3,602.2223214285714,2.1285714285714263,1278.8,591.2223214285714,15.128571428571426,1398,581.2223214285714,23.128571428571426,1504.1,568.2223214285714,37.128571428571426,1610.1,565.2223214285714,41.128571428571426,1713.5,565.2223214285714,41.128571428571426,1813.7,565.2223214285714,41.128571428571426,1923.1,565.2223214285714,41.128571428571426,2035.8,565.2223214285714,41.128571428571426,2136.5,565.2223214285714,41.128571428571426,2243.8,565.2223214285714,41.128571428571426,2344.6,565.2223214285714,41.128571428571426,2447.4,565.2223214285714,41.128571428571426,2569.6,565.2223214285714,41.128571428571426,2670.1,565.2223214285714,41.128571428571426,2788.6,565.2223214285714,41.128571428571426,2891.9,565.2223214285714,41.128571428571426,2995.8,565.2223214285714,41.128571428571426,3098,565.2223214285714,41.128571428571426,3217.5,565.2223214285714,41.128571428571426,3317.9,565.2223214285714,41.128571428571426,3433.8,565.2223214285714,41.128571428571426,3539.2,565.2223214285714,41.128571428571426,3654.2,565.2223214285714,41.128571428571426,3756.7,565.2223214285714,41.128571428571426,3859.2,565.2223214285714,41.128571428571426,3968.4,565.2223214285714,41.128571428571426,4071.2,565.2223214285714,41.128571428571426,4203.6,565.2223214285714,41.128571428571426,4321.5,565.2223214285714,41.128571428571426,4424.8,565.2223214285714,41.128571428571426,4532.2,565.2223214285714,41.128571428571426,4635.7,565.2223214285714,41.128571428571426,4742.2,565.2223214285714,41.128571428571426,4847.1,565.2223214285714,41.128571428571426,4957.3]","[1362.7,1362.7,1000,0,362.7,""smooth"",""up"",""up"",""good_move"",3970.4,2606.7,2189.7,1363.8,416.9,""smooth"",""up"",""up"",""good_move"",7228.9,3258.2,2783.7,3970.7,474.6,""oops"",""right"",""down"",""bad_move"",10017,2786.7,2347.9,7230.3,438.8,""oops"",""right"",""down"",""bad_move"",16724.9,6707.2,2661,13613.7,450.2,""oops"",""right"",""down"",""bad_move"",19811.6,3086.2,2654,16725.4,432.2,""smooth"",""up"",""up"",""good_move"",26413.4,6600.9,2838.6,23172,402.8,""oops"",""up"",""down"",""bad_move"",29979.7,3565.7,3130.1,26414,435.6,""oops"",""right"",""up"",""good_move"",35851.1,5870.1,2250.6,33069.5,531,""smooth"",""right"",""right"",""good_move"",39241.5,3389.7,2978.7,35851.8,411,""smooth"",""right"",""right"",""good_move"",46294.2,7052,2410.5,43405.3,478.4,""smooth"",""up"",""up"",""good_move"",48872.8,2577.8,2144.8,46295,433,""smooth"",""up"",""up"",""good_move"",52083.5,3210,2736,48873.5,474,""oops"",""up"",""up"",""good_move""]"
"4950","","<div style=""width:500px;"">
  <p>What determined the result of this run?</p>
  </div>","97","html-slider-response","59","1236466","0.0-7.0-1.9","90","1","2025-07-30 10:59:41","36c45c0696341be0efffe67d72a12abb","216.120.189.119","Mozilla/5.0 (Windows NT 10.0; Win64; x64) AppleWebKit/537.36 (KHTML, like Gecko) Chrome/138.0.0.0 Safari/537.36","WebKit","Chrome","138.0.0.0","Windows","10.0","https://app.prolific.com/","en-US,en;q=0.9","669c1e1fdb95a995eb1d3077","683dba9a53627eb9ab41b36a","6889faf5bb548d319e595a82","0","669c1e1fdb95a995eb1d3077","0","2025-07-30T11:20:19.436Z","","","","AttribQ","","","","","","","","","","","50","","","","","","","","","","","","","","","","","","","","","","","","","","",""
"2811","","<div style=""width:500px;"">
  <p>How much control did you have over the ball?</p>
  </div>","98","html-slider-response","60","1239279","0.0-7.0-2.9","90","1","2025-07-30 10:59:41","36c45c0696341be0efffe67d72a12abb","216.120.189.119","Mozilla/5.0 (Windows NT 10.0; Win64; x64) AppleWebKit/537.36 (KHTML, like Gecko) Chrome/138.0.0.0 Safari/537.36","WebKit","Chrome","138.0.0.0","Windows","10.0","https://app.prolific.com/","en-US,en;q=0.9","669c1e1fdb95a995eb1d3077","683dba9a53627eb9ab41b36a","6889faf5bb548d319e595a82","0","669c1e1fdb95a995eb1d3077","0","2025-07-30T11:20:22.249Z","","","","ControlQ","","","","","","","","","","","50","","","","","","","","","","","","","","","","","","","","","","","","","","",""
"3449","","<div style=""width:500px;"">
  <p>How would you describe your current emotional state?</p>
  </div>","6","html-slider-response","61","1242730","0.0-7.0-3.9","90","1","2025-07-30 10:59:41","36c45c0696341be0efffe67d72a12abb","216.120.189.119","Mozilla/5.0 (Windows NT 10.0; Win64; x64) AppleWebKit/537.36 (KHTML, like Gecko) Chrome/138.0.0.0 Safari/537.36","WebKit","Chrome","138.0.0.0","Windows","10.0","https://app.prolific.com/","en-US,en;q=0.9","669c1e1fdb95a995eb1d3077","683dba9a53627eb9ab41b36a","6889faf5bb548d319e595a82","0","669c1e1fdb95a995eb1d3077","0","2025-07-30T11:20:25.700Z","","","","StressQ","","","","","","","","","","","50","","","","","","","","","","","","","","","","","","","","","","","","","","",""
"2918","","<div style=""width:500px;"">
  <p>What best describes how you currently feel?</p>
  </div>","100","html-slider-response","62","1245650","0.0-7.0-4.9","90","1","2025-07-30 10:59:41","36c45c0696341be0efffe67d72a12abb","216.120.189.119","Mozilla/5.0 (Windows NT 10.0; Win64; x64) AppleWebKit/537.36 (KHTML, like Gecko) Chrome/138.0.0.0 Safari/537.36","WebKit","Chrome","138.0.0.0","Windows","10.0","https://app.prolific.com/","en-US,en;q=0.9","669c1e1fdb95a995eb1d3077","683dba9a53627eb9ab41b36a","6889faf5bb548d319e595a82","0","669c1e1fdb95a995eb1d3077","0","2025-07-30T11:20:28.620Z","","","","MotivationQ","","","","","","","","","","","50","","","","","","","","","","","","","","","","","","","","","","","","","","",""
"","","","","ctl-task-cpt","63","1297898","0.0-7.0-0.10","90","1","2025-07-30 10:59:41","36c45c0696341be0efffe67d72a12abb","216.120.189.119","Mozilla/5.0 (Windows NT 10.0; Win64; x64) AppleWebKit/537.36 (KHTML, like Gecko) Chrome/138.0.0.0 Safari/537.36","WebKit","Chrome","138.0.0.0","Windows","10.0","https://app.prolific.com/","en-US,en;q=0.9","669c1e1fdb95a995eb1d3077","683dba9a53627eb9ab41b36a","6889faf5bb548d319e595a82","0","669c1e1fdb95a995eb1d3077","0","2025-07-30T11:21:20.868Z","","","","","","","","","","","","","","","","win-only","3","g1:SW,g2:NE","0.6","11","0","1250623.4","15802.6","20812","49227.2","1","4","8","6","2","8","8","8","0","0.06060606060606061","1987.1","3000","1060","[""up"",""right""]","{""num_key_presses"":10,""num_perfect"":6,""num_errors"":0,""num_randdir"":4,""num_randdir_good_moves"":2,""num_whilered"":0,""num_whileblue"":0,""num_blue"":0,""num_good_moves"":8}","[288.22232142857143,294.12857142857143,0.5,288.22232142857143,294.12857142857143,103.6,288.22232142857143,294.12857142857143,215.9,288.22232142857143,294.12857142857143,332,288.22232142857143,294.12857142857143,432.6,288.22232142857143,294.12857142857143,537,288.22232142857143,294.12857142857143,646.3,495.22232142857143,-76.87142857142857,748.1,495.22232142857143,-76.87142857142857,854.6,495.22232142857143,-76.87142857142857,961.3,509.22232142857143,-73.87142857142857,1065.4,517.2223214285714,-27.871428571428574,1191.3,532.2223214285714,-21.871428571428574,1291.4,557.2223214285714,-16.871428571428574,1393.1,560.2223214285714,-11.871428571428574,1496.7,556.2223214285714,18.128571428571426,1597.3,543.2223214285714,39.128571428571426,1700.4,543.2223214285714,40.128571428571426,1805.1,543.2223214285714,40.128571428571426,1909.7,543.2223214285714,40.128571428571426,2016.7,543.2223214285714,40.128571428571426,2133.8,543.2223214285714,40.128571428571426,2267,543.2223214285714,40.128571428571426,2370.7,543.2223214285714,40.128571428571426,2473.6,543.2223214285714,40.128571428571426,2575.7,543.2223214285714,40.128571428571426,2688.6,543.2223214285714,40.128571428571426,2790.1,543.2223214285714,40.128571428571426,2898.4,543.2223214285714,40.128571428571426,3049.5,543.2223214285714,40.128571428571426,3168.8,543.2223214285714,40.128571428571426,3280.5,543.2223214285714,40.128571428571426,3380.6,543.2223214285714,40.128571428571426,3508.7,543.2223214285714,40.128571428571426,3610.2,543.2223214285714,40.128571428571426,3717.2,543.2223214285714,40.128571428571426,3819.8,543.2223214285714,40.128571428571426,3929.7,543.2223214285714,40.128571428571426,4031.6,543.2223214285714,40.128571428571426,4164.9,543.2223214285714,40.128571428571426,4269.4,543.2223214285714,40.128571428571426,4371.7,543.2223214285714,40.128571428571426,4476.6,543.2223214285714,40.128571428571426,4586.8,543.2223214285714,40.128571428571426,4689.2,543.2223214285714,40.128571428571426,4790.9,543.2223214285714,40.128571428571426,4894.8]","[1428,1428,1000,0,428.1,""smooth"",""up"",""up"",""good_move"",4251.1,2822.1,2423.6,1429,398.5,""smooth"",""right"",""right"",""good_move"",7541.3,3288.3,2918.9,4253,369.4,""oops"",""up"",""right"",""good_move"",9567.7,2025.7,1470.8,7542,554.9,""smooth"",""up"",""up"",""good_move"",12375,2806.5,2380.8,9568.5,425.7,""oops"",""up"",""down"",""bad_move"",14770.5,2394.6,1954.4,12375.9,440.2,""smooth"",""up"",""up"",""good_move"",17888.2,3116.9,2673.4,14771.3,443.5,""smooth"",""right"",""right"",""good_move"",21220.4,3330.9,2933.1,17889.6,397.8,""oops"",""up"",""left"",""bad_move"",24973.9,3752.5,3285.4,21221.5,467,""oops"",""up"",""up"",""good_move"",28201.6,3226.9,2623.8,24974.7,603.1,""smooth"",""right"",""right"",""good_move""]"
"4600","","<div style=""width:500px;"">
  <p>What determined the result of this run?</p>
  </div>","100","html-slider-response","64","1302500","0.0-7.0-1.10","90","1","2025-07-30 10:59:41","36c45c0696341be0efffe67d72a12abb","216.120.189.119","Mozilla/5.0 (Windows NT 10.0; Win64; x64) AppleWebKit/537.36 (KHTML, like Gecko) Chrome/138.0.0.0 Safari/537.36","WebKit","Chrome","138.0.0.0","Windows","10.0","https://app.prolific.com/","en-US,en;q=0.9","669c1e1fdb95a995eb1d3077","683dba9a53627eb9ab41b36a","6889faf5bb548d319e595a82","0","669c1e1fdb95a995eb1d3077","0","2025-07-30T11:21:25.470Z","","","","AttribQ","","","","","","","","","","","50","","","","","","","","","","","","","","","","","","","","","","","","","","",""
"5443","","<div style=""width:500px;"">
  <p>How much control did you have over the ball?</p>
  </div>","95","html-slider-response","65","1307946","0.0-7.0-2.10","90","1","2025-07-30 10:59:41","36c45c0696341be0efffe67d72a12abb","216.120.189.119","Mozilla/5.0 (Windows NT 10.0; Win64; x64) AppleWebKit/537.36 (KHTML, like Gecko) Chrome/138.0.0.0 Safari/537.36","WebKit","Chrome","138.0.0.0","Windows","10.0","https://app.prolific.com/","en-US,en;q=0.9","669c1e1fdb95a995eb1d3077","683dba9a53627eb9ab41b36a","6889faf5bb548d319e595a82","0","669c1e1fdb95a995eb1d3077","0","2025-07-30T11:21:30.916Z","","","","ControlQ","","","","","","","","","","","50","","","","","","","","","","","","","","","","","","","","","","","","","","",""
"4749","","<div style=""width:500px;"">
  <p>How would you describe your current emotional state?</p>
  </div>","14","html-slider-response","66","1312697","0.0-7.0-3.10","90","1","2025-07-30 10:59:41","36c45c0696341be0efffe67d72a12abb","216.120.189.119","Mozilla/5.0 (Windows NT 10.0; Win64; x64) AppleWebKit/537.36 (KHTML, like Gecko) Chrome/138.0.0.0 Safari/537.36","WebKit","Chrome","138.0.0.0","Windows","10.0","https://app.prolific.com/","en-US,en;q=0.9","669c1e1fdb95a995eb1d3077","683dba9a53627eb9ab41b36a","6889faf5bb548d319e595a82","0","669c1e1fdb95a995eb1d3077","0","2025-07-30T11:21:35.667Z","","","","StressQ","","","","","","","","","","","50","","","","","","","","","","","","","","","","","","","","","","","","","","",""
"4250","","<div style=""width:500px;"">
  <p>What best describes how you currently feel?</p>
  </div>","100","html-slider-response","67","1316950","0.0-7.0-4.10","90","1","2025-07-30 10:59:41","36c45c0696341be0efffe67d72a12abb","216.120.189.119","Mozilla/5.0 (Windows NT 10.0; Win64; x64) AppleWebKit/537.36 (KHTML, like Gecko) Chrome/138.0.0.0 Safari/537.36","WebKit","Chrome","138.0.0.0","Windows","10.0","https://app.prolific.com/","en-US,en;q=0.9","669c1e1fdb95a995eb1d3077","683dba9a53627eb9ab41b36a","6889faf5bb548d319e595a82","0","669c1e1fdb95a995eb1d3077","0","2025-07-30T11:21:39.920Z","","","","MotivationQ","","","","","","","","","","","50","","","","","","","","","","","","","","","","","","","","","","","","","","",""
"","","","","ctl-task-cpt","68","1396687","0.0-7.0-0.11","90","1","2025-07-30 10:59:41","36c45c0696341be0efffe67d72a12abb","216.120.189.119","Mozilla/5.0 (Windows NT 10.0; Win64; x64) AppleWebKit/537.36 (KHTML, like Gecko) Chrome/138.0.0.0 Safari/537.36","WebKit","Chrome","138.0.0.0","Windows","10.0","https://app.prolific.com/","en-US,en;q=0.9","669c1e1fdb95a995eb1d3077","683dba9a53627eb9ab41b36a","6889faf5bb548d319e595a82","0","669c1e1fdb95a995eb1d3077","0","2025-07-30T11:22:59.657Z","","","","","","","","","","","","","","","","win-only","0","g1:NW,g2:SE","0.7","12","0","1321922.5","13409.1","18422.4","76707.6","1","4","4","6","2","4","3","11","8","0.08333333333333333","1362.5","3000","620","[""down"",""right""]","{""num_key_presses"":13,""num_perfect"":9,""num_errors"":1,""num_randdir"":3,""num_randdir_good_moves"":0,""num_whilered"":0,""num_whileblue"":0,""num_blue"":6,""num_good_moves"":9}","[290.22232142857143,290.12857142857143,1,290.22232142857143,290.12857142857143,106.9,290.22232142857143,290.12857142857143,241.1,290.22232142857143,290.12857142857143,350.9,290.22232142857143,290.12857142857143,458.4,316.22232142857143,320.12857142857143,562.9,477.22232142857143,480.12857142857143,663.3,504.22232142857143,507.12857142857143,779.5,504.22232142857143,507.12857142857143,880.7,525.2223214285714,524.1285714285714,1022.9,537.2223214285714,531.1285714285714,1127.7,539.2223214285714,531.1285714285714,1228.7,539.2223214285714,531.1285714285714,1328.9,539.2223214285714,531.1285714285714,1444.8,539.2223214285714,531.1285714285714,1545.2,539.2223214285714,531.1285714285714,1645.6,539.2223214285714,531.1285714285714,1776.7,539.2223214285714,531.1285714285714,1877,539.2223214285714,531.1285714285714,1980,539.2223214285714,531.1285714285714,2083.2,539.2223214285714,531.1285714285714,2185.5,539.2223214285714,531.1285714285714,2287.8,539.2223214285714,531.1285714285714,2393.3,539.2223214285714,531.1285714285714,2498.1,539.2223214285714,531.1285714285714,2605.1,539.2223214285714,531.1285714285714,2723.8,539.2223214285714,531.1285714285714,2829.7,539.2223214285714,531.1285714285714,2936.4,539.2223214285714,531.1285714285714,3049.6,539.2223214285714,531.1285714285714,3151.5,539.2223214285714,531.1285714285714,3253.8,539.2223214285714,531.1285714285714,3363.6,539.2223214285714,531.1285714285714,3471.5,539.2223214285714,531.1285714285714,3572,539.2223214285714,531.1285714285714,3678.3,539.2223214285714,531.1285714285714,3778.3,539.2223214285714,531.1285714285714,3879.5,539.2223214285714,531.1285714285714,3984.7,539.2223214285714,531.1285714285714,4089.9,539.2223214285714,531.1285714285714,4201.2,539.2223214285714,531.1285714285714,4309.3,539.2223214285714,531.1285714285714,4418.7,539.2223214285714,531.1285714285714,4521,539.2223214285714,531.1285714285714,4625.2,539.2223214285714,531.1285714285714,4734.9,539.2223214285714,531.1285714285714,4836.6,539.2223214285714,531.1285714285714,4947.5]","[1699.9,1699.9,1000,0,699.9,""smooth"",""right"",""right"",""good_move"",8941.1,7239.9,3007,5482,452.1,""oops"",""down"",""up"",""bad_move"",11704.7,2762.9,2333.2,8941.9,429.6,""smooth"",""down"",""down"",""good_move"",14426.6,2719.2,2332.9,11707.4,386.3,""smooth"",""right"",""right"",""good_move"",29416.4,14988.9,3333,25635,448.4,""oops"",""right"",""up"",""bad_move"",36124.2,6706.8,2662.9,33068.9,392.4,""smooth"",""down"",""down"",""good_move"",38547.7,2422.6,1923.4,36125.2,499.2,""smooth"",""down"",""down"",""good_move"",42831.7,4283.1,2591.6,41560.6,-1320.5,""error"",""-"",""-"",""no_move"",47345.7,4513.2,2873.5,43844,628.2,""smooth"",""right"",""right"",""good_move"",49879.6,2533.3,2108.6,47346.3,424.7,""oops"",""down"",""up"",""bad_move"",52998.6,3117.9,2626,49880.7,491.9,""smooth"",""down"",""down"",""good_move"",55396.8,2397.1,1943.3,52999.7,453.8,""smooth"",""down"",""down"",""good_move"",58045.1,2647.5,2118.7,55397.7,528.8,""smooth"",""down"",""down"",""good_move""]"
"4432","","<div style=""width:500px;"">
  <p>What determined the result of this run?</p>
  </div>","100","html-slider-response","69","1401121","0.0-7.0-1.11","90","1","2025-07-30 10:59:41","36c45c0696341be0efffe67d72a12abb","216.120.189.119","Mozilla/5.0 (Windows NT 10.0; Win64; x64) AppleWebKit/537.36 (KHTML, like Gecko) Chrome/138.0.0.0 Safari/537.36","WebKit","Chrome","138.0.0.0","Windows","10.0","https://app.prolific.com/","en-US,en;q=0.9","669c1e1fdb95a995eb1d3077","683dba9a53627eb9ab41b36a","6889faf5bb548d319e595a82","0","669c1e1fdb95a995eb1d3077","0","2025-07-30T11:23:04.091Z","","","","AttribQ","","","","","","","","","","","50","","","","","","","","","","","","","","","","","","","","","","","","","","",""
"3477","","<div style=""width:500px;"">
  <p>How much control did you have over the ball?</p>
  </div>","100","html-slider-response","70","1404601","0.0-7.0-2.11","90","1","2025-07-30 10:59:41","36c45c0696341be0efffe67d72a12abb","216.120.189.119","Mozilla/5.0 (Windows NT 10.0; Win64; x64) AppleWebKit/537.36 (KHTML, like Gecko) Chrome/138.0.0.0 Safari/537.36","WebKit","Chrome","138.0.0.0","Windows","10.0","https://app.prolific.com/","en-US,en;q=0.9","669c1e1fdb95a995eb1d3077","683dba9a53627eb9ab41b36a","6889faf5bb548d319e595a82","0","669c1e1fdb95a995eb1d3077","0","2025-07-30T11:23:07.572Z","","","","ControlQ","","","","","","","","","","","50","","","","","","","","","","","","","","","","","","","","","","","","","","",""
"4220","","<div style=""width:500px;"">
  <p>How would you describe your current emotional state?</p>
  </div>","1","html-slider-response","71","1408825","0.0-7.0-3.11","90","1","2025-07-30 10:59:41","36c45c0696341be0efffe67d72a12abb","216.120.189.119","Mozilla/5.0 (Windows NT 10.0; Win64; x64) AppleWebKit/537.36 (KHTML, like Gecko) Chrome/138.0.0.0 Safari/537.36","WebKit","Chrome","138.0.0.0","Windows","10.0","https://app.prolific.com/","en-US,en;q=0.9","669c1e1fdb95a995eb1d3077","683dba9a53627eb9ab41b36a","6889faf5bb548d319e595a82","0","669c1e1fdb95a995eb1d3077","0","2025-07-30T11:23:11.795Z","","","","StressQ","","","","","","","","","","","50","","","","","","","","","","","","","","","","","","","","","","","","","","",""
"2857","","<div style=""width:500px;"">
  <p>What best describes how you currently feel?</p>
  </div>","99","html-slider-response","72","1411685","0.0-7.0-4.11","90","1","2025-07-30 10:59:41","36c45c0696341be0efffe67d72a12abb","216.120.189.119","Mozilla/5.0 (Windows NT 10.0; Win64; x64) AppleWebKit/537.36 (KHTML, like Gecko) Chrome/138.0.0.0 Safari/537.36","WebKit","Chrome","138.0.0.0","Windows","10.0","https://app.prolific.com/","en-US,en;q=0.9","669c1e1fdb95a995eb1d3077","683dba9a53627eb9ab41b36a","6889faf5bb548d319e595a82","0","669c1e1fdb95a995eb1d3077","0","2025-07-30T11:23:14.655Z","","","","MotivationQ","","","","","","","","","","","50","","","","","","","","","","","","","","","","","","","","","","","","","","",""
"","","","","ctl-task-cpt","73","1444224","0.0-7.0-0.12","90","1","2025-07-30 10:59:41","36c45c0696341be0efffe67d72a12abb","216.120.189.119","Mozilla/5.0 (Windows NT 10.0; Win64; x64) AppleWebKit/537.36 (KHTML, like Gecko) Chrome/138.0.0.0 Safari/537.36","WebKit","Chrome","138.0.0.0","Windows","10.0","https://app.prolific.com/","en-US,en;q=0.9","669c1e1fdb95a995eb1d3077","683dba9a53627eb9ab41b36a","6889faf5bb548d319e595a82","0","669c1e1fdb95a995eb1d3077","0","2025-07-30T11:23:47.194Z","","","","","","","","","","","","","","","","win-only","3","g1:SW,g2:NE","0.8","13","0","1416659.2","1572.8","6593.4","29488.5","1","4","8","6","2","8","8","19","11","0.14393939393939395","1863.6","3000","2600","[""up"",""right""]","{""num_key_presses"":6,""num_perfect"":5,""num_errors"":0,""num_randdir"":1,""num_randdir_good_moves"":1,""num_whilered"":0,""num_whileblue"":0,""num_blue"":0,""num_good_moves"":6}","[294.22232142857143,296.12857142857143,1.1,294.22232142857143,296.12857142857143,116.4,294.22232142857143,296.12857142857143,235.5,294.22232142857143,296.12857142857143,360.3,294.22232142857143,296.12857142857143,493.7,294.22232142857143,296.12857142857143,619.7,645.2223214285714,-76.87142857142857,735.7,645.2223214285714,-76.87142857142857,844.8,665.2223214285714,-42.871428571428574,951.4,646.2223214285714,-23.871428571428574,1053.9,612.2223214285714,6.128571428571426,1167.7,601.2223214285714,14.128571428571426,1273.7,599.2223214285714,15.128571428571426,1379.4,572.2223214285714,34.128571428571426,1510.7,557.2223214285714,42.128571428571426,1644.2,551.2223214285714,44.128571428571426,1774.2,551.2223214285714,44.128571428571426,1879.6,551.2223214285714,44.128571428571426,2011.2,551.2223214285714,44.128571428571426,2115.3,551.2223214285714,44.128571428571426,2241.3,551.2223214285714,44.128571428571426,2369.4,551.2223214285714,44.128571428571426,2494,551.2223214285714,44.128571428571426,2618.7,551.2223214285714,44.128571428571426,2745.7,551.2223214285714,44.128571428571426,2873.2,551.2223214285714,44.128571428571426,2999.7,551.2223214285714,44.128571428571426,3103.2,551.2223214285714,44.128571428571426,3231.8,551.2223214285714,44.128571428571426,3333.5,551.2223214285714,44.128571428571426,3461.6,551.2223214285714,44.128571428571426,3590.9,551.2223214285714,44.128571428571426,3718.5,551.2223214285714,44.128571428571426,3846.1,551.2223214285714,44.128571428571426,3947.1,551.2223214285714,44.128571428571426,4054.5,551.2223214285714,44.128571428571426,4165.8,551.2223214285714,44.128571428571426,4293.3,551.2223214285714,44.128571428571426,4419.5,551.2223214285714,44.128571428571426,4547.6,551.2223214285714,44.128571428571426,4671.4,551.2223214285714,44.128571428571426,4800.1,551.2223214285714,44.128571428571426,4924.9]","[1473.3,1473.3,1000,0,473.3,""oops"",""up"",""right"",""good_move"",4195,2721.2,2231,1473.8,490.2,""smooth"",""up"",""up"",""good_move"",10133,5937.3,2303.7,4195.8,3633.5,""smooth"",""up"",""up"",""good_move"",16139.6,6006,1842.9,10133.6,4163.1,""smooth"",""right"",""right"",""good_move"",19353,3212.9,2727.7,16140.1,485.2,""smooth"",""right"",""right"",""good_move"",22241.9,2888.3,2393.3,19353.6,495,""smooth"",""up"",""up"",""good_move""]"
"6417","","<div style=""width:500px;"">
  <p>What determined the result of this run?</p>
  </div>","100","html-slider-response","74","1450646","0.0-7.0-1.12","90","1","2025-07-30 10:59:41","36c45c0696341be0efffe67d72a12abb","216.120.189.119","Mozilla/5.0 (Windows NT 10.0; Win64; x64) AppleWebKit/537.36 (KHTML, like Gecko) Chrome/138.0.0.0 Safari/537.36","WebKit","Chrome","138.0.0.0","Windows","10.0","https://app.prolific.com/","en-US,en;q=0.9","669c1e1fdb95a995eb1d3077","683dba9a53627eb9ab41b36a","6889faf5bb548d319e595a82","0","669c1e1fdb95a995eb1d3077","0","2025-07-30T11:23:53.616Z","","","","AttribQ","","","","","","","","","","","50","","","","","","","","","","","","","","","","","","","","","","","","","","",""
"2865","","<div style=""width:500px;"">
  <p>How much control did you have over the ball?</p>
  </div>","98","html-slider-response","75","1453515","0.0-7.0-2.12","90","1","2025-07-30 10:59:41","36c45c0696341be0efffe67d72a12abb","216.120.189.119","Mozilla/5.0 (Windows NT 10.0; Win64; x64) AppleWebKit/537.36 (KHTML, like Gecko) Chrome/138.0.0.0 Safari/537.36","WebKit","Chrome","138.0.0.0","Windows","10.0","https://app.prolific.com/","en-US,en;q=0.9","669c1e1fdb95a995eb1d3077","683dba9a53627eb9ab41b36a","6889faf5bb548d319e595a82","0","669c1e1fdb95a995eb1d3077","0","2025-07-30T11:23:56.485Z","","","","ControlQ","","","","","","","","","","","50","","","","","","","","","","","","","","","","","","","","","","","","","","",""
"3376","","<div style=""width:500px;"">
  <p>How would you describe your current emotional state?</p>
  </div>","6","html-slider-response","76","1456896","0.0-7.0-3.12","90","1","2025-07-30 10:59:41","36c45c0696341be0efffe67d72a12abb","216.120.189.119","Mozilla/5.0 (Windows NT 10.0; Win64; x64) AppleWebKit/537.36 (KHTML, like Gecko) Chrome/138.0.0.0 Safari/537.36","WebKit","Chrome","138.0.0.0","Windows","10.0","https://app.prolific.com/","en-US,en;q=0.9","669c1e1fdb95a995eb1d3077","683dba9a53627eb9ab41b36a","6889faf5bb548d319e595a82","0","669c1e1fdb95a995eb1d3077","0","2025-07-30T11:23:59.866Z","","","","StressQ","","","","","","","","","","","50","","","","","","","","","","","","","","","","","","","","","","","","","","",""
"3566","","<div style=""width:500px;"">
  <p>What best describes how you currently feel?</p>
