"rt","response_timestamp","stimulus","response","trial_type","trial_index","time_elapsed","internal_node_id","run_id","condition","recorded_at","source_code_version","ip","user_agent","device","browser","browser_version","platform","platform_version","referer","accept_language","PROLIFIC_PID","STUDY_ID","SESSION_ID","BATCH","prolific_id","batch","realtime","success","question_order","question_id","eventType","responses","item_order","radio_event_ids","radio_event_times","key_event_times","mouse_event_times","straightlining","zigzagging","honeypot","view_history","slider_start","which_type","canvas_config","goals_layout","control_level","trial_number","tutorial_trial_number","trial_start_time","phase1_start_time","phase2_start_time","phase3_start_time","goal_1_value","goal_1_distance","goal_2_value","goal_2_distance","goal_selected","outcome","outcome_total","participant_final_score","participant_initial_score","participant_final_score_prop","goal_choice_rt","allocated_time","allocated_time_remaining","goal_direction","counts","mouse_movements","key_presses"
"2607","1754470808755","<p style='font-size:40px;line-height:1.25'><strong>Welcome to the experiment!</strong></p><p style='font-size:1.1em;line-height:1.25'>Thank you for participanting in our experiment again! You will be asked to play the Dysfunctional Ball Game again. We will briefly recap the rules before we start.</p><p style='font-size:1.1em;line-height:1.25'>Press <strong>Next</strong> to continue.</p>","0","custom-html-button-response","0","2610","0.0-0.0","149","1","2025-08-06 09:00:03","36c45c0696341be0efffe67d72a12abb","41.144.67.54","Mozilla/5.0 (Windows NT 10.0; Win64; x64) AppleWebKit/537.36 (KHTML, like Gecko) Chrome/138.0.0.0 Safari/537.36","WebKit","Chrome","138.0.0.0","Windows","10.0","https://app.prolific.com/","en-US,en;q=0.9","669f76a7112b8713f104644c","6877649eabb845cf142cd221","689317277d56f829690716f7","1","669f76a7112b8713f104644c","1","2025-08-06T09:00:08.757Z","","","","","","","","","","","","","","","","","","","","","","","","","","","","","","","","","","","","","","","","","",""
"3281","","","","fullscreen","1","6902","0.0-1.0","149","1","2025-08-06 09:00:03","36c45c0696341be0efffe67d72a12abb","41.144.67.54","Mozilla/5.0 (Windows NT 10.0; Win64; x64) AppleWebKit/537.36 (KHTML, like Gecko) Chrome/138.0.0.0 Safari/537.36","WebKit","Chrome","138.0.0.0","Windows","10.0","https://app.prolific.com/","en-US,en;q=0.9","669f76a7112b8713f104644c","6877649eabb845cf142cd221","689317277d56f829690716f7","1","669f76a7112b8713f104644c","1","","true","","","","","","","","","","","","","","","","","","","","","","","","","","","","","","","","","","","","","","","","",""
"9949","1754470822998"," <p style='font-size:1.1em;line-height:1.25'>Thank you for closing all other tabs.</p><p style='font-size:1.1em;line-height:1.25'>We will now invite you to fill in some questionnaires, before starting the game.<br>This will take about 5 minutes.<br></p><p style='font-size:1.1em;line-height:1.25'>Press the <strong>Next</strong> button to continue.</p>","0","custom-html-button-response","2","16852","0.0-2.0","149","1","2025-08-06 09:00:03","36c45c0696341be0efffe67d72a12abb","41.144.67.54","Mozilla/5.0 (Windows NT 10.0; Win64; x64) AppleWebKit/537.36 (KHTML, like Gecko) Chrome/138.0.0.0 Safari/537.36","WebKit","Chrome","138.0.0.0","Windows","10.0","https://app.prolific.com/","en-US,en;q=0.9","669f76a7112b8713f104644c","6877649eabb845cf142cd221","689317277d56f829690716f7","1","669f76a7112b8713f104644c","1","2025-08-06T09:00:22.998Z","","","","","","","","","","","","","","","","","","","","","","","","","","","","","","","","","","","","","","","","","",""
"3506","","","{""assigned_sex"":""female""}","survey-multi-choice","3","20361","0.0-3.0-0.0","149","1","2025-08-06 09:00:03","36c45c0696341be0efffe67d72a12abb","41.144.67.54","Mozilla/5.0 (Windows NT 10.0; Win64; x64) AppleWebKit/537.36 (KHTML, like Gecko) Chrome/138.0.0.0 Safari/537.36","WebKit","Chrome","138.0.0.0","Windows","10.0","https://app.prolific.com/","en-US,en;q=0.9","669f76a7112b8713f104644c","6877649eabb845cf142cd221","689317277d56f829690716f7","1","669f76a7112b8713f104644c","1","","","[0]","0","demographics","","","","","","","","","","","","","","","","","","","","","","","","","","","","","","","","","","","","","",""
"22196","1754470848703","<p style='font-size:1.1em;line-height:1.25'>In the following, we will perform a baseline assessment. This means that we will ask you a few questions relating to your experiences over the past month.<br></p><p style='font-size:1.1em;line-height:1.25'>Press the <strong>Next</strong> button to continue.</p>","0","custom-html-button-response","4","42558","0.0-4.0-0.0","149","1","2025-08-06 09:00:03","36c45c0696341be0efffe67d72a12abb","41.144.67.54","Mozilla/5.0 (Windows NT 10.0; Win64; x64) AppleWebKit/537.36 (KHTML, like Gecko) Chrome/138.0.0.0 Safari/537.36","WebKit","Chrome","138.0.0.0","Windows","10.0","https://app.prolific.com/","en-US,en;q=0.9","669f76a7112b8713f104644c","6877649eabb845cf142cd221","689317277d56f829690716f7","1","669f76a7112b8713f104644c","1","2025-08-06T09:00:48.704Z","","","","","","","","","","","","","","","","","","","","","","","","","","","","","","","","","","","","","","","","","",""
"58022.200000047684","","","","survey-template","5","100584","0.0-4.0-1.0","149","1","2025-08-06 09:00:03","36c45c0696341be0efffe67d72a12abb","41.144.67.54","Mozilla/5.0 (Windows NT 10.0; Win64; x64) AppleWebKit/537.36 (KHTML, like Gecko) Chrome/138.0.0.0 Safari/537.36","WebKit","Chrome","138.0.0.0","Windows","10.0","https://app.prolific.com/","en-US,en;q=0.9","669f76a7112b8713f104644c","6877649eabb845cf142cd221","689317277d56f829690716f7","1","669f76a7112b8713f104644c","1","2025-08-06T09:01:46.730Z","","","","pss","{""Q01"":""2"",""Q02"":""2"",""Q03"":""3"",""Q04"":""3"",""Q05"":""2"",""Q06"":""3"",""Q07"":""2"",""Q08"":""2"",""Q09"":""3"",""Q10"":""4""}","[0,1,2,3,4,5,6,7,8,9]","[""Q01"",""Q02"",""Q03"",""Q04"",""Q05"",""Q06"",""Q07"",""Q08"",""Q09"",""Q10""]","[3847.7000000476837,10906.100000023842,12844.799999952316,19380.200000047684,27018.899999976158,37420.10000002384,39842.10000002384,46898.299999952316,51866.39999997616,56892.60000002384]","[]","[0.10000002384185791,3847.7000000476837,10906.100000023842,12068.5,12844.799999952316,19380.200000047684,25667.700000047684,26198.200000047684,27018.899999976158,37420.10000002384,38940.89999997616,39842.10000002384,46898.299999952316,50625.200000047684,51866.39999997616,56892.60000002384,58019.200000047684]","0.5","0.6666666666666666","0","","","","","","","","","","","","","","","","","","","","","","","","","","","","",""
"5025","1754470911755","<p style='font-size:1.1em;line-height:1.25'>Thank you for your answers! Now we will ask you a few more questions relating to your feelings in the last 24 hours.<br></p><p style='font-size:1.1em;line-height:1.25'>Press the <strong>Next</strong> button to continue.</p>","0","custom-html-button-response","6","105610","0.0-4.0-2.0","149","1","2025-08-06 09:00:03","36c45c0696341be0efffe67d72a12abb","41.144.67.54","Mozilla/5.0 (Windows NT 10.0; Win64; x64) AppleWebKit/537.36 (KHTML, like Gecko) Chrome/138.0.0.0 Safari/537.36","WebKit","Chrome","138.0.0.0","Windows","10.0","https://app.prolific.com/","en-US,en;q=0.9","669f76a7112b8713f104644c","6877649eabb845cf142cd221","689317277d56f829690716f7","1","669f76a7112b8713f104644c","1","2025-08-06T09:01:51.756Z","","","","","","","","","","","","","","","","","","","","","","","","","","","","","","","","","","","","","","","","","",""
"160511.5","","","","survey-template","7","266125","0.0-4.0-3.0","149","1","2025-08-06 09:00:03","36c45c0696341be0efffe67d72a12abb","41.144.67.54","Mozilla/5.0 (Windows NT 10.0; Win64; x64) AppleWebKit/537.36 (KHTML, like Gecko) Chrome/138.0.0.0 Safari/537.36","WebKit","Chrome","138.0.0.0","Windows","10.0","https://app.prolific.com/","en-US,en;q=0.9","669f76a7112b8713f104644c","6877649eabb845cf142cd221","689317277d56f829690716f7","1","669f76a7112b8713f104644c","1","2025-08-06T09:04:32.272Z","","","","drsp","{""Q01"":""2"",""Q02"":""3"",""Q03"":""0"",""Q04"":""2"",""Q05"":""2"",""Q06"":""4"",""Q07"":""2"",""Q08"":""0"",""Q09"":""3"",""Q10"":""3"",""Q11"":""3"",""Q12"":""4"",""Q13"":""5"",""Q14"":""4"",""Q15"":""5"",""Q16"":""5"",""Q17"":""4"",""Q18"":""3"",""Q19"":""0"",""Q20"":""2"",""Q21"":""2"",""Q22"":""3""}","[0,1,2,3,4,5,6,7,8,9,10,11,12,13,14,15,16,17,18,19,20,21]","[""Q01"",""Q02"",""Q03"",""Q04"",""Q05"",""Q06"",""Q07"",""Q08"",""Q09"",""Q10"",""Q11"",""Q12"",""Q13"",""Q14"",""Q15"",""Q16"",""Q17"",""Q18"",""Q19"",""Q20"",""Q21"",""Q22""]","[2478.2999999523163,4156.899999976158,5417.700000047684,8262.100000023842,10260.600000023842,12724.700000047684,14444.399999976158,17584.5,23452.299999952316,24528.600000023842,26050.299999952316,31697.100000023842,33098.39999997616,35651.10000002384,38378.39999997616,39567.89999997616,146280.79999995232,148766.70000004768,151633.10000002384,155524.70000004768,156813.10000002384,159111.10000002384]","[]","[0.10000002384185791,2478.2999999523163,4156.899999976158,5417.700000047684,6808.799999952316,7474.700000047684,7674.600000023842,8262.100000023842,9234.5,10260.600000023842,11561.700000047684,12724.700000047684,14444.399999976158,16671.5,17584.5,23452.299999952316,24528.600000023842,26050.299999952316,27481.399999976158,28927.5,29114.600000023842,29762.299999952316,30659.200000047684,31697.100000023842,33098.39999997616,35651.10000002384,38378.39999997616,39567.89999997616,146280.79999995232,148766.70000004768,150230.70000004768,150411.70000004768,151633.10000002384,154786.20000004768,155524.70000004768,156813.10000002384,159111.10000002384,160506.10000002384]","0.2727272727272727","0.38095238095238093","0","","","","","","","","","","","","","","","","","","","","","","","","","","","","",""
"86694.30000007153","","","","survey-template","8","352822","0.0-4.0-4.0","149","1","2025-08-06 09:00:03","36c45c0696341be0efffe67d72a12abb","41.144.67.54","Mozilla/5.0 (Windows NT 10.0; Win64; x64) AppleWebKit/537.36 (KHTML, like Gecko) Chrome/138.0.0.0 Safari/537.36","WebKit","Chrome","138.0.0.0","Windows","10.0","https://app.prolific.com/","en-US,en;q=0.9","669f76a7112b8713f104644c","6877649eabb845cf142cd221","689317277d56f829690716f7","1","669f76a7112b8713f104644c","1","2025-08-06T09:05:58.968Z","","","","stress","{""Q01"":""3"",""Q02"":""4"",""Q03"":""4""}","[0,1,2]","[""Q01"",""Q02"",""Q03""]","[3815.5,12358.100000023842,15703.900000095367]","[]","[473.10000002384186,2714.2000000476837,3815.5,12358.100000023842,15703.900000095367,86693.20000004768]","0.3333333333333333","0","0","","","","","","","","","","","","","","","","","","","","","","","","","","","","",""
"2365","","","","instructions","9","355188","0.0-5.0-0.0","149","1","2025-08-06 09:00:03","36c45c0696341be0efffe67d72a12abb","41.144.67.54","Mozilla/5.0 (Windows NT 10.0; Win64; x64) AppleWebKit/537.36 (KHTML, like Gecko) Chrome/138.0.0.0 Safari/537.36","WebKit","Chrome","138.0.0.0","Windows","10.0","https://app.prolific.com/","en-US,en;q=0.9","669f76a7112b8713f104644c","6877649eabb845cf142cd221","689317277d56f829690716f7","1","669f76a7112b8713f104644c","1","","","","","","","","","","","","","","","[{""page_index"":0,""viewing_time"":2365}]","","","","","","","","","","","","","","","","","","","","","","","","","","","",""
"3829","","<p>Before you start with this game please answer the following three questions yourself. </p>
  <p>Through this game, we measure several aspects of your cognitive performance, such as reaction times, multi-tasking capabilities </p>
  <p>and the ability to assess the situation you are in.</p>
  <p></p>
  <p><b>How good do you usually are in such tasks?</b></p>","84","html-slider-response","10","359018","0.0-6.0-0.0","149","1","2025-08-06 09:00:03","36c45c0696341be0efffe67d72a12abb","41.144.67.54","Mozilla/5.0 (Windows NT 10.0; Win64; x64) AppleWebKit/537.36 (KHTML, like Gecko) Chrome/138.0.0.0 Safari/537.36","WebKit","Chrome","138.0.0.0","Windows","10.0","https://app.prolific.com/","en-US,en;q=0.9","669f76a7112b8713f104644c","6877649eabb845cf142cd221","689317277d56f829690716f7","1","669f76a7112b8713f104644c","1","2025-08-06T09:06:05.164Z","","","","PreSkillQ","","","","","","","","","","","50","","","","","","","","","","","","","","","","","","","","","","","","","","",""
"4839","","<div style=""width:500px;"">
  <p>How well do you think you will perform in this task compared to other participants?</p>
  </div>","91","html-slider-response","11","363858","0.0-6.0-1.0","149","1","2025-08-06 09:00:03","36c45c0696341be0efffe67d72a12abb","41.144.67.54","Mozilla/5.0 (Windows NT 10.0; Win64; x64) AppleWebKit/537.36 (KHTML, like Gecko) Chrome/138.0.0.0 Safari/537.36","WebKit","Chrome","138.0.0.0","Windows","10.0","https://app.prolific.com/","en-US,en;q=0.9","669f76a7112b8713f104644c","6877649eabb845cf142cd221","689317277d56f829690716f7","1","669f76a7112b8713f104644c","1","2025-08-06T09:06:10.005Z","","","","PrePerfQ","","","","","","","","","","","50","","","","","","","","","","","","","","","","","","","","","","","","","","",""
"5756","","<div style=""width:500px;"">
  <p>What best describes how you currently feel?</p>
  </div>","100","html-slider-response","12","369616","0.0-6.0-2.0","149","1","2025-08-06 09:00:03","36c45c0696341be0efffe67d72a12abb","41.144.67.54","Mozilla/5.0 (Windows NT 10.0; Win64; x64) AppleWebKit/537.36 (KHTML, like Gecko) Chrome/138.0.0.0 Safari/537.36","WebKit","Chrome","138.0.0.0","Windows","10.0","https://app.prolific.com/","en-US,en;q=0.9","669f76a7112b8713f104644c","6877649eabb845cf142cd221","689317277d56f829690716f7","1","669f76a7112b8713f104644c","1","2025-08-06T09:06:15.762Z","","","","PreMotivationQ","","","","","","","","","","","50","","","","","","","","","","","","","","","","","","","","","","","","","","",""
"","","","","ctl-task-cpt","13","402568","0.0-7.0-0.0","149","1","2025-08-06 09:00:03","36c45c0696341be0efffe67d72a12abb","41.144.67.54","Mozilla/5.0 (Windows NT 10.0; Win64; x64) AppleWebKit/537.36 (KHTML, like Gecko) Chrome/138.0.0.0 Safari/537.36","WebKit","Chrome","138.0.0.0","Windows","10.0","https://app.prolific.com/","en-US,en;q=0.9","669f76a7112b8713f104644c","6877649eabb845cf142cd221","689317277d56f829690716f7","1","669f76a7112b8713f104644c","1","2025-08-06T09:06:48.714Z","","","","","","","","","","","","","","","","win-only","1","g1:NE,g2:SW","1","1","0","373823.9","1559.4","6562.2","29943.1","1","4","4","6","2","-4","-4","0","0","0","1376.1","3000","-2685","[""down"",""left""]","{""num_key_presses"":5,""num_perfect"":5,""num_errors"":0,""num_randdir"":0,""num_randdir_good_moves"":0,""num_whilered"":0,""num_whileblue"":0,""num_blue"":2,""num_good_moves"":5}","[294.22232142857143,294.12857142857143,0.3,294.22232142857143,294.12857142857143,102.2,294.22232142857143,294.12857142857143,206.9,294.22232142857143,294.12857142857143,307.1,294.22232142857143,294.12857142857143,411.4,294.22232142857143,294.12857142857143,512.1,294.22232142857143,294.12857142857143,616,196.22232142857143,389.12857142857143,718.3,133.22232142857143,449.12857142857143,821.8,95.22232142857143,495.12857142857143,922.5,74.22232142857143,525.1285714285714,1023,72.22232142857143,528.1285714285714,1126.4,72.22232142857143,528.1285714285714,1226.8,72.22232142857143,528.1285714285714,1331.4,72.22232142857143,528.1285714285714,1431.5,72.22232142857143,528.1285714285714,1531.9,72.22232142857143,528.1285714285714,1636.3,82.22232142857143,498.12857142857143,1741.1,179.22232142857143,366.12857142857143,1846.2,229.22232142857143,306.12857142857143,1946.8,256.22232142857143,288.12857142857143,2051.6,321.22232142857143,237.12857142857143,2156.7,328.22232142857143,235.12857142857143,2261.1,343.22232142857143,233.12857142857143,2362.4,343.22232142857143,233.12857142857143,2466.3,343.22232142857143,233.12857142857143,2566.3,343.22232142857143,233.12857142857143,2666.4,343.22232142857143,243.12857142857143,2767.1,343.22232142857143,247.12857142857143,2872.4,343.22232142857143,247.12857142857143,2976.4,343.22232142857143,247.12857142857143,3076.5,343.22232142857143,247.12857142857143,3177,343.22232142857143,247.12857142857143,3277.2,343.22232142857143,247.12857142857143,3381.7,343.22232142857143,247.12857142857143,3486,343.22232142857143,247.12857142857143,3587.1,343.22232142857143,247.12857142857143,3691.3,343.22232142857143,247.12857142857143,3796.4,343.22232142857143,247.12857142857143,3896.6,343.22232142857143,247.12857142857143,3996.7,343.22232142857143,247.12857142857143,4102.8,343.22232142857143,247.12857142857143,4206,343.22232142857143,247.12857142857143,4306.1,343.22232142857143,247.12857142857143,4406.8,343.22232142857143,247.12857142857143,4511.3,343.22232142857143,247.12857142857143,4611.3,343.22232142857143,247.12857142857143,4716.2,343.22232142857143,247.12857142857143,4816.6,343.22232142857143,247.12857142857143,4917.4]","[4629.2,4629.2,2061,2008.9,559.3,""smooth"",""left"",""left"",""good_move"",8606.4,3976.9,3576.5,4629.8,400.4,""smooth"",""left"",""left"",""good_move"",11454,2845,2360.9,8609.1,484,""smooth"",""left"",""left"",""good_move"",17606.2,6151.6,2642.3,14539,424.9,""smooth"",""down"",""down"",""good_move"",20601,2994.4,1721.9,17606.6,1272.5,""smooth"",""down"",""down"",""good_move""]"
"3873","","<div style=""width:500px;"">
  <p>What determined the result of this run?</p>
  </div>","30","html-slider-response","14","406442","0.0-7.0-1.0","149","1","2025-08-06 09:00:03","36c45c0696341be0efffe67d72a12abb","41.144.67.54","Mozilla/5.0 (Windows NT 10.0; Win64; x64) AppleWebKit/537.36 (KHTML, like Gecko) Chrome/138.0.0.0 Safari/537.36","WebKit","Chrome","138.0.0.0","Windows","10.0","https://app.prolific.com/","en-US,en;q=0.9","669f76a7112b8713f104644c","6877649eabb845cf142cd221","689317277d56f829690716f7","1","669f76a7112b8713f104644c","1","2025-08-06T09:06:52.588Z","","","","AttribQ","","","","","","","","","","","50","","","","","","","","","","","","","","","","","","","","","","","","","","",""
"4699","","<div style=""width:500px;"">
  <p>How much control did you have over the ball?</p>
  </div>","41","html-slider-response","15","411143","0.0-7.0-2.0","149","1","2025-08-06 09:00:03","36c45c0696341be0efffe67d72a12abb","41.144.67.54","Mozilla/5.0 (Windows NT 10.0; Win64; x64) AppleWebKit/537.36 (KHTML, like Gecko) Chrome/138.0.0.0 Safari/537.36","WebKit","Chrome","138.0.0.0","Windows","10.0","https://app.prolific.com/","en-US,en;q=0.9","669f76a7112b8713f104644c","6877649eabb845cf142cd221","689317277d56f829690716f7","1","669f76a7112b8713f104644c","1","2025-08-06T09:06:57.289Z","","","","ControlQ","","","","","","","","","","","50","","","","","","","","","","","","","","","","","","","","","","","","","","",""
"2988","","<div style=""width:500px;"">
  <p>How would you describe your current emotional state?</p>
  </div>","63","html-slider-response","16","414132","0.0-7.0-3.0","149","1","2025-08-06 09:00:03","36c45c0696341be0efffe67d72a12abb","41.144.67.54","Mozilla/5.0 (Windows NT 10.0; Win64; x64) AppleWebKit/537.36 (KHTML, like Gecko) Chrome/138.0.0.0 Safari/537.36","WebKit","Chrome","138.0.0.0","Windows","10.0","https://app.prolific.com/","en-US,en;q=0.9","669f76a7112b8713f104644c","6877649eabb845cf142cd221","689317277d56f829690716f7","1","669f76a7112b8713f104644c","1","2025-08-06T09:07:00.278Z","","","","StressQ","","","","","","","","","","","50","","","","","","","","","","","","","","","","","","","","","","","","","","",""
"4272","","<div style=""width:500px;"">
  <p>What best describes how you currently feel?</p>
  </div>","66","html-slider-response","17","418405","0.0-7.0-4.0","149","1","2025-08-06 09:00:03","36c45c0696341be0efffe67d72a12abb","41.144.67.54","Mozilla/5.0 (Windows NT 10.0; Win64; x64) AppleWebKit/537.36 (KHTML, like Gecko) Chrome/138.0.0.0 Safari/537.36","WebKit","Chrome","138.0.0.0","Windows","10.0","https://app.prolific.com/","en-US,en;q=0.9","669f76a7112b8713f104644c","6877649eabb845cf142cd221","689317277d56f829690716f7","1","669f76a7112b8713f104644c","1","2025-08-06T09:07:04.551Z","","","","MotivationQ","","","","","","","","","","","50","","","","","","","","","","","","","","","","","","","","","","","","","","",""
"","","","","ctl-task-cpt","18","447491","0.0-7.0-0.1","149","1","2025-08-06 09:00:03","36c45c0696341be0efffe67d72a12abb","41.144.67.54","Mozilla/5.0 (Windows NT 10.0; Win64; x64) AppleWebKit/537.36 (KHTML, like Gecko) Chrome/138.0.0.0 Safari/537.36","WebKit","Chrome","138.0.0.0","Windows","10.0","https://app.prolific.com/","en-US,en;q=0.9","669f76a7112b8713f104644c","6877649eabb845cf142cd221","689317277d56f829690716f7","1","669f76a7112b8713f104644c","1","2025-08-06T09:07:33.638Z","","","","","","","","","","","","","","","","win-only","3","g1:SW,g2:NE","0.9","2","0","422611","1559.3","6562.5","26071.4","1","4","8","6","2","8","8","8","0","0.06060606060606061","1286.3","3000","705","[""up"",""right""]","{""num_key_presses"":6,""num_perfect"":6,""num_errors"":0,""num_randdir"":0,""num_randdir_good_moves"":0,""num_whilered"":0,""num_whileblue"":0,""num_blue"":1,""num_good_moves"":6}","[297.22232142857143,303.12857142857143,0.4,297.22232142857143,303.12857142857143,101.2,297.22232142857143,303.12857142857143,201.2,297.22232142857143,303.12857142857143,306.4,297.22232142857143,303.12857142857143,406.8,295.22232142857143,303.12857142857143,507.4,350.22232142857143,230.12857142857143,607.9,492.22232142857143,94.12857142857143,711.1,492.22232142857143,94.12857142857143,812.1,493.22232142857143,91.12857142857143,918.2,525.2223214285714,57.128571428571426,1022.9,525.2223214285714,58.128571428571426,1126.3,525.2223214285714,58.128571428571426,1228.5,525.2223214285714,58.128571428571426,1333,525.2223214285714,58.128571428571426,1434,525.2223214285714,58.128571428571426,1536.1,525.2223214285714,58.128571428571426,1637.4,430.22232142857143,138.12857142857143,1741.4,341.22232142857143,245.12857142857143,1841.5,315.22232142857143,280.12857142857143,1946.4,312.22232142857143,281.12857142857143,2048,253.22232142857143,343.12857142857143,2151.8,230.22232142857143,352.12857142857143,2256.3,230.22232142857143,352.12857142857143,2361.4,230.22232142857143,352.12857142857143,2462.4,230.22232142857143,352.12857142857143,2566.1,230.22232142857143,352.12857142857143,2667.7,230.22232142857143,352.12857142857143,2771.5,230.22232142857143,352.12857142857143,2872.9,230.22232142857143,352.12857142857143,2976.2,230.22232142857143,352.12857142857143,3077.2,230.22232142857143,352.12857142857143,3181.4,230.22232142857143,352.12857142857143,3287,230.22232142857143,352.12857142857143,3387,230.22232142857143,352.12857142857143,3487.8,230.22232142857143,352.12857142857143,3591.5,230.22232142857143,352.12857142857143,3691.6,230.22232142857143,352.12857142857143,3791.7,230.22232142857143,352.12857142857143,3896.9,230.22232142857143,352.12857142857143,4001.9,230.22232142857143,352.12857142857143,4103.3,230.22232142857143,352.12857142857143,4206.7,230.22232142857143,352.12857142857143,4307.4,230.22232142857143,352.12857142857143,4412,230.22232142857143,352.12857142857143,4516.7,230.22232142857143,352.12857142857143,4617.3,230.22232142857143,352.12857142857143,4718.2,230.22232142857143,352.12857142857143,4821.1,230.22232142857143,352.12857142857143,4921.2]","[1464.9,1464.9,1000,0,464.9,""smooth"",""right"",""right"",""good_move"",4394.8,2929.5,2591.7,1465.3,337.9,""smooth"",""right"",""right"",""good_move"",6948,2552.8,2175.2,4395.2,377.6,""smooth"",""right"",""right"",""good_move"",9396.9,2448.7,2062.1,6948.2,386.6,""smooth"",""up"",""up"",""good_move"",12677.9,3280.5,2923.2,9397.4,357.3,""smooth"",""up"",""up"",""good_move"",19414.1,6735.8,2812.1,16198.5,403.5,""smooth"",""up"",""up"",""good_move""]"
"3191","","<div style=""width:500px;"">
  <p>What determined the result of this run?</p>
  </div>","83","html-slider-response","19","450684","0.0-7.0-1.1","149","1","2025-08-06 09:00:03","36c45c0696341be0efffe67d72a12abb","41.144.67.54","Mozilla/5.0 (Windows NT 10.0; Win64; x64) AppleWebKit/537.36 (KHTML, like Gecko) Chrome/138.0.0.0 Safari/537.36","WebKit","Chrome","138.0.0.0","Windows","10.0","https://app.prolific.com/","en-US,en;q=0.9","669f76a7112b8713f104644c","6877649eabb845cf142cd221","689317277d56f829690716f7","1","669f76a7112b8713f104644c","1","2025-08-06T09:07:36.830Z","","","","AttribQ","","","","","","","","","","","50","","","","","","","","","","","","","","","","","","","","","","","","","","",""
"2226","","<div style=""width:500px;"">
  <p>How much control did you have over the ball?</p>
  </div>","81","html-slider-response","20","452911","0.0-7.0-2.1","149","1","2025-08-06 09:00:03","36c45c0696341be0efffe67d72a12abb","41.144.67.54","Mozilla/5.0 (Windows NT 10.0; Win64; x64) AppleWebKit/537.36 (KHTML, like Gecko) Chrome/138.0.0.0 Safari/537.36","WebKit","Chrome","138.0.0.0","Windows","10.0","https://app.prolific.com/","en-US,en;q=0.9","669f76a7112b8713f104644c","6877649eabb845cf142cd221","689317277d56f829690716f7","1","669f76a7112b8713f104644c","1","2025-08-06T09:07:39.057Z","","","","ControlQ","","","","","","","","","","","50","","","","","","","","","","","","","","","","","","","","","","","","","","",""
"5101","","<div style=""width:500px;"">
  <p>How would you describe your current emotional state?</p>
  </div>","20","html-slider-response","21","458013","0.0-7.0-3.1","149","1","2025-08-06 09:00:03","36c45c0696341be0efffe67d72a12abb","41.144.67.54","Mozilla/5.0 (Windows NT 10.0; Win64; x64) AppleWebKit/537.36 (KHTML, like Gecko) Chrome/138.0.0.0 Safari/537.36","WebKit","Chrome","138.0.0.0","Windows","10.0","https://app.prolific.com/","en-US,en;q=0.9","669f76a7112b8713f104644c","6877649eabb845cf142cd221","689317277d56f829690716f7","1","669f76a7112b8713f104644c","1","2025-08-06T09:07:44.159Z","","","","StressQ","","","","","","","","","","","50","","","","","","","","","","","","","","","","","","","","","","","","","","",""
"2731","","<div style=""width:500px;"">
  <p>What best describes how you currently feel?</p>
  </div>","83","html-slider-response","22","460745","0.0-7.0-4.1","149","1","2025-08-06 09:00:03","36c45c0696341be0efffe67d72a12abb","41.144.67.54","Mozilla/5.0 (Windows NT 10.0; Win64; x64) AppleWebKit/537.36 (KHTML, like Gecko) Chrome/138.0.0.0 Safari/537.36","WebKit","Chrome","138.0.0.0","Windows","10.0","https://app.prolific.com/","en-US,en;q=0.9","669f76a7112b8713f104644c","6877649eabb845cf142cd221","689317277d56f829690716f7","1","669f76a7112b8713f104644c","1","2025-08-06T09:07:46.891Z","","","","MotivationQ","","","","","","","","","","","50","","","","","","","","","","","","","","","","","","","","","","","","","","",""
"","","","","ctl-task-cpt","23","494729","0.0-7.0-0.2","149","1","2025-08-06 09:00:03","36c45c0696341be0efffe67d72a12abb","41.144.67.54","Mozilla/5.0 (Windows NT 10.0; Win64; x64) AppleWebKit/537.36 (KHTML, like Gecko) Chrome/138.0.0.0 Safari/537.36","WebKit","Chrome","138.0.0.0","Windows","10.0","https://app.prolific.com/","en-US,en;q=0.9","669f76a7112b8713f104644c","6877649eabb845cf142cd221","689317277d56f829690716f7","1","669f76a7112b8713f104644c","1","2025-08-06T09:08:20.875Z","","","","","","","","","","","","","","","","win-only","2","g1:SE,g2:NW","0.8","3","0","464953","1370.5","6375.7","30976.7","1","4","4","6","2","4","4","12","8","0.09090909090909091","1563.8","3000","645","[""left"",""up""]","{""num_key_presses"":6,""num_perfect"":6,""num_errors"":0,""num_randdir"":0,""num_randdir_good_moves"":0,""num_whilered"":0,""num_whileblue"":0,""num_blue"":2,""num_good_moves"":6}","[296.22232142857143,298.12857142857143,0.9,296.22232142857143,298.12857142857143,100.7,296.22232142857143,298.12857142857143,205.1,296.22232142857143,298.12857142857143,306.1,296.22232142857143,298.12857142857143,407,275.22232142857143,292.12857142857143,507,183.22232142857143,168.12857142857143,612.4,183.22232142857143,168.12857142857143,715.6,183.22232142857143,168.12857142857143,820.4,130.22232142857143,138.12857142857143,925,78.22232142857143,98.12857142857143,1025.8,75.22232142857143,96.12857142857143,1130.7,62.222321428571426,80.12857142857143,1232,52.222321428571426,60.128571428571426,1335,52.222321428571426,60.128571428571426,1435.7,52.222321428571426,60.128571428571426,1542.3,52.222321428571426,60.128571428571426,1642.3,52.222321428571426,60.128571428571426,1745.9,52.222321428571426,60.128571428571426,1846.5,57.222321428571426,60.128571428571426,1950.5,65.22232142857143,61.128571428571426,2050.6,64.22232142857143,67.12857142857143,2150.7,47.222321428571426,74.12857142857143,2251,40.222321428571426,75.12857142857143,2351.4,40.222321428571426,73.12857142857143,2455.7,40.222321428571426,73.12857142857143,2557.9,40.222321428571426,73.12857142857143,2660.4,40.222321428571426,73.12857142857143,2761.1,40.222321428571426,73.12857142857143,2866.4,40.222321428571426,73.12857142857143,2972.4,40.222321428571426,73.12857142857143,3076.4,40.222321428571426,73.12857142857143,3181,228.22232142857143,201.12857142857143,3289.4,252.22232142857143,228.12857142857143,3390.4,252.22232142857143,228.12857142857143,3491.7,252.22232142857143,228.12857142857143,3598.6,285.22232142857143,257.12857142857143,3700.5,307.22232142857143,299.12857142857143,3807.8,311.22232142857143,307.12857142857143,3910.5,329.22232142857143,321.12857142857143,4020.4,338.22232142857143,327.12857142857143,4134.6,338.22232142857143,328.12857142857143,4235.9,338.22232142857143,328.12857142857143,4338.5,338.22232142857143,328.12857142857143,4438.8,338.22232142857143,328.12857142857143,4541.2,338.22232142857143,328.12857142857143,4644.9,338.22232142857143,328.12857142857143,4747.3,338.22232142857143,328.12857142857143,4854.6,338.22232142857143,328.12857142857143,4955.1]","[1472.3,1472.3,1000,0,472.3,""smooth"",""left"",""left"",""good_move"",3987.1,2514.5,2068.7,1472.6,445.8,""smooth"",""left"",""left"",""good_move"",10939.7,6952.4,3111.9,7435.3,392.5,""smooth"",""left"",""left"",""good_move"",14263.5,3323.1,2788.1,10940.4,535,""smooth"",""up"",""up"",""good_move"",21271.4,7006,2564,18270.1,437.5,""smooth"",""up"",""up"",""good_move"",24499.4,3227.3,2809.6,21272.1,417.7,""smooth"",""up"",""up"",""good_move""]"
"2223","","<div style=""width:500px;"">
  <p>What determined the result of this run?</p>
  </div>","74","html-slider-response","24","496954","0.0-7.0-1.2","149","1","2025-08-06 09:00:03","36c45c0696341be0efffe67d72a12abb","41.144.67.54","Mozilla/5.0 (Windows NT 10.0; Win64; x64) AppleWebKit/537.36 (KHTML, like Gecko) Chrome/138.0.0.0 Safari/537.36","WebKit","Chrome","138.0.0.0","Windows","10.0","https://app.prolific.com/","en-US,en;q=0.9","669f76a7112b8713f104644c","6877649eabb845cf142cd221","689317277d56f829690716f7","1","669f76a7112b8713f104644c","1","2025-08-06T09:08:23.101Z","","","","AttribQ","","","","","","","","","","","50","","","","","","","","","","","","","","","","","","","","","","","","","","",""
"2943","","<div style=""width:500px;"">
  <p>How much control did you have over the ball?</p>
  </div>","73","html-slider-response","25","499899","0.0-7.0-2.2","149","1","2025-08-06 09:00:03","36c45c0696341be0efffe67d72a12abb","41.144.67.54","Mozilla/5.0 (Windows NT 10.0; Win64; x64) AppleWebKit/537.36 (KHTML, like Gecko) Chrome/138.0.0.0 Safari/537.36","WebKit","Chrome","138.0.0.0","Windows","10.0","https://app.prolific.com/","en-US,en;q=0.9","669f76a7112b8713f104644c","6877649eabb845cf142cd221","689317277d56f829690716f7","1","669f76a7112b8713f104644c","1","2025-08-06T09:08:26.045Z","","","","ControlQ","","","","","","","","","","","50","","","","","","","","","","","","","","","","","","","","","","","","","","",""
"4237","","<div style=""width:500px;"">
  <p>How would you describe your current emotional state?</p>
  </div>","20","html-slider-response","26","504137","0.0-7.0-3.2","149","1","2025-08-06 09:00:03","36c45c0696341be0efffe67d72a12abb","41.144.67.54","Mozilla/5.0 (Windows NT 10.0; Win64; x64) AppleWebKit/537.36 (KHTML, like Gecko) Chrome/138.0.0.0 Safari/537.36","WebKit","Chrome","138.0.0.0","Windows","10.0","https://app.prolific.com/","en-US,en;q=0.9","669f76a7112b8713f104644c","6877649eabb845cf142cd221","689317277d56f829690716f7","1","669f76a7112b8713f104644c","1","2025-08-06T09:08:30.283Z","","","","StressQ","","","","","","","","","","","50","","","","","","","","","","","","","","","","","","","","","","","","","","",""
"7646","","<div style=""width:500px;"">
  <p>What best describes how you currently feel?</p>
  </div>","79","html-slider-response","27","511784","0.0-7.0-4.2","149","1","2025-08-06 09:00:03","36c45c0696341be0efffe67d72a12abb","41.144.67.54","Mozilla/5.0 (Windows NT 10.0; Win64; x64) AppleWebKit/537.36 (KHTML, like Gecko) Chrome/138.0.0.0 Safari/537.36","WebKit","Chrome","138.0.0.0","Windows","10.0","https://app.prolific.com/","en-US,en;q=0.9","669f76a7112b8713f104644c","6877649eabb845cf142cd221","689317277d56f829690716f7","1","669f76a7112b8713f104644c","1","2025-08-06T09:08:37.931Z","","","","MotivationQ","","","","","","","","","","","50","","","","","","","","","","","","","","","","","","","","","","","","","","",""
"","","","","ctl-task-cpt","28","542617","0.0-7.0-0.3","149","1","2025-08-06 09:00:03","36c45c0696341be0efffe67d72a12abb","41.144.67.54","Mozilla/5.0 (Windows NT 10.0; Win64; x64) AppleWebKit/537.36 (KHTML, like Gecko) Chrome/138.0.0.0 Safari/537.36","WebKit","Chrome","138.0.0.0","Windows","10.0","https://app.prolific.com/","en-US,en;q=0.9","669f76a7112b8713f104644c","6877649eabb845cf142cd221","689317277d56f829690716f7","1","669f76a7112b8713f104644c","1","2025-08-06T09:09:08.764Z","","","","","","","","","","","","","","","","win-only","1","g1:NE,g2:SW","0.7","4","0","515992.4","1363.7","6371.2","27816.1","1","4","8","6","2","-8","-8","4","12","0.030303030303030304","1241.4","3000","-2690","[""down"",""left""]","{""num_key_presses"":7,""num_perfect"":5,""num_errors"":0,""num_randdir"":2,""num_randdir_good_moves"":1,""num_whilered"":0,""num_whileblue"":0,""num_blue"":0,""num_good_moves"":6}","[300.22232142857143,293.12857142857143,0.8,300.22232142857143,293.12857142857143,101,300.22232142857143,293.12857142857143,202.1,300.22232142857143,293.12857142857143,311.9,293.22232142857143,293.12857142857143,412.7,140.22232142857143,466.12857142857143,516.9,113.22232142857143,489.12857142857143,622.5,113.22232142857143,489.12857142857143,727.5,108.22232142857143,495.12857142857143,827.8,65.22232142857143,537.1285714285714,931.2,63.222321428571426,538.1285714285714,1032.4,63.222321428571426,538.1285714285714,1137.3,63.222321428571426,538.1285714285714,1237.5,63.222321428571426,538.1285714285714,1343.8,63.222321428571426,538.1285714285714,1447.7,119.22232142857143,467.12857142857143,1551.8,266.22232142857143,361.12857142857143,1658.9,325.22232142857143,304.12857142857143,1762.1,329.22232142857143,299.12857142857143,1867.6,329.22232142857143,299.12857142857143,1976.3,336.22232142857143,281.12857142857143,2076.7,351.22232142857143,260.12857142857143,2176.8,353.22232142857143,254.12857142857143,2277.6,353.22232142857143,254.12857142857143,2378.5,353.22232142857143,254.12857142857143,2481.7,353.22232142857143,254.12857142857143,2583.2,353.22232142857143,254.12857142857143,2691.9,353.22232142857143,254.12857142857143,2792.6,353.22232142857143,254.12857142857143,2897.6,353.22232142857143,254.12857142857143,3001.7,353.22232142857143,254.12857142857143,3116,353.22232142857143,254.12857142857143,3217.3,353.22232142857143,254.12857142857143,3319.1,353.22232142857143,254.12857142857143,3421.7,353.22232142857143,254.12857142857143,3523.6,353.22232142857143,254.12857142857143,3628.2,353.22232142857143,254.12857142857143,3733.1,353.22232142857143,254.12857142857143,3837,353.22232142857143,254.12857142857143,3949.5,353.22232142857143,254.12857142857143,4058.1,353.22232142857143,254.12857142857143,4161,353.22232142857143,254.12857142857143,4261.8,353.22232142857143,254.12857142857143,4362.5,353.22232142857143,254.12857142857143,4467.6,353.22232142857143,254.12857142857143,4567.6,353.22232142857143,254.12857142857143,4667.6,353.22232142857143,254.12857142857143,4773.9,353.22232142857143,254.12857142857143,4874.1,353.22232142857143,254.12857142857143,4974.5]","[1469.8,1469.9,1000,0,469.9,""smooth"",""down"",""down"",""good_move"",4461,2990.8,2533.8,1470.2,457,""smooth"",""down"",""down"",""good_move"",7763.1,3301.7,2930.5,4461.4,371.2,""smooth"",""down"",""down"",""good_move"",10931.3,3167.9,2800.7,7763.4,367.2,""smooth"",""left"",""left"",""good_move"",13767.2,2834.3,2453.1,10933,381.2,""oops"",""left"",""up"",""bad_move"",16657.8,2890.1,2081.4,13767.7,808.7,""smooth"",""left"",""left"",""good_move"",18746,2087.6,1701.6,16658.4,386,""oops"",""left"",""left"",""good_move""]"
"5575","","<div style=""width:500px;"">
  <p>What determined the result of this run?</p>
  </div>","17","html-slider-response","29","548193","0.0-7.0-1.3","149","1","2025-08-06 09:00:03","36c45c0696341be0efffe67d72a12abb","41.144.67.54","Mozilla/5.0 (Windows NT 10.0; Win64; x64) AppleWebKit/537.36 (KHTML, like Gecko) Chrome/138.0.0.0 Safari/537.36","WebKit","Chrome","138.0.0.0","Windows","10.0","https://app.prolific.com/","en-US,en;q=0.9","669f76a7112b8713f104644c","6877649eabb845cf142cd221","689317277d56f829690716f7","1","669f76a7112b8713f104644c","1","2025-08-06T09:09:14.339Z","","","","AttribQ","","","","","","","","","","","50","","","","","","","","","","","","","","","","","","","","","","","","","","",""
"4503","","<div style=""width:500px;"">
  <p>How much control did you have over the ball?</p>
  </div>","26","html-slider-response","30","552697","0.0-7.0-2.3","149","1","2025-08-06 09:00:03","36c45c0696341be0efffe67d72a12abb","41.144.67.54","Mozilla/5.0 (Windows NT 10.0; Win64; x64) AppleWebKit/537.36 (KHTML, like Gecko) Chrome/138.0.0.0 Safari/537.36","WebKit","Chrome","138.0.0.0","Windows","10.0","https://app.prolific.com/","en-US,en;q=0.9","669f76a7112b8713f104644c","6877649eabb845cf142cd221","689317277d56f829690716f7","1","669f76a7112b8713f104644c","1","2025-08-06T09:09:18.844Z","","","","ControlQ","","","","","","","","","","","50","","","","","","","","","","","","","","","","","","","","","","","","","","",""
"2166","","<div style=""width:500px;"">
  <p>How would you describe your current emotional state?</p>
  </div>","76","html-slider-response","31","554864","0.0-7.0-3.3","149","1","2025-08-06 09:00:03","36c45c0696341be0efffe67d72a12abb","41.144.67.54","Mozilla/5.0 (Windows NT 10.0; Win64; x64) AppleWebKit/537.36 (KHTML, like Gecko) Chrome/138.0.0.0 Safari/537.36","WebKit","Chrome","138.0.0.0","Windows","10.0","https://app.prolific.com/","en-US,en;q=0.9","669f76a7112b8713f104644c","6877649eabb845cf142cd221","689317277d56f829690716f7","1","669f76a7112b8713f104644c","1","2025-08-06T09:09:21.010Z","","","","StressQ","","","","","","","","","","","50","","","","","","","","","","","","","","","","","","","","","","","","","","",""
"2089","","<div style=""width:500px;"">
  <p>What best describes how you currently feel?</p>
  </div>","82","html-slider-response","32","556955","0.0-7.0-4.3","149","1","2025-08-06 09:00:03","36c45c0696341be0efffe67d72a12abb","41.144.67.54","Mozilla/5.0 (Windows NT 10.0; Win64; x64) AppleWebKit/537.36 (KHTML, like Gecko) Chrome/138.0.0.0 Safari/537.36","WebKit","Chrome","138.0.0.0","Windows","10.0","https://app.prolific.com/","en-US,en;q=0.9","669f76a7112b8713f104644c","6877649eabb845cf142cd221","689317277d56f829690716f7","1","669f76a7112b8713f104644c","1","2025-08-06T09:09:23.101Z","","","","MotivationQ","","","","","","","","","","","50","","","","","","","","","","","","","","","","","","","","","","","","","","",""
"","","","","ctl-task-cpt","33","609488","0.0-7.0-0.4","149","1","2025-08-06 09:00:03","36c45c0696341be0efffe67d72a12abb","41.144.67.54","Mozilla/5.0 (Windows NT 10.0; Win64; x64) AppleWebKit/537.36 (KHTML, like Gecko) Chrome/138.0.0.0 Safari/537.36","WebKit","Chrome","138.0.0.0","Windows","10.0","https://app.prolific.com/","en-US,en;q=0.9","669f76a7112b8713f104644c","6877649eabb845cf142cd221","689317277d56f829690716f7","1","669f76a7112b8713f104644c","1","2025-08-06T09:10:15.635Z","","","","","","","","","","","","","","","","win-only","3","g1:SW,g2:NE","0.6","5","0","561162.1","1355","6359","49514.8","1","4","8","6","2","-8","-8","0","4","0","1307.3","3000","-2690","[""up"",""right""]","{""num_key_presses"":8,""num_perfect"":5,""num_errors"":0,""num_randdir"":3,""num_randdir_good_moves"":1,""num_whilered"":0,""num_whileblue"":0,""num_blue"":5,""num_good_moves"":6}","[299.22232142857143,299.12857142857143,0.4,299.22232142857143,299.12857142857143,101,299.22232142857143,299.12857142857143,207.2,299.22232142857143,299.12857142857143,307.3,300.22232142857143,293.12857142857143,412.3,450.22232142857143,146.12857142857143,516.8,494.22232142857143,104.12857142857143,624.5,494.22232142857143,104.12857142857143,726,494.22232142857143,104.12857142857143,831.5,532.2223214285714,45.128571428571426,931.8,538.2223214285714,39.128571428571426,1037.6,538.2223214285714,39.128571428571426,1138.6,538.2223214285714,39.128571428571426,1239.2,538.2223214285714,39.128571428571426,1341.1,538.2223214285714,39.128571428571426,1445.8,538.2223214285714,39.128571428571426,1555.7,466.22232142857143,85.12857142857143,1656.1,321.22232142857143,183.12857142857143,1760.9,286.22232142857143,225.12857142857143,1869.9,286.22232142857143,225.12857142857143,1976.9,277.22232142857143,250.12857142857143,2081,251.22232142857143,289.12857142857143,2181.2,251.22232142857143,293.12857142857143,2281.3,251.22232142857143,292.12857142857143,2388,250.22232142857143,297.12857142857143,2488.9,248.22232142857143,312.12857142857143,2590.3,248.22232142857143,313.12857142857143,2690.4,248.22232142857143,313.12857142857143,2790.7,248.22232142857143,313.12857142857143,2895.5,248.22232142857143,313.12857142857143,3004,248.22232142857143,313.12857142857143,3104.3,248.22232142857143,313.12857142857143,3206.2,248.22232142857143,313.12857142857143,3310.6,248.22232142857143,313.12857142857143,3410.7,248.22232142857143,313.12857142857143,3511.8,248.22232142857143,313.12857142857143,3611.8,248.22232142857143,313.12857142857143,3711.8,248.22232142857143,313.12857142857143,3812.2,248.22232142857143,313.12857142857143,3919.7,248.22232142857143,313.12857142857143,4020.3,248.22232142857143,313.12857142857143,4120.7,248.22232142857143,313.12857142857143,4221.6,248.22232142857143,313.12857142857143,4322.1,248.22232142857143,313.12857142857143,4425.4,248.22232142857143,313.12857142857143,4525.4,248.22232142857143,313.12857142857143,4626.3,248.22232142857143,313.12857142857143,4736.5,248.22232142857143,313.12857142857143,4840.7,248.22232142857143,313.12857142857143,4945.4]","[1428.9,1428.9,1000,0,428.9,""smooth"",""right"",""right"",""good_move"",15605.5,14176.1,2515.9,12656.9,432.7,""smooth"",""right"",""right"",""good_move"",21824.3,6218.6,2466.8,18914.2,443.3,""oops"",""right"",""right"",""good_move"",29317.3,7492.8,3501.1,25362,454.2,""oops"",""up"",""down"",""bad_move"",32447,3129.3,2696.8,29317.7,432.5,""smooth"",""up"",""up"",""good_move"",35513.5,3065.9,2668.7,32447.6,397.2,""smooth"",""up"",""up"",""good_move"",38686.5,3172.3,2765.2,35514.2,407.1,""smooth"",""up"",""up"",""good_move"",41489.9,2802.9,2427.9,38687,375,""oops"",""up"",""down"",""bad_move""]"
"3277","","<div style=""width:500px;"">
  <p>What determined the result of this run?</p>
  </div>","9","html-slider-response","34","612767","0.0-7.0-1.4","149","1","2025-08-06 09:00:03","36c45c0696341be0efffe67d72a12abb","41.144.67.54","Mozilla/5.0 (Windows NT 10.0; Win64; x64) AppleWebKit/537.36 (KHTML, like Gecko) Chrome/138.0.0.0 Safari/537.36","WebKit","Chrome","138.0.0.0","Windows","10.0","https://app.prolific.com/","en-US,en;q=0.9","669f76a7112b8713f104644c","6877649eabb845cf142cd221","689317277d56f829690716f7","1","669f76a7112b8713f104644c","1","2025-08-06T09:10:18.913Z","","","","AttribQ","","","","","","","","","","","50","","","","","","","","","","","","","","","","","","","","","","","","","","",""
"3002","","<div style=""width:500px;"">
  <p>How much control did you have over the ball?</p>
  </div>","19","html-slider-response","35","615770","0.0-7.0-2.4","149","1","2025-08-06 09:00:03","36c45c0696341be0efffe67d72a12abb","41.144.67.54","Mozilla/5.0 (Windows NT 10.0; Win64; x64) AppleWebKit/537.36 (KHTML, like Gecko) Chrome/138.0.0.0 Safari/537.36","WebKit","Chrome","138.0.0.0","Windows","10.0","https://app.prolific.com/","en-US,en;q=0.9","669f76a7112b8713f104644c","6877649eabb845cf142cd221","689317277d56f829690716f7","1","669f76a7112b8713f104644c","1","2025-08-06T09:10:21.917Z","","","","ControlQ","","","","","","","","","","","50","","","","","","","","","","","","","","","","","","","","","","","","","","",""
"3428","","<div style=""width:500px;"">
  <p>How would you describe your current emotional state?</p>
  </div>","87","html-slider-response","36","619199","0.0-7.0-3.4","149","1","2025-08-06 09:00:03","36c45c0696341be0efffe67d72a12abb","41.144.67.54","Mozilla/5.0 (Windows NT 10.0; Win64; x64) AppleWebKit/537.36 (KHTML, like Gecko) Chrome/138.0.0.0 Safari/537.36","WebKit","Chrome","138.0.0.0","Windows","10.0","https://app.prolific.com/","en-US,en;q=0.9","669f76a7112b8713f104644c","6877649eabb845cf142cd221","689317277d56f829690716f7","1","669f76a7112b8713f104644c","1","2025-08-06T09:10:25.346Z","","","","StressQ","","","","","","","","","","","50","","","","","","","","","","","","","","","","","","","","","","","","","","",""
"3058","","<div style=""width:500px;"">
  <p>What best describes how you currently feel?</p>
  </div>","89","html-slider-response","37","622258","0.0-7.0-4.4","149","1","2025-08-06 09:00:03","36c45c0696341be0efffe67d72a12abb","41.144.67.54","Mozilla/5.0 (Windows NT 10.0; Win64; x64) AppleWebKit/537.36 (KHTML, like Gecko) Chrome/138.0.0.0 Safari/537.36","WebKit","Chrome","138.0.0.0","Windows","10.0","https://app.prolific.com/","en-US,en;q=0.9","669f76a7112b8713f104644c","6877649eabb845cf142cd221","689317277d56f829690716f7","1","669f76a7112b8713f104644c","1","2025-08-06T09:10:28.404Z","","","","MotivationQ","","","","","","","","","","","50","","","","","","","","","","","","","","","","","","","","","","","","","","",""
"","","","","ctl-task-cpt","38","667297","0.0-7.0-0.5","149","1","2025-08-06 09:00:03","36c45c0696341be0efffe67d72a12abb","41.144.67.54","Mozilla/5.0 (Windows NT 10.0; Win64; x64) AppleWebKit/537.36 (KHTML, like Gecko) Chrome/138.0.0.0 Safari/537.36","WebKit","Chrome","138.0.0.0","Windows","10.0","https://app.prolific.com/","en-US,en;q=0.9","669f76a7112b8713f104644c","6877649eabb845cf142cd221","689317277d56f829690716f7","1","669f76a7112b8713f104644c","1","2025-08-06T09:11:13.443Z","","","","","","","","","","","","","","","","win-only","3","g1:SW,g2:NE","0.5","6","0","626466.1","2209.2","7211.3","42031.4","1","4","4","6","2","-4","-5","0","0","0","1597.2","3000","-2525","[""up"",""right""]","{""num_key_presses"":9,""num_perfect"":5,""num_errors"":1,""num_randdir"":3,""num_randdir_good_moves"":1,""num_whilered"":0,""num_whileblue"":0,""num_blue"":2,""num_good_moves"":6}","[294.22232142857143,301.12857142857143,0.9,294.22232142857143,301.12857142857143,101.4,294.22232142857143,301.12857142857143,201.6,294.22232142857143,301.12857142857143,306.4,294.22232142857143,301.12857142857143,407.6,294.22232142857143,301.12857142857143,513.1,343.22232142857143,261.12857142857143,618.2,397.22232142857143,212.12857142857143,718.2,397.22232142857143,212.12857142857143,821.9,397.22232142857143,212.12857142857143,922.1,463.22232142857143,127.12857142857143,1026.7,490.22232142857143,111.12857142857143,1128.4,509.22232142857143,103.12857142857143,1235.7,532.2223214285714,67.12857142857143,1336.7,535.2223214285714,64.12857142857143,1445.6,535.2223214285714,64.12857142857143,1549.9,535.2223214285714,64.12857142857143,1651.5,535.2223214285714,64.12857142857143,1752.7,535.2223214285714,64.12857142857143,1854.1,461.22232142857143,134.12857142857143,1961,370.22232142857143,244.12857142857143,2061.9,306.22232142857143,301.12857142857143,2167,272.22232142857143,318.12857142857143,2269.1,271.22232142857143,319.12857142857143,2372.4,271.22232142857143,321.12857142857143,2481.2,263.22232142857143,338.12857142857143,2590.7,263.22232142857143,338.12857142857143,2693.1,263.22232142857143,338.12857142857143,2794.2,263.22232142857143,338.12857142857143,2898.3,263.22232142857143,338.12857142857143,3003.3,263.22232142857143,338.12857142857143,3107.2,263.22232142857143,338.12857142857143,3208,263.22232142857143,338.12857142857143,3312.7,263.22232142857143,338.12857142857143,3415.7,263.22232142857143,338.12857142857143,3516.6,263.22232142857143,338.12857142857143,3616.7,263.22232142857143,338.12857142857143,3717.8,263.22232142857143,338.12857142857143,3819,263.22232142857143,338.12857142857143,3924.4,263.22232142857143,338.12857142857143,4030.2,263.22232142857143,338.12857142857143,4133,263.22232142857143,338.12857142857143,4237,263.22232142857143,338.12857142857143,4337.1,263.22232142857143,338.12857142857143,4447.3,263.22232142857143,338.12857142857143,4552.5,263.22232142857143,338.12857142857143,4663.3,263.22232142857143,338.12857142857143,4763.6,263.22232142857143,338.12857142857143,4866.4,263.22232142857143,338.12857142857143,4966.6]","[1457.7,1457.7,1000,0,457.7,""smooth"",""right"",""right"",""good_move"",4171.3,2713.1,2282.9,1458.2,430.2,""oops"",""right"",""down"",""bad_move"",7405.6,3233.6,2734.9,4172.1,498.7,""smooth"",""right"",""right"",""good_move"",13746.3,6340.4,2501.7,10868.9,375.7,""oops"",""right"",""down"",""bad_move"",16248.3,2501.6,2035.6,13746.7,466,""oops"",""right"",""right"",""good_move"",22542,6293.5,3329.2,19674.7,-461.9,""error"",""-"",""-"",""no_move"",26182.1,3639.5,2175.1,23545.9,461.1,""smooth"",""up"",""up"",""good_move"",29049.8,2867.1,2448.6,26182.7,418.5,""smooth"",""up"",""up"",""good_move"",31927.9,2877.8,2507.3,29050.1,370.5,""smooth"",""up"",""up"",""good_move""]"
"3445","","<div style=""width:500px;"">
  <p>What determined the result of this run?</p>
  </div>","11","html-slider-response","39","670744","0.0-7.0-1.5","149","1","2025-08-06 09:00:03","36c45c0696341be0efffe67d72a12abb","41.144.67.54","Mozilla/5.0 (Windows NT 10.0; Win64; x64) AppleWebKit/537.36 (KHTML, like Gecko) Chrome/138.0.0.0 Safari/537.36","WebKit","Chrome","138.0.0.0","Windows","10.0","https://app.prolific.com/","en-US,en;q=0.9","669f76a7112b8713f104644c","6877649eabb845cf142cd221","689317277d56f829690716f7","1","669f76a7112b8713f104644c","1","2025-08-06T09:11:16.890Z","","","","AttribQ","","","","","","","","","","","50","","","","","","","","","","","","","","","","","","","","","","","","","","",""
"4211","","<div style=""width:500px;"">
  <p>How much control did you have over the ball?</p>
  </div>","12","html-slider-response","40","674957","0.0-7.0-2.5","149","1","2025-08-06 09:00:03","36c45c0696341be0efffe67d72a12abb","41.144.67.54","Mozilla/5.0 (Windows NT 10.0; Win64; x64) AppleWebKit/537.36 (KHTML, like Gecko) Chrome/138.0.0.0 Safari/537.36","WebKit","Chrome","138.0.0.0","Windows","10.0","https://app.prolific.com/","en-US,en;q=0.9","669f76a7112b8713f104644c","6877649eabb845cf142cd221","689317277d56f829690716f7","1","669f76a7112b8713f104644c","1","2025-08-06T09:11:21.103Z","","","","ControlQ","","","","","","","","","","","50","","","","","","","","","","","","","","","","","","","","","","","","","","",""
"2106","","<div style=""width:500px;"">
  <p>How would you describe your current emotional state?</p>
  </div>","86","html-slider-response","41","677064","0.0-7.0-3.5","149","1","2025-08-06 09:00:03","36c45c0696341be0efffe67d72a12abb","41.144.67.54","Mozilla/5.0 (Windows NT 10.0; Win64; x64) AppleWebKit/537.36 (KHTML, like Gecko) Chrome/138.0.0.0 Safari/537.36","WebKit","Chrome","138.0.0.0","Windows","10.0","https://app.prolific.com/","en-US,en;q=0.9","669f76a7112b8713f104644c","6877649eabb845cf142cd221","689317277d56f829690716f7","1","669f76a7112b8713f104644c","1","2025-08-06T09:11:23.210Z","","","","StressQ","","","","","","","","","","","50","","","","","","","","","","","","","","","","","","","","","","","","","","",""
"2401","","<div style=""width:500px;"">
  <p>What best describes how you currently feel?</p>
  </div>","78","html-slider-response","42","679466","0.0-7.0-4.5","149","1","2025-08-06 09:00:03","36c45c0696341be0efffe67d72a12abb","41.144.67.54","Mozilla/5.0 (Windows NT 10.0; Win64; x64) AppleWebKit/537.36 (KHTML, like Gecko) Chrome/138.0.0.0 Safari/537.36","WebKit","Chrome","138.0.0.0","Windows","10.0","https://app.prolific.com/","en-US,en;q=0.9","669f76a7112b8713f104644c","6877649eabb845cf142cd221","689317277d56f829690716f7","1","669f76a7112b8713f104644c","1","2025-08-06T09:11:25.612Z","","","","MotivationQ","","","","","","","","","","","50","","","","","","","","","","","","","","","","","","","","","","","","","","",""
"","","","","ctl-task-cpt","43","708174","0.0-7.0-0.6","149","1","2025-08-06 09:00:03","36c45c0696341be0efffe67d72a12abb","41.144.67.54","Mozilla/5.0 (Windows NT 10.0; Win64; x64) AppleWebKit/537.36 (KHTML, like Gecko) Chrome/138.0.0.0 Safari/537.36","WebKit","Chrome","138.0.0.0","Windows","10.0","https://app.prolific.com/","en-US,en;q=0.9","669f76a7112b8713f104644c","6877649eabb845cf142cd221","689317277d56f829690716f7","1","669f76a7112b8713f104644c","1","2025-08-06T09:11:54.321Z","","","","","","","","","","","","","","","","win-only","1","g1:NE,g2:SW","0.4","7","0","683674","1886.1","6893.2","25681.6","1","4","4","6","2","4","4","4","0","0.030303030303030304","1299.5","3000","880","[""down"",""left""]","{""num_key_presses"":6,""num_perfect"":4,""num_errors"":0,""num_randdir"":2,""num_randdir_good_moves"":2,""num_whilered"":0,""num_whileblue"":0,""num_blue"":1,""num_good_moves"":6}","[295.22232142857143,297.12857142857143,0.2,295.22232142857143,297.12857142857143,100.9,295.22232142857143,297.12857142857143,203.2,295.22232142857143,297.12857142857143,320.1,289.22232142857143,305.12857142857143,425.3,155.22232142857143,472.12857142857143,531.9,155.22232142857143,472.12857142857143,634.8,155.22232142857143,472.12857142857143,738.2,106.22232142857143,523.1285714285714,840.9,75.22232142857143,533.1285714285714,945.4,72.22232142857143,534.1285714285714,1045.6,71.22232142857143,534.1285714285714,1149.3,71.22232142857143,534.1285714285714,1250.2,71.22232142857143,534.1285714285714,1355.2,71.22232142857143,534.1285714285714,1460.1,77.22232142857143,531.1285714285714,1562.1,196.22232142857143,376.12857142857143,1665.6,277.22232142857143,297.12857142857143,1765.7,323.22232142857143,250.12857142857143,1872,333.22232142857143,243.12857142857143,1977.4,345.22232142857143,241.12857142857143,2081.1,345.22232142857143,241.12857142857143,2196.7,345.22232142857143,241.12857142857143,2300.7,345.22232142857143,241.12857142857143,2408.8,345.22232142857143,241.12857142857143,2510.1,345.22232142857143,241.12857142857143,2610.3,345.22232142857143,241.12857142857143,2715.8,345.22232142857143,241.12857142857143,2821.2,345.22232142857143,241.12857142857143,2926.6,345.22232142857143,241.12857142857143,3027,345.22232142857143,241.12857142857143,3129.8,345.22232142857143,241.12857142857143,3234.6,345.22232142857143,241.12857142857143,3349.3,345.22232142857143,241.12857142857143,3457.8,345.22232142857143,241.12857142857143,3559.8,345.22232142857143,241.12857142857143,3661.3,345.22232142857143,241.12857142857143,3765.5,345.22232142857143,241.12857142857143,3866.6,345.22232142857143,241.12857142857143,3975.5,345.22232142857143,241.12857142857143,4080.4,345.22232142857143,241.12857142857143,4191.8,345.22232142857143,241.12857142857143,4295.1,345.22232142857143,241.12857142857143,4407.5,345.22232142857143,241.12857142857143,4517.4,345.22232142857143,241.12857142857143,4620.7,345.22232142857143,241.12857142857143,4723.1,345.22232142857143,241.12857142857143,4823.7,345.22232142857143,241.12857142857143,4924.6]","[4060.6,4060.6,1617.8,2015,427.8,""smooth"",""left"",""left"",""good_move"",7804.9,3743.7,3155.8,4061.2,587.9,""smooth"",""left"",""left"",""good_move"",10875.1,3069.6,2644.3,7805.6,425.2,""oops"",""left"",""down"",""good_move"",13400,2524.5,2019.7,10875.5,504.8,""smooth"",""down"",""down"",""good_move"",16025,2624.4,2276.7,13400.6,347.7,""smooth"",""down"",""down"",""good_move"",18654.3,2629,2209.2,16025.3,419.8,""oops"",""left"",""left"",""good_move""]"
"3226","","<div style=""width:500px;"">
  <p>What determined the result of this run?</p>
  </div>","90","html-slider-response","44","711404","0.0-7.0-1.6","149","1","2025-08-06 09:00:03","36c45c0696341be0efffe67d72a12abb","41.144.67.54","Mozilla/5.0 (Windows NT 10.0; Win64; x64) AppleWebKit/537.36 (KHTML, like Gecko) Chrome/138.0.0.0 Safari/537.36","WebKit","Chrome","138.0.0.0","Windows","10.0","https://app.prolific.com/","en-US,en;q=0.9","669f76a7112b8713f104644c","6877649eabb845cf142cd221","689317277d56f829690716f7","1","669f76a7112b8713f104644c","1","2025-08-06T09:11:57.550Z","","","","AttribQ","","","","","","","","","","","50","","","","","","","","","","","","","","","","","","","","","","","","","","",""
"3053","","<div style=""width:500px;"">
  <p>How much control did you have over the ball?</p>
  </div>","57","html-slider-response","45","714459","0.0-7.0-2.6","149","1","2025-08-06 09:00:03","36c45c0696341be0efffe67d72a12abb","41.144.67.54","Mozilla/5.0 (Windows NT 10.0; Win64; x64) AppleWebKit/537.36 (KHTML, like Gecko) Chrome/138.0.0.0 Safari/537.36","WebKit","Chrome","138.0.0.0","Windows","10.0","https://app.prolific.com/","en-US,en;q=0.9","669f76a7112b8713f104644c","6877649eabb845cf142cd221","689317277d56f829690716f7","1","669f76a7112b8713f104644c","1","2025-08-06T09:12:00.605Z","","","","ControlQ","","","","","","","","","","","50","","","","","","","","","","","","","","","","","","","","","","","","","","",""
"2536","","<div style=""width:500px;"">
  <p>How would you describe your current emotional state?</p>
  </div>","23","html-slider-response","46","716996","0.0-7.0-3.6","149","1","2025-08-06 09:00:03","36c45c0696341be0efffe67d72a12abb","41.144.67.54","Mozilla/5.0 (Windows NT 10.0; Win64; x64) AppleWebKit/537.36 (KHTML, like Gecko) Chrome/138.0.0.0 Safari/537.36","WebKit","Chrome","138.0.0.0","Windows","10.0","https://app.prolific.com/","en-US,en;q=0.9","669f76a7112b8713f104644c","6877649eabb845cf142cd221","689317277d56f829690716f7","1","669f76a7112b8713f104644c","1","2025-08-06T09:12:03.142Z","","","","StressQ","","","","","","","","","","","50","","","","","","","","","","","","","","","","","","","","","","","","","","",""
"4413","","<div style=""width:500px;"">
  <p>What best describes how you currently feel?</p>
  </div>","79","html-slider-response","47","721410","0.0-7.0-4.6","149","1","2025-08-06 09:00:03","36c45c0696341be0efffe67d72a12abb","41.144.67.54","Mozilla/5.0 (Windows NT 10.0; Win64; x64) AppleWebKit/537.36 (KHTML, like Gecko) Chrome/138.0.0.0 Safari/537.36","WebKit","Chrome","138.0.0.0","Windows","10.0","https://app.prolific.com/","en-US,en;q=0.9","669f76a7112b8713f104644c","6877649eabb845cf142cd221","689317277d56f829690716f7","1","669f76a7112b8713f104644c","1","2025-08-06T09:12:07.556Z","","","","MotivationQ","","","","","","","","","","","50","","","","","","","","","","","","","","","","","","","","","","","","","","",""
"","","","","ctl-task-cpt","48","769287","0.0-7.0-0.7","149","1","2025-08-06 09:00:03","36c45c0696341be0efffe67d72a12abb","41.144.67.54","Mozilla/5.0 (Windows NT 10.0; Win64; x64) AppleWebKit/537.36 (KHTML, like Gecko) Chrome/138.0.0.0 Safari/537.36","WebKit","Chrome","138.0.0.0","Windows","10.0","https://app.prolific.com/","en-US,en;q=0.9","669f76a7112b8713f104644c","6877649eabb845cf142cd221","689317277d56f829690716f7","1","669f76a7112b8713f104644c","1","2025-08-06T09:12:55.434Z","","","","","","","","","","","","","","","","win-only","1","g1:NE,g2:SW","0.3","8","0","725617.9","1215.6","6216.4","44855.6","1","4","8","6","2","-8","-8","0","4","0","1340.7","3000","-2340","[""down"",""left""]","{""num_key_presses"":9,""num_perfect"":3,""num_errors"":0,""num_randdir"":6,""num_randdir_good_moves"":3,""num_whilered"":0,""num_whileblue"":0,""num_blue"":3,""num_good_moves"":6}","[289.22232142857143,294.12857142857143,0.5,289.22232142857143,294.12857142857143,104.1,289.22232142857143,294.12857142857143,205.2,289.22232142857143,294.12857142857143,306.2,289.22232142857143,294.12857142857143,407.9,203.22232142857143,393.12857142857143,510.9,189.22232142857143,407.12857142857143,611.5,189.22232142857143,407.12857142857143,716,147.22232142857143,456.12857142857143,821.6,76.22232142857143,539.1285714285714,927.4,72.22232142857143,542.1285714285714,1029,72.22232142857143,542.1285714285714,1132.8,72.22232142857143,542.1285714285714,1235.6,72.22232142857143,542.1285714285714,1337.7,72.22232142857143,542.1285714285714,1440.4,72.22232142857143,542.1285714285714,1541.8,100.22232142857143,513.1285714285714,1645.8,194.22232142857143,424.12857142857143,1759.7,263.22232142857143,349.12857142857143,1869,301.22232142857143,328.12857142857143,1970.3,348.22232142857143,317.12857142857143,2079.7,365.22232142857143,274.12857142857143,2181.8,367.22232142857143,272.12857142857143,2284.7,367.22232142857143,272.12857142857143,2385.4,363.22232142857143,272.12857142857143,2485.6,359.22232142857143,265.12857142857143,2586.5,359.22232142857143,263.12857142857143,2689.2,359.22232142857143,263.12857142857143,2794.7,359.22232142857143,263.12857142857143,2896.4,359.22232142857143,263.12857142857143,3000.2,359.22232142857143,263.12857142857143,3102.8,359.22232142857143,263.12857142857143,3203.5,359.22232142857143,263.12857142857143,3324.9,359.22232142857143,263.12857142857143,3425.4,359.22232142857143,263.12857142857143,3529.6,359.22232142857143,263.12857142857143,3630,359.22232142857143,263.12857142857143,3730.7,359.22232142857143,263.12857142857143,3832.8,359.22232142857143,263.12857142857143,3935.6,359.22232142857143,263.12857142857143,4036.1,359.22232142857143,263.12857142857143,4155.4,359.22232142857143,263.12857142857143,4273.6,359.22232142857143,263.12857142857143,4376.2,359.22232142857143,263.12857142857143,4481,359.22232142857143,263.12857142857143,4581.6,359.22232142857143,263.12857142857143,4685.2,359.22232142857143,263.12857142857143,4787.5,359.22232142857143,263.12857142857143,4893.3,359.22232142857143,263.12857142857143,4996.8]","[4466,4466,2041.9,2007.3,416.8,""smooth"",""down"",""down"",""good_move"",8294.2,3827.7,3361.5,4466.5,466.2,""smooth"",""down"",""down"",""good_move"",11147.2,2852.5,2477.9,8294.7,374.6,""oops"",""down"",""left"",""good_move"",14554.1,3406.3,2953.3,11147.8,453,""oops"",""left"",""down"",""good_move"",17447.2,2892.6,2508.6,14554.7,384,""oops"",""left"",""right"",""bad_move"",24076.6,6628.3,2179.5,21500.8,396.3,""smooth"",""left"",""left"",""good_move"",26630.8,2553.6,2132.5,24077.2,421.1,""oops"",""left"",""right"",""bad_move"",29648.4,3017.1,2602.5,26631.4,414.6,""oops"",""left"",""up"",""bad_move"",36092.3,6443.1,2863,32795.1,434.2,""oops"",""left"",""left"",""good_move""]"
"3275","","<div style=""width:500px;"">
  <p>What determined the result of this run?</p>
  </div>","10","html-slider-response","49","772566","0.0-7.0-1.7","149","1","2025-08-06 09:00:03","36c45c0696341be0efffe67d72a12abb","41.144.67.54","Mozilla/5.0 (Windows NT 10.0; Win64; x64) AppleWebKit/537.36 (KHTML, like Gecko) Chrome/138.0.0.0 Safari/537.36","WebKit","Chrome","138.0.0.0","Windows","10.0","https://app.prolific.com/","en-US,en;q=0.9","669f76a7112b8713f104644c","6877649eabb845cf142cd221","689317277d56f829690716f7","1","669f76a7112b8713f104644c","1","2025-08-06T09:12:58.712Z","","","","AttribQ","","","","","","","","","","","50","","","","","","","","","","","","","","","","","","","","","","","","","","",""
"5308","","<div style=""width:500px;"">
  <p>How much control did you have over the ball?</p>
  </div>","23","html-slider-response","50","777876","0.0-7.0-2.7","149","1","2025-08-06 09:00:03","36c45c0696341be0efffe67d72a12abb","41.144.67.54","Mozilla/5.0 (Windows NT 10.0; Win64; x64) AppleWebKit/537.36 (KHTML, like Gecko) Chrome/138.0.0.0 Safari/537.36","WebKit","Chrome","138.0.0.0","Windows","10.0","https://app.prolific.com/","en-US,en;q=0.9","669f76a7112b8713f104644c","6877649eabb845cf142cd221","689317277d56f829690716f7","1","669f76a7112b8713f104644c","1","2025-08-06T09:13:04.022Z","","","","ControlQ","","","","","","","","","","","50","","","","","","","","","","","","","","","","","","","","","","","","","","",""
"3811","","<div style=""width:500px;"">
  <p>How would you describe your current emotional state?</p>
  </div>","77","html-slider-response","51","781689","0.0-7.0-3.7","149","1","2025-08-06 09:00:03","36c45c0696341be0efffe67d72a12abb","41.144.67.54","Mozilla/5.0 (Windows NT 10.0; Win64; x64) AppleWebKit/537.36 (KHTML, like Gecko) Chrome/138.0.0.0 Safari/537.36","WebKit","Chrome","138.0.0.0","Windows","10.0","https://app.prolific.com/","en-US,en;q=0.9","669f76a7112b8713f104644c","6877649eabb845cf142cd221","689317277d56f829690716f7","1","669f76a7112b8713f104644c","1","2025-08-06T09:13:07.835Z","","","","StressQ","","","","","","","","","","","50","","","","","","","","","","","","","","","","","","","","","","","","","","",""
"2848","","<div style=""width:500px;"">
  <p>What best describes how you currently feel?</p>
  </div>","70","html-slider-response","52","784538","0.0-7.0-4.7","149","1","2025-08-06 09:00:03","36c45c0696341be0efffe67d72a12abb","41.144.67.54","Mozilla/5.0 (Windows NT 10.0; Win64; x64) AppleWebKit/537.36 (KHTML, like Gecko) Chrome/138.0.0.0 Safari/537.36","WebKit","Chrome","138.0.0.0","Windows","10.0","https://app.prolific.com/","en-US,en;q=0.9","669f76a7112b8713f104644c","6877649eabb845cf142cd221","689317277d56f829690716f7","1","669f76a7112b8713f104644c","1","2025-08-06T09:13:10.684Z","","","","MotivationQ","","","","","","","","","","","50","","","","","","","","","","","","","","","","","","","","","","","","","","",""
"","","","","ctl-task-cpt","53","829406","0.0-7.0-0.8","149","1","2025-08-06 09:00:03","36c45c0696341be0efffe67d72a12abb","41.144.67.54","Mozilla/5.0 (Windows NT 10.0; Win64; x64) AppleWebKit/537.36 (KHTML, like Gecko) Chrome/138.0.0.0 Safari/537.36","WebKit","Chrome","138.0.0.0","Windows","10.0","https://app.prolific.com/","en-US,en;q=0.9","669f76a7112b8713f104644c","6877649eabb845cf142cd221","689317277d56f829690716f7","1","669f76a7112b8713f104644c","1","2025-08-06T09:13:55.552Z","","","","","","","","","","","","","","","","win-only","2","g1:SE,g2:NW","0.4","9","0","788746.3","1172","6181.8","41847.8","1","4","8","6","2","-8","-8","0","0","0","1221.3","3000","-2360","[""left"",""up""]","{""num_key_presses"":10,""num_perfect"":4,""num_errors"":0,""num_randdir"":6,""num_randdir_good_moves"":3,""num_whilered"":0,""num_whileblue"":0,""num_blue"":1,""num_good_moves"":7}","[298.22232142857143,297.12857142857143,0.2,298.22232142857143,297.12857142857143,103.8,298.22232142857143,297.12857142857143,204.7,298.22232142857143,297.12857142857143,309.5,216.22232142857143,217.12857142857143,426,133.22232142857143,111.12857142857143,530.2,133.22232142857143,111.12857142857143,638.5,133.22232142857143,111.12857142857143,740.7,82.22232142857143,87.12857142857143,844.3,69.22232142857143,78.12857142857143,948.2,68.22232142857143,78.12857142857143,1052.5,68.22232142857143,78.12857142857143,1154.3,68.22232142857143,78.12857142857143,1258.6,68.22232142857143,78.12857142857143,1360.6,69.22232142857143,78.12857142857143,1465.4,204.22232142857143,161.12857142857143,1569.5,307.22232142857143,246.12857142857143,1671.1,342.22232142857143,308.12857142857143,1776.3,351.22232142857143,327.12857142857143,1885.3,354.22232142857143,341.12857142857143,1990.6,354.22232142857143,341.12857142857143,2101.4,354.22232142857143,341.12857142857143,2205.4,354.22232142857143,341.12857142857143,2315.9,354.22232142857143,341.12857142857143,2422.2,354.22232142857143,341.12857142857143,2523.9,354.22232142857143,341.12857142857143,2630.2,354.22232142857143,341.12857142857143,2738,354.22232142857143,341.12857142857143,2839,354.22232142857143,341.12857142857143,2945.7,354.22232142857143,341.12857142857143,3045.8,354.22232142857143,341.12857142857143,3150.8,354.22232142857143,341.12857142857143,3253.4,354.22232142857143,341.12857142857143,3354.9,354.22232142857143,341.12857142857143,3455.5,354.22232142857143,341.12857142857143,3565.2,354.22232142857143,341.12857142857143,3666.4,354.22232142857143,341.12857142857143,3767.1,354.22232142857143,341.12857142857143,3871.9,354.22232142857143,341.12857142857143,3975.4,354.22232142857143,341.12857142857143,4079.5,354.22232142857143,341.12857142857143,4184.9,354.22232142857143,341.12857142857143,4285.1,354.22232142857143,341.12857142857143,4386.3,354.22232142857143,341.12857142857143,4491.2,354.22232142857143,341.12857142857143,4593.1,354.22232142857143,341.12857142857143,4693.6,354.22232142857143,341.12857142857143,4796,354.22232142857143,341.12857142857143,4899.1,354.22232142857143,341.12857142857143,4999.5]","[1461.9,1461.9,1000,0,461.9,""oops"",""left"",""right"",""bad_move"",4301.6,2838.8,2425.2,1462.8,413.6,""smooth"",""up"",""up"",""good_move"",10883.3,6581.1,2804.4,7670.8,408.1,""oops"",""up"",""right"",""bad_move"",14885,3996.8,3585.1,10888.2,411.7,""oops"",""up"",""down"",""bad_move"",17356.1,2469.8,2069.6,14886.3,400.2,""smooth"",""left"",""left"",""good_move"",21270.6,3913.6,3540.4,17357,373.2,""oops"",""left"",""up"",""good_move"",23779.9,2508.9,2139.8,21271,369.1,""oops"",""up"",""left"",""good_move"",25995.5,2215.1,1792.3,23780.4,422.8,""oops"",""left"",""left"",""good_move"",28654.6,2658.4,2254.7,25996.2,403.7,""smooth"",""left"",""left"",""good_move"",32242.7,3587.4,3222.3,28655.3,365.1,""smooth"",""left"",""left"",""good_move""]"
"4304","","<div style=""width:500px;"">
  <p>What determined the result of this run?</p>
  </div>","87","html-slider-response","54","833712","0.0-7.0-1.8","149","1","2025-08-06 09:00:03","36c45c0696341be0efffe67d72a12abb","41.144.67.54","Mozilla/5.0 (Windows NT 10.0; Win64; x64) AppleWebKit/537.36 (KHTML, like Gecko) Chrome/138.0.0.0 Safari/537.36","WebKit","Chrome","138.0.0.0","Windows","10.0","https://app.prolific.com/","en-US,en;q=0.9","669f76a7112b8713f104644c","6877649eabb845cf142cd221","689317277d56f829690716f7","1","669f76a7112b8713f104644c","1","2025-08-06T09:13:59.858Z","","","","AttribQ","","","","","","","","","","","50","","","","","","","","","","","","","","","","","","","","","","","","","","",""
"2466","","<div style=""width:500px;"">
  <p>How much control did you have over the ball?</p>
  </div>","93","html-slider-response","55","836179","0.0-7.0-2.8","149","1","2025-08-06 09:00:03","36c45c0696341be0efffe67d72a12abb","41.144.67.54","Mozilla/5.0 (Windows NT 10.0; Win64; x64) AppleWebKit/537.36 (KHTML, like Gecko) Chrome/138.0.0.0 Safari/537.36","WebKit","Chrome","138.0.0.0","Windows","10.0","https://app.prolific.com/","en-US,en;q=0.9","669f76a7112b8713f104644c","6877649eabb845cf142cd221","689317277d56f829690716f7","1","669f76a7112b8713f104644c","1","2025-08-06T09:14:02.326Z","","","","ControlQ","","","","","","","","","","","50","","","","","","","","","","","","","","","","","","","","","","","","","","",""
"4498","","<div style=""width:500px;"">
  <p>How would you describe your current emotional state?</p>
  </div>","16","html-slider-response","56","840678","0.0-7.0-3.8","149","1","2025-08-06 09:00:03","36c45c0696341be0efffe67d72a12abb","41.144.67.54","Mozilla/5.0 (Windows NT 10.0; Win64; x64) AppleWebKit/537.36 (KHTML, like Gecko) Chrome/138.0.0.0 Safari/537.36","WebKit","Chrome","138.0.0.0","Windows","10.0","https://app.prolific.com/","en-US,en;q=0.9","669f76a7112b8713f104644c","6877649eabb845cf142cd221","689317277d56f829690716f7","1","669f76a7112b8713f104644c","1","2025-08-06T09:14:06.824Z","","","","StressQ","","","","","","","","","","","50","","","","","","","","","","","","","","","","","","","","","","","","","","",""
"11464","","<div style=""width:500px;"">
  <p>What best describes how you currently feel?</p>
  </div>","74","html-slider-response","57","852144","0.0-7.0-4.8","149","1","2025-08-06 09:00:03","36c45c0696341be0efffe67d72a12abb","41.144.67.54","Mozilla/5.0 (Windows NT 10.0; Win64; x64) AppleWebKit/537.36 (KHTML, like Gecko) Chrome/138.0.0.0 Safari/537.36","WebKit","Chrome","138.0.0.0","Windows","10.0","https://app.prolific.com/","en-US,en;q=0.9","669f76a7112b8713f104644c","6877649eabb845cf142cd221","689317277d56f829690716f7","1","669f76a7112b8713f104644c","1","2025-08-06T09:14:18.290Z","","","","MotivationQ","","","","","","","","","","","50","","","","","","","","","","","","","","","","","","","","","","","","","","",""
"","","","","ctl-task-cpt","58","922326","0.0-7.0-0.9","149","1","2025-08-06 09:00:03","36c45c0696341be0efffe67d72a12abb","41.144.67.54","Mozilla/5.0 (Windows NT 10.0; Win64; x64) AppleWebKit/537.36 (KHTML, like Gecko) Chrome/138.0.0.0 Safari/537.36","WebKit","Chrome","138.0.0.0","Windows","10.0","https://app.prolific.com/","en-US,en;q=0.9","669f76a7112b8713f104644c","6877649eabb845cf142cd221","689317277d56f829690716f7","1","669f76a7112b8713f104644c","1","2025-08-06T09:15:28.472Z","","","","","","","","","","","","","","","","win-only","3","g1:SW,g2:NE","0.5","10","0","856351.6","1079.4","6084.3","67157.9","1","4","4","6","2","-4","-5","0","0","0","1296.4","3000","-780","[""up"",""right""]","{""num_key_presses"":13,""num_perfect"":6,""num_errors"":1,""num_randdir"":6,""num_randdir_good_moves"":1,""num_whilered"":0,""num_whileblue"":0,""num_blue"":7,""num_good_moves"":7}","[296.22232142857143,297.12857142857143,0.5,296.22232142857143,297.12857142857143,102.1,296.22232142857143,297.12857142857143,210.2,296.22232142857143,297.12857142857143,311.4,296.22232142857143,297.12857142857143,416.5,361.22232142857143,223.12857142857143,526.5,480.22232142857143,148.12857142857143,627.3,513.2223214285714,131.12857142857143,741.6,513.2223214285714,131.12857142857143,846.7,513.2223214285714,120.12857142857143,949.4,531.2223214285714,47.128571428571426,1053,531.2223214285714,47.128571428571426,1167.2,531.2223214285714,47.128571428571426,1268.7,531.2223214285714,47.128571428571426,1374.1,531.2223214285714,47.128571428571426,1477,531.2223214285714,47.128571428571426,1577.7,381.22232142857143,206.12857142857143,1677.9,308.22232142857143,296.12857142857143,1794.1,271.22232142857143,331.12857142857143,1899.2,268.22232142857143,331.12857142857143,2020.3,254.22232142857143,329.12857142857143,2120.7,253.22232142857143,328.12857142857143,2222.9,253.22232142857143,327.12857142857143,2328,253.22232142857143,327.12857142857143,2432.5,253.22232142857143,327.12857142857143,2535.5,253.22232142857143,327.12857142857143,2645,253.22232142857143,327.12857142857143,2756.9,253.22232142857143,327.12857142857143,2858.1,253.22232142857143,327.12857142857143,2972.1,253.22232142857143,327.12857142857143,3074.3,253.22232142857143,327.12857142857143,3176.9,253.22232142857143,327.12857142857143,3278,253.22232142857143,327.12857142857143,3382,253.22232142857143,327.12857142857143,3499.9,253.22232142857143,327.12857142857143,3602.3,253.22232142857143,327.12857142857143,3702.3,253.22232142857143,327.12857142857143,3802.9,253.22232142857143,327.12857142857143,3908.3,253.22232142857143,327.12857142857143,4011.7,253.22232142857143,327.12857142857143,4118.1,253.22232142857143,327.12857142857143,4218.3,253.22232142857143,327.12857142857143,4321.4,253.22232142857143,327.12857142857143,4423.6,253.22232142857143,327.12857142857143,4525.2,253.22232142857143,327.12857142857143,4632.2,253.22232142857143,327.12857142857143,4738,253.22232142857143,327.12857142857143,4839,253.22232142857143,327.12857142857143,4942.9]","[2365.7,2365.7,2514.6,2002.4,-2151.3,""error"",""-"",""-"",""no_move"",5685.2,3318.8,1828.6,3367.5,489.1,""oops"",""up"",""up"",""good_move"",8808.7,3122.5,2666.3,5686.2,456.2,""smooth"",""up"",""up"",""good_move"",11833.5,3024.1,2648.2,8809.4,375.9,""oops"",""up"",""down"",""bad_move"",17590.7,5756.7,1728.7,15439.3,422.7,""oops"",""right"",""down"",""bad_move"",19959.8,2368.4,1552.1,17591.4,816.3,""smooth"",""up"",""up"",""good_move"",22680.3,2719,2312.6,19961.3,406.5,""smooth"",""up"",""up"",""good_move"",25249.3,2568.7,2169.5,22680.6,399.2,""oops"",""up"",""down"",""bad_move"",28654.8,3404.8,3001.5,25250,403.3,""smooth"",""right"",""right"",""good_move"",31311.4,2655.4,2270.6,28656,384.8,""smooth"",""right"",""right"",""good_move"",36701.3,5389.7,2140.1,34199.1,362.1,""oops"",""right"",""down"",""bad_move"",39796.8,3095.1,2713.5,36701.7,381.6,""smooth"",""up"",""up"",""good_move"",50285.8,10488.3,2348,47383.1,554.7,""oops"",""up"",""down"",""bad_move""]"
"5242","","<div style=""width:500px;"">
  <p>What determined the result of this run?</p>
  </div>","9","html-slider-response","59","927571","0.0-7.0-1.9","149","1","2025-08-06 09:00:03","36c45c0696341be0efffe67d72a12abb","41.144.67.54","Mozilla/5.0 (Windows NT 10.0; Win64; x64) AppleWebKit/537.36 (KHTML, like Gecko) Chrome/138.0.0.0 Safari/537.36","WebKit","Chrome","138.0.0.0","Windows","10.0","https://app.prolific.com/","en-US,en;q=0.9","669f76a7112b8713f104644c","6877649eabb845cf142cd221","689317277d56f829690716f7","1","669f76a7112b8713f104644c","1","2025-08-06T09:15:33.717Z","","","","AttribQ","","","","","","","","","","","50","","","","","","","","","","","","","","","","","","","","","","","","","","",""
"3201","","<div style=""width:500px;"">
  <p>How much control did you have over the ball?</p>
  </div>","4","html-slider-response","60","930775","0.0-7.0-2.9","149","1","2025-08-06 09:00:03","36c45c0696341be0efffe67d72a12abb","41.144.67.54","Mozilla/5.0 (Windows NT 10.0; Win64; x64) AppleWebKit/537.36 (KHTML, like Gecko) Chrome/138.0.0.0 Safari/537.36","WebKit","Chrome","138.0.0.0","Windows","10.0","https://app.prolific.com/","en-US,en;q=0.9","669f76a7112b8713f104644c","6877649eabb845cf142cd221","689317277d56f829690716f7","1","669f76a7112b8713f104644c","1","2025-08-06T09:15:36.921Z","","","","ControlQ","","","","","","","","","","","50","","","","","","","","","","","","","","","","","","","","","","","","","","",""
"2627","","<div style=""width:500px;"">
  <p>How would you describe your current emotional state?</p>
  </div>","88","html-slider-response","61","933406","0.0-7.0-3.9","149","1","2025-08-06 09:00:03","36c45c0696341be0efffe67d72a12abb","41.144.67.54","Mozilla/5.0 (Windows NT 10.0; Win64; x64) AppleWebKit/537.36 (KHTML, like Gecko) Chrome/138.0.0.0 Safari/537.36","WebKit","Chrome","138.0.0.0","Windows","10.0","https://app.prolific.com/","en-US,en;q=0.9","669f76a7112b8713f104644c","6877649eabb845cf142cd221","689317277d56f829690716f7","1","669f76a7112b8713f104644c","1","2025-08-06T09:15:39.552Z","","","","StressQ","","","","","","","","","","","50","","","","","","","","","","","","","","","","","","","","","","","","","","",""
"4068","","<div style=""width:500px;"">
  <p>What best describes how you currently feel?</p>
  </div>","77","html-slider-response","62","937476","0.0-7.0-4.9","149","1","2025-08-06 09:00:03","36c45c0696341be0efffe67d72a12abb","41.144.67.54","Mozilla/5.0 (Windows NT 10.0; Win64; x64) AppleWebKit/537.36 (KHTML, like Gecko) Chrome/138.0.0.0 Safari/537.36","WebKit","Chrome","138.0.0.0","Windows","10.0","https://app.prolific.com/","en-US,en;q=0.9","669f76a7112b8713f104644c","6877649eabb845cf142cd221","689317277d56f829690716f7","1","669f76a7112b8713f104644c","1","2025-08-06T09:15:43.622Z","","","","MotivationQ","","","","","","","","","","","50","","","","","","","","","","","","","","","","","","","","","","","","","","",""
"","","","","ctl-task-cpt","63","977001","0.0-7.0-0.10","149","1","2025-08-06 09:00:03","36c45c0696341be0efffe67d72a12abb","41.144.67.54","Mozilla/5.0 (Windows NT 10.0; Win64; x64) AppleWebKit/537.36 (KHTML, like Gecko) Chrome/138.0.0.0 Safari/537.36","WebKit","Chrome","138.0.0.0","Windows","10.0","https://app.prolific.com/","en-US,en;q=0.9","669f76a7112b8713f104644c","6877649eabb845cf142cd221","689317277d56f829690716f7","1","669f76a7112b8713f104644c","1","2025-08-06T09:16:23.147Z","","","","","","","","","","","","","","","","win-only","0","g1:NW,g2:SE","0.6","11","0","941686.4","1158.8","6181.8","36468.1","1","4","8","6","2","8","8","8","0","0.06060606060606061","1303.7","3000","2405","[""down"",""right""]","{""num_key_presses"":8,""num_perfect"":4,""num_errors"":0,""num_randdir"":4,""num_randdir_good_moves"":3,""num_whilered"":0,""num_whileblue"":0,""num_blue"":1,""num_good_moves"":7}","[290.22232142857143,296.12857142857143,0.7,290.22232142857143,296.12857142857143,101.4,290.22232142857143,296.12857142857143,232.5,290.22232142857143,296.12857142857143,362,395.22232142857143,419.12857142857143,494.9,444.22232142857143,478.12857142857143,632.8,444.22232142857143,478.12857142857143,761.6,488.22232142857143,493.12857142857143,897.2,542.2223214285714,536.1285714285714,1000.4,546.2223214285714,538.1285714285714,1131,546.2223214285714,538.1285714285714,1257.5,546.2223214285714,538.1285714285714,1357.7,546.2223214285714,538.1285714285714,1494.3,546.2223214285714,538.1285714285714,1620.7,528.2223214285714,534.1285714285714,1732.2,344.22232142857143,402.12857142857143,1864.3,312.22232142857143,386.12857142857143,1974.9,304.22232142857143,382.12857142857143,2078.8,301.22232142857143,377.12857142857143,2208.8,301.22232142857143,377.12857142857143,2338.9,275.22232142857143,339.12857142857143,2467.8,254.22232142857143,285.12857142857143,2568,253.22232142857143,278.12857142857143,2700.4,247.22232142857143,235.12857142857143,2805,244.22232142857143,225.12857142857143,2937.2,244.22232142857143,225.12857142857143,3042.4,244.22232142857143,225.12857142857143,3172.8,244.22232142857143,225.12857142857143,3301.1,244.22232142857143,225.12857142857143,3429.6,244.22232142857143,225.12857142857143,3559.4,244.22232142857143,225.12857142857143,3687.8,244.22232142857143,225.12857142857143,3820.8,244.22232142857143,225.12857142857143,3949.9,244.22232142857143,225.12857142857143,4083.9,244.22232142857143,225.12857142857143,4212.9,244.22232142857143,225.12857142857143,4342.2,244.22232142857143,225.12857142857143,4467.5,244.22232142857143,225.12857142857143,4595.2,244.22232142857143,225.12857142857143,4724.1,244.22232142857143,225.12857142857143,4861.9,244.22232142857143,225.12857142857143,4992.1]","[4705.5,4705.5,2124.6,2047.7,533.2,""smooth"",""down"",""down"",""good_move"",7608.6,2902.7,2333.5,4705.9,569.2,""oops"",""down"",""right"",""good_move"",10768.5,3159.6,2579.1,7609,580.4,""oops"",""right"",""right"",""good_move"",14065.3,3296.6,2816.3,10768.8,480.3,""smooth"",""right"",""right"",""good_move"",17264.7,3199,2578.2,14065.7,620.8,""oops"",""down"",""down"",""good_move"",20669.9,3404.8,2978.4,17265.1,426.4,""oops"",""down"",""left"",""bad_move"",26917,6246.6,2524.3,20670.4,3722.3,""smooth"",""down"",""down"",""good_move"",29544.2,2627,1755.1,26917.2,871.9,""smooth"",""right"",""right"",""good_move""]"
"2529","","<div style=""width:500px;"">
  <p>What determined the result of this run?</p>
  </div>","87","html-slider-response","64","979534","0.0-7.0-1.10","149","1","2025-08-06 09:00:03","36c45c0696341be0efffe67d72a12abb","41.144.67.54","Mozilla/5.0 (Windows NT 10.0; Win64; x64) AppleWebKit/537.36 (KHTML, like Gecko) Chrome/138.0.0.0 Safari/537.36","WebKit","Chrome","138.0.0.0","Windows","10.0","https://app.prolific.com/","en-US,en;q=0.9","669f76a7112b8713f104644c","6877649eabb845cf142cd221","689317277d56f829690716f7","1","669f76a7112b8713f104644c","1","2025-08-06T09:16:25.680Z","","","","AttribQ","","","","","","","","","","","50","","","","","","","","","","","","","","","","","","","","","","","","","","",""
"3926","","<div style=""width:500px;"">
  <p>How much control did you have over the ball?</p>
  </div>","90","html-slider-response","65","983464","0.0-7.0-2.10","149","1","2025-08-06 09:00:03","36c45c0696341be0efffe67d72a12abb","41.144.67.54","Mozilla/5.0 (Windows NT 10.0; Win64; x64) AppleWebKit/537.36 (KHTML, like Gecko) Chrome/138.0.0.0 Safari/537.36","WebKit","Chrome","138.0.0.0","Windows","10.0","https://app.prolific.com/","en-US,en;q=0.9","669f76a7112b8713f104644c","6877649eabb845cf142cd221","689317277d56f829690716f7","1","669f76a7112b8713f104644c","1","2025-08-06T09:16:29.610Z","","","","ControlQ","","","","","","","","","","","50","","","","","","","","","","","","","","","","","","","","","","","","","","",""
"7572","","<div style=""width:500px;"">
  <p>How would you describe your current emotional state?</p>
  </div>","85","html-slider-response","66","991040","0.0-7.0-3.10","149","1","2025-08-06 09:00:03","36c45c0696341be0efffe67d72a12abb","41.144.67.54","Mozilla/5.0 (Windows NT 10.0; Win64; x64) AppleWebKit/537.36 (KHTML, like Gecko) Chrome/138.0.0.0 Safari/537.36","WebKit","Chrome","138.0.0.0","Windows","10.0","https://app.prolific.com/","en-US,en;q=0.9","669f76a7112b8713f104644c","6877649eabb845cf142cd221","689317277d56f829690716f7","1","669f76a7112b8713f104644c","1","2025-08-06T09:16:37.186Z","","","","StressQ","","","","","","","","","","","50","","","","","","","","","","","","","","","","","","","","","","","","","","",""
"2606","","<div style=""width:500px;"">
  <p>What best describes how you currently feel?</p>
  </div>","77","html-slider-response","67","993649","0.0-7.0-4.10","149","1","2025-08-06 09:00:03","36c45c0696341be0efffe67d72a12abb","41.144.67.54","Mozilla/5.0 (Windows NT 10.0; Win64; x64) AppleWebKit/537.36 (KHTML, like Gecko) Chrome/138.0.0.0 Safari/537.36","WebKit","Chrome","138.0.0.0","Windows","10.0","https://app.prolific.com/","en-US,en;q=0.9","669f76a7112b8713f104644c","6877649eabb845cf142cd221","689317277d56f829690716f7","1","669f76a7112b8713f104644c","1","2025-08-06T09:16:39.795Z","","","","MotivationQ","","","","","","","","","","","50","","","","","","","","","","","","","","","","","","","","","","","","","","",""
"","","","","ctl-task-cpt","68","1079914","0.0-7.0-0.11","149","1","2025-08-06 09:00:03","36c45c0696341be0efffe67d72a12abb","41.144.67.54","Mozilla/5.0 (Windows NT 10.0; Win64; x64) AppleWebKit/537.36 (KHTML, like Gecko) Chrome/138.0.0.0 Safari/537.36","WebKit","Chrome","138.0.0.0","Windows","10.0","https://app.prolific.com/","en-US,en;q=0.9","669f76a7112b8713f104644c","6877649eabb845cf142cd221","689317277d56f829690716f7","1","669f76a7112b8713f104644c","1","2025-08-06T09:18:06.060Z","","","","","","","","","","","","","","","","win-only","1","g1:NE,g2:SW","0.7","12","0","997859.7","1850.9","6854.8","83176.6","1","4","4","6","2","4","4","12","8","0.09090909090909091","1223.2","3000","2330","[""down"",""left""]","{""num_key_presses"":12,""num_perfect"":9,""num_errors"":0,""num_randdir"":3,""num_randdir_good_moves"":0,""num_whilered"":0,""num_whileblue"":0,""num_blue"":3,""num_good_moves"":9}","[299.22232142857143,297.12857142857143,0.1,299.22232142857143,297.12857142857143,106.3,299.22232142857143,297.12857142857143,246.5,299.22232142857143,297.12857142857143,365.4,165.22232142857143,453.12857142857143,486.4,150.22232142857143,475.12857142857143,606.4,150.22232142857143,475.12857142857143,740.3,73.22232142857143,547.1285714285714,872.5,69.22232142857143,549.1285714285714,1000,68.22232142857143,549.1285714285714,1126.6,68.22232142857143,549.1285714285714,1245.4,68.22232142857143,549.1285714285714,1364.7,68.22232142857143,549.1285714285714,1484.5,173.22232142857143,399.12857142857143,1602.7,249.22232142857143,336.12857142857143,1721.4,338.22232142857143,252.12857142857143,1842.4,338.22232142857143,259.12857142857143,1971.5,331.22232142857143,271.12857142857143,2093,331.22232142857143,271.12857142857143,2217.8,331.22232142857143,271.12857142857143,2341.6,331.22232142857143,271.12857142857143,2456.5,331.22232142857143,271.12857142857143,2574.4,361.22232142857143,237.12857142857143,2696.2,361.22232142857143,237.12857142857143,2811.4,361.22232142857143,237.12857142857143,2936,361.22232142857143,237.12857142857143,3056.3,361.22232142857143,237.12857142857143,3175.4,361.22232142857143,237.12857142857143,3299.6,361.22232142857143,237.12857142857143,3417.5,361.22232142857143,237.12857142857143,3536.9,361.22232142857143,237.12857142857143,3666.3,361.22232142857143,237.12857142857143,3780.8,361.22232142857143,237.12857142857143,3894,361.22232142857143,237.12857142857143,4018.4,361.22232142857143,237.12857142857143,4134.6,361.22232142857143,237.12857142857143,4263.1,361.22232142857143,237.12857142857143,4379,354.22232142857143,240.12857142857143,4500,353.22232142857143,244.12857142857143,4617.4,351.22232142857143,244.12857142857143,4735.2,351.22232142857143,244.12857142857143,4851,351.22232142857143,244.12857142857143,4967.8]","[4274.3,4274.3,1741.9,2044.9,487.5,""oops"",""down"",""right"",""bad_move"",7499.3,3224.7,2594.6,4274.6,630.1,""smooth"",""down"",""down"",""good_move"",10021.9,2522.1,2037.2,7499.8,484.9,""oops"",""down"",""right"",""bad_move"",16383.4,6361.2,2199.9,13662.5,521,""smooth"",""down"",""down"",""good_move"",18701.6,2318,1633.1,16383.6,684.9,""smooth"",""down"",""down"",""good_move"",22115.3,3413.6,2727.3,18701.9,686.2,""smooth"",""left"",""left"",""good_move"",29500.8,7384.6,2106.7,22116.2,5277.9,""smooth"",""left"",""left"",""good_move"",36995.5,7494.4,2419.8,29501.1,5074.6,""smooth"",""left"",""left"",""good_move"",44600.5,7604.4,2632.5,36996.3,4971.7,""oops"",""left"",""right"",""bad_move"",52217.6,7616.9,3487.5,48110,620.1,""smooth"",""left"",""left"",""good_move"",63493.6,11275.8,2855.4,52217.8,8420.4,""smooth"",""left"",""left"",""good_move"",75151.2,11657.2,2613.8,63494,9043.4,""smooth"",""left"",""left"",""good_move""]"
"3536","","<div style=""width:500px;"">
  <p>What determined the result of this run?</p>
  </div>","88","html-slider-response","69","1083456","0.0-7.0-1.11","149","1","2025-08-06 09:00:03","36c45c0696341be0efffe67d72a12abb","41.144.67.54","Mozilla/5.0 (Windows NT 10.0; Win64; x64) AppleWebKit/537.36 (KHTML, like Gecko) Chrome/138.0.0.0 Safari/537.36","WebKit","Chrome","138.0.0.0","Windows","10.0","https://app.prolific.com/","en-US,en;q=0.9","669f76a7112b8713f104644c","6877649eabb845cf142cd221","689317277d56f829690716f7","1","669f76a7112b8713f104644c","1","2025-08-06T09:18:09.602Z","","","","AttribQ","","","","","","","","","","","50","","","","","","","","","","","","","","","","","","","","","","","","","","",""
"3048","","<div style=""width:500px;"">
  <p>How much control did you have over the ball?</p>
  </div>","80","html-slider-response","70","1086510","0.0-7.0-2.11","149","1","2025-08-06 09:00:03","36c45c0696341be0efffe67d72a12abb","41.144.67.54","Mozilla/5.0 (Windows NT 10.0; Win64; x64) AppleWebKit/537.36 (KHTML, like Gecko) Chrome/138.0.0.0 Safari/537.36","WebKit","Chrome","138.0.0.0","Windows","10.0","https://app.prolific.com/","en-US,en;q=0.9","669f76a7112b8713f104644c","6877649eabb845cf142cd221","689317277d56f829690716f7","1","669f76a7112b8713f104644c","1","2025-08-06T09:18:12.656Z","","","","ControlQ","","","","","","","","","","","50","","","","","","","","","","","","","","","","","","","","","","","","","","",""
"3920","","<div style=""width:500px;"">
  <p>How would you describe your current emotional state?</p>
  </div>","17","html-slider-response","71","1090436","0.0-7.0-3.11","149","1","2025-08-06 09:00:03","36c45c0696341be0efffe67d72a12abb","41.144.67.54","Mozilla/5.0 (Windows NT 10.0; Win64; x64) AppleWebKit/537.36 (KHTML, like Gecko) Chrome/138.0.0.0 Safari/537.36","WebKit","Chrome","138.0.0.0","Windows","10.0","https://app.prolific.com/","en-US,en;q=0.9","669f76a7112b8713f104644c","6877649eabb845cf142cd221","689317277d56f829690716f7","1","669f76a7112b8713f104644c","1","2025-08-06T09:18:16.582Z","","","","StressQ","","","","","","","","","","","50","","","","","","","","","","","","","","","","","","","","","","","","","","",""
"2737","","<div style=""width:500px;"">
  <p>What best describes how you currently feel?</p>
  </div>","77","html-slider-response","72","1093181","0.0-7.0-4.11","149","1","2025-08-06 09:00:03","36c45c0696341be0efffe67d72a12abb","41.144.67.54","Mozilla/5.0 (Windows NT 10.0; Win64; x64) AppleWebKit/537.36 (KHTML, like Gecko) Chrome/138.0.0.0 Safari/537.36","WebKit","Chrome","138.0.0.0","Windows","10.0","https://app.prolific.com/","en-US,en;q=0.9","669f76a7112b8713f104644c","6877649eabb845cf142cd221","689317277d56f829690716f7","1","669f76a7112b8713f104644c","1","2025-08-06T09:18:19.327Z","","","","MotivationQ","","","","","","","","","","","50","","","","","","","","","","","","","","","","","","","","","","","","","","",""
"","","","","ctl-task-cpt","73","1133399","0.0-7.0-0.12","149","1","2025-08-06 09:00:03","36c45c0696341be0efffe67d72a12abb","41.144.67.54","Mozilla/5.0 (Windows NT 10.0; Win64; x64) AppleWebKit/537.36 (KHTML, like Gecko) Chrome/138.0.0.0 Safari/537.36","WebKit","Chrome","138.0.0.0","Windows","10.0","https://app.prolific.com/","en-US,en;q=0.9","669f76a7112b8713f104644c","6877649eabb845cf142cd221","689317277d56f829690716f7","1","669f76a7112b8713f104644c","1","2025-08-06T09:18:59.545Z","","","","","","","","","","","","","","","","win-only","0","g1:NW,g2:SE","0.8","13","0","1097393","1890.8","6959.4","37131.4","1","4","4","6","2","4","4","16","12","0.12121212121212122","1348.4","3000","2340","[""down"",""right""]","{""num_key_presses"":7,""num_perfect"":7,""num_errors"":0,""num_randdir"":0,""num_randdir_good_moves"":0,""num_whilered"":0,""num_whileblue"":0,""num_blue"":1,""num_good_moves"":7}","[298.22232142857143,293.12857142857143,0.3,298.22232142857143,293.12857142857143,106,298.22232142857143,293.12857142857143,254.7,298.22232142857143,293.12857142857143,414.7,282.22232142857143,284.12857142857143,568.9,311.22232142857143,301.12857142857143,719.2,522.2223214285714,546.1285714285714,859.3,522.2223214285714,546.1285714285714,999.5,526.2223214285714,550.1285714285714,1141,524.2223214285714,547.1285714285714,1282.9,524.2223214285714,547.1285714285714,1435.5,524.2223214285714,547.1285714285714,1588.4,524.2223214285714,547.1285714285714,1761.7,514.2223214285714,541.1285714285714,1918.2,351.22232142857143,361.12857142857143,2078.1,351.22232142857143,361.12857142857143,2230.8,286.22232142857143,311.12857142857143,2385.6,234.22232142857143,253.12857142857143,2564.3,233.22232142857143,251.12857142857143,2724.7,233.22232142857143,251.12857142857143,2882.9,233.22232142857143,251.12857142857143,3021.8,233.22232142857143,251.12857142857143,3165.8,233.22232142857143,251.12857142857143,3305.9,233.22232142857143,251.12857142857143,3444.3,233.22232142857143,251.12857142857143,3591,233.22232142857143,251.12857142857143,3735.2,233.22232142857143,251.12857142857143,3837.4,233.22232142857143,251.12857142857143,4003.3,233.22232142857143,251.12857142857143,4142.6,233.22232142857143,251.12857142857143,4287.1,233.22232142857143,251.12857142857143,4426.2,233.22232142857143,251.12857142857143,4573.6,233.22232142857143,251.12857142857143,4711.7,233.22232142857143,251.12857142857143,4853.6,233.22232142857143,251.12857142857143,4999.5]","[5481.5,5481.5,2786.9,2065,629.6,""smooth"",""down"",""down"",""good_move"",8335.8,2854,1999.6,5481.8,854.4,""smooth"",""down"",""down"",""good_move"",11053,2716.9,2101.2,8336.1,615.7,""smooth"",""down"",""down"",""good_move"",14860,3806.7,3053,11053.3,753.7,""smooth"",""right"",""right"",""good_move"",17826.6,2966.2,2293.1,14860.5,673,""smooth"",""right"",""right"",""good_move"",21516.3,3689.3,3096.6,17827,592.7,""smooth"",""right"",""right"",""good_move"",30057.1,8540.6,2631,21516.5,5909.6,""smooth"",""right"",""down"",""good_move""]"
"3315","","<div style=""width:500px;"">
  <p>What determined the result of this run?</p>
  </div>","79","html-slider-response","74","1136720","0.0-7.0-1.12","149","1","2025-08-06 09:00:03","36c45c0696341be0efffe67d72a12abb","41.144.67.54","Mozilla/5.0 (Windows NT 10.0; Win64; x64) AppleWebKit/537.36 (KHTML, like Gecko) Chrome/138.0.0.0 Safari/537.36","WebKit","Chrome","138.0.0.0","Windows","10.0","https://app.prolific.com/","en-US,en;q=0.9","669f76a7112b8713f104644c","6877649eabb845cf142cd221","689317277d56f829690716f7","1","669f76a7112b8713f104644c","1","2025-08-06T09:19:02.866Z","","","","AttribQ","","","","","","","","","","","50","","","","","","","","","","","","","","","","","","","","","","","","","","",""
"2764","","<div style=""width:500px;"">
  <p>How much control did you have over the ball?</p>
  </div>","81","html-slider-response","75","1139490","0.0-7.0-2.12","149","1","2025-08-06 09:00:03","36c45c0696341be0efffe67d72a12abb","41.144.67.54","Mozilla/5.0 (Windows NT 10.0; Win64; x64) AppleWebKit/537.36 (KHTML, like Gecko) Chrome/138.0.0.0 Safari/537.36","WebKit","Chrome","138.0.0.0","Windows","10.0","https://app.prolific.com/","en-US,en;q=0.9","669f76a7112b8713f104644c","6877649eabb845cf142cd221","689317277d56f829690716f7","1","669f76a7112b8713f104644c","1","2025-08-06T09:19:05.636Z","","","","ControlQ","","","","","","","","","","","50","","","","","","","","","","","","","","","","","","","","","","","","","","",""
"3101","","<div style=""width:500px;"">
  <p>How would you describe your current emotional state?</p>
  </div>","10","html-slider-response","76","1142600","0.0-7.0-3.12","149","1","2025-08-06 09:00:03","36c45c0696341be0efffe67d72a12abb","41.144.67.54","Mozilla/5.0 (Windows NT 10.0; Win64; x64) AppleWebKit/537.36 (KHTML, like Gecko) Chrome/138.0.0.0 Safari/537.36","WebKit","Chrome","138.0.0.0","Windows","10.0","https://app.prolific.com/","en-US,en;q=0.9","669f76a7112b8713f104644c","6877649eabb845cf142cd221","689317277d56f829690716f7","1","669f76a7112b8713f104644c","1","2025-08-06T09:19:08.746Z","","","","StressQ","","","","","","","","","","","50","","","","","","","","","","","","","","","","","","","","","","","","","","",""
"4040","","<div style=""width:500px;"">
  <p>What best describes how you currently feel?</p>
  </div>","89","html-slider-response","77","1146650","0.0-7.0-4.12","149","1","2025-08-06 09:00:03","36c45c0696341be0efffe67d72a12abb","41.144.67.54","Mozilla/5.0 (Windows NT 10.0; Win64; x64) AppleWebKit/537.36 (KHTML, like Gecko) Chrome/138.0.0.0 Safari/537.36","WebKit","Chrome","138.0.0.0","Windows","10.0","https://app.prolific.com/","en-US,en;q=0.9","669f76a7112b8713f104644c","6877649eabb845cf142cd221","689317277d56f829690716f7","1","669f76a7112b8713f104644c","1","2025-08-06T09:19:12.796Z","","","","MotivationQ","","","","","","","","","","","50","","","","","","","","","","","","","","","","","","","","","","","","","","",""
