"rt","response_timestamp","stimulus","response","trial_type","trial_index","time_elapsed","internal_node_id","run_id","condition","recorded_at","source_code_version","ip","user_agent","device","browser","browser_version","platform","platform_version","referer","accept_language","PROLIFIC_PID","STUDY_ID","SESSION_ID","BATCH","prolific_id","batch","realtime","success","question_order","question_id","eventType","responses","item_order","radio_event_ids","radio_event_times","key_event_times","mouse_event_times","straightlining","zigzagging","honeypot","view_history","slider_start","which_type","canvas_config","goals_layout","control_level","trial_number","tutorial_trial_number","trial_start_time","phase1_start_time","phase2_start_time","phase3_start_time","goal_1_value","goal_1_distance","goal_2_value","goal_2_distance","goal_selected","outcome","outcome_total","participant_final_score","participant_initial_score","participant_final_score_prop","goal_choice_rt","allocated_time","allocated_time_remaining","goal_direction","counts","mouse_movements","key_presses"
"3741","1753946884651","<p style='font-size:40px;line-height:1.25'><strong>Welcome to the experiment!</strong></p><p style='font-size:1.1em;line-height:1.25'>Thank you for participanting in our experiment again! You will be asked to play the Dysfunctional Ball Game again. We will briefly recap the rules before we start.</p><p style='font-size:1.1em;line-height:1.25'>Press <strong>Next</strong> to continue.</p>","0","custom-html-button-response","0","3743","0.0-0.0","106","1","2025-07-31 07:27:58","36c45c0696341be0efffe67d72a12abb","188.146.149.109","Mozilla/5.0 (Macintosh; Intel Mac OS X 10_15_7) AppleWebKit/537.36 (KHTML, like Gecko) Chrome/138.0.0.0 Safari/537.36","Macintosh","Chrome","138.0.0.0","OS X","10_15_7","https://app.prolific.com/","pl-PL,pl;q=0.9,en-GB;q=0.8,en;q=0.7,en-US;q=0.6","66a16e0b41e98cb469f12b0b","683dba9a53627eb9ab41b36a","688b1af35b9aa47adbf86d1b","0","66a16e0b41e98cb469f12b0b","0","2025-07-31T07:28:04.652Z","","","","","","","","","","","","","","","","","","","","","","","","","","","","","","","","","","","","","","","","","",""
"980","","","","fullscreen","1","5728","0.0-1.0","106","1","2025-07-31 07:27:58","36c45c0696341be0efffe67d72a12abb","188.146.149.109","Mozilla/5.0 (Macintosh; Intel Mac OS X 10_15_7) AppleWebKit/537.36 (KHTML, like Gecko) Chrome/138.0.0.0 Safari/537.36","Macintosh","Chrome","138.0.0.0","OS X","10_15_7","https://app.prolific.com/","pl-PL,pl;q=0.9,en-GB;q=0.8,en;q=0.7,en-US;q=0.6","66a16e0b41e98cb469f12b0b","683dba9a53627eb9ab41b36a","688b1af35b9aa47adbf86d1b","0","66a16e0b41e98cb469f12b0b","0","","true","","","","","","","","","","","","","","","","","","","","","","","","","","","","","","","","","","","","","","","","",""
"920","1753946887559"," <p style='font-size:1.1em;line-height:1.25'>Thank you for closing all other tabs.</p><p style='font-size:1.1em;line-height:1.25'>We will now invite you to fill in some questionnaires, before starting the game.<br>This will take about 5 minutes.<br></p><p style='font-size:1.1em;line-height:1.25'>Press the <strong>Next</strong> button to continue.</p>","0","custom-html-button-response","2","6651","0.0-2.0","106","1","2025-07-31 07:27:58","36c45c0696341be0efffe67d72a12abb","188.146.149.109","Mozilla/5.0 (Macintosh; Intel Mac OS X 10_15_7) AppleWebKit/537.36 (KHTML, like Gecko) Chrome/138.0.0.0 Safari/537.36","Macintosh","Chrome","138.0.0.0","OS X","10_15_7","https://app.prolific.com/","pl-PL,pl;q=0.9,en-GB;q=0.8,en;q=0.7,en-US;q=0.6","66a16e0b41e98cb469f12b0b","683dba9a53627eb9ab41b36a","688b1af35b9aa47adbf86d1b","0","66a16e0b41e98cb469f12b0b","0","2025-07-31T07:28:07.560Z","","","","","","","","","","","","","","","","","","","","","","","","","","","","","","","","","","","","","","","","","",""
"2165","","","{""assigned_sex"":""female""}","survey-multi-choice","3","8819","0.0-3.0-0.0","106","1","2025-07-31 07:27:58","36c45c0696341be0efffe67d72a12abb","188.146.149.109","Mozilla/5.0 (Macintosh; Intel Mac OS X 10_15_7) AppleWebKit/537.36 (KHTML, like Gecko) Chrome/138.0.0.0 Safari/537.36","Macintosh","Chrome","138.0.0.0","OS X","10_15_7","https://app.prolific.com/","pl-PL,pl;q=0.9,en-GB;q=0.8,en;q=0.7,en-US;q=0.6","66a16e0b41e98cb469f12b0b","683dba9a53627eb9ab41b36a","688b1af35b9aa47adbf86d1b","0","66a16e0b41e98cb469f12b0b","0","","","[0]","0","demographics","","","","","","","","","","","","","","","","","","","","","","","","","","","","","","","","","","","","","",""
"1387","1753946891116","<p style='font-size:1.1em;line-height:1.25'>In the following, we will perform a baseline assessment. This means that we will ask you a few questions relating to your experiences over the past month.<br></p><p style='font-size:1.1em;line-height:1.25'>Press the <strong>Next</strong> button to continue.</p>","0","custom-html-button-response","4","10209","0.0-4.0-0.0","106","1","2025-07-31 07:27:58","36c45c0696341be0efffe67d72a12abb","188.146.149.109","Mozilla/5.0 (Macintosh; Intel Mac OS X 10_15_7) AppleWebKit/537.36 (KHTML, like Gecko) Chrome/138.0.0.0 Safari/537.36","Macintosh","Chrome","138.0.0.0","OS X","10_15_7","https://app.prolific.com/","pl-PL,pl;q=0.9,en-GB;q=0.8,en;q=0.7,en-US;q=0.6","66a16e0b41e98cb469f12b0b","683dba9a53627eb9ab41b36a","688b1af35b9aa47adbf86d1b","0","66a16e0b41e98cb469f12b0b","0","2025-07-31T07:28:11.118Z","","","","","","","","","","","","","","","","","","","","","","","","","","","","","","","","","","","","","","","","","",""
"32928.60000002384","","","","survey-template","5","43142","0.0-4.0-1.0","106","1","2025-07-31 07:27:58","36c45c0696341be0efffe67d72a12abb","188.146.149.109","Mozilla/5.0 (Macintosh; Intel Mac OS X 10_15_7) AppleWebKit/537.36 (KHTML, like Gecko) Chrome/138.0.0.0 Safari/537.36","Macintosh","Chrome","138.0.0.0","OS X","10_15_7","https://app.prolific.com/","pl-PL,pl;q=0.9,en-GB;q=0.8,en;q=0.7,en-US;q=0.6","66a16e0b41e98cb469f12b0b","683dba9a53627eb9ab41b36a","688b1af35b9aa47adbf86d1b","0","66a16e0b41e98cb469f12b0b","0","2025-07-31T07:28:44.051Z","","","","pss","{""Q01"":""4"",""Q02"":""4"",""Q03"":""4"",""Q04"":""0"",""Q05"":""2"",""Q06"":""3"",""Q07"":""3"",""Q08"":""2"",""Q09"":""3"",""Q10"":""3""}","[0,1,2,3,4,5,6,7,8,9]","[""Q01"",""Q02"",""Q03"",""Q04"",""Q05"",""Q06"",""Q06"",""Q07"",""Q08"",""Q09"",""Q10""]","[3337.400000035763,8853,10346.900000035763,12828.100000023842,15731.400000035763,18004.19999998808,21108.100000023842,24404.5,26658.69999998808,30575.69999998808,32271.100000023842]","[]","[0.10000002384185791,3337.400000035763,7053.199999988079,8470.5,8853,9708.199999988079,10346.900000035763,12828.100000023842,15731.400000035763,18004.19999998808,21108.100000023842,24404.5,26658.69999998808,30575.69999998808,31692.80000001192,32271.100000023842,32925.19999998808]","0.4","0.3333333333333333","0","","","","","","","","","","","","","","","","","","","","","","","","","","","","",""
"1447","1753946925499","<p style='font-size:1.1em;line-height:1.25'>Thank you for your answers! Now we will ask you a few more questions relating to your feelings in the last 24 hours.<br></p><p style='font-size:1.1em;line-height:1.25'>Press the <strong>Next</strong> button to continue.</p>","0","custom-html-button-response","6","44592","0.0-4.0-2.0","106","1","2025-07-31 07:27:58","36c45c0696341be0efffe67d72a12abb","188.146.149.109","Mozilla/5.0 (Macintosh; Intel Mac OS X 10_15_7) AppleWebKit/537.36 (KHTML, like Gecko) Chrome/138.0.0.0 Safari/537.36","Macintosh","Chrome","138.0.0.0","OS X","10_15_7","https://app.prolific.com/","pl-PL,pl;q=0.9,en-GB;q=0.8,en;q=0.7,en-US;q=0.6","66a16e0b41e98cb469f12b0b","683dba9a53627eb9ab41b36a","688b1af35b9aa47adbf86d1b","0","66a16e0b41e98cb469f12b0b","0","2025-07-31T07:28:45.501Z","","","","","","","","","","","","","","","","","","","","","","","","","","","","","","","","","","","","","","","","","",""
"38693.30000001192","","","","survey-template","7","83289","0.0-4.0-3.0","106","1","2025-07-31 07:27:58","36c45c0696341be0efffe67d72a12abb","188.146.149.109","Mozilla/5.0 (Macintosh; Intel Mac OS X 10_15_7) AppleWebKit/537.36 (KHTML, like Gecko) Chrome/138.0.0.0 Safari/537.36","Macintosh","Chrome","138.0.0.0","OS X","10_15_7","https://app.prolific.com/","pl-PL,pl;q=0.9,en-GB;q=0.8,en;q=0.7,en-US;q=0.6","66a16e0b41e98cb469f12b0b","683dba9a53627eb9ab41b36a","688b1af35b9aa47adbf86d1b","0","66a16e0b41e98cb469f12b0b","0","2025-07-31T07:29:24.198Z","","","","drsp","{""Q01"":""3"",""Q02"":""2"",""Q03"":""3"",""Q04"":""3"",""Q05"":""3"",""Q06"":""3"",""Q07"":""3"",""Q08"":""1"",""Q09"":""1"",""Q10"":""2"",""Q11"":""4"",""Q12"":""1"",""Q13"":""5"",""Q14"":""1"",""Q15"":""4"",""Q16"":""4"",""Q17"":""4"",""Q18"":""4"",""Q19"":""0"",""Q20"":""0"",""Q21"":""0"",""Q22"":""0""}","[0,1,2,3,4,5,6,7,8,9,10,11,12,13,14,15,16,17,18,19,20,21]","[""Q01"",""Q02"",""Q03"",""Q04"",""Q05"",""Q06"",""Q07"",""Q08"",""Q09"",""Q10"",""Q11"",""Q12"",""Q13"",""Q14"",""Q15"",""Q16"",""Q17"",""Q18"",""Q19"",""Q20"",""Q21"",""Q22""]","[2854.2000000476837,3876.400000035763,4922.600000023842,6521.700000047684,7997.300000011921,9304.300000011921,10188.600000023842,13262.300000011921,14389.100000023842,15954.5,17871.700000047684,19792.700000047684,21187.80000001192,23027,25458.900000035763,26746.200000047684,28214.900000035763,29637.80000001192,31237.80000001192,32723,33790.60000002384,37462.200000047684]","[]","[0,2854.2000000476837,3876.400000035763,4922.600000023842,6521.700000047684,7997.300000011921,9304.300000011921,10188.600000023842,11350.5,13262.300000011921,14389.100000023842,15954.5,17871.700000047684,19792.700000047684,21187.80000001192,23027,25458.900000035763,26746.200000047684,28214.900000035763,29637.80000001192,31237.80000001192,32723,33790.60000002384,37462.200000047684,38688]","0.2727272727272727","0.14285714285714285","0","","","","","","","","","","","","","","","","","","","","","","","","","","","","",""
"14030","","","","survey-template","8","97321","0.0-4.0-4.0","106","1","2025-07-31 07:27:58","36c45c0696341be0efffe67d72a12abb","188.146.149.109","Mozilla/5.0 (Macintosh; Intel Mac OS X 10_15_7) AppleWebKit/537.36 (KHTML, like Gecko) Chrome/138.0.0.0 Safari/537.36","Macintosh","Chrome","138.0.0.0","OS X","10_15_7","https://app.prolific.com/","pl-PL,pl;q=0.9,en-GB;q=0.8,en;q=0.7,en-US;q=0.6","66a16e0b41e98cb469f12b0b","683dba9a53627eb9ab41b36a","688b1af35b9aa47adbf86d1b","0","66a16e0b41e98cb469f12b0b","0","2025-07-31T07:29:38.230Z","","","","stress","{""Q01"":""4"",""Q02"":""0"",""Q03"":""2""}","[0,1,2]","[""Q01"",""Q02"",""Q02"",""Q02"",""Q03""]","[3966.199999988079,6256.900000035763,8424.400000035763,12112.5,13003.199999988079]","[]","[3966.199999988079,6256.900000035763,8424.400000035763,12112.5,13003.199999988079,14028.300000011921]","0.3333333333333333","0.5","0","","","","","","","","","","","","","","","","","","","","","","","","","","","","",""
"2660","","","","instructions","9","99982","0.0-5.0-0.0","106","1","2025-07-31 07:27:58","36c45c0696341be0efffe67d72a12abb","188.146.149.109","Mozilla/5.0 (Macintosh; Intel Mac OS X 10_15_7) AppleWebKit/537.36 (KHTML, like Gecko) Chrome/138.0.0.0 Safari/537.36","Macintosh","Chrome","138.0.0.0","OS X","10_15_7","https://app.prolific.com/","pl-PL,pl;q=0.9,en-GB;q=0.8,en;q=0.7,en-US;q=0.6","66a16e0b41e98cb469f12b0b","683dba9a53627eb9ab41b36a","688b1af35b9aa47adbf86d1b","0","66a16e0b41e98cb469f12b0b","0","","","","","","","","","","","","","","","[{""page_index"":0,""viewing_time"":2659}]","","","","","","","","","","","","","","","","","","","","","","","","","","","",""
"2606","","<p>Before you start with this game please answer the following three questions yourself. </p>
  <p>Through this game, we measure several aspects of your cognitive performance, such as reaction times, multi-tasking capabilities </p>
  <p>and the ability to assess the situation you are in.</p>
  <p></p>
  <p><b>How good do you usually are in such tasks?</b></p>","20","html-slider-response","10","102592","0.0-6.0-0.0","106","1","2025-07-31 07:27:58","36c45c0696341be0efffe67d72a12abb","188.146.149.109","Mozilla/5.0 (Macintosh; Intel Mac OS X 10_15_7) AppleWebKit/537.36 (KHTML, like Gecko) Chrome/138.0.0.0 Safari/537.36","Macintosh","Chrome","138.0.0.0","OS X","10_15_7","https://app.prolific.com/","pl-PL,pl;q=0.9,en-GB;q=0.8,en;q=0.7,en-US;q=0.6","66a16e0b41e98cb469f12b0b","683dba9a53627eb9ab41b36a","688b1af35b9aa47adbf86d1b","0","66a16e0b41e98cb469f12b0b","0","2025-07-31T07:29:43.501Z","","","","PreSkillQ","","","","","","","","","","","50","","","","","","","","","","","","","","","","","","","","","","","","","","",""
"3525","","<div style=""width:500px;"">
  <p>How well do you think you will perform in this task compared to other participants?</p>
  </div>","15","html-slider-response","11","106119","0.0-6.0-1.0","106","1","2025-07-31 07:27:58","36c45c0696341be0efffe67d72a12abb","188.146.149.109","Mozilla/5.0 (Macintosh; Intel Mac OS X 10_15_7) AppleWebKit/537.36 (KHTML, like Gecko) Chrome/138.0.0.0 Safari/537.36","Macintosh","Chrome","138.0.0.0","OS X","10_15_7","https://app.prolific.com/","pl-PL,pl;q=0.9,en-GB;q=0.8,en;q=0.7,en-US;q=0.6","66a16e0b41e98cb469f12b0b","683dba9a53627eb9ab41b36a","688b1af35b9aa47adbf86d1b","0","66a16e0b41e98cb469f12b0b","0","2025-07-31T07:29:47.028Z","","","","PrePerfQ","","","","","","","","","","","50","","","","","","","","","","","","","","","","","","","","","","","","","","",""
"2339","","<div style=""width:500px;"">
  <p>What best describes how you currently feel?</p>
  </div>","22","html-slider-response","12","108461","0.0-6.0-2.0","106","1","2025-07-31 07:27:58","36c45c0696341be0efffe67d72a12abb","188.146.149.109","Mozilla/5.0 (Macintosh; Intel Mac OS X 10_15_7) AppleWebKit/537.36 (KHTML, like Gecko) Chrome/138.0.0.0 Safari/537.36","Macintosh","Chrome","138.0.0.0","OS X","10_15_7","https://app.prolific.com/","pl-PL,pl;q=0.9,en-GB;q=0.8,en;q=0.7,en-US;q=0.6","66a16e0b41e98cb469f12b0b","683dba9a53627eb9ab41b36a","688b1af35b9aa47adbf86d1b","0","66a16e0b41e98cb469f12b0b","0","2025-07-31T07:29:49.370Z","","","","PreMotivationQ","","","","","","","","","","","50","","","","","","","","","","","","","","","","","","","","","","","","","","",""
"","","","","ctl-task-cpt","13","127376","0.0-7.0-0.0","106","1","2025-07-31 07:27:58","36c45c0696341be0efffe67d72a12abb","188.146.149.109","Mozilla/5.0 (Macintosh; Intel Mac OS X 10_15_7) AppleWebKit/537.36 (KHTML, like Gecko) Chrome/138.0.0.0 Safari/537.36","Macintosh","Chrome","138.0.0.0","OS X","10_15_7","https://app.prolific.com/","pl-PL,pl;q=0.9,en-GB;q=0.8,en;q=0.7,en-US;q=0.6","66a16e0b41e98cb469f12b0b","683dba9a53627eb9ab41b36a","688b1af35b9aa47adbf86d1b","0","66a16e0b41e98cb469f12b0b","0","2025-07-31T07:30:08.285Z","","","","","","","","","","","","","","","","win-only","3","g1:SW,g2:NE","1","1","0","114094.8","1089.8","6091.3","15908.2","1","4","8","6","1","1","1","1","0","0.007575757575757576","983.4","3000","1430","[""down"",""left""]","{""num_key_presses"":4,""num_perfect"":4,""num_errors"":0,""num_randdir"":0,""num_randdir_good_moves"":0,""num_whilered"":0,""num_whileblue"":0,""num_blue"":0,""num_good_moves"":4}","[719,731.796875,0.1,719,731.796875,104.7,719,731.796875,206.4,719,731.796875,306.6,719,731.796875,406.7,717,721.796875,511.3,701,713.796875,611.5,231,1317.796875,716.1,201,1375.796875,817,179,1381.796875,921.8,167,1377.796875,1026.5,165,1375.796875,1126.9,165,1375.796875,1231.8,343,1245.796875,1333.3,1697,799.796875,1436.6,1983,729.796875,1537,1961,735.796875,1641,1959,737.796875,1743,1959,737.796875,1843,1959,737.796875,1946.6,1959,737.796875,2047.8,1959,737.796875,2150.8,1959,737.796875,2252.1,1959,737.796875,2356.8,1959,737.796875,2461.8,1959,737.796875,2566.3,1959,737.796875,2666.3,1959,737.796875,2766.8,1959,737.796875,2874.8,1959,737.796875,2976.7,1959,737.796875,3081.2,1959,737.796875,3181.5,1959,737.796875,3282.8,1959,737.796875,3387.1,1959,737.796875,3490.3,1959,737.796875,3591.2,1959,737.796875,3697.1,1959,737.796875,3800.8,1959,737.796875,3900.9,1959,737.796875,4006.4,1959,737.796875,4106.4,1959,737.796875,4206.4,1959,737.796875,4306.6,1959,737.796875,4411.6,1959,737.796875,4517.1,1959,737.796875,4620.9,1959,737.796875,4721.1,1959,737.796875,4826.1,1959,737.796875,4931.4]","[1460.3,1460.2,1000,0.1,460.2,""smooth"",""left"",""left"",""good_move"",4180.8,2720.3,2312.9,1460.6,407.3,""smooth"",""left"",""left"",""good_move"",6302,2120.9,1759.3,4181.1,361.6,""smooth"",""down"",""down"",""good_move"",9728.5,3426.2,3026.7,6302.3,399.5,""smooth"",""down"",""down"",""good_move""]"
"2847","","<div style=""width:500px;"">
  <p>What determined the result of this run?</p>
  </div>","14","html-slider-response","14","130224","0.0-7.0-1.0","106","1","2025-07-31 07:27:58","36c45c0696341be0efffe67d72a12abb","188.146.149.109","Mozilla/5.0 (Macintosh; Intel Mac OS X 10_15_7) AppleWebKit/537.36 (KHTML, like Gecko) Chrome/138.0.0.0 Safari/537.36","Macintosh","Chrome","138.0.0.0","OS X","10_15_7","https://app.prolific.com/","pl-PL,pl;q=0.9,en-GB;q=0.8,en;q=0.7,en-US;q=0.6","66a16e0b41e98cb469f12b0b","683dba9a53627eb9ab41b36a","688b1af35b9aa47adbf86d1b","0","66a16e0b41e98cb469f12b0b","0","2025-07-31T07:30:11.133Z","","","","AttribQ","","","","","","","","","","","50","","","","","","","","","","","","","","","","","","","","","","","","","","",""
"1557","","<div style=""width:500px;"">
  <p>How much control did you have over the ball?</p>
  </div>","22","html-slider-response","15","131783","0.0-7.0-2.0","106","1","2025-07-31 07:27:58","36c45c0696341be0efffe67d72a12abb","188.146.149.109","Mozilla/5.0 (Macintosh; Intel Mac OS X 10_15_7) AppleWebKit/537.36 (KHTML, like Gecko) Chrome/138.0.0.0 Safari/537.36","Macintosh","Chrome","138.0.0.0","OS X","10_15_7","https://app.prolific.com/","pl-PL,pl;q=0.9,en-GB;q=0.8,en;q=0.7,en-US;q=0.6","66a16e0b41e98cb469f12b0b","683dba9a53627eb9ab41b36a","688b1af35b9aa47adbf86d1b","0","66a16e0b41e98cb469f12b0b","0","2025-07-31T07:30:12.692Z","","","","ControlQ","","","","","","","","","","","50","","","","","","","","","","","","","","","","","","","","","","","","","","",""
"4072","","<div style=""width:500px;"">
  <p>How would you describe your current emotional state?</p>
  </div>","73","html-slider-response","16","135856","0.0-7.0-3.0","106","1","2025-07-31 07:27:58","36c45c0696341be0efffe67d72a12abb","188.146.149.109","Mozilla/5.0 (Macintosh; Intel Mac OS X 10_15_7) AppleWebKit/537.36 (KHTML, like Gecko) Chrome/138.0.0.0 Safari/537.36","Macintosh","Chrome","138.0.0.0","OS X","10_15_7","https://app.prolific.com/","pl-PL,pl;q=0.9,en-GB;q=0.8,en;q=0.7,en-US;q=0.6","66a16e0b41e98cb469f12b0b","683dba9a53627eb9ab41b36a","688b1af35b9aa47adbf86d1b","0","66a16e0b41e98cb469f12b0b","0","2025-07-31T07:30:16.766Z","","","","StressQ","","","","","","","","","","","50","","","","","","","","","","","","","","","","","","","","","","","","","","",""
"2116","","<div style=""width:500px;"">
  <p>What best describes how you currently feel?</p>
  </div>","18","html-slider-response","17","137974","0.0-7.0-4.0","106","1","2025-07-31 07:27:58","36c45c0696341be0efffe67d72a12abb","188.146.149.109","Mozilla/5.0 (Macintosh; Intel Mac OS X 10_15_7) AppleWebKit/537.36 (KHTML, like Gecko) Chrome/138.0.0.0 Safari/537.36","Macintosh","Chrome","138.0.0.0","OS X","10_15_7","https://app.prolific.com/","pl-PL,pl;q=0.9,en-GB;q=0.8,en;q=0.7,en-US;q=0.6","66a16e0b41e98cb469f12b0b","683dba9a53627eb9ab41b36a","688b1af35b9aa47adbf86d1b","0","66a16e0b41e98cb469f12b0b","0","2025-07-31T07:30:18.883Z","","","","MotivationQ","","","","","","","","","","","50","","","","","","","","","","","","","","","","","","","","","","","","","","",""
"","","","","ctl-task-cpt","18","168888","0.0-7.0-0.1","106","1","2025-07-31 07:27:58","36c45c0696341be0efffe67d72a12abb","188.146.149.109","Mozilla/5.0 (Macintosh; Intel Mac OS X 10_15_7) AppleWebKit/537.36 (KHTML, like Gecko) Chrome/138.0.0.0 Safari/537.36","Macintosh","Chrome","138.0.0.0","OS X","10_15_7","https://app.prolific.com/","pl-PL,pl;q=0.9,en-GB;q=0.8,en;q=0.7,en-US;q=0.6","66a16e0b41e98cb469f12b0b","683dba9a53627eb9ab41b36a","688b1af35b9aa47adbf86d1b","0","66a16e0b41e98cb469f12b0b","0","2025-07-31T07:30:49.797Z","","","","","","","","","","","","","","","","win-only","1","g1:NE,g2:SW","0.9","2","0","143606.3","886.1","5890.9","27905.3","1","4","4","6","2","4","4","5","1","0.03787878787878788","1075.6","3000","1035","[""down"",""left""]","{""num_key_presses"":6,""num_perfect"":6,""num_errors"":0,""num_randdir"":0,""num_randdir_good_moves"":0,""num_whilered"":0,""num_whileblue"":0,""num_blue"":2,""num_good_moves"":6}","[733,725.796875,0.2,733,725.796875,104.3,733,725.796875,205.7,733,725.796875,306,733,725.796875,409.6,713,737.796875,514.7,419,1165.796875,615,415,1199.796875,715.1,415,1199.796875,819.8,153,1411.796875,920.3,85,1421.796875,1024.8,79,1421.796875,1129.6,79,1421.796875,1234.9,49,1387.796875,1339.2,-17,1351.796875,1440.1,-47,1337.796875,1545.1,-47,1337.796875,1645.4,-175,1253.796875,1745.4,-421,1021.796875,1849.5,-433,989.796875,1950.2,-433,989.796875,2055.1,-433,989.796875,2159.2,-433,989.796875,2260.2,-433,989.796875,2366.9,-433,989.796875,2469.1,-433,989.796875,2569.9,-433,989.796875,2674,-433,989.796875,2775.1,-433,989.796875,2879.2,-433,989.796875,2979.9,-433,989.796875,3084.3,-433,989.796875,3184.7,-433,989.796875,3284.9,-433,989.796875,3389.3,-433,989.796875,3490.4,-433,989.796875,3591,-433,989.796875,3695.1,-433,989.796875,3799.1,-433,989.796875,3899.1,-433,989.796875,4004.3,-433,989.796875,4104.4,-433,989.796875,4205.2,-433,989.796875,4309.9,-433,989.796875,4414.4,-433,989.796875,4514.9,-433,989.796875,4616.2,-433,989.796875,4719.1,-433,989.796875,4819.1,-433,989.796875,4919.7]","[1313.8,1313.8,1000,0.1,313.7,""smooth"",""left"",""left"",""good_move"",4220.4,2906.3,2592.4,1314.2,313.8,""smooth"",""left"",""left"",""good_move"",7099.8,2879,2556.4,4220.9,322.5,""smooth"",""left"",""left"",""good_move"",13755.7,6655.7,2840.4,10584.7,330.6,""smooth"",""down"",""down"",""good_move"",19371.1,5614.8,2615.7,16389.9,365.5,""smooth"",""down"",""down"",""good_move"",21927.2,2555.6,2199.2,19371.6,356.4,""smooth"",""down"",""down"",""good_move""]"
"4091","","<div style=""width:500px;"">
  <p>What determined the result of this run?</p>
  </div>","10","html-slider-response","19","172980","0.0-7.0-1.1","106","1","2025-07-31 07:27:58","36c45c0696341be0efffe67d72a12abb","188.146.149.109","Mozilla/5.0 (Macintosh; Intel Mac OS X 10_15_7) AppleWebKit/537.36 (KHTML, like Gecko) Chrome/138.0.0.0 Safari/537.36","Macintosh","Chrome","138.0.0.0","OS X","10_15_7","https://app.prolific.com/","pl-PL,pl;q=0.9,en-GB;q=0.8,en;q=0.7,en-US;q=0.6","66a16e0b41e98cb469f12b0b","683dba9a53627eb9ab41b36a","688b1af35b9aa47adbf86d1b","0","66a16e0b41e98cb469f12b0b","0","2025-07-31T07:30:53.889Z","","","","AttribQ","","","","","","","","","","","50","","","","","","","","","","","","","","","","","","","","","","","","","","",""
"2798","","<div style=""width:500px;"">
  <p>How much control did you have over the ball?</p>
  </div>","10","html-slider-response","20","175780","0.0-7.0-2.1","106","1","2025-07-31 07:27:58","36c45c0696341be0efffe67d72a12abb","188.146.149.109","Mozilla/5.0 (Macintosh; Intel Mac OS X 10_15_7) AppleWebKit/537.36 (KHTML, like Gecko) Chrome/138.0.0.0 Safari/537.36","Macintosh","Chrome","138.0.0.0","OS X","10_15_7","https://app.prolific.com/","pl-PL,pl;q=0.9,en-GB;q=0.8,en;q=0.7,en-US;q=0.6","66a16e0b41e98cb469f12b0b","683dba9a53627eb9ab41b36a","688b1af35b9aa47adbf86d1b","0","66a16e0b41e98cb469f12b0b","0","2025-07-31T07:30:56.689Z","","","","ControlQ","","","","","","","","","","","50","","","","","","","","","","","","","","","","","","","","","","","","","","",""
"2439","","<div style=""width:500px;"">
  <p>How would you describe your current emotional state?</p>
  </div>","75","html-slider-response","21","178220","0.0-7.0-3.1","106","1","2025-07-31 07:27:58","36c45c0696341be0efffe67d72a12abb","188.146.149.109","Mozilla/5.0 (Macintosh; Intel Mac OS X 10_15_7) AppleWebKit/537.36 (KHTML, like Gecko) Chrome/138.0.0.0 Safari/537.36","Macintosh","Chrome","138.0.0.0","OS X","10_15_7","https://app.prolific.com/","pl-PL,pl;q=0.9,en-GB;q=0.8,en;q=0.7,en-US;q=0.6","66a16e0b41e98cb469f12b0b","683dba9a53627eb9ab41b36a","688b1af35b9aa47adbf86d1b","0","66a16e0b41e98cb469f12b0b","0","2025-07-31T07:30:59.129Z","","","","StressQ","","","","","","","","","","","50","","","","","","","","","","","","","","","","","","","","","","","","","","",""
"1855","","<div style=""width:500px;"">
  <p>What best describes how you currently feel?</p>
  </div>","15","html-slider-response","22","180076","0.0-7.0-4.1","106","1","2025-07-31 07:27:58","36c45c0696341be0efffe67d72a12abb","188.146.149.109","Mozilla/5.0 (Macintosh; Intel Mac OS X 10_15_7) AppleWebKit/537.36 (KHTML, like Gecko) Chrome/138.0.0.0 Safari/537.36","Macintosh","Chrome","138.0.0.0","OS X","10_15_7","https://app.prolific.com/","pl-PL,pl;q=0.9,en-GB;q=0.8,en;q=0.7,en-US;q=0.6","66a16e0b41e98cb469f12b0b","683dba9a53627eb9ab41b36a","688b1af35b9aa47adbf86d1b","0","66a16e0b41e98cb469f12b0b","0","2025-07-31T07:31:00.985Z","","","","MotivationQ","","","","","","","","","","","50","","","","","","","","","","","","","","","","","","","","","","","","","","",""
"","","","","ctl-task-cpt","23","220176","0.0-7.0-0.2","106","1","2025-07-31 07:27:58","36c45c0696341be0efffe67d72a12abb","188.146.149.109","Mozilla/5.0 (Macintosh; Intel Mac OS X 10_15_7) AppleWebKit/537.36 (KHTML, like Gecko) Chrome/138.0.0.0 Safari/537.36","Macintosh","Chrome","138.0.0.0","OS X","10_15_7","https://app.prolific.com/","pl-PL,pl;q=0.9,en-GB;q=0.8,en;q=0.7,en-US;q=0.6","66a16e0b41e98cb469f12b0b","683dba9a53627eb9ab41b36a","688b1af35b9aa47adbf86d1b","0","66a16e0b41e98cb469f12b0b","0","2025-07-31T07:31:41.085Z","","","","","","","","","","","","","","","","win-only","3","g1:SW,g2:NE","0.8","3","0","185710","1024.6","6027.3","37090.5","1","4","4","6","2","4","4","9","5","0.06818181818181818","1083.5","3000","215","[""up"",""right""]","{""num_key_presses"":8,""num_perfect"":7,""num_errors"":0,""num_randdir"":1,""num_randdir_good_moves"":0,""num_whilered"":0,""num_whileblue"":0,""num_blue"":3,""num_good_moves"":7}","[739,713.796875,0.2,739,713.796875,101,739,713.796875,201.1,739,713.796875,301.4,727,685.796875,401.5,645,669.796875,501.6,1375,33.796875,601.8,1585,-68.203125,701.8,1585,-68.203125,806.7,1425,63.796875,906.9,1313,167.796875,1007.2,1311,167.796875,1112.1,1311,167.796875,1216.9,1311,167.796875,1321.2,1311,167.796875,1421.3,1635,201.796875,1521.5,1767,285.796875,1621.6,1747,307.796875,1721.6,1747,307.796875,1826.1,1747,307.796875,1926.4,1747,307.796875,2026.4,1747,307.796875,2131.5,1747,307.796875,2231.8,1747,307.796875,2336.5,1747,307.796875,2440.7,1747,307.796875,2540.7,1747,307.796875,2641.7,1747,307.796875,2746.6,1747,307.796875,2851.3,1747,307.796875,2951.4,1747,307.796875,3051.6,1747,307.796875,3151.9,1747,307.796875,3258.3,1747,307.796875,3361.3,1747,307.796875,3461.9,1747,307.796875,3562.4,1747,307.796875,3666.6,1747,307.796875,3771.1,1747,307.796875,3871.4,1747,307.796875,3976.8,1747,307.796875,4081.7,1747,307.796875,4187.2,1747,307.796875,4290.8,1747,307.796875,4391.5,1747,307.796875,4491.8,1747,307.796875,4597.1,1747,307.796875,4698.9,1747,307.796875,4800.2,1747,307.796875,4901.2]","[4493.6,4493.6,2185.4,2008.4,299.8,""smooth"",""up"",""up"",""good_move"",6926.8,2432.8,2099.9,4494.1,332.8,""smooth"",""up"",""up"",""good_move"",13876.5,6949.5,3202.1,10309.1,365.3,""oops"",""up"",""left"",""bad_move"",16907.6,3030.5,2682,13877.1,348.5,""smooth"",""up"",""up"",""good_move"",19181.4,2273.4,1937.8,16908,335.6,""smooth"",""right"",""right"",""good_move"",21876.4,2694.5,2065,19181.9,629.5,""smooth"",""right"",""right"",""good_move"",24874.9,2998.2,2728.7,21876.7,269.5,""smooth"",""right"",""right"",""good_move"",30974.5,6099.4,2420.5,28264.7,289.3,""smooth"",""right"",""right"",""good_move""]"
"29284","","<div style=""width:500px;"">
  <p>What determined the result of this run?</p>
  </div>","10","html-slider-response","24","249461","0.0-7.0-1.2","106","1","2025-07-31 07:27:58","36c45c0696341be0efffe67d72a12abb","188.146.149.109","Mozilla/5.0 (Macintosh; Intel Mac OS X 10_15_7) AppleWebKit/537.36 (KHTML, like Gecko) Chrome/138.0.0.0 Safari/537.36","Macintosh","Chrome","138.0.0.0","OS X","10_15_7","https://app.prolific.com/","pl-PL,pl;q=0.9,en-GB;q=0.8,en;q=0.7,en-US;q=0.6","66a16e0b41e98cb469f12b0b","683dba9a53627eb9ab41b36a","688b1af35b9aa47adbf86d1b","0","66a16e0b41e98cb469f12b0b","0","2025-07-31T07:32:10.370Z","","","","AttribQ","","","","","","","","","","","50","","","","","","","","","","","","","","","","","","","","","","","","","","",""
"1498","","<div style=""width:500px;"">
  <p>How much control did you have over the ball?</p>
  </div>","18","html-slider-response","25","250960","0.0-7.0-2.2","106","1","2025-07-31 07:27:58","36c45c0696341be0efffe67d72a12abb","188.146.149.109","Mozilla/5.0 (Macintosh; Intel Mac OS X 10_15_7) AppleWebKit/537.36 (KHTML, like Gecko) Chrome/138.0.0.0 Safari/537.36","Macintosh","Chrome","138.0.0.0","OS X","10_15_7","https://app.prolific.com/","pl-PL,pl;q=0.9,en-GB;q=0.8,en;q=0.7,en-US;q=0.6","66a16e0b41e98cb469f12b0b","683dba9a53627eb9ab41b36a","688b1af35b9aa47adbf86d1b","0","66a16e0b41e98cb469f12b0b","0","2025-07-31T07:32:11.869Z","","","","ControlQ","","","","","","","","","","","50","","","","","","","","","","","","","","","","","","","","","","","","","","",""
"2308","","<div style=""width:500px;"">
  <p>How would you describe your current emotional state?</p>
  </div>","81","html-slider-response","26","253270","0.0-7.0-3.2","106","1","2025-07-31 07:27:58","36c45c0696341be0efffe67d72a12abb","188.146.149.109","Mozilla/5.0 (Macintosh; Intel Mac OS X 10_15_7) AppleWebKit/537.36 (KHTML, like Gecko) Chrome/138.0.0.0 Safari/537.36","Macintosh","Chrome","138.0.0.0","OS X","10_15_7","https://app.prolific.com/","pl-PL,pl;q=0.9,en-GB;q=0.8,en;q=0.7,en-US;q=0.6","66a16e0b41e98cb469f12b0b","683dba9a53627eb9ab41b36a","688b1af35b9aa47adbf86d1b","0","66a16e0b41e98cb469f12b0b","0","2025-07-31T07:32:14.179Z","","","","StressQ","","","","","","","","","","","50","","","","","","","","","","","","","","","","","","","","","","","","","","",""
"2081","","<div style=""width:500px;"">
  <p>What best describes how you currently feel?</p>
  </div>","21","html-slider-response","27","255352","0.0-7.0-4.2","106","1","2025-07-31 07:27:58","36c45c0696341be0efffe67d72a12abb","188.146.149.109","Mozilla/5.0 (Macintosh; Intel Mac OS X 10_15_7) AppleWebKit/537.36 (KHTML, like Gecko) Chrome/138.0.0.0 Safari/537.36","Macintosh","Chrome","138.0.0.0","OS X","10_15_7","https://app.prolific.com/","pl-PL,pl;q=0.9,en-GB;q=0.8,en;q=0.7,en-US;q=0.6","66a16e0b41e98cb469f12b0b","683dba9a53627eb9ab41b36a","688b1af35b9aa47adbf86d1b","0","66a16e0b41e98cb469f12b0b","0","2025-07-31T07:32:16.261Z","","","","MotivationQ","","","","","","","","","","","50","","","","","","","","","","","","","","","","","","","","","","","","","","",""
"","","","","ctl-task-cpt","28","281369","0.0-7.0-0.3","106","1","2025-07-31 07:27:58","36c45c0696341be0efffe67d72a12abb","188.146.149.109","Mozilla/5.0 (Macintosh; Intel Mac OS X 10_15_7) AppleWebKit/537.36 (KHTML, like Gecko) Chrome/138.0.0.0 Safari/537.36","Macintosh","Chrome","138.0.0.0","OS X","10_15_7","https://app.prolific.com/","pl-PL,pl;q=0.9,en-GB;q=0.8,en;q=0.7,en-US;q=0.6","66a16e0b41e98cb469f12b0b","683dba9a53627eb9ab41b36a","688b1af35b9aa47adbf86d1b","0","66a16e0b41e98cb469f12b0b","0","2025-07-31T07:32:42.278Z","","","","","","","","","","","","","","","","win-only","0","g1:NW,g2:SE","0.7","4","0","260987.7","729.9","5731.5","23005.7","1","4","8","6","2","-8","-8","1","9","0.007575757575757576","1117.3","3000","-3005","[""down"",""right""]","{""num_key_presses"":5,""num_perfect"":4,""num_errors"":0,""num_randdir"":1,""num_randdir_good_moves"":1,""num_whilered"":0,""num_whileblue"":0,""num_blue"":0,""num_good_moves"":5}","[735,735.796875,0.1,735,735.796875,101.1,735,735.796875,201.4,735,735.796875,306.4,735,735.796875,411.3,735,735.796875,515.3,1023,945.796875,621.3,1515,1433.796875,726.2,1515,1433.796875,826.5,1505,1421.796875,927.4,1419,1373.796875,1031.1,1401,1359.796875,1136.6,1401,1359.796875,1241.1,1401,1359.796875,1341.4,1401,1337.796875,1445.9,1459,995.796875,1546,1459,995.796875,1646.5,1459,995.796875,1751.4,1459,995.796875,1851.5,1459,995.796875,1955.9,1459,995.796875,2057,1459,995.796875,2160.4,1459,995.796875,2261,1459,995.796875,2365.4,1459,995.796875,2465.6,1459,995.796875,2565.7,1459,995.796875,2666.4,1459,995.796875,2770.7,1459,995.796875,2875.6,1459,995.796875,2976.3,1459,995.796875,3081.5,1459,995.796875,3185.9,1459,995.796875,3286.1,1459,995.796875,3390.4,1459,995.796875,3496.8,1459,995.796875,3600.4,1459,995.796875,3701.2,1459,995.796875,3805.8,1459,995.796875,3906,1459,995.796875,4011.4,1459,995.796875,4115.3,1459,995.796875,4215.3,1459,995.796875,4316,1459,995.796875,4420.8,1459,995.796875,4521.3,1459,995.796875,4625.4,1459,995.796875,4725.5,1459,995.796875,4831.3,1459,995.796875,4936]","[1434,1434,1000,0,434,""smooth"",""down"",""down"",""good_move"",4127.5,2693,2317.5,1434.6,375.5,""smooth"",""down"",""down"",""good_move"",8559.5,4431.7,3137.4,4127.8,1294.3,""smooth"",""down"",""down"",""good_move"",11413.3,2853.6,2527.6,8559.7,326,""smooth"",""right"",""right"",""good_move"",14508.6,3094.8,2786,11413.8,308.8,""oops"",""right"",""right"",""good_move""]"
"1794","","<div style=""width:500px;"">
  <p>What determined the result of this run?</p>
  </div>","12","html-slider-response","29","283164","0.0-7.0-1.3","106","1","2025-07-31 07:27:58","36c45c0696341be0efffe67d72a12abb","188.146.149.109","Mozilla/5.0 (Macintosh; Intel Mac OS X 10_15_7) AppleWebKit/537.36 (KHTML, like Gecko) Chrome/138.0.0.0 Safari/537.36","Macintosh","Chrome","138.0.0.0","OS X","10_15_7","https://app.prolific.com/","pl-PL,pl;q=0.9,en-GB;q=0.8,en;q=0.7,en-US;q=0.6","66a16e0b41e98cb469f12b0b","683dba9a53627eb9ab41b36a","688b1af35b9aa47adbf86d1b","0","66a16e0b41e98cb469f12b0b","0","2025-07-31T07:32:44.073Z","","","","AttribQ","","","","","","","","","","","50","","","","","","","","","","","","","","","","","","","","","","","","","","",""
"2115","","<div style=""width:500px;"">
  <p>How much control did you have over the ball?</p>
  </div>","21","html-slider-response","30","285280","0.0-7.0-2.3","106","1","2025-07-31 07:27:58","36c45c0696341be0efffe67d72a12abb","188.146.149.109","Mozilla/5.0 (Macintosh; Intel Mac OS X 10_15_7) AppleWebKit/537.36 (KHTML, like Gecko) Chrome/138.0.0.0 Safari/537.36","Macintosh","Chrome","138.0.0.0","OS X","10_15_7","https://app.prolific.com/","pl-PL,pl;q=0.9,en-GB;q=0.8,en;q=0.7,en-US;q=0.6","66a16e0b41e98cb469f12b0b","683dba9a53627eb9ab41b36a","688b1af35b9aa47adbf86d1b","0","66a16e0b41e98cb469f12b0b","0","2025-07-31T07:32:46.189Z","","","","ControlQ","","","","","","","","","","","50","","","","","","","","","","","","","","","","","","","","","","","","","","",""
"1616","","<div style=""width:500px;"">
  <p>How would you describe your current emotional state?</p>
  </div>","83","html-slider-response","31","286898","0.0-7.0-3.3","106","1","2025-07-31 07:27:58","36c45c0696341be0efffe67d72a12abb","188.146.149.109","Mozilla/5.0 (Macintosh; Intel Mac OS X 10_15_7) AppleWebKit/537.36 (KHTML, like Gecko) Chrome/138.0.0.0 Safari/537.36","Macintosh","Chrome","138.0.0.0","OS X","10_15_7","https://app.prolific.com/","pl-PL,pl;q=0.9,en-GB;q=0.8,en;q=0.7,en-US;q=0.6","66a16e0b41e98cb469f12b0b","683dba9a53627eb9ab41b36a","688b1af35b9aa47adbf86d1b","0","66a16e0b41e98cb469f12b0b","0","2025-07-31T07:32:47.807Z","","","","StressQ","","","","","","","","","","","50","","","","","","","","","","","","","","","","","","","","","","","","","","",""
"2162","","<div style=""width:500px;"">
  <p>What best describes how you currently feel?</p>
  </div>","25","html-slider-response","32","289061","0.0-7.0-4.3","106","1","2025-07-31 07:27:58","36c45c0696341be0efffe67d72a12abb","188.146.149.109","Mozilla/5.0 (Macintosh; Intel Mac OS X 10_15_7) AppleWebKit/537.36 (KHTML, like Gecko) Chrome/138.0.0.0 Safari/537.36","Macintosh","Chrome","138.0.0.0","OS X","10_15_7","https://app.prolific.com/","pl-PL,pl;q=0.9,en-GB;q=0.8,en;q=0.7,en-US;q=0.6","66a16e0b41e98cb469f12b0b","683dba9a53627eb9ab41b36a","688b1af35b9aa47adbf86d1b","0","66a16e0b41e98cb469f12b0b","0","2025-07-31T07:32:49.970Z","","","","MotivationQ","","","","","","","","","","","50","","","","","","","","","","","","","","","","","","","","","","","","","","",""
"","","","","ctl-task-cpt","33","336596","0.0-7.0-0.4","106","1","2025-07-31 07:27:58","36c45c0696341be0efffe67d72a12abb","188.146.149.109","Mozilla/5.0 (Macintosh; Intel Mac OS X 10_15_7) AppleWebKit/537.36 (KHTML, like Gecko) Chrome/138.0.0.0 Safari/537.36","Macintosh","Chrome","138.0.0.0","OS X","10_15_7","https://app.prolific.com/","pl-PL,pl;q=0.9,en-GB;q=0.8,en;q=0.7,en-US;q=0.6","66a16e0b41e98cb469f12b0b","683dba9a53627eb9ab41b36a","688b1af35b9aa47adbf86d1b","0","66a16e0b41e98cb469f12b0b","0","2025-07-31T07:33:37.505Z","","","","","","","","","","","","","","","","win-only","0","g1:NW,g2:SE","0.6","5","0","294696.2","760.8","5761.3","44525.7","1","4","8","6","2","-8","-11","0","1","0","1193.9","3000","-3005","[""down"",""right""]","{""num_key_presses"":12,""num_perfect"":6,""num_errors"":3,""num_randdir"":3,""num_randdir_good_moves"":1,""num_whilered"":0,""num_whileblue"":1,""num_blue"":2,""num_good_moves"":7}","[719,717.796875,0.1,719,717.796875,105,719,717.796875,210.4,719,717.796875,315,793,705.796875,420.2,1605,1679.796875,520.5,1605,1679.796875,624.8,1605,1679.796875,725.4,1523,1573.796875,829.9,1491,1407.796875,930.1,1469,1403.796875,1035,1405,1369.796875,1139.9,1399,1365.796875,1239.9,1399,1363.796875,1344.4,1399,1363.796875,1444.6,1423,1329.796875,1545,1691,1125.796875,1650.1,1739,1087.796875,1755.3,1739,1087.796875,1855.3,1739,1087.796875,1959.5,1739,1087.796875,2059.9,1739,1087.796875,2165.3,1739,1087.796875,2269.9,1739,1087.796875,2370.6,1739,1087.796875,2475.3,1739,1087.796875,2575.3,1739,1087.796875,2675.3,1739,1087.796875,2780.2,1739,1087.796875,2880.2,1739,1087.796875,2980.3,1739,1087.796875,3080.3,1739,1087.796875,3180.5,1739,1087.796875,3284.5,1739,1087.796875,3390.5,1739,1087.796875,3494.6,1739,1087.796875,3594.8,1739,1087.796875,3700.4,1739,1087.796875,3804.5,1739,1087.796875,3904.8,1739,1087.796875,4005.3,1739,1087.796875,4105.3,1739,1087.796875,4209.7,1739,1087.796875,4315.3,1739,1087.796875,4415.3,1739,1087.796875,4520.1,1739,1087.796875,4620.5,1739,1087.796875,4724.7,1739,1087.796875,4826.9,1739,1087.796875,4929.6]","[4571.8,4571.8,2138.4,2009.2,424.2,""smooth"",""down"",""down"",""good_move"",7786.4,3214.2,2894,4572.3,320.1,""oops"",""down"",""down"",""good_move"",11428.5,3641.8,3344.6,7786.7,297.2,""smooth"",""down"",""down"",""good_move"",14469,3040.4,2735.9,11428.6,304.5,""oops"",""right"",""left"",""bad_move"",17357.6,2888.2,2597,14469.4,291.2,""smooth"",""right"",""right"",""good_move"",20504.4,3146.4,2855,17358,291.4,""oops"",""right"",""up"",""bad_move"",23477.6,2973.1,2669.1,20504.5,304,""smooth"",""right"",""right"",""good_move"",26011.2,2533.5,2192.6,23477.7,340.9,""smooth"",""right"",""right"",""good_move"",29256.7,3245.3,2868.6,26011.4,376.7,""while_blue"",""right"",""left"",""bad_move"",32162.1,2905,2690.6,29257.1,214.4,""smooth"",""down"",""down"",""good_move"",34643.7,2481.1,2509.5,32162.6,-28.4,""error"",""-"",""-"",""no_move"",36027.9,1383.9,2037.1,35644.4,-1653.6,""error"",""-"",""-"",""no_move""]"
"171699","","<div style=""width:500px;"">
  <p>What determined the result of this run?</p>
  </div>","14","html-slider-response","34","508293","0.0-7.0-1.4","106","1","2025-07-31 07:27:58","36c45c0696341be0efffe67d72a12abb","188.146.149.109","Mozilla/5.0 (Macintosh; Intel Mac OS X 10_15_7) AppleWebKit/537.36 (KHTML, like Gecko) Chrome/138.0.0.0 Safari/537.36","Macintosh","Chrome","138.0.0.0","OS X","10_15_7","https://app.prolific.com/","pl-PL,pl;q=0.9,en-GB;q=0.8,en;q=0.7,en-US;q=0.6","66a16e0b41e98cb469f12b0b","683dba9a53627eb9ab41b36a","688b1af35b9aa47adbf86d1b","0","66a16e0b41e98cb469f12b0b","0","2025-07-31T07:36:29.202Z","","","","AttribQ","","","","","","","","","","","50","","","","","","","","","","","","","","","","","","","","","","","","","","",""
"3295","","<div style=""width:500px;"">
  <p>How much control did you have over the ball?</p>
  </div>","18","html-slider-response","35","511588","0.0-7.0-2.4","106","1","2025-07-31 07:27:58","36c45c0696341be0efffe67d72a12abb","188.146.149.109","Mozilla/5.0 (Macintosh; Intel Mac OS X 10_15_7) AppleWebKit/537.36 (KHTML, like Gecko) Chrome/138.0.0.0 Safari/537.36","Macintosh","Chrome","138.0.0.0","OS X","10_15_7","https://app.prolific.com/","pl-PL,pl;q=0.9,en-GB;q=0.8,en;q=0.7,en-US;q=0.6","66a16e0b41e98cb469f12b0b","683dba9a53627eb9ab41b36a","688b1af35b9aa47adbf86d1b","0","66a16e0b41e98cb469f12b0b","0","2025-07-31T07:36:32.497Z","","","","ControlQ","","","","","","","","","","","50","","","","","","","","","","","","","","","","","","","","","","","","","","",""
"1840","","<div style=""width:500px;"">
  <p>How would you describe your current emotional state?</p>
  </div>","16","html-slider-response","36","513430","0.0-7.0-3.4","106","1","2025-07-31 07:27:58","36c45c0696341be0efffe67d72a12abb","188.146.149.109","Mozilla/5.0 (Macintosh; Intel Mac OS X 10_15_7) AppleWebKit/537.36 (KHTML, like Gecko) Chrome/138.0.0.0 Safari/537.36","Macintosh","Chrome","138.0.0.0","OS X","10_15_7","https://app.prolific.com/","pl-PL,pl;q=0.9,en-GB;q=0.8,en;q=0.7,en-US;q=0.6","66a16e0b41e98cb469f12b0b","683dba9a53627eb9ab41b36a","688b1af35b9aa47adbf86d1b","0","66a16e0b41e98cb469f12b0b","0","2025-07-31T07:36:34.339Z","","","","StressQ","","","","","","","","","","","50","","","","","","","","","","","","","","","","","","","","","","","","","","",""
"2503","","<div style=""width:500px;"">
  <p>What best describes how you currently feel?</p>
  </div>","20","html-slider-response","37","515934","0.0-7.0-4.4","106","1","2025-07-31 07:27:58","36c45c0696341be0efffe67d72a12abb","188.146.149.109","Mozilla/5.0 (Macintosh; Intel Mac OS X 10_15_7) AppleWebKit/537.36 (KHTML, like Gecko) Chrome/138.0.0.0 Safari/537.36","Macintosh","Chrome","138.0.0.0","OS X","10_15_7","https://app.prolific.com/","pl-PL,pl;q=0.9,en-GB;q=0.8,en;q=0.7,en-US;q=0.6","66a16e0b41e98cb469f12b0b","683dba9a53627eb9ab41b36a","688b1af35b9aa47adbf86d1b","0","66a16e0b41e98cb469f12b0b","0","2025-07-31T07:36:36.843Z","","","","MotivationQ","","","","","","","","","","","50","","","","","","","","","","","","","","","","","","","","","","","","","","",""
"","","","","ctl-task-cpt","38","554680","0.0-7.0-0.5","106","1","2025-07-31 07:27:58","36c45c0696341be0efffe67d72a12abb","188.146.149.109","Mozilla/5.0 (Macintosh; Intel Mac OS X 10_15_7) AppleWebKit/537.36 (KHTML, like Gecko) Chrome/138.0.0.0 Safari/537.36","Macintosh","Chrome","138.0.0.0","OS X","10_15_7","https://app.prolific.com/","pl-PL,pl;q=0.9,en-GB;q=0.8,en;q=0.7,en-US;q=0.6","66a16e0b41e98cb469f12b0b","683dba9a53627eb9ab41b36a","688b1af35b9aa47adbf86d1b","0","66a16e0b41e98cb469f12b0b","0","2025-07-31T07:37:15.589Z","","","","","","","","","","","","","","","","win-only","0","g1:NW,g2:SE","0.5","6","0","521573.9","1633.8","6635.7","35736","1","4","4","6","2","-4","-5","0","0","0","1125.9","3000","-3005","[""down"",""right""]","{""num_key_presses"":10,""num_perfect"":5,""num_errors"":1,""num_randdir"":4,""num_randdir_good_moves"":1,""num_whilered"":0,""num_whileblue"":1,""num_blue"":1,""num_good_moves"":6}","[733,729.796875,0.2,733,729.796875,100.7,733,729.796875,202,733,729.796875,307.3,733,729.796875,411.7,733,729.796875,511.7,877,843.796875,611.7,1211,1153.796875,711.9,1211,1153.796875,816.3,1231,1205.796875,916.9,1305,1315.796875,1022,1317,1329.796875,1127.6,1317,1329.796875,1231.9,1317,1329.796875,1337.5,1317,1323.796875,1442.4,1519,1063.796875,1546.4,1651,889.796875,1647.1,1651,889.796875,1751.6,1651,889.796875,1851.8,1651,889.796875,1952,1651,889.796875,2052.1,1651,889.796875,2156.5,1651,889.796875,2256.9,1651,889.796875,2357,1651,889.796875,2461.8,1651,889.796875,2561.9,1651,889.796875,2666.8,1651,889.796875,2772.1,1651,889.796875,2876.6,1651,889.796875,2981.3,1651,889.796875,3086.3,1651,889.796875,3187.1,1651,889.796875,3292.3,1651,889.796875,3396.7,1651,889.796875,3496.8,1651,889.796875,3601.4,1651,889.796875,3701.6,1651,889.796875,3802,1651,889.796875,3902.2,1651,889.796875,4006.5,1651,889.796875,4106.8,1651,889.796875,4206.9,1651,889.796875,4309.2,1651,889.796875,4412,1651,889.796875,4516.9,1651,889.796875,4622,1651,889.796875,4722.2,1651,889.796875,4822.2,1651,889.796875,4922.2]","[1335,1335,1000,0,335,""oops"",""down"",""left"",""bad_move"",3741.2,2405.8,2037,1335.4,368.8,""smooth"",""down"",""down"",""good_move"",5985.8,2244.2,1906.8,3741.6,337.4,""smooth"",""down"",""down"",""good_move"",8888.9,2902.8,2566,5986.1,336.8,""smooth"",""down"",""down"",""good_move"",12301.9,3412.6,3118.3,8889.3,294.3,""oops"",""right"",""left"",""bad_move"",15409.6,3107.3,2754.6,12302.3,352.7,""smooth"",""right"",""right"",""good_move"",17992.4,2582.6,2246,15409.8,336.6,""smooth"",""right"",""right"",""good_move"",20952,2959.4,2661.5,17992.6,297.9,""oops"",""right"",""right"",""good_move"",23868.6,2916.4,2605.8,20952.2,310.6,""oops"",""right"",""up"",""bad_move"",26394.5,2525.6,2170.9,23869,354.6,""while_blue"",""right"",""up"",""bad_move""]"
"1972","","<div style=""width:500px;"">
  <p>What determined the result of this run?</p>
  </div>","90","html-slider-response","39","556653","0.0-7.0-1.5","106","1","2025-07-31 07:27:58","36c45c0696341be0efffe67d72a12abb","188.146.149.109","Mozilla/5.0 (Macintosh; Intel Mac OS X 10_15_7) AppleWebKit/537.36 (KHTML, like Gecko) Chrome/138.0.0.0 Safari/537.36","Macintosh","Chrome","138.0.0.0","OS X","10_15_7","https://app.prolific.com/","pl-PL,pl;q=0.9,en-GB;q=0.8,en;q=0.7,en-US;q=0.6","66a16e0b41e98cb469f12b0b","683dba9a53627eb9ab41b36a","688b1af35b9aa47adbf86d1b","0","66a16e0b41e98cb469f12b0b","0","2025-07-31T07:37:17.562Z","","","","AttribQ","","","","","","","","","","","50","","","","","","","","","","","","","","","","","","","","","","","","","","",""
"3499","","<div style=""width:500px;"">
  <p>How much control did you have over the ball?</p>
  </div>","19","html-slider-response","40","560153","0.0-7.0-2.5","106","1","2025-07-31 07:27:58","36c45c0696341be0efffe67d72a12abb","188.146.149.109","Mozilla/5.0 (Macintosh; Intel Mac OS X 10_15_7) AppleWebKit/537.36 (KHTML, like Gecko) Chrome/138.0.0.0 Safari/537.36","Macintosh","Chrome","138.0.0.0","OS X","10_15_7","https://app.prolific.com/","pl-PL,pl;q=0.9,en-GB;q=0.8,en;q=0.7,en-US;q=0.6","66a16e0b41e98cb469f12b0b","683dba9a53627eb9ab41b36a","688b1af35b9aa47adbf86d1b","0","66a16e0b41e98cb469f12b0b","0","2025-07-31T07:37:21.062Z","","","","ControlQ","","","","","","","","","","","50","","","","","","","","","","","","","","","","","","","","","","","","","","",""
"3496","","<div style=""width:500px;"">
  <p>How would you describe your current emotional state?</p>
  </div>","93","html-slider-response","41","563649","0.0-7.0-3.5","106","1","2025-07-31 07:27:58","36c45c0696341be0efffe67d72a12abb","188.146.149.109","Mozilla/5.0 (Macintosh; Intel Mac OS X 10_15_7) AppleWebKit/537.36 (KHTML, like Gecko) Chrome/138.0.0.0 Safari/537.36","Macintosh","Chrome","138.0.0.0","OS X","10_15_7","https://app.prolific.com/","pl-PL,pl;q=0.9,en-GB;q=0.8,en;q=0.7,en-US;q=0.6","66a16e0b41e98cb469f12b0b","683dba9a53627eb9ab41b36a","688b1af35b9aa47adbf86d1b","0","66a16e0b41e98cb469f12b0b","0","2025-07-31T07:37:24.558Z","","","","StressQ","","","","","","","","","","","50","","","","","","","","","","","","","","","","","","","","","","","","","","",""
"2395","","<div style=""width:500px;"">
  <p>What best describes how you currently feel?</p>
  </div>","12","html-slider-response","42","566045","0.0-7.0-4.5","106","1","2025-07-31 07:27:58","36c45c0696341be0efffe67d72a12abb","188.146.149.109","Mozilla/5.0 (Macintosh; Intel Mac OS X 10_15_7) AppleWebKit/537.36 (KHTML, like Gecko) Chrome/138.0.0.0 Safari/537.36","Macintosh","Chrome","138.0.0.0","OS X","10_15_7","https://app.prolific.com/","pl-PL,pl;q=0.9,en-GB;q=0.8,en;q=0.7,en-US;q=0.6","66a16e0b41e98cb469f12b0b","683dba9a53627eb9ab41b36a","688b1af35b9aa47adbf86d1b","0","66a16e0b41e98cb469f12b0b","0","2025-07-31T07:37:26.954Z","","","","MotivationQ","","","","","","","","","","","50","","","","","","","","","","","","","","","","","","","","","","","","","","",""
"","","","","ctl-task-cpt","43","603875","0.0-7.0-0.6","106","1","2025-07-31 07:27:58","36c45c0696341be0efffe67d72a12abb","188.146.149.109","Mozilla/5.0 (Macintosh; Intel Mac OS X 10_15_7) AppleWebKit/537.36 (KHTML, like Gecko) Chrome/138.0.0.0 Safari/537.36","Macintosh","Chrome","138.0.0.0","OS X","10_15_7","https://app.prolific.com/","pl-PL,pl;q=0.9,en-GB;q=0.8,en;q=0.7,en-US;q=0.6","66a16e0b41e98cb469f12b0b","683dba9a53627eb9ab41b36a","688b1af35b9aa47adbf86d1b","0","66a16e0b41e98cb469f12b0b","0","2025-07-31T07:38:04.784Z","","","","","","","","","","","","","","","","win-only","1","g1:NE,g2:SW","0.4","7","0","571685.2","1082","6086","34820.8","1","4","4","6","2","-4","-4","0","0","0","1284.1","3000","-3000","[""down"",""left""]","{""num_key_presses"":8,""num_perfect"":3,""num_errors"":0,""num_randdir"":5,""num_randdir_good_moves"":2,""num_whilered"":0,""num_whileblue"":0,""num_blue"":1,""num_good_moves"":5}","[723,731.796875,0.1,723,731.796875,103.7,723,731.796875,208.4,723,731.796875,309,723,731.796875,413.5,719,827.796875,513.6,719,827.796875,618.8,719,827.796875,723.3,-37,1613.796875,823.4,-103,1679.796875,923.6,-79,1531.796875,1024.2,13,1447.796875,1129.2,55,1409.796875,1233.9,57,1409.796875,1334,57,1409.796875,1439.3,57,1409.796875,1543.5,57,1409.796875,1649,-291,1289.796875,1754.4,-465,1225.796875,1858.3,-465,1225.796875,1959.1,-465,1225.796875,2063.3,-465,1225.796875,2163.6,-465,1225.796875,2263.7,-465,1225.796875,2368.9,-465,1225.796875,2474.3,-465,1225.796875,2578.6,-465,1225.796875,2679.1,-465,1225.796875,2784.1,-465,1225.796875,2888.3,-465,1225.796875,2988.9,-465,1225.796875,3093.3,-465,1225.796875,3194,-465,1225.796875,3298.3,-465,1225.796875,3399.2,-465,1225.796875,3503.9,-465,1225.796875,3608.6,-465,1225.796875,3708.8,-465,1225.796875,3809.1,-465,1225.796875,3913.5,-465,1225.796875,4013.8,-465,1225.796875,4118.7,-465,1225.796875,4218.8,-465,1225.796875,4318.8,-465,1225.796875,4418.9,-465,1225.796875,4519.1,-465,1225.796875,4619.1,-465,1225.796875,4724.1,-465,1225.796875,4828.5,-465,1225.796875,4928.9]","[4971.8,4971.8,2570.3,2009.2,392.3,""oops"",""left"",""up"",""bad_move"",8137.2,3165.2,2815.4,4972.1,349.8,""smooth"",""left"",""left"",""good_move"",10580.7,2443.2,2072.9,8137.5,370.3,""smooth"",""left"",""left"",""good_move"",14087.1,3506.3,3175.1,10580.8,331.2,""oops"",""left"",""right"",""bad_move"",16914.1,2826.7,2464.8,14087.4,361.9,""smooth"",""down"",""down"",""good_move"",19976,3061.7,2730.8,16914.3,330.9,""oops"",""left"",""left"",""good_move"",23264.7,3288.7,2549.2,19976.1,739.5,""oops"",""down"",""down"",""good_move"",25957.3,2692.4,2555.6,23264.9,136.8,""oops"",""left"",""up"",""bad_move""]"
"118143","","<div style=""width:500px;"">
  <p>What determined the result of this run?</p>
  </div>","11","html-slider-response","44","722016","0.0-7.0-1.6","106","1","2025-07-31 07:27:58","36c45c0696341be0efffe67d72a12abb","188.146.149.109","Mozilla/5.0 (Macintosh; Intel Mac OS X 10_15_7) AppleWebKit/537.36 (KHTML, like Gecko) Chrome/138.0.0.0 Safari/537.36","Macintosh","Chrome","138.0.0.0","OS X","10_15_7","https://app.prolific.com/","pl-PL,pl;q=0.9,en-GB;q=0.8,en;q=0.7,en-US;q=0.6","66a16e0b41e98cb469f12b0b","683dba9a53627eb9ab41b36a","688b1af35b9aa47adbf86d1b","0","66a16e0b41e98cb469f12b0b","0","2025-07-31T07:40:02.925Z","","","","AttribQ","","","","","","","","","","","50","","","","","","","","","","","","","","","","","","","","","","","","","","",""
"1675","","<div style=""width:500px;"">
  <p>How much control did you have over the ball?</p>
  </div>","18","html-slider-response","45","723692","0.0-7.0-2.6","106","1","2025-07-31 07:27:58","36c45c0696341be0efffe67d72a12abb","188.146.149.109","Mozilla/5.0 (Macintosh; Intel Mac OS X 10_15_7) AppleWebKit/537.36 (KHTML, like Gecko) Chrome/138.0.0.0 Safari/537.36","Macintosh","Chrome","138.0.0.0","OS X","10_15_7","https://app.prolific.com/","pl-PL,pl;q=0.9,en-GB;q=0.8,en;q=0.7,en-US;q=0.6","66a16e0b41e98cb469f12b0b","683dba9a53627eb9ab41b36a","688b1af35b9aa47adbf86d1b","0","66a16e0b41e98cb469f12b0b","0","2025-07-31T07:40:04.601Z","","","","ControlQ","","","","","","","","","","","50","","","","","","","","","","","","","","","","","","","","","","","","","","",""
"4224","","<div style=""width:500px;"">
  <p>How would you describe your current emotional state?</p>
  </div>","83","html-slider-response","46","727916","0.0-7.0-3.6","106","1","2025-07-31 07:27:58","36c45c0696341be0efffe67d72a12abb","188.146.149.109","Mozilla/5.0 (Macintosh; Intel Mac OS X 10_15_7) AppleWebKit/537.36 (KHTML, like Gecko) Chrome/138.0.0.0 Safari/537.36","Macintosh","Chrome","138.0.0.0","OS X","10_15_7","https://app.prolific.com/","pl-PL,pl;q=0.9,en-GB;q=0.8,en;q=0.7,en-US;q=0.6","66a16e0b41e98cb469f12b0b","683dba9a53627eb9ab41b36a","688b1af35b9aa47adbf86d1b","0","66a16e0b41e98cb469f12b0b","0","2025-07-31T07:40:08.825Z","","","","StressQ","","","","","","","","","","","50","","","","","","","","","","","","","","","","","","","","","","","","","","",""
"3087","","<div style=""width:500px;"">
  <p>What best describes how you currently feel?</p>
  </div>","71","html-slider-response","47","731004","0.0-7.0-4.6","106","1","2025-07-31 07:27:58","36c45c0696341be0efffe67d72a12abb","188.146.149.109","Mozilla/5.0 (Macintosh; Intel Mac OS X 10_15_7) AppleWebKit/537.36 (KHTML, like Gecko) Chrome/138.0.0.0 Safari/537.36","Macintosh","Chrome","138.0.0.0","OS X","10_15_7","https://app.prolific.com/","pl-PL,pl;q=0.9,en-GB;q=0.8,en;q=0.7,en-US;q=0.6","66a16e0b41e98cb469f12b0b","683dba9a53627eb9ab41b36a","688b1af35b9aa47adbf86d1b","0","66a16e0b41e98cb469f12b0b","0","2025-07-31T07:40:11.913Z","","","","MotivationQ","","","","","","","","","","","50","","","","","","","","","","","","","","","","","","","","","","","","","","",""
"","","","","ctl-task-cpt","48","758428","0.0-7.0-0.7","106","1","2025-07-31 07:27:58","36c45c0696341be0efffe67d72a12abb","188.146.149.109","Mozilla/5.0 (Macintosh; Intel Mac OS X 10_15_7) AppleWebKit/537.36 (KHTML, like Gecko) Chrome/138.0.0.0 Safari/537.36","Macintosh","Chrome","138.0.0.0","OS X","10_15_7","https://app.prolific.com/","pl-PL,pl;q=0.9,en-GB;q=0.8,en;q=0.7,en-US;q=0.6","66a16e0b41e98cb469f12b0b","683dba9a53627eb9ab41b36a","688b1af35b9aa47adbf86d1b","0","66a16e0b41e98cb469f12b0b","0","2025-07-31T07:40:39.337Z","","","","","","","","","","","","","","","","win-only","3","g1:SW,g2:NE","0.3","8","0","736647.8","902.8","5906.2","24415.3","1","4","8","6","2","-8","-9","0","0","0","1066.6","3000","-3005","[""up"",""right""]","{""num_key_presses"":5,""num_perfect"":1,""num_errors"":1,""num_randdir"":3,""num_randdir_good_moves"":1,""num_whilered"":0,""num_whileblue"":0,""num_blue"":0,""num_good_moves"":2}","[733,729.796875,0.1,733,729.796875,102.6,733,729.796875,203.4,733,729.796875,307.6,733,729.796875,407.6,733,729.796875,508.5,829,641.796875,613.1,1271,205.796875,718,1271,205.796875,818.7,1271,205.796875,923.3,1309,169.796875,1023.4,1315,165.796875,1128.3,1317,165.796875,1232.6,1317,165.796875,1338.1,1317,165.796875,1443.1,1317,165.796875,1543.3,1317,165.796875,1643.3,1317,165.796875,1743.6,1317,93.796875,1843.7,1539,-168.203125,1948.1,1555,-200.203125,2048.5,1555,-200.203125,2148.6,1555,-200.203125,2248.6,1555,-200.203125,2352.8,1555,-200.203125,2452.8,1555,-200.203125,2553.6,1555,-200.203125,2657.5,1555,-200.203125,2757.6,1555,-200.203125,2857.6,1555,-200.203125,2963.4,1555,-200.203125,3067.6,1555,-200.203125,3168.6,1555,-200.203125,3273.4,1555,-200.203125,3378.1,1555,-200.203125,3478.3,1555,-200.203125,3582.4,1555,-200.203125,3682.5,1555,-200.203125,3783.3,1555,-200.203125,3887.9,1555,-200.203125,3988,1555,-200.203125,4088.5,1555,-200.203125,4193,1555,-200.203125,4293.1,1555,-200.203125,4393.6,1555,-200.203125,4498.2,1555,-200.203125,4598.3,1555,-200.203125,4702.6,1555,-200.203125,4803.4,1555,-200.203125,4903.4]","[1389.6,1389.6,1000,0,389.6,""smooth"",""up"",""up"",""good_move"",3988.1,2598.3,2226.7,1389.8,371.6,""oops"",""up"",""down"",""bad_move"",7193.7,3205.4,3236.9,3988.3,-31.5,""error"",""-"",""-"",""no_move"",11231.8,4037.9,2571.8,8194.5,465.5,""oops"",""up"",""down"",""bad_move"",15208.3,3976.3,2407,11232,1569.3,""oops"",""up"",""right"",""good_move""]"
"53220","","<div style=""width:500px;"">
  <p>What determined the result of this run?</p>
  </div>","12","html-slider-response","49","811648","0.0-7.0-1.7","106","1","2025-07-31 07:27:58","36c45c0696341be0efffe67d72a12abb","188.146.149.109","Mozilla/5.0 (Macintosh; Intel Mac OS X 10_15_7) AppleWebKit/537.36 (KHTML, like Gecko) Chrome/138.0.0.0 Safari/537.36","Macintosh","Chrome","138.0.0.0","OS X","10_15_7","https://app.prolific.com/","pl-PL,pl;q=0.9,en-GB;q=0.8,en;q=0.7,en-US;q=0.6","66a16e0b41e98cb469f12b0b","683dba9a53627eb9ab41b36a","688b1af35b9aa47adbf86d1b","0","66a16e0b41e98cb469f12b0b","0","2025-07-31T07:41:32.557Z","","","","AttribQ","","","","","","","","","","","50","","","","","","","","","","","","","","","","","","","","","","","","","","",""
"11154","","<div style=""width:500px;"">
  <p>How much control did you have over the ball?</p>
  </div>","18","html-slider-response","50","822802","0.0-7.0-2.7","106","1","2025-07-31 07:27:58","36c45c0696341be0efffe67d72a12abb","188.146.149.109","Mozilla/5.0 (Macintosh; Intel Mac OS X 10_15_7) AppleWebKit/537.36 (KHTML, like Gecko) Chrome/138.0.0.0 Safari/537.36","Macintosh","Chrome","138.0.0.0","OS X","10_15_7","https://app.prolific.com/","pl-PL,pl;q=0.9,en-GB;q=0.8,en;q=0.7,en-US;q=0.6","66a16e0b41e98cb469f12b0b","683dba9a53627eb9ab41b36a","688b1af35b9aa47adbf86d1b","0","66a16e0b41e98cb469f12b0b","0","2025-07-31T07:41:43.711Z","","","","ControlQ","","","","","","","","","","","50","","","","","","","","","","","","","","","","","","","","","","","","","","",""
"2099","","<div style=""width:500px;"">
  <p>How would you describe your current emotional state?</p>
  </div>","21","html-slider-response","51","824902","0.0-7.0-3.7","106","1","2025-07-31 07:27:58","36c45c0696341be0efffe67d72a12abb","188.146.149.109","Mozilla/5.0 (Macintosh; Intel Mac OS X 10_15_7) AppleWebKit/537.36 (KHTML, like Gecko) Chrome/138.0.0.0 Safari/537.36","Macintosh","Chrome","138.0.0.0","OS X","10_15_7","https://app.prolific.com/","pl-PL,pl;q=0.9,en-GB;q=0.8,en;q=0.7,en-US;q=0.6","66a16e0b41e98cb469f12b0b","683dba9a53627eb9ab41b36a","688b1af35b9aa47adbf86d1b","0","66a16e0b41e98cb469f12b0b","0","2025-07-31T07:41:45.811Z","","","","StressQ","","","","","","","","","","","50","","","","","","","","","","","","","","","","","","","","","","","","","","",""
"2812","","<div style=""width:500px;"">
  <p>What best describes how you currently feel?</p>
  </div>","17","html-slider-response","52","827714","0.0-7.0-4.7","106","1","2025-07-31 07:27:58","36c45c0696341be0efffe67d72a12abb","188.146.149.109","Mozilla/5.0 (Macintosh; Intel Mac OS X 10_15_7) AppleWebKit/537.36 (KHTML, like Gecko) Chrome/138.0.0.0 Safari/537.36","Macintosh","Chrome","138.0.0.0","OS X","10_15_7","https://app.prolific.com/","pl-PL,pl;q=0.9,en-GB;q=0.8,en;q=0.7,en-US;q=0.6","66a16e0b41e98cb469f12b0b","683dba9a53627eb9ab41b36a","688b1af35b9aa47adbf86d1b","0","66a16e0b41e98cb469f12b0b","0","2025-07-31T07:41:48.623Z","","","","MotivationQ","","","","","","","","","","","50","","","","","","","","","","","","","","","","","","","","","","","","","","",""
"","","","","ctl-task-cpt","53","868143","0.0-7.0-0.8","106","1","2025-07-31 07:27:58","36c45c0696341be0efffe67d72a12abb","188.146.149.109","Mozilla/5.0 (Macintosh; Intel Mac OS X 10_15_7) AppleWebKit/537.36 (KHTML, like Gecko) Chrome/138.0.0.0 Safari/537.36","Macintosh","Chrome","138.0.0.0","OS X","10_15_7","https://app.prolific.com/","pl-PL,pl;q=0.9,en-GB;q=0.8,en;q=0.7,en-US;q=0.6","66a16e0b41e98cb469f12b0b","683dba9a53627eb9ab41b36a","688b1af35b9aa47adbf86d1b","0","66a16e0b41e98cb469f12b0b","0","2025-07-31T07:42:29.053Z","","","","","","","","","","","","","","","","win-only","0","g1:NW,g2:SE","0.4","9","0","833360","974.7","5976.1","37420.8","1","4","4","6","2","-4","-6","0","0","0","1082.6","3000","-3000","[""down"",""right""]","{""num_key_presses"":9,""num_perfect"":3,""num_errors"":2,""num_randdir"":4,""num_randdir_good_moves"":1,""num_whilered"":0,""num_whileblue"":1,""num_blue"":2,""num_good_moves"":4}","[735,719.796875,0.1,735,719.796875,100.5,735,719.796875,200.6,735,719.796875,301.3,735,719.796875,405.9,721,715.796875,506.3,927,813.796875,611.1,1247,1175.796875,711.3,1235,1169.796875,816.3,1253,1291.796875,920.4,1269,1333.796875,1020.9,1277,1333.796875,1121.6,1279,1333.796875,1225.7,1279,1333.796875,1325.9,1279,1333.796875,1430.7,1279,1333.796875,1531.3,1279,1333.796875,1636,1279,1333.796875,1740.8,1279,1333.796875,1846,1279,1333.796875,1950.6,1279,1333.796875,2051.4,1279,1333.796875,2151.5,1279,1333.796875,2255.9,1279,1333.796875,2356.1,1279,1333.796875,2461.2,1279,1333.796875,2565.5,1279,1333.796875,2666.1,1279,1333.796875,2770.5,1279,1333.796875,2870.6,1279,1333.796875,2971,1279,1333.796875,3076.4,1279,1333.796875,3176.4,1279,1333.796875,3281,1279,1333.796875,3381.3,1279,1333.796875,3481.5,1279,1333.796875,3586.4,1279,1333.796875,3690.5,1279,1333.796875,3795.5,1279,1333.796875,3895.7,1279,1333.796875,3996.4,1279,1333.796875,4100.8,1279,1333.796875,4201.4,1279,1333.796875,4301.6,1279,1333.796875,4406.4,1279,1333.796875,4510.4,1279,1333.796875,4610.7,1279,1333.796875,4716.5,1279,1333.796875,4816.5,1279,1333.796875,4920.5]","[1509.8,1509.8,1000,0,509.8,""smooth"",""down"",""down"",""good_move"",4405.5,2895.5,2524.7,1510,370.8,""oops"",""down"",""up"",""bad_move"",7988.6,3582.9,3128.7,4405.7,454.2,""oops"",""right"",""down"",""good_move"",14142.2,6153.4,2097.8,11689.6,354.8,""smooth"",""right"",""right"",""good_move"",16622.3,2479.9,2133.4,14142.4,346.5,""oops"",""down"",""left"",""bad_move"",19438.7,2816.2,2042.5,16622.5,773.7,""while_blue"",""down"",""up"",""bad_move"",22205.7,2766.7,2465.2,19439,301.5,""smooth"",""right"",""right"",""good_move"",24372.2,2166.4,2216.3,22205.8,-49.9,""error"",""-"",""-"",""no_move"",28414.6,4042.2,2484.6,25374.1,556,""oops"",""right"",""up"",""bad_move""]"
"40740","","<div style=""width:500px;"">
  <p>What determined the result of this run?</p>
  </div>","19","html-slider-response","54","911300","0.0-7.0-1.8","106","1","2025-07-31 07:27:58","36c45c0696341be0efffe67d72a12abb","188.146.149.109","Mozilla/5.0 (Macintosh; Intel Mac OS X 10_15_7) AppleWebKit/537.36 (KHTML, like Gecko) Chrome/138.0.0.0 Safari/537.36","Macintosh","Chrome","138.0.0.0","OS X","10_15_7","https://app.prolific.com/","pl-PL,pl;q=0.9,en-GB;q=0.8,en;q=0.7,en-US;q=0.6","66a16e0b41e98cb469f12b0b","683dba9a53627eb9ab41b36a","688b1af35b9aa47adbf86d1b","0","66a16e0b41e98cb469f12b0b","0","2025-07-31T07:43:12.210Z","","","","AttribQ","","","","","","","","","","","50","","","","","","","","","","","","","","","","","","","","","","","","","","",""
"2033","","<div style=""width:500px;"">
  <p>How much control did you have over the ball?</p>
  </div>","17","html-slider-response","55","913334","0.0-7.0-2.8","106","1","2025-07-31 07:27:58","36c45c0696341be0efffe67d72a12abb","188.146.149.109","Mozilla/5.0 (Macintosh; Intel Mac OS X 10_15_7) AppleWebKit/537.36 (KHTML, like Gecko) Chrome/138.0.0.0 Safari/537.36","Macintosh","Chrome","138.0.0.0","OS X","10_15_7","https://app.prolific.com/","pl-PL,pl;q=0.9,en-GB;q=0.8,en;q=0.7,en-US;q=0.6","66a16e0b41e98cb469f12b0b","683dba9a53627eb9ab41b36a","688b1af35b9aa47adbf86d1b","0","66a16e0b41e98cb469f12b0b","0","2025-07-31T07:43:14.243Z","","","","ControlQ","","","","","","","","","","","50","","","","","","","","","","","","","","","","","","","","","","","","","","",""
"2099","","<div style=""width:500px;"">
  <p>How would you describe your current emotional state?</p>
  </div>","84","html-slider-response","56","915434","0.0-7.0-3.8","106","1","2025-07-31 07:27:58","36c45c0696341be0efffe67d72a12abb","188.146.149.109","Mozilla/5.0 (Macintosh; Intel Mac OS X 10_15_7) AppleWebKit/537.36 (KHTML, like Gecko) Chrome/138.0.0.0 Safari/537.36","Macintosh","Chrome","138.0.0.0","OS X","10_15_7","https://app.prolific.com/","pl-PL,pl;q=0.9,en-GB;q=0.8,en;q=0.7,en-US;q=0.6","66a16e0b41e98cb469f12b0b","683dba9a53627eb9ab41b36a","688b1af35b9aa47adbf86d1b","0","66a16e0b41e98cb469f12b0b","0","2025-07-31T07:43:16.343Z","","","","StressQ","","","","","","","","","","","50","","","","","","","","","","","","","","","","","","","","","","","","","","",""
"2561","","<div style=""width:500px;"">
  <p>What best describes how you currently feel?</p>
  </div>","18","html-slider-response","57","917996","0.0-7.0-4.8","106","1","2025-07-31 07:27:58","36c45c0696341be0efffe67d72a12abb","188.146.149.109","Mozilla/5.0 (Macintosh; Intel Mac OS X 10_15_7) AppleWebKit/537.36 (KHTML, like Gecko) Chrome/138.0.0.0 Safari/537.36","Macintosh","Chrome","138.0.0.0","OS X","10_15_7","https://app.prolific.com/","pl-PL,pl;q=0.9,en-GB;q=0.8,en;q=0.7,en-US;q=0.6","66a16e0b41e98cb469f12b0b","683dba9a53627eb9ab41b36a","688b1af35b9aa47adbf86d1b","0","66a16e0b41e98cb469f12b0b","0","2025-07-31T07:43:18.905Z","","","","MotivationQ","","","","","","","","","","","50","","","","","","","","","","","","","","","","","","","","","","","","","","",""
"","","","","ctl-task-cpt","58","940751","0.0-7.0-0.9","106","1","2025-07-31 07:27:58","36c45c0696341be0efffe67d72a12abb","188.146.149.109","Mozilla/5.0 (Macintosh; Intel Mac OS X 10_15_7) AppleWebKit/537.36 (KHTML, like Gecko) Chrome/138.0.0.0 Safari/537.36","Macintosh","Chrome","138.0.0.0","OS X","10_15_7","https://app.prolific.com/","pl-PL,pl;q=0.9,en-GB;q=0.8,en;q=0.7,en-US;q=0.6","66a16e0b41e98cb469f12b0b","683dba9a53627eb9ab41b36a","688b1af35b9aa47adbf86d1b","0","66a16e0b41e98cb469f12b0b","0","2025-07-31T07:43:41.660Z","","","","","","","","","","","","","","","","win-only","2","g1:SE,g2:NW","0.5","10","0","921226.5","957.6","5961.4","19745.5","1","4","8","6","2","-8","-9","0","0","0","1273.8","3000","-3005","[""left"",""up""]","{""num_key_presses"":4,""num_perfect"":2,""num_errors"":1,""num_randdir"":1,""num_randdir_good_moves"":0,""num_whilered"":0,""num_whileblue"":1,""num_blue"":1,""num_good_moves"":2}","[721,715.796875,0,721,717.796875,108.6,721,717.796875,213.2,721,717.796875,313.6,721,717.796875,418,721,717.796875,518.4,721,717.796875,622.8,651,649.796875,723,405,225.796875,828.2,405,225.796875,932.8,405,225.796875,1032.9,275,191.796875,1138.1,209,163.796875,1243.6,207,163.796875,1343.7,207,163.796875,1449.2,207,163.796875,1553.4,207,163.796875,1658.1,207,163.796875,1763.5,207,163.796875,1868.2,207,163.796875,1973,207,163.796875,2077.4,207,163.796875,2177.8,207,163.796875,2283.4,207,163.796875,2388,207,163.796875,2488,207,163.796875,2592.9,207,163.796875,2693,207,163.796875,2793.6,207,163.796875,2898.3,207,163.796875,2998.3,207,163.796875,3098.4,207,163.796875,3202.7,207,163.796875,3303.5,207,163.796875,3407.7,207,163.796875,3509,207,163.796875,3612.8,207,163.796875,3713.3,207,163.796875,3818.2,207,163.796875,3918.7,207,163.796875,4022.9,207,163.796875,4123.1,207,163.796875,4228.5,207,163.796875,4332.7,207,163.796875,4432.7,207,163.796875,4533.6,207,163.796875,4638.4,207,163.796875,4743.5,207,163.796875,4848.6,207,163.796875,4953.8]","[1542.4,1542.4,1000,0,542.4,""smooth"",""up"",""up"",""good_move"",5454.3,3911.9,2832.8,1542.5,1079.1,""oops"",""left"",""down"",""bad_move"",7686.7,2232.1,1850.7,5454.6,381.4,""smooth"",""left"",""left"",""good_move"",9912.8,2226,1823,7686.9,402.9,""while_blue"",""left"",""right"",""bad_move""]"
"2360","","<div style=""width:500px;"">
  <p>What determined the result of this run?</p>
  </div>","16","html-slider-response","59","943112","0.0-7.0-1.9","106","1","2025-07-31 07:27:58","36c45c0696341be0efffe67d72a12abb","188.146.149.109","Mozilla/5.0 (Macintosh; Intel Mac OS X 10_15_7) AppleWebKit/537.36 (KHTML, like Gecko) Chrome/138.0.0.0 Safari/537.36","Macintosh","Chrome","138.0.0.0","OS X","10_15_7","https://app.prolific.com/","pl-PL,pl;q=0.9,en-GB;q=0.8,en;q=0.7,en-US;q=0.6","66a16e0b41e98cb469f12b0b","683dba9a53627eb9ab41b36a","688b1af35b9aa47adbf86d1b","0","66a16e0b41e98cb469f12b0b","0","2025-07-31T07:43:44.021Z","","","","AttribQ","","","","","","","","","","","50","","","","","","","","","","","","","","","","","","","","","","","","","","",""
"1692","","<div style=""width:500px;"">
  <p>How much control did you have over the ball?</p>
  </div>","14","html-slider-response","60","944804","0.0-7.0-2.9","106","1","2025-07-31 07:27:58","36c45c0696341be0efffe67d72a12abb","188.146.149.109","Mozilla/5.0 (Macintosh; Intel Mac OS X 10_15_7) AppleWebKit/537.36 (KHTML, like Gecko) Chrome/138.0.0.0 Safari/537.36","Macintosh","Chrome","138.0.0.0","OS X","10_15_7","https://app.prolific.com/","pl-PL,pl;q=0.9,en-GB;q=0.8,en;q=0.7,en-US;q=0.6","66a16e0b41e98cb469f12b0b","683dba9a53627eb9ab41b36a","688b1af35b9aa47adbf86d1b","0","66a16e0b41e98cb469f12b0b","0","2025-07-31T07:43:45.714Z","","","","ControlQ","","","","","","","","","","","50","","","","","","","","","","","","","","","","","","","","","","","","","","",""
"2190","","<div style=""width:500px;"">
  <p>How would you describe your current emotional state?</p>
  </div>","86","html-slider-response","61","946995","0.0-7.0-3.9","106","1","2025-07-31 07:27:58","36c45c0696341be0efffe67d72a12abb","188.146.149.109","Mozilla/5.0 (Macintosh; Intel Mac OS X 10_15_7) AppleWebKit/537.36 (KHTML, like Gecko) Chrome/138.0.0.0 Safari/537.36","Macintosh","Chrome","138.0.0.0","OS X","10_15_7","https://app.prolific.com/","pl-PL,pl;q=0.9,en-GB;q=0.8,en;q=0.7,en-US;q=0.6","66a16e0b41e98cb469f12b0b","683dba9a53627eb9ab41b36a","688b1af35b9aa47adbf86d1b","0","66a16e0b41e98cb469f12b0b","0","2025-07-31T07:43:47.904Z","","","","StressQ","","","","","","","","","","","50","","","","","","","","","","","","","","","","","","","","","","","","","","",""
"2708","","<div style=""width:500px;"">
  <p>What best describes how you currently feel?</p>
  </div>","22","html-slider-response","62","949704","0.0-7.0-4.9","106","1","2025-07-31 07:27:58","36c45c0696341be0efffe67d72a12abb","188.146.149.109","Mozilla/5.0 (Macintosh; Intel Mac OS X 10_15_7) AppleWebKit/537.36 (KHTML, like Gecko) Chrome/138.0.0.0 Safari/537.36","Macintosh","Chrome","138.0.0.0","OS X","10_15_7","https://app.prolific.com/","pl-PL,pl;q=0.9,en-GB;q=0.8,en;q=0.7,en-US;q=0.6","66a16e0b41e98cb469f12b0b","683dba9a53627eb9ab41b36a","688b1af35b9aa47adbf86d1b","0","66a16e0b41e98cb469f12b0b","0","2025-07-31T07:43:50.613Z","","","","MotivationQ","","","","","","","","","","","50","","","","","","","","","","","","","","","","","","","","","","","","","","",""
"","","","","ctl-task-cpt","63","975083","0.0-7.0-0.10","106","1","2025-07-31 07:27:58","36c45c0696341be0efffe67d72a12abb","188.146.149.109","Mozilla/5.0 (Macintosh; Intel Mac OS X 10_15_7) AppleWebKit/537.36 (KHTML, like Gecko) Chrome/138.0.0.0 Safari/537.36","Macintosh","Chrome","138.0.0.0","OS X","10_15_7","https://app.prolific.com/","pl-PL,pl;q=0.9,en-GB;q=0.8,en;q=0.7,en-US;q=0.6","66a16e0b41e98cb469f12b0b","683dba9a53627eb9ab41b36a","688b1af35b9aa47adbf86d1b","0","66a16e0b41e98cb469f12b0b","0","2025-07-31T07:44:15.992Z","","","","","","","","","","","","","","","","win-only","0","g1:NW,g2:SE","0.6","11","0","952935","1099","6101.1","22370.1","1","4","4","6","2","4","3","3","0","0.022727272727272728","933.4","3000","835","[""down"",""right""]","{""num_key_presses"":6,""num_perfect"":3,""num_errors"":1,""num_randdir"":2,""num_randdir_good_moves"":2,""num_whilered"":0,""num_whileblue"":1,""num_blue"":1,""num_good_moves"":6}","[733,727.796875,0,733,727.796875,101.2,733,727.796875,202,733,727.796875,302.1,733,727.796875,407,1115,1005.796875,511.2,1391,1241.796875,612,1391,1241.796875,712.1,1365,1293.796875,817.2,1355,1311.796875,917.2,1355,1311.796875,1022,1355,1311.796875,1122.1,1355,1311.796875,1226.5,1355,1311.796875,1326.6,1355,1311.796875,1431.6,1355,1311.796875,1531.6,1355,1311.796875,1631.6,1355,1311.796875,1736.1,1355,1311.796875,1837,1355,1311.796875,1941.8,1355,1311.796875,2041.9,1355,1311.796875,2142.4,1355,1311.796875,2246.8,1355,1311.796875,2346.8,1355,1311.796875,2451.5,1355,1311.796875,2552.1,1355,1311.796875,2652.1,1355,1311.796875,2757.1,1355,1311.796875,2861.5,1355,1311.796875,2962.2,1355,1311.796875,3067,1355,1311.796875,3167.2,1355,1311.796875,3267.2,1355,1311.796875,3372,1355,1311.796875,3476.8,1355,1311.796875,3577.1,1355,1311.796875,3677.2,1355,1311.796875,3781.9,1355,1311.796875,3886.8,1355,1311.796875,3991.7,1355,1311.796875,4092.1,1355,1311.796875,4196.6,1355,1311.796875,4301.9,1355,1311.796875,4401.9,1355,1311.796875,4506.6,1355,1311.796875,4607,1355,1311.796875,4711.7,1355,1311.796875,4817.1,1355,1311.796875,4917.2]","[1698.9,1698.9,1000,0,698.9,""smooth"",""down"",""down"",""good_move"",4674.7,2975.6,2642.1,1699.1,333.5,""smooth"",""right"",""right"",""good_move"",7259.6,2584.7,2223.7,4674.9,361,""smooth"",""down"",""down"",""good_move"",9960,2700.3,2322.8,7259.7,377.5,""oops"",""right"",""right"",""good_move"",13641,3680.9,3261.9,9960.2,418.9,""oops"",""right"",""right"",""good_move"",16182.4,2541.2,2212.8,13641.2,328.4,""while_blue"",""down"",""down"",""good_move""]"
"2432","","<div style=""width:500px;"">
  <p>What determined the result of this run?</p>
  </div>","21","html-slider-response","64","977516","0.0-7.0-1.10","106","1","2025-07-31 07:27:58","36c45c0696341be0efffe67d72a12abb","188.146.149.109","Mozilla/5.0 (Macintosh; Intel Mac OS X 10_15_7) AppleWebKit/537.36 (KHTML, like Gecko) Chrome/138.0.0.0 Safari/537.36","Macintosh","Chrome","138.0.0.0","OS X","10_15_7","https://app.prolific.com/","pl-PL,pl;q=0.9,en-GB;q=0.8,en;q=0.7,en-US;q=0.6","66a16e0b41e98cb469f12b0b","683dba9a53627eb9ab41b36a","688b1af35b9aa47adbf86d1b","0","66a16e0b41e98cb469f12b0b","0","2025-07-31T07:44:18.425Z","","","","AttribQ","","","","","","","","","","","50","","","","","","","","","","","","","","","","","","","","","","","","","","",""
"1937","","<div style=""width:500px;"">
  <p>How much control did you have over the ball?</p>
  </div>","13","html-slider-response","65","979454","0.0-7.0-2.10","106","1","2025-07-31 07:27:58","36c45c0696341be0efffe67d72a12abb","188.146.149.109","Mozilla/5.0 (Macintosh; Intel Mac OS X 10_15_7) AppleWebKit/537.36 (KHTML, like Gecko) Chrome/138.0.0.0 Safari/537.36","Macintosh","Chrome","138.0.0.0","OS X","10_15_7","https://app.prolific.com/","pl-PL,pl;q=0.9,en-GB;q=0.8,en;q=0.7,en-US;q=0.6","66a16e0b41e98cb469f12b0b","683dba9a53627eb9ab41b36a","688b1af35b9aa47adbf86d1b","0","66a16e0b41e98cb469f12b0b","0","2025-07-31T07:44:20.363Z","","","","ControlQ","","","","","","","","","","","50","","","","","","","","","","","","","","","","","","","","","","","","","","",""
"123608","","<div style=""width:500px;"">
  <p>How would you describe your current emotional state?</p>
  </div>","85","html-slider-response","66","1103059","0.0-7.0-3.10","106","1","2025-07-31 07:27:58","36c45c0696341be0efffe67d72a12abb","188.146.149.109","Mozilla/5.0 (Macintosh; Intel Mac OS X 10_15_7) AppleWebKit/537.36 (KHTML, like Gecko) Chrome/138.0.0.0 Safari/537.36","Macintosh","Chrome","138.0.0.0","OS X","10_15_7","https://app.prolific.com/","pl-PL,pl;q=0.9,en-GB;q=0.8,en;q=0.7,en-US;q=0.6","66a16e0b41e98cb469f12b0b","683dba9a53627eb9ab41b36a","688b1af35b9aa47adbf86d1b","0","66a16e0b41e98cb469f12b0b","0","2025-07-31T07:46:23.968Z","","","","StressQ","","","","","","","","","","","50","","","","","","","","","","","","","","","","","","","","","","","","","","",""
"1799","","<div style=""width:500px;"">
  <p>What best describes how you currently feel?</p>
  </div>","20","html-slider-response","67","1104859","0.0-7.0-4.10","106","1","2025-07-31 07:27:58","36c45c0696341be0efffe67d72a12abb","188.146.149.109","Mozilla/5.0 (Macintosh; Intel Mac OS X 10_15_7) AppleWebKit/537.36 (KHTML, like Gecko) Chrome/138.0.0.0 Safari/537.36","Macintosh","Chrome","138.0.0.0","OS X","10_15_7","https://app.prolific.com/","pl-PL,pl;q=0.9,en-GB;q=0.8,en;q=0.7,en-US;q=0.6","66a16e0b41e98cb469f12b0b","683dba9a53627eb9ab41b36a","688b1af35b9aa47adbf86d1b","0","66a16e0b41e98cb469f12b0b","0","2025-07-31T07:46:25.768Z","","","","MotivationQ","","","","","","","","","","","50","","","","","","","","","","","","","","","","","","","","","","","","","","",""
"","","","","ctl-task-cpt","68","1142369","0.0-7.0-0.11","106","1","2025-07-31 07:27:58","36c45c0696341be0efffe67d72a12abb","188.146.149.109","Mozilla/5.0 (Macintosh; Intel Mac OS X 10_15_7) AppleWebKit/537.36 (KHTML, like Gecko) Chrome/138.0.0.0 Safari/537.36","Macintosh","Chrome","138.0.0.0","OS X","10_15_7","https://app.prolific.com/","pl-PL,pl;q=0.9,en-GB;q=0.8,en;q=0.7,en-US;q=0.6","66a16e0b41e98cb469f12b0b","683dba9a53627eb9ab41b36a","688b1af35b9aa47adbf86d1b","0","66a16e0b41e98cb469f12b0b","0","2025-07-31T07:47:03.278Z","","","","","","","","","","","","","","","","win-only","2","g1:SE,g2:NW","0.7","12","0","1108093.5","1390.7","6395.2","34500.8","1","4","8","6","2","-8","-9","0","3","0","1156.6","3000","-3000","[""left"",""up""]","{""num_key_presses"":6,""num_perfect"":3,""num_errors"":1,""num_randdir"":2,""num_randdir_good_moves"":1,""num_whilered"":0,""num_whileblue"":1,""num_blue"":3,""num_good_moves"":4}","[727,735.796875,0.1,727,735.796875,100.3,727,735.796875,200.3,727,735.796875,300.5,727,735.796875,405.4,739,739.796875,505.4,521,527.796875,610.3,445,423.796875,715.1,445,423.796875,815.2,367,393.796875,919.7,129,165.796875,1019.8,109,137.796875,1124.5,109,137.796875,1224.7,109,137.796875,1330,109,137.796875,1430.2,109,137.796875,1530.3,107,99.796875,1635.3,-281,143.796875,1739.7,-473,207.796875,1840.2,-479,217.796875,1945.3,-479,217.796875,2045.3,-479,217.796875,2150.7,-479,217.796875,2254.7,-479,217.796875,2355.2,-479,217.796875,2460.1,-479,217.796875,2564.8,-479,217.796875,2664.8,-479,217.796875,2769.6,-479,217.796875,2874.5,-479,217.796875,2975.1,-479,217.796875,3075.2,-479,217.796875,3179.8,-479,217.796875,3285.2,-479,217.796875,3390.4,-479,217.796875,3495.4,-479,217.796875,3600.2,-479,217.796875,3700.4,-479,217.796875,3805.2,-479,217.796875,3910.3,-479,217.796875,4015.3,-479,217.796875,4119.7,-479,217.796875,4220,-479,217.796875,4324.7,-479,217.796875,4426.2,-479,217.796875,4530.3,-479,217.796875,4634.7,-479,217.796875,4734.7,-479,217.796875,4835,-479,217.796875,4939.7]","[1394,1394,1000,0,394,""smooth"",""up"",""up"",""good_move"",4679.9,3285.6,2893.4,1394.3,392.2,""oops"",""up"",""right"",""bad_move"",7831.7,3151.7,2195.3,4680.1,956.4,""while_blue"",""up"",""right"",""bad_move"",10952.5,3120.6,2685.2,7831.9,435.4,""smooth"",""up"",""up"",""good_move"",17736.2,6783.5,2489.3,14860.7,386.2,""smooth"",""left"",""left"",""good_move"",21137,3400.6,2878,17736.4,522.6,""oops"",""left"",""up"",""good_move""]"
"2181","","<div style=""width:500px;"">
  <p>What determined the result of this run?</p>
  </div>","13","html-slider-response","69","1144550","0.0-7.0-1.11","106","1","2025-07-31 07:27:58","36c45c0696341be0efffe67d72a12abb","188.146.149.109","Mozilla/5.0 (Macintosh; Intel Mac OS X 10_15_7) AppleWebKit/537.36 (KHTML, like Gecko) Chrome/138.0.0.0 Safari/537.36","Macintosh","Chrome","138.0.0.0","OS X","10_15_7","https://app.prolific.com/","pl-PL,pl;q=0.9,en-GB;q=0.8,en;q=0.7,en-US;q=0.6","66a16e0b41e98cb469f12b0b","683dba9a53627eb9ab41b36a","688b1af35b9aa47adbf86d1b","0","66a16e0b41e98cb469f12b0b","0","2025-07-31T07:47:05.459Z","","","","AttribQ","","","","","","","","","","","50","","","","","","","","","","","","","","","","","","","","","","","","","","",""
"1645","","<div style=""width:500px;"">
  <p>How much control did you have over the ball?</p>
  </div>","18","html-slider-response","70","1146195","0.0-7.0-2.11","106","1","2025-07-31 07:27:58","36c45c0696341be0efffe67d72a12abb","188.146.149.109","Mozilla/5.0 (Macintosh; Intel Mac OS X 10_15_7) AppleWebKit/537.36 (KHTML, like Gecko) Chrome/138.0.0.0 Safari/537.36","Macintosh","Chrome","138.0.0.0","OS X","10_15_7","https://app.prolific.com/","pl-PL,pl;q=0.9,en-GB;q=0.8,en;q=0.7,en-US;q=0.6","66a16e0b41e98cb469f12b0b","683dba9a53627eb9ab41b36a","688b1af35b9aa47adbf86d1b","0","66a16e0b41e98cb469f12b0b","0","2025-07-31T07:47:07.105Z","","","","ControlQ","","","","","","","","","","","50","","","","","","","","","","","","","","","","","","","","","","","","","","",""
"3762","","<div style=""width:500px;"">
  <p>How would you describe your current emotional state?</p>
  </div>","93","html-slider-response","71","1149958","0.0-7.0-3.11","106","1","2025-07-31 07:27:58","36c45c0696341be0efffe67d72a12abb","188.146.149.109","Mozilla/5.0 (Macintosh; Intel Mac OS X 10_15_7) AppleWebKit/537.36 (KHTML, like Gecko) Chrome/138.0.0.0 Safari/537.36","Macintosh","Chrome","138.0.0.0","OS X","10_15_7","https://app.prolific.com/","pl-PL,pl;q=0.9,en-GB;q=0.8,en;q=0.7,en-US;q=0.6","66a16e0b41e98cb469f12b0b","683dba9a53627eb9ab41b36a","688b1af35b9aa47adbf86d1b","0","66a16e0b41e98cb469f12b0b","0","2025-07-31T07:47:10.867Z","","","","StressQ","","","","","","","","","","","50","","","","","","","","","","","","","","","","","","","","","","","","","","",""
"2454","","<div style=""width:500px;"">
  <p>What best describes how you currently feel?</p>
  </div>","21","html-slider-response","72","1152413","0.0-7.0-4.11","106","1","2025-07-31 07:27:58","36c45c0696341be0efffe67d72a12abb","188.146.149.109","Mozilla/5.0 (Macintosh; Intel Mac OS X 10_15_7) AppleWebKit/537.36 (KHTML, like Gecko) Chrome/138.0.0.0 Safari/537.36","Macintosh","Chrome","138.0.0.0","OS X","10_15_7","https://app.prolific.com/","pl-PL,pl;q=0.9,en-GB;q=0.8,en;q=0.7,en-US;q=0.6","66a16e0b41e98cb469f12b0b","683dba9a53627eb9ab41b36a","688b1af35b9aa47adbf86d1b","0","66a16e0b41e98cb469f12b0b","0","2025-07-31T07:47:13.322Z","","","","MotivationQ","","","","","","","","","","","50","","","","","","","","","","","","","","","","","","","","","","","","","","",""
"","","","","ctl-task-cpt","73","1185343","0.0-7.0-0.12","106","1","2025-07-31 07:27:58","36c45c0696341be0efffe67d72a12abb","188.146.149.109","Mozilla/5.0 (Macintosh; Intel Mac OS X 10_15_7) AppleWebKit/537.36 (KHTML, like Gecko) Chrome/138.0.0.0 Safari/537.36","Macintosh","Chrome","138.0.0.0","OS X","10_15_7","https://app.prolific.com/","pl-PL,pl;q=0.9,en-GB;q=0.8,en;q=0.7,en-US;q=0.6","66a16e0b41e98cb469f12b0b","683dba9a53627eb9ab41b36a","688b1af35b9aa47adbf86d1b","0","66a16e0b41e98cb469f12b0b","0","2025-07-31T07:47:46.252Z","","","","","","","","","","","","","","","","win-only","3","g1:SW,g2:NE","0.8","13","0","1155648","1110.5","6110.7","29920.5","1","4","8","6","2","8","8","8","0","0.06060606060606061","1109","3000","475","[""up"",""right""]","{""num_key_presses"":6,""num_perfect"":4,""num_errors"":0,""num_randdir"":2,""num_randdir_good_moves"":2,""num_whilered"":0,""num_whileblue"":0,""num_blue"":2,""num_good_moves"":6}","[723,731.796875,0,723,731.796875,100.3,723,731.796875,204.5,723,731.796875,304.8,723,731.796875,405.5,723,731.796875,505.6,1005,315.796875,609.9,1467,-94.203125,710.5,1467,-94.203125,815.2,1459,-74.203125,915.7,1407,67.796875,1015.8,1393,83.796875,1120.7,1391,83.796875,1225,1391,83.796875,1325.9,1391,83.796875,1429.8,1391,83.796875,1530.8,1391,83.796875,1635.7,1391,83.796875,1740.1,1391,83.796875,1845.5,1391,83.796875,1945.6,1391,83.796875,2050,1391,83.796875,2155,1391,83.796875,2255.6,1391,83.796875,2355.8,1391,83.796875,2460.1,1391,83.796875,2569.4,1391,83.796875,2669.7,1391,83.796875,2770.1,1391,83.796875,2870.5,1391,83.796875,2975.1,1391,83.796875,3080.7,1391,83.796875,3185.5,1391,83.796875,3285.6,1391,83.796875,3385.7,1391,83.796875,3490,1391,83.796875,3595.6,1391,83.796875,3700,1391,83.796875,3800.9,1391,83.796875,3905,1391,83.796875,4010.3,1391,83.796875,4115.3,1391,83.796875,4216.4,1391,83.796875,4320.4,1391,83.796875,4425,1391,83.796875,4525.1,1391,83.796875,4630.3,1391,83.796875,4734.8,1391,83.796875,4834.8,1391,83.796875,4935.9]","[1403.2,1403.2,1000,0,403.2,""smooth"",""up"",""up"",""good_move"",4479,3075.6,2629.3,1403.4,446.3,""smooth"",""up"",""up"",""good_move"",7093.9,2614.9,2249.5,4479,365.4,""smooth"",""up"",""up"",""good_move"",10466.2,3372.2,2923.8,7094,448.4,""oops"",""right"",""right"",""good_move"",21083.4,10617,2559.9,17945.5,578,""smooth"",""right"",""right"",""good_move"",23716.1,2632.6,2315.9,21083.6,316.7,""oops"",""right"",""right"",""good_move""]"
"66714","","<div style=""width:500px;"">
  <p>What determined the result of this run?</p>
  </div>","15","html-slider-response","74","1252056","0.0-7.0-1.12","106","1","2025-07-31 07:27:58","36c45c0696341be0efffe67d72a12abb","188.146.149.109","Mozilla/5.0 (Macintosh; Intel Mac OS X 10_15_7) AppleWebKit/537.36 (KHTML, like Gecko) Chrome/138.0.0.0 Safari/537.36","Macintosh","Chrome","138.0.0.0","OS X","10_15_7","https://app.prolific.com/","pl-PL,pl;q=0.9,en-GB;q=0.8,en;q=0.7,en-US;q=0.6","66a16e0b41e98cb469f12b0b","683dba9a53627eb9ab41b36a","688b1af35b9aa47adbf86d1b","0","66a16e0b41e98cb469f12b0b","0","2025-07-31T07:48:52.965Z","","","","AttribQ","","","","","","","","","","","50","","","","","","","","","","","","","","","","","","","","","","","","","","",""
"2795","","<div style=""width:500px;"">
  <p>How much control did you have over the ball?</p>
  </div>","18","html-slider-response","75","1254852","0.0-7.0-2.12","106","1","2025-07-31 07:27:58","36c45c0696341be0efffe67d72a12abb","188.146.149.109","Mozilla/5.0 (Macintosh; Intel Mac OS X 10_15_7) AppleWebKit/537.36 (KHTML, like Gecko) Chrome/138.0.0.0 Safari/537.36","Macintosh","Chrome","138.0.0.0","OS X","10_15_7","https://app.prolific.com/","pl-PL,pl;q=0.9,en-GB;q=0.8,en;q=0.7,en-US;q=0.6","66a16e0b41e98cb469f12b0b","683dba9a53627eb9ab41b36a","688b1af35b9aa47adbf86d1b","0","66a16e0b41e98cb469f12b0b","0","2025-07-31T07:48:55.761Z","","","","ControlQ","","","","","","","","","","","50","","","","","","","","","","","","","","","","","","","","","","","","","","",""
"2524","","<div style=""width:500px;"">
  <p>How would you describe your current emotional state?</p>
  </div>","77","html-slider-response","76","1257377","0.0-7.0-3.12","106","1","2025-07-31 07:27:58","36c45c0696341be0efffe67d72a12abb","188.146.149.109","Mozilla/5.0 (Macintosh; Intel Mac OS X 10_15_7) AppleWebKit/537.36 (KHTML, like Gecko) Chrome/138.0.0.0 Safari/537.36","Macintosh","Chrome","138.0.0.0","OS X","10_15_7","https://app.prolific.com/","pl-PL,pl;q=0.9,en-GB;q=0.8,en;q=0.7,en-US;q=0.6","66a16e0b41e98cb469f12b0b","683dba9a53627eb9ab41b36a","688b1af35b9aa47adbf86d1b","0","66a16e0b41e98cb469f12b0b","0","2025-07-31T07:48:58.286Z","","","","StressQ","","","","","","","","","","","50","","","","","","","","","","","","","","","","","","","","","","","","","","",""
"2354","","<div style=""width:500px;"">
  <p>What best describes how you currently feel?</p>
  </div>","19","html-slider-response","77","1259731","0.0-7.0-4.12","106","1","2025-07-31 07:27:58","36c45c0696341be0efffe67d72a12abb","188.146.149.109","Mozilla/5.0 (Macintosh; Intel Mac OS X 10_15_7) AppleWebKit/537.36 (KHTML, like Gecko) Chrome/138.0.0.0 Safari/537.36","Macintosh","Chrome","138.0.0.0","OS X","10_15_7","https://app.prolific.com/","pl-PL,pl;q=0.9,en-GB;q=0.8,en;q=0.7,en-US;q=0.6","66a16e0b41e98cb469f12b0b","683dba9a53627eb9ab41b36a","688b1af35b9aa47adbf86d1b","0","66a16e0b41e98cb469f12b0b","0","2025-07-31T07:49:00.640Z","","","","MotivationQ","","","","","","","","","","","50","","","","","","","","","","","","","","","","","","","","","","","","","","",""
"","","","","ctl-task-cpt","78","1284425","0.0-7.0-0.13","106","1","2025-07-31 07:27:58","36c45c0696341be0efffe67d72a12abb","188.146.149.109","Mozilla/5.0 (Macintosh; Intel Mac OS X 10_15_7) AppleWebKit/537.36 (KHTML, like Gecko) Chrome/138.0.0.0 Safari/537.36","Macintosh","Chrome","138.0.0.0","OS X","10_15_7","https://app.prolific.com/","pl-PL,pl;q=0.9,en-GB;q=0.8,en;q=0.7,en-US;q=0.6","66a16e0b41e98cb469f12b0b","683dba9a53627eb9ab41b36a","688b1af35b9aa47adbf86d1b","0","66a16e0b41e98cb469f12b0b","0","2025-07-31T07:49:25.334Z","","","","","","","","","","","","","","","","win-only","3","g1:SW,g2:NE","0.9","14","0","1262968.7","865.9","5871.3","21685.4","1","4","4","6","2","4","3","11","8","0.08333333333333333","983.2","3000","985","[""up"",""right""]","{""num_key_presses"":6,""num_perfect"":5,""num_errors"":1,""num_randdir"":0,""num_randdir_good_moves"":0,""num_whilered"":0,""num_whileblue"":1,""num_blue"":1,""num_good_moves"":6}","[723,723.796875,0.1,723,723.796875,105,723,723.796875,209.5,723,723.796875,310,711,717.796875,415.4,923,425.796875,520.2,1437,-136.203125,624.4,1437,-136.203125,724.4,1355,-24.203125,830.4,1281,99.796875,934.6,1281,99.796875,1035.4,1281,99.796875,1139.4,1281,99.796875,1239.7,1281,99.796875,1340.3,1281,99.796875,1444.6,1281,99.796875,1544.7,1281,99.796875,1650.3,1281,99.796875,1755.1,1281,99.796875,1860.2,1281,99.796875,1964.6,1281,99.796875,2064.6,1281,99.796875,2169.6,1281,99.796875,2270.1,1281,99.796875,2370.1,1281,99.796875,2474.3,1281,99.796875,2574.3,1281,99.796875,2674.4,1281,99.796875,2774.6,1281,99.796875,2875.1,1281,99.796875,2980.2,1281,99.796875,3080.2,1281,99.796875,3185.1,1281,99.796875,3285.4,1281,99.796875,3389.7,1281,99.796875,3489.7,1281,99.796875,3594.6,1281,99.796875,3694.9,1281,99.796875,3795.9,1281,99.796875,3899.2,1281,99.796875,3999.6,1281,99.796875,4104.3,1281,99.796875,4205,1281,99.796875,4305,1281,99.796875,4410,1281,99.796875,4515.2,1281,99.796875,4620.3,1281,99.796875,4725.3,1281,99.796875,4829.6,1281,99.796875,4935.1]","[1687.8,1687.8,1000,0,687.8,""smooth"",""up"",""up"",""good_move"",5386.9,3698.9,3344.8,1688,354.1,""smooth"",""up"",""up"",""good_move"",7547.6,2160.5,1805.4,5387.1,355.1,""smooth"",""up"",""up"",""good_move"",10037.2,2489.5,2176.7,7547.7,312.8,""smooth"",""right"",""right"",""good_move"",12492.8,2455.4,2111.6,10037.4,343.8,""smooth"",""right"",""right"",""good_move"",15720.5,3227.6,2936.8,12492.9,290.8,""while_blue"",""right"",""right"",""good_move""]"
"47597","","<div style=""width:500px;"">
  <p>What determined the result of this run?</p>
  </div>","82","html-slider-response","79","1332021","0.0-7.0-1.13","106","1","2025-07-31 07:27:58","36c45c0696341be0efffe67d72a12abb","188.146.149.109","Mozilla/5.0 (Macintosh; Intel Mac OS X 10_15_7) AppleWebKit/537.36 (KHTML, like Gecko) Chrome/138.0.0.0 Safari/537.36","Macintosh","Chrome","138.0.0.0","OS X","10_15_7","https://app.prolific.com/","pl-PL,pl;q=0.9,en-GB;q=0.8,en;q=0.7,en-US;q=0.6","66a16e0b41e98cb469f12b0b","683dba9a53627eb9ab41b36a","688b1af35b9aa47adbf86d1b","0","66a16e0b41e98cb469f12b0b","0","2025-07-31T07:50:12.930Z","","","","AttribQ","","","","","","","","","","","50","","","","","","","","","","","","","","","","","","","","","","","","","","",""
"2508","","<div style=""width:500px;"">
  <p>How much control did you have over the ball?</p>
  </div>","17","html-slider-response","80","1334530","0.0-7.0-2.13","106","1","2025-07-31 07:27:58","36c45c0696341be0efffe67d72a12abb","188.146.149.109","Mozilla/5.0 (Macintosh; Intel Mac OS X 10_15_7) AppleWebKit/537.36 (KHTML, like Gecko) Chrome/138.0.0.0 Safari/537.36","Macintosh","Chrome","138.0.0.0","OS X","10_15_7","https://app.prolific.com/","pl-PL,pl;q=0.9,en-GB;q=0.8,en;q=0.7,en-US;q=0.6","66a16e0b41e98cb469f12b0b","683dba9a53627eb9ab41b36a","688b1af35b9aa47adbf86d1b","0","66a16e0b41e98cb469f12b0b","0","2025-07-31T07:50:15.439Z","","","","ControlQ","","","","","","","","","","","50","","","","","","","","","","","","","","","","","","","","","","","","","","",""
"1816","","<div style=""width:500px;"">
  <p>How would you describe your current emotional state?</p>
  </div>","83","html-slider-response","81","1336346","0.0-7.0-3.13","106","1","2025-07-31 07:27:58","36c45c0696341be0efffe67d72a12abb","188.146.149.109","Mozilla/5.0 (Macintosh; Intel Mac OS X 10_15_7) AppleWebKit/537.36 (KHTML, like Gecko) Chrome/138.0.0.0 Safari/537.36","Macintosh","Chrome","138.0.0.0","OS X","10_15_7","https://app.prolific.com/","pl-PL,pl;q=0.9,en-GB;q=0.8,en;q=0.7,en-US;q=0.6","66a16e0b41e98cb469f12b0b","683dba9a53627eb9ab41b36a","688b1af35b9aa47adbf86d1b","0","66a16e0b41e98cb469f12b0b","0","2025-07-31T07:50:17.255Z","","","","StressQ","","","","","","","","","","","50","","","","","","","","","","","","","","","","","","","","","","","","","","",""
"3416","","<div style=""width:500px;"">
  <p>What best describes how you currently feel?</p>
  </div>","18","html-slider-response","82","1339763","0.0-7.0-4.13","106","1","2025-07-31 07:27:58","36c45c0696341be0efffe67d72a12abb","188.146.149.109","Mozilla/5.0 (Macintosh; Intel Mac OS X 10_15_7) AppleWebKit/537.36 (KHTML, like Gecko) Chrome/138.0.0.0 Safari/537.36","Macintosh","Chrome","138.0.0.0","OS X","10_15_7","https://app.prolific.com/","pl-PL,pl;q=0.9,en-GB;q=0.8,en;q=0.7,en-US;q=0.6","66a16e0b41e98cb469f12b0b","683dba9a53627eb9ab41b36a","688b1af35b9aa47adbf86d1b","0","66a16e0b41e98cb469f12b0b","0","2025-07-31T07:50:20.672Z","","","","MotivationQ","","","","","","","","","","","50","","","","","","","","","","","","","","","","","","","","","","","","","","",""
"","","","","ctl-task-cpt","83","1376783","0.0-7.0-0.14","106","1","2025-07-31 07:27:58","36c45c0696341be0efffe67d72a12abb","188.146.149.109","Mozilla/5.0 (Macintosh; Intel Mac OS X 10_15_7) AppleWebKit/537.36 (KHTML, like Gecko) Chrome/138.0.0.0 Safari/537.36","Macintosh","Chrome","138.0.0.0","OS X","10_15_7","https://app.prolific.com/","pl-PL,pl;q=0.9,en-GB;q=0.8,en;q=0.7,en-US;q=0.6","66a16e0b41e98cb469f12b0b","683dba9a53627eb9ab41b36a","688b1af35b9aa47adbf86d1b","0","66a16e0b41e98cb469f12b0b","0","2025-07-31T07:50:57.692Z","","","","","","","","","","","","","","","","win-only","1","g1:NE,g2:SW","1","15","0","1343002.2","1082.4","6085.8","34011.4","1","4","8","6","2","8","8","19","11","0.14393939393939395","1067","3000","855","[""down"",""left""]","{""num_key_presses"":6,""num_perfect"":6,""num_errors"":0,""num_randdir"":0,""num_randdir_good_moves"":0,""num_whilered"":0,""num_whileblue"":0,""num_blue"":3,""num_good_moves"":6}","[729,713.796875,0.1,729,713.796875,103.8,729,713.796875,207.9,729,713.796875,313.4,747,707.796875,418.4,359,1433.796875,518.6,307,1659.796875,623.2,307,1653.796875,723.2,191,1625.796875,828.4,121,1421.796875,933.9,123,1395.796875,1038.6,125,1393.796875,1143.2,125,1393.796875,1243.4,125,1393.796875,1344.1,125,1393.796875,1444.4,125,1393.796875,1548.4,125,1393.796875,1653.5,125,1393.796875,1758.3,125,1393.796875,1863.3,125,1393.796875,1963.5,125,1393.796875,2063.7,125,1393.796875,2167.9,125,1393.796875,2268.4,125,1393.796875,2373.7,125,1393.796875,2478.7,125,1393.796875,2582.8,125,1393.796875,2688.3,125,1393.796875,2793.5,125,1393.796875,2898.8,125,1393.796875,3002.9,125,1393.796875,3103.7,125,1393.796875,3207.7,125,1393.796875,3308.4,125,1393.796875,3408.4,125,1393.796875,3513.1,125,1393.796875,3617.8,125,1393.796875,3717.8,125,1393.796875,3818,125,1393.796875,3923.3,125,1393.796875,4023.4,125,1393.796875,4128.8,125,1393.796875,4232.8,125,1393.796875,4333,125,1393.796875,4435.8,125,1393.796875,4538.1,125,1393.796875,4643.8,125,1393.796875,4747.8,125,1393.796875,4848.1,125,1393.796875,4952.9]","[4691.3,4691.3,2334.9,2009.9,346.5,""smooth"",""down"",""down"",""good_move"",11119.5,6428,2499.7,8239.7,380.1,""smooth"",""left"",""left"",""good_move"",13458.4,2338.6,1929.4,11119.8,409.2,""smooth"",""left"",""left"",""good_move"",17169.4,3710.9,3372.8,13458.6,338,""smooth"",""left"",""left"",""good_move"",24881.5,7711.9,3209.5,21319.7,352.3,""smooth"",""down"",""down"",""good_move"",27836,2954.4,2607.8,24881.6,346.6,""smooth"",""down"",""down"",""good_move""]"
"2203","","<div style=""width:500px;"">
  <p>What determined the result of this run?</p>
  </div>","84","html-slider-response","84","1378987","0.0-7.0-1.14","106","1","2025-07-31 07:27:58","36c45c0696341be0efffe67d72a12abb","188.146.149.109","Mozilla/5.0 (Macintosh; Intel Mac OS X 10_15_7) AppleWebKit/537.36 (KHTML, like Gecko) Chrome/138.0.0.0 Safari/537.36","Macintosh","Chrome","138.0.0.0","OS X","10_15_7","https://app.prolific.com/","pl-PL,pl;q=0.9,en-GB;q=0.8,en;q=0.7,en-US;q=0.6","66a16e0b41e98cb469f12b0b","683dba9a53627eb9ab41b36a","688b1af35b9aa47adbf86d1b","0","66a16e0b41e98cb469f12b0b","0","2025-07-31T07:50:59.896Z","","","","AttribQ","","","","","","","","","","","50","","","","","","","","","","","","","","","","","","","","","","","","","","",""
"2566","","<div style=""width:500px;"">
  <p>How much control did you have over the ball?</p>
  </div>","15","html-slider-response","85","1381553","0.0-7.0-2.14","106","1","2025-07-31 07:27:58","36c45c0696341be0efffe67d72a12abb","188.146.149.109","Mozilla/5.0 (Macintosh; Intel Mac OS X 10_15_7) AppleWebKit/537.36 (KHTML, like Gecko) Chrome/138.0.0.0 Safari/537.36","Macintosh","Chrome","138.0.0.0","OS X","10_15_7","https://app.prolific.com/","pl-PL,pl;q=0.9,en-GB;q=0.8,en;q=0.7,en-US;q=0.6","66a16e0b41e98cb469f12b0b","683dba9a53627eb9ab41b36a","688b1af35b9aa47adbf86d1b","0","66a16e0b41e98cb469f12b0b","0","2025-07-31T07:51:02.463Z","","","","ControlQ","","","","","","","","","","","50","","","","","","","","","","","","","","","","","","","","","","","","","","",""
"2667","","<div style=""width:500px;"">
  <p>How would you describe your current emotional state?</p>
  </div>","79","html-slider-response","86","1384221","0.0-7.0-3.14","106","1","2025-07-31 07:27:58","36c45c0696341be0efffe67d72a12abb","188.146.149.109","Mozilla/5.0 (Macintosh; Intel Mac OS X 10_15_7) AppleWebKit/537.36 (KHTML, like Gecko) Chrome/138.0.0.0 Safari/537.36","Macintosh","Chrome","138.0.0.0","OS X","10_15_7","https://app.prolific.com/","pl-PL,pl;q=0.9,en-GB;q=0.8,en;q=0.7,en-US;q=0.6","66a16e0b41e98cb469f12b0b","683dba9a53627eb9ab41b36a","688b1af35b9aa47adbf86d1b","0","66a16e0b41e98cb469f12b0b","0","2025-07-31T07:51:05.130Z","","","","StressQ","","","","","","","","","","","50","","","","","","","","","","","","","","","","","","","","","","","","","","",""
"3404","","<div style=""width:500px;"">
  <p>What best describes how you currently feel?</p>
  </div>","15","html-slider-response","87","1387625","0.0-7.0-4.14","106","1","2025-07-31 07:27:58","36c45c0696341be0efffe67d72a12abb","188.146.149.109","Mozilla/5.0 (Macintosh; Intel Mac OS X 10_15_7) AppleWebKit/537.36 (KHTML, like Gecko) Chrome/138.0.0.0 Safari/537.36","Macintosh","Chrome","138.0.0.0","OS X","10_15_7","https://app.prolific.com/","pl-PL,pl;q=0.9,en-GB;q=0.8,en;q=0.7,en-US;q=0.6","66a16e0b41e98cb469f12b0b","683dba9a53627eb9ab41b36a","688b1af35b9aa47adbf86d1b","0","66a16e0b41e98cb469f12b0b","0","2025-07-31T07:51:08.534Z","","","","MotivationQ","","","","","","","","","","","50","","","","","","","","","","","","","","","","","","","","","","","","","","",""
