"rt","response_timestamp","stimulus","response","trial_type","trial_index","time_elapsed","internal_node_id","run_id","condition","recorded_at","source_code_version","ip","user_agent","device","browser","browser_version","platform","platform_version","referer","accept_language","PROLIFIC_PID","STUDY_ID","SESSION_ID","BATCH","prolific_id","batch","realtime","success","question_order","question_id","eventType","responses","item_order","radio_event_ids","radio_event_times","key_event_times","mouse_event_times","straightlining","zigzagging","honeypot","view_history","slider_start","which_type","canvas_config","goals_layout","control_level","trial_number","tutorial_trial_number","trial_start_time","phase1_start_time","phase2_start_time","phase3_start_time","goal_1_value","goal_1_distance","goal_2_value","goal_2_distance","goal_selected","outcome","outcome_total","participant_final_score","participant_initial_score","participant_final_score_prop","goal_choice_rt","allocated_time","allocated_time_remaining","goal_direction","counts","mouse_movements","key_presses"
"3239","1754573082652","<p style='font-size:40px;line-height:1.25'><strong>Welcome to the experiment!</strong></p><p style='font-size:1.1em;line-height:1.25'>Thank you for participanting in our experiment again! You will be asked to play the Dysfunctional Ball Game again. We will briefly recap the rules before we start.</p><p style='font-size:1.1em;line-height:1.25'>Press <strong>Next</strong> to continue.</p>","0","custom-html-button-response","0","3265","0.0-0.0","230","1","2025-08-07 13:24:37","36c45c0696341be0efffe67d72a12abb","37.47.250.53","Mozilla/5.0 (Windows NT 10.0; Win64; x64; rv:141.0) Gecko/20100101 Firefox/141.0","","Firefox","141.0","Windows","10.0","https://app.prolific.com/","pl","66a6211743bf2623c0a8eb81","6877649eabb845cf142cd221","6894a90c5be89fb9cf41d2f2","1","66a6211743bf2623c0a8eb81","1","2025-08-07T13:24:42.653Z","","","","","","","","","","","","","","","","","","","","","","","","","","","","","","","","","","","","","","","","","",""
"1118","","","","fullscreen","1","5476","0.0-1.0","230","1","2025-08-07 13:24:37","36c45c0696341be0efffe67d72a12abb","37.47.250.53","Mozilla/5.0 (Windows NT 10.0; Win64; x64; rv:141.0) Gecko/20100101 Firefox/141.0","","Firefox","141.0","Windows","10.0","https://app.prolific.com/","pl","66a6211743bf2623c0a8eb81","6877649eabb845cf142cd221","6894a90c5be89fb9cf41d2f2","1","66a6211743bf2623c0a8eb81","1","","true","","","","","","","","","","","","","","","","","","","","","","","","","","","","","","","","","","","","","","","","",""
"45861","1754573130728"," <p style='font-size:1.1em;line-height:1.25'>Thank you for closing all other tabs.</p><p style='font-size:1.1em;line-height:1.25'>We will now invite you to fill in some questionnaires, before starting the game.<br>This will take about 5 minutes.<br></p><p style='font-size:1.1em;line-height:1.25'>Press the <strong>Next</strong> button to continue.</p>","0","custom-html-button-response","2","51341","0.0-2.0","230","1","2025-08-07 13:24:37","36c45c0696341be0efffe67d72a12abb","37.47.250.53","Mozilla/5.0 (Windows NT 10.0; Win64; x64; rv:141.0) Gecko/20100101 Firefox/141.0","","Firefox","141.0","Windows","10.0","https://app.prolific.com/","pl","66a6211743bf2623c0a8eb81","6877649eabb845cf142cd221","6894a90c5be89fb9cf41d2f2","1","66a6211743bf2623c0a8eb81","1","2025-08-07T13:25:30.729Z","","","","","","","","","","","","","","","","","","","","","","","","","","","","","","","","","","","","","","","","","",""
"9761","","","{""assigned_sex"":""female""}","survey-multi-choice","3","61117","0.0-3.0-0.0","230","1","2025-08-07 13:24:37","36c45c0696341be0efffe67d72a12abb","37.47.250.53","Mozilla/5.0 (Windows NT 10.0; Win64; x64; rv:141.0) Gecko/20100101 Firefox/141.0","","Firefox","141.0","Windows","10.0","https://app.prolific.com/","pl","66a6211743bf2623c0a8eb81","6877649eabb845cf142cd221","6894a90c5be89fb9cf41d2f2","1","66a6211743bf2623c0a8eb81","1","","","[0]","0","demographics","","","","","","","","","","","","","","","","","","","","","","","","","","","","","","","","","","","","","",""
"9059","1754573149568","<p style='font-size:1.1em;line-height:1.25'>In the following, we will perform a baseline assessment. This means that we will ask you a few questions relating to your experiences over the past month.<br></p><p style='font-size:1.1em;line-height:1.25'>Press the <strong>Next</strong> button to continue.</p>","0","custom-html-button-response","4","70181","0.0-4.0-0.0","230","1","2025-08-07 13:24:37","36c45c0696341be0efffe67d72a12abb","37.47.250.53","Mozilla/5.0 (Windows NT 10.0; Win64; x64; rv:141.0) Gecko/20100101 Firefox/141.0","","Firefox","141.0","Windows","10.0","https://app.prolific.com/","pl","66a6211743bf2623c0a8eb81","6877649eabb845cf142cd221","6894a90c5be89fb9cf41d2f2","1","66a6211743bf2623c0a8eb81","1","2025-08-07T13:25:49.569Z","","","","","","","","","","","","","","","","","","","","","","","","","","","","","","","","","","","","","","","","","",""
"104950","","","","survey-template","5","175157","0.0-4.0-1.0","230","1","2025-08-07 13:24:37","36c45c0696341be0efffe67d72a12abb","37.47.250.53","Mozilla/5.0 (Windows NT 10.0; Win64; x64; rv:141.0) Gecko/20100101 Firefox/141.0","","Firefox","141.0","Windows","10.0","https://app.prolific.com/","pl","66a6211743bf2623c0a8eb81","6877649eabb845cf142cd221","6894a90c5be89fb9cf41d2f2","1","66a6211743bf2623c0a8eb81","1","2025-08-07T13:27:34.545Z","","","","pss","{""Q01"":""1"",""Q02"":""0"",""Q03"":""2"",""Q04"":""0"",""Q05"":""0"",""Q06"":""1"",""Q07"":""1"",""Q08"":""1"",""Q09"":""0"",""Q10"":""1""}","[0,1,2,3,4,5,6,7,8,9]","[""Q01"",""Q02"",""Q03"",""Q04"",""Q05"",""Q06"",""Q07"",""Q08"",""Q09"",""Q09"",""Q10""]","[14441,21463,27073,40012,48782,78738,83917,89062,95832,98664,104002]","[]","[0,13654,14441,21463,26390,27073,40012,48782,78738,83917,89062,95832,97984,98664,104002,104948]","0.3","0.2222222222222222","0","","","","","","","","","","","","","","","","","","","","","","","","","","","","",""
"3756","1754573258312","<p style='font-size:1.1em;line-height:1.25'>Thank you for your answers! Now we will ask you a few more questions relating to your feelings in the last 24 hours.<br></p><p style='font-size:1.1em;line-height:1.25'>Press the <strong>Next</strong> button to continue.</p>","0","custom-html-button-response","6","178924","0.0-4.0-2.0","230","1","2025-08-07 13:24:37","36c45c0696341be0efffe67d72a12abb","37.47.250.53","Mozilla/5.0 (Windows NT 10.0; Win64; x64; rv:141.0) Gecko/20100101 Firefox/141.0","","Firefox","141.0","Windows","10.0","https://app.prolific.com/","pl","66a6211743bf2623c0a8eb81","6877649eabb845cf142cd221","6894a90c5be89fb9cf41d2f2","1","66a6211743bf2623c0a8eb81","1","2025-08-07T13:27:38.312Z","","","","","","","","","","","","","","","","","","","","","","","","","","","","","","","","","","","","","","","","","",""
"49414","","","","survey-template","7","228352","0.0-4.0-3.0","230","1","2025-08-07 13:24:37","36c45c0696341be0efffe67d72a12abb","37.47.250.53","Mozilla/5.0 (Windows NT 10.0; Win64; x64; rv:141.0) Gecko/20100101 Firefox/141.0","","Firefox","141.0","Windows","10.0","https://app.prolific.com/","pl","66a6211743bf2623c0a8eb81","6877649eabb845cf142cd221","6894a90c5be89fb9cf41d2f2","1","66a6211743bf2623c0a8eb81","1","2025-08-07T13:28:27.740Z","","","","drsp","{""Q01"":""0"",""Q02"":""0"",""Q03"":""0"",""Q04"":""0"",""Q05"":""0"",""Q06"":""0"",""Q07"":""0"",""Q08"":""0"",""Q09"":""1"",""Q10"":""0"",""Q11"":""1"",""Q12"":""0"",""Q13"":""5"",""Q14"":""1"",""Q15"":""0"",""Q16"":""0"",""Q17"":""0"",""Q18"":""0"",""Q19"":""0"",""Q20"":""0"",""Q21"":""0"",""Q22"":""0""}","[0,1,2,3,4,5,6,7,8,9,10,11,12,13,14,15,16,17,18,19,20,21]","[""Q01"",""Q02"",""Q03"",""Q04"",""Q05"",""Q06"",""Q07"",""Q08"",""Q09"",""Q10"",""Q10"",""Q11"",""Q12"",""Q13"",""Q14"",""Q14"",""Q15"",""Q16"",""Q17"",""Q18"",""Q19"",""Q20"",""Q21"",""Q22""]","[4542,6225,7618,8724,9604,11704,13259,14909,18200,20812,22956,23721,28470,30522,33767,35160,36299,38268,39282,40207,42554,43364,46937,48359]","[]","[0,4542,6225,7618,8724,9604,11704,13259,14909,17368,18200,20812,22956,23721,28470,30522,33767,35160,36299,38268,39282,40207,42554,43364,46937,48359,49412]","0.8181818181818182","0.2857142857142857","0","","","","","","","","","","","","","","","","","","","","","","","","","","","","",""
"11114","","","","survey-template","8","239474","0.0-4.0-4.0","230","1","2025-08-07 13:24:37","36c45c0696341be0efffe67d72a12abb","37.47.250.53","Mozilla/5.0 (Windows NT 10.0; Win64; x64; rv:141.0) Gecko/20100101 Firefox/141.0","","Firefox","141.0","Windows","10.0","https://app.prolific.com/","pl","66a6211743bf2623c0a8eb81","6877649eabb845cf142cd221","6894a90c5be89fb9cf41d2f2","1","66a6211743bf2623c0a8eb81","1","2025-08-07T13:28:38.863Z","","","","stress","{""Q01"":""1"",""Q02"":""1"",""Q03"":""0""}","[0,1,2]","[""Q01"",""Q02"",""Q03""]","[2392,6157,8932]","[]","[2392,6157,8932,11114]","0.3333333333333333","0","0","","","","","","","","","","","","","","","","","","","","","","","","","","","","",""
"388651","","","","instructions","9","628131","0.0-5.0-0.0","230","1","2025-08-07 13:24:37","36c45c0696341be0efffe67d72a12abb","37.47.250.53","Mozilla/5.0 (Windows NT 10.0; Win64; x64; rv:141.0) Gecko/20100101 Firefox/141.0","","Firefox","141.0","Windows","10.0","https://app.prolific.com/","pl","66a6211743bf2623c0a8eb81","6877649eabb845cf142cd221","6894a90c5be89fb9cf41d2f2","1","66a6211743bf2623c0a8eb81","1","","","","","","","","","","","","","","","[{""page_index"":0,""viewing_time"":388651}]","","","","","","","","","","","","","","","","","","","","","","","","","","","",""
"2198","","<p>Before you start with this game please answer the following three questions yourself. </p>
  <p>Through this game, we measure several aspects of your cognitive performance, such as reaction times, multi-tasking capabilities </p>
  <p>and the ability to assess the situation you are in.</p>
  <p></p>
  <p><b>How good do you usually are in such tasks?</b></p>","66","html-slider-response","10","630338","0.0-6.0-0.0","230","1","2025-08-07 13:24:37","36c45c0696341be0efffe67d72a12abb","37.47.250.53","Mozilla/5.0 (Windows NT 10.0; Win64; x64; rv:141.0) Gecko/20100101 Firefox/141.0","","Firefox","141.0","Windows","10.0","https://app.prolific.com/","pl","66a6211743bf2623c0a8eb81","6877649eabb845cf142cd221","6894a90c5be89fb9cf41d2f2","1","66a6211743bf2623c0a8eb81","1","2025-08-07T13:35:09.726Z","","","","PreSkillQ","","","","","","","","","","","50","","","","","","","","","","","","","","","","","","","","","","","","","","",""
"2408","","<div style=""width:500px;"">
  <p>How well do you think you will perform in this task compared to other participants?</p>
  </div>","63","html-slider-response","11","632749","0.0-6.0-1.0","230","1","2025-08-07 13:24:37","36c45c0696341be0efffe67d72a12abb","37.47.250.53","Mozilla/5.0 (Windows NT 10.0; Win64; x64; rv:141.0) Gecko/20100101 Firefox/141.0","","Firefox","141.0","Windows","10.0","https://app.prolific.com/","pl","66a6211743bf2623c0a8eb81","6877649eabb845cf142cd221","6894a90c5be89fb9cf41d2f2","1","66a6211743bf2623c0a8eb81","1","2025-08-07T13:35:12.137Z","","","","PrePerfQ","","","","","","","","","","","50","","","","","","","","","","","","","","","","","","","","","","","","","","",""
"3226","","<div style=""width:500px;"">
  <p>What best describes how you currently feel?</p>
  </div>","83","html-slider-response","12","635979","0.0-6.0-2.0","230","1","2025-08-07 13:24:37","36c45c0696341be0efffe67d72a12abb","37.47.250.53","Mozilla/5.0 (Windows NT 10.0; Win64; x64; rv:141.0) Gecko/20100101 Firefox/141.0","","Firefox","141.0","Windows","10.0","https://app.prolific.com/","pl","66a6211743bf2623c0a8eb81","6877649eabb845cf142cd221","6894a90c5be89fb9cf41d2f2","1","66a6211743bf2623c0a8eb81","1","2025-08-07T13:35:15.367Z","","","","PreMotivationQ","","","","","","","","","","","50","","","","","","","","","","","","","","","","","","","","","","","","","","",""
"","","","","ctl-task-cpt","13","666237","0.0-7.0-0.0","230","1","2025-08-07 13:24:37","36c45c0696341be0efffe67d72a12abb","37.47.250.53","Mozilla/5.0 (Windows NT 10.0; Win64; x64; rv:141.0) Gecko/20100101 Firefox/141.0","","Firefox","141.0","Windows","10.0","https://app.prolific.com/","pl","66a6211743bf2623c0a8eb81","6877649eabb845cf142cd221","6894a90c5be89fb9cf41d2f2","1","66a6211743bf2623c0a8eb81","1","2025-08-07T13:35:45.625Z","","","","","","","","","","","","","","","","win-only","1","g1:NE,g2:SW","1","1","0","637750","1523","6533","27231","1","4","8","6","2","8","8","8","0","0.06060606060606061","1568","3000","2150","[""down"",""left""]","{""num_key_presses"":6,""num_perfect"":6,""num_errors"":0,""num_randdir"":0,""num_randdir_good_moves"":0,""num_whilered"":0,""num_whileblue"":0,""num_blue"":1,""num_good_moves"":6}","[304.22857753208706,294.92857448032925,1,304.22857753208706,294.92857448032925,112,304.22857753208706,294.92857448032925,218,304.22857753208706,294.92857448032925,329,304.22857753208706,294.92857448032925,431,304.22857753208706,294.92857448032925,546,190.22857753208706,386.92857448032925,651,113.22857753208706,457.92857448032925,758,104.22857753208706,469.92857448032925,867,66.22857753208706,509.92857448032925,981,61.22857753208705,518.9285744803292,1091,61.22857753208705,518.9285744803292,1191,61.22857753208705,518.9285744803292,1300,61.22857753208705,518.9285744803292,1406,61.22857753208705,518.9285744803292,1507,61.22857753208705,518.9285744803292,1612,61.22857753208705,518.9285744803292,1717,61.22857753208705,518.9285744803292,1819,61.22857753208705,518.9285744803292,1930,61.22857753208705,518.9285744803292,2036,61.22857753208705,518.9285744803292,2141,61.22857753208705,518.9285744803292,2245,61.22857753208705,518.9285744803292,2350,106.22857753208706,475.92857448032925,2461,229.22857753208706,386.92857448032925,2562,313.22857753208706,353.92857448032925,2665,397.22857753208706,348.92857448032925,2770,397.22857753208706,348.92857448032925,2871,397.22857753208706,348.92857448032925,2978,397.22857753208706,348.92857448032925,3082,397.22857753208706,348.92857448032925,3185,397.22857753208706,348.92857448032925,3290,397.22857753208706,348.92857448032925,3398,397.22857753208706,348.92857448032925,3507,397.22857753208706,348.92857448032925,3608,397.22857753208706,348.92857448032925,3716,397.22857753208706,348.92857448032925,3817,397.22857753208706,348.92857448032925,3917,397.22857753208706,348.92857448032925,4017,397.22857753208706,348.92857448032925,4121,397.22857753208706,348.92857448032925,4222,397.22857753208706,348.92857448032925,4330,397.22857753208706,348.92857448032925,4436,397.22857753208706,348.92857448032925,4546,397.22857753208706,348.92857448032925,4652,397.22857753208706,348.92857448032925,4756,397.22857753208706,348.92857448032925,4862,397.22857753208706,348.92857448032925,4968]","[1451,1451,1000,0,451,""smooth"",""down"",""down"",""good_move"",4097,2646,2185.9,1451,460.1,""smooth"",""down"",""down"",""good_move"",6966,2869,2438.3,4097,430.7,""smooth"",""left"",""left"",""good_move"",10057,3091,2629.1,6966,461.9,""smooth"",""left"",""left"",""good_move"",16899,6842,2684.6,13728,486.4,""smooth"",""down"",""down"",""good_move"",20412,3513,3035.2,16899,477.8,""smooth"",""left"",""left"",""good_move""]"
"3597","","<div style=""width:500px;"">
  <p>What determined the result of this run?</p>
  </div>","87","html-slider-response","14","669835","0.0-7.0-1.0","230","1","2025-08-07 13:24:37","36c45c0696341be0efffe67d72a12abb","37.47.250.53","Mozilla/5.0 (Windows NT 10.0; Win64; x64; rv:141.0) Gecko/20100101 Firefox/141.0","","Firefox","141.0","Windows","10.0","https://app.prolific.com/","pl","66a6211743bf2623c0a8eb81","6877649eabb845cf142cd221","6894a90c5be89fb9cf41d2f2","1","66a6211743bf2623c0a8eb81","1","2025-08-07T13:35:49.223Z","","","","AttribQ","","","","","","","","","","","50","","","","","","","","","","","","","","","","","","","","","","","","","","",""
"3291","","<div style=""width:500px;"">
  <p>How much control did you have over the ball?</p>
  </div>","100","html-slider-response","15","673129","0.0-7.0-2.0","230","1","2025-08-07 13:24:37","36c45c0696341be0efffe67d72a12abb","37.47.250.53","Mozilla/5.0 (Windows NT 10.0; Win64; x64; rv:141.0) Gecko/20100101 Firefox/141.0","","Firefox","141.0","Windows","10.0","https://app.prolific.com/","pl","66a6211743bf2623c0a8eb81","6877649eabb845cf142cd221","6894a90c5be89fb9cf41d2f2","1","66a6211743bf2623c0a8eb81","1","2025-08-07T13:35:52.517Z","","","","ControlQ","","","","","","","","","","","50","","","","","","","","","","","","","","","","","","","","","","","","","","",""
"4091","","<div style=""width:500px;"">
  <p>How would you describe your current emotional state?</p>
  </div>","5","html-slider-response","16","677224","0.0-7.0-3.0","230","1","2025-08-07 13:24:37","36c45c0696341be0efffe67d72a12abb","37.47.250.53","Mozilla/5.0 (Windows NT 10.0; Win64; x64; rv:141.0) Gecko/20100101 Firefox/141.0","","Firefox","141.0","Windows","10.0","https://app.prolific.com/","pl","66a6211743bf2623c0a8eb81","6877649eabb845cf142cd221","6894a90c5be89fb9cf41d2f2","1","66a6211743bf2623c0a8eb81","1","2025-08-07T13:35:56.612Z","","","","StressQ","","","","","","","","","","","50","","","","","","","","","","","","","","","","","","","","","","","","","","",""
"3681","","<div style=""width:500px;"">
  <p>What best describes how you currently feel?</p>
  </div>","87","html-slider-response","17","680906","0.0-7.0-4.0","230","1","2025-08-07 13:24:37","36c45c0696341be0efffe67d72a12abb","37.47.250.53","Mozilla/5.0 (Windows NT 10.0; Win64; x64; rv:141.0) Gecko/20100101 Firefox/141.0","","Firefox","141.0","Windows","10.0","https://app.prolific.com/","pl","66a6211743bf2623c0a8eb81","6877649eabb845cf142cd221","6894a90c5be89fb9cf41d2f2","1","66a6211743bf2623c0a8eb81","1","2025-08-07T13:36:00.294Z","","","","MotivationQ","","","","","","","","","","","50","","","","","","","","","","","","","","","","","","","","","","","","","","",""
"","","","","ctl-task-cpt","18","706300","0.0-7.0-0.1","230","1","2025-08-07 13:24:37","36c45c0696341be0efffe67d72a12abb","37.47.250.53","Mozilla/5.0 (Windows NT 10.0; Win64; x64; rv:141.0) Gecko/20100101 Firefox/141.0","","Firefox","141.0","Windows","10.0","https://app.prolific.com/","pl","66a6211743bf2623c0a8eb81","6877649eabb845cf142cd221","6894a90c5be89fb9cf41d2f2","1","66a6211743bf2623c0a8eb81","1","2025-08-07T13:36:25.688Z","","","","","","","","","","","","","","","","win-only","0","g1:NW,g2:SE","0.9","2","0","682663","1129","6136","22383","1","4","4","6","2","4","4","12","8","0.09090909090909091","1152","3000","2175","[""down"",""right""]","{""num_key_presses"":6,""num_perfect"":6,""num_errors"":0,""num_randdir"":0,""num_randdir_good_moves"":0,""num_whilered"":0,""num_whileblue"":0,""num_blue"":0,""num_good_moves"":6}","[302.22857753208706,292.92857448032925,0,302.22857753208706,292.92857448032925,100,302.22857753208706,292.92857448032925,212,302.22857753208706,292.92857448032925,312,302.22857753208706,292.92857448032925,416,302.22857753208706,292.92857448032925,527,342.22857753208706,319.92857448032925,631,451.22857753208706,414.92857448032925,738,480.22857753208706,453.92857448032925,843,504.22857753208706,505.92857448032925,946,525.228577532087,531.9285744803292,1048,527.228577532087,533.9285744803292,1152,527.228577532087,533.9285744803292,1257,533.228577532087,530.9285744803292,1369,777.228577532087,406.92857448032925,1470,779.228577532087,404.92857448032925,1570,779.228577532087,404.92857448032925,1678,779.228577532087,404.92857448032925,1781,779.228577532087,404.92857448032925,1883,779.228577532087,404.92857448032925,1997,779.228577532087,404.92857448032925,2101,779.228577532087,404.92857448032925,2209,779.228577532087,404.92857448032925,2315,779.228577532087,404.92857448032925,2421,779.228577532087,404.92857448032925,2527,779.228577532087,404.92857448032925,2631,779.228577532087,404.92857448032925,2733,779.228577532087,404.92857448032925,2836,779.228577532087,404.92857448032925,2942,779.228577532087,404.92857448032925,3052,779.228577532087,404.92857448032925,3157,779.228577532087,404.92857448032925,3270,779.228577532087,404.92857448032925,3370,779.228577532087,404.92857448032925,3473,779.228577532087,404.92857448032925,3579,779.228577532087,404.92857448032925,3683,779.228577532087,404.92857448032925,3784,779.228577532087,404.92857448032925,3897,779.228577532087,404.92857448032925,4003,779.228577532087,404.92857448032925,4107,779.228577532087,404.92857448032925,4211,779.228577532087,404.92857448032925,4327,779.228577532087,404.92857448032925,4428,779.228577532087,404.92857448032925,4545,779.228577532087,404.92857448032925,4653,779.228577532087,404.92857448032925,4767,779.228577532087,404.92857448032925,4867,779.228577532087,404.92857448032925,4967]","[1443,1443,1000,0,443,""smooth"",""down"",""down"",""good_move"",4500,3056,2580.9,1444,475.1,""smooth"",""right"",""right"",""good_move"",7849,3350,2924.1,4500,425.9,""smooth"",""down"",""down"",""good_move"",10009,2159,1711.3,7850,447.7,""smooth"",""down"",""down"",""good_move"",13021,3011,2497.5,10010,513.5,""smooth"",""right"",""right"",""good_move"",15958,2937,2514.9,13021,422.1,""smooth"",""right"",""right"",""good_move""]"
"2811","","<div style=""width:500px;"">
  <p>What determined the result of this run?</p>
  </div>","87","html-slider-response","19","709113","0.0-7.0-1.1","230","1","2025-08-07 13:24:37","36c45c0696341be0efffe67d72a12abb","37.47.250.53","Mozilla/5.0 (Windows NT 10.0; Win64; x64; rv:141.0) Gecko/20100101 Firefox/141.0","","Firefox","141.0","Windows","10.0","https://app.prolific.com/","pl","66a6211743bf2623c0a8eb81","6877649eabb845cf142cd221","6894a90c5be89fb9cf41d2f2","1","66a6211743bf2623c0a8eb81","1","2025-08-07T13:36:28.501Z","","","","AttribQ","","","","","","","","","","","50","","","","","","","","","","","","","","","","","","","","","","","","","","",""
"2081","","<div style=""width:500px;"">
  <p>How much control did you have over the ball?</p>
  </div>","100","html-slider-response","20","711197","0.0-7.0-2.1","230","1","2025-08-07 13:24:37","36c45c0696341be0efffe67d72a12abb","37.47.250.53","Mozilla/5.0 (Windows NT 10.0; Win64; x64; rv:141.0) Gecko/20100101 Firefox/141.0","","Firefox","141.0","Windows","10.0","https://app.prolific.com/","pl","66a6211743bf2623c0a8eb81","6877649eabb845cf142cd221","6894a90c5be89fb9cf41d2f2","1","66a6211743bf2623c0a8eb81","1","2025-08-07T13:36:30.585Z","","","","ControlQ","","","","","","","","","","","50","","","","","","","","","","","","","","","","","","","","","","","","","","",""
"1693","","<div style=""width:500px;"">
  <p>How would you describe your current emotional state?</p>
  </div>","0","html-slider-response","21","712893","0.0-7.0-3.1","230","1","2025-08-07 13:24:37","36c45c0696341be0efffe67d72a12abb","37.47.250.53","Mozilla/5.0 (Windows NT 10.0; Win64; x64; rv:141.0) Gecko/20100101 Firefox/141.0","","Firefox","141.0","Windows","10.0","https://app.prolific.com/","pl","66a6211743bf2623c0a8eb81","6877649eabb845cf142cd221","6894a90c5be89fb9cf41d2f2","1","66a6211743bf2623c0a8eb81","1","2025-08-07T13:36:32.281Z","","","","StressQ","","","","","","","","","","","50","","","","","","","","","","","","","","","","","","","","","","","","","","",""
"1770","","<div style=""width:500px;"">
  <p>What best describes how you currently feel?</p>
  </div>","96","html-slider-response","22","714665","0.0-7.0-4.1","230","1","2025-08-07 13:24:37","36c45c0696341be0efffe67d72a12abb","37.47.250.53","Mozilla/5.0 (Windows NT 10.0; Win64; x64; rv:141.0) Gecko/20100101 Firefox/141.0","","Firefox","141.0","Windows","10.0","https://app.prolific.com/","pl","66a6211743bf2623c0a8eb81","6877649eabb845cf142cd221","6894a90c5be89fb9cf41d2f2","1","66a6211743bf2623c0a8eb81","1","2025-08-07T13:36:34.053Z","","","","MotivationQ","","","","","","","","","","","50","","","","","","","","","","","","","","","","","","","","","","","","","","",""
"","","","","ctl-task-cpt","23","733528","0.0-7.0-0.2","230","1","2025-08-07 13:24:37","36c45c0696341be0efffe67d72a12abb","37.47.250.53","Mozilla/5.0 (Windows NT 10.0; Win64; x64; rv:141.0) Gecko/20100101 Firefox/141.0","","Firefox","141.0","Windows","10.0","https://app.prolific.com/","pl","66a6211743bf2623c0a8eb81","6877649eabb845cf142cd221","6894a90c5be89fb9cf41d2f2","1","66a6211743bf2623c0a8eb81","1","2025-08-07T13:36:52.916Z","","","","","","","","","","","","","","","","win-only","3","g1:SW,g2:NE","0.8","3","0","716423","789","5800","15847","1","4","4","6","1","1","1","13","12","0.09848484848484848","1426","3000","2435","[""down"",""left""]","{""num_key_presses"":4,""num_perfect"":4,""num_errors"":0,""num_randdir"":0,""num_randdir_good_moves"":0,""num_whilered"":0,""num_whileblue"":0,""num_blue"":0,""num_good_moves"":4}","[301.22857753208706,296.92857448032925,0,301.22857753208706,296.92857448032925,101,301.22857753208706,296.92857448032925,213,301.22857753208706,296.92857448032925,324,301.22857753208706,296.92857448032925,437,301.22857753208706,296.92857448032925,549,301.22857753208706,296.92857448032925,659,301.22857753208706,296.92857448032925,771,298.22857753208706,296.92857448032925,883,184.22857753208706,412.92857448032925,992,134.22857753208706,465.92857448032925,1105,91.22857753208706,487.92857448032925,1216,73.22857753208706,504.92857448032925,1330,45.22857753208705,523.9285744803292,1440,45.22857753208705,523.9285744803292,1553,57.22857753208705,523.9285744803292,1666,664.228577532087,518.9285744803292,1779,681.228577532087,518.9285744803292,1890,681.228577532087,518.9285744803292,2002,681.228577532087,518.9285744803292,2113,681.228577532087,518.9285744803292,2224,681.228577532087,518.9285744803292,2337,681.228577532087,518.9285744803292,2444,681.228577532087,518.9285744803292,2551,681.228577532087,518.9285744803292,2661,681.228577532087,518.9285744803292,2770,681.228577532087,518.9285744803292,2879,681.228577532087,518.9285744803292,2988,681.228577532087,518.9285744803292,3098,681.228577532087,518.9285744803292,3208,681.228577532087,518.9285744803292,3316,681.228577532087,518.9285744803292,3426,681.228577532087,518.9285744803292,3533,681.228577532087,518.9285744803292,3642,681.228577532087,518.9285744803292,3750,681.228577532087,518.9285744803292,3861,681.228577532087,518.9285744803292,3969,681.228577532087,518.9285744803292,4076,681.228577532087,518.9285744803292,4186,681.228577532087,518.9285744803292,4295,681.228577532087,518.9285744803292,4405,681.228577532087,518.9285744803292,4514,681.228577532087,518.9285744803292,4622,681.228577532087,518.9285744803292,4731,681.228577532087,518.9285744803292,4840,681.228577532087,518.9285744803292,4948]","[1486,1486,1000,0,486,""smooth"",""down"",""down"",""good_move"",4393,2907,2473.5,1486,433.5,""smooth"",""left"",""left"",""good_move"",7441,3047,2530.1,4394,516.9,""smooth"",""down"",""down"",""good_move"",9766,2325,1823.4,7441,501.6,""smooth"",""left"",""left"",""good_move""]"
"2197","","<div style=""width:500px;"">
  <p>What determined the result of this run?</p>
  </div>","84","html-slider-response","24","735727","0.0-7.0-1.2","230","1","2025-08-07 13:24:37","36c45c0696341be0efffe67d72a12abb","37.47.250.53","Mozilla/5.0 (Windows NT 10.0; Win64; x64; rv:141.0) Gecko/20100101 Firefox/141.0","","Firefox","141.0","Windows","10.0","https://app.prolific.com/","pl","66a6211743bf2623c0a8eb81","6877649eabb845cf142cd221","6894a90c5be89fb9cf41d2f2","1","66a6211743bf2623c0a8eb81","1","2025-08-07T13:36:55.115Z","","","","AttribQ","","","","","","","","","","","50","","","","","","","","","","","","","","","","","","","","","","","","","","",""
"1599","","<div style=""width:500px;"">
  <p>How much control did you have over the ball?</p>
  </div>","100","html-slider-response","25","737329","0.0-7.0-2.2","230","1","2025-08-07 13:24:37","36c45c0696341be0efffe67d72a12abb","37.47.250.53","Mozilla/5.0 (Windows NT 10.0; Win64; x64; rv:141.0) Gecko/20100101 Firefox/141.0","","Firefox","141.0","Windows","10.0","https://app.prolific.com/","pl","66a6211743bf2623c0a8eb81","6877649eabb845cf142cd221","6894a90c5be89fb9cf41d2f2","1","66a6211743bf2623c0a8eb81","1","2025-08-07T13:36:56.717Z","","","","ControlQ","","","","","","","","","","","50","","","","","","","","","","","","","","","","","","","","","","","","","","",""
"2298","","<div style=""width:500px;"">
  <p>How would you describe your current emotional state?</p>
  </div>","6","html-slider-response","26","739629","0.0-7.0-3.2","230","1","2025-08-07 13:24:37","36c45c0696341be0efffe67d72a12abb","37.47.250.53","Mozilla/5.0 (Windows NT 10.0; Win64; x64; rv:141.0) Gecko/20100101 Firefox/141.0","","Firefox","141.0","Windows","10.0","https://app.prolific.com/","pl","66a6211743bf2623c0a8eb81","6877649eabb845cf142cd221","6894a90c5be89fb9cf41d2f2","1","66a6211743bf2623c0a8eb81","1","2025-08-07T13:36:59.017Z","","","","StressQ","","","","","","","","","","","50","","","","","","","","","","","","","","","","","","","","","","","","","","",""
"1560","","<div style=""width:500px;"">
  <p>What best describes how you currently feel?</p>
  </div>","92","html-slider-response","27","741191","0.0-7.0-4.2","230","1","2025-08-07 13:24:37","36c45c0696341be0efffe67d72a12abb","37.47.250.53","Mozilla/5.0 (Windows NT 10.0; Win64; x64; rv:141.0) Gecko/20100101 Firefox/141.0","","Firefox","141.0","Windows","10.0","https://app.prolific.com/","pl","66a6211743bf2623c0a8eb81","6877649eabb845cf142cd221","6894a90c5be89fb9cf41d2f2","1","66a6211743bf2623c0a8eb81","1","2025-08-07T13:37:00.580Z","","","","MotivationQ","","","","","","","","","","","50","","","","","","","","","","","","","","","","","","","","","","","","","","",""
"","","","","ctl-task-cpt","28","781824","0.0-7.0-0.3","230","1","2025-08-07 13:24:37","36c45c0696341be0efffe67d72a12abb","37.47.250.53","Mozilla/5.0 (Windows NT 10.0; Win64; x64; rv:141.0) Gecko/20100101 Firefox/141.0","","Firefox","141.0","Windows","10.0","https://app.prolific.com/","pl","66a6211743bf2623c0a8eb81","6877649eabb845cf142cd221","6894a90c5be89fb9cf41d2f2","1","66a6211743bf2623c0a8eb81","1","2025-08-07T13:37:41.213Z","","","","","","","","","","","","","","","","win-only","2","g1:SE,g2:NW","0.7","4","0","742949","900","5904","37621","1","4","8","6","2","8","8","21","13","0.1590909090909091","946","3000","1895","[""left"",""up""]","{""num_key_presses"":8,""num_perfect"":6,""num_errors"":0,""num_randdir"":2,""num_randdir_good_moves"":1,""num_whilered"":0,""num_whileblue"":0,""num_blue"":2,""num_good_moves"":7}","[289.22857753208706,292.92857448032925,0,289.22857753208706,292.92857448032925,110,289.22857753208706,292.92857448032925,217,289.22857753208706,292.92857448032925,318,289.22857753208706,292.92857448032925,423,289.22857753208706,292.92857448032925,530,139.22857753208706,148.92857448032925,640,79.22857753208706,77.92857448032925,744,72.22857753208706,68.92857448032925,856,57.22857753208705,62.92857448032924,961,57.22857753208705,62.92857448032924,1069,57.22857753208705,62.92857448032924,1176,488.22857753208706,282.92857448032925,1280,978.228577532087,446.92857448032925,1381,978.228577532087,447.92857448032925,1482,978.228577532087,447.92857448032925,1593,978.228577532087,447.92857448032925,1695,978.228577532087,447.92857448032925,1800,978.228577532087,447.92857448032925,1909,978.228577532087,447.92857448032925,2015,978.228577532087,447.92857448032925,2122,978.228577532087,447.92857448032925,2225,978.228577532087,447.92857448032925,2336,978.228577532087,447.92857448032925,2443,978.228577532087,447.92857448032925,2543,978.228577532087,447.92857448032925,2656,978.228577532087,447.92857448032925,2760,978.228577532087,447.92857448032925,2871,978.228577532087,447.92857448032925,2986,978.228577532087,447.92857448032925,3098,978.228577532087,447.92857448032925,3198,978.228577532087,447.92857448032925,3301,978.228577532087,447.92857448032925,3405,978.228577532087,447.92857448032925,3506,978.228577532087,447.92857448032925,3620,978.228577532087,447.92857448032925,3721,978.228577532087,447.92857448032925,3821,978.228577532087,447.92857448032925,3921,978.228577532087,447.92857448032925,4037,978.228577532087,447.92857448032925,4140,978.228577532087,447.92857448032925,4248,978.228577532087,447.92857448032925,4354,978.228577532087,447.92857448032925,4464,978.228577532087,447.92857448032925,4580,978.228577532087,447.92857448032925,4690,978.228577532087,447.92857448032925,4800,978.228577532087,447.92857448032925,4902]","[1469,1469,1000,0,469,""oops"",""up"",""down"",""bad_move"",4615,3146,2756.4,1469,389.6,""smooth"",""up"",""up"",""good_move"",7712,3096,2656.1,4616,439.9,""oops"",""up"",""up"",""good_move"",11485,3773,3237.7,7712,535.3,""smooth"",""left"",""left"",""good_move"",18294,6810,2636.5,15253,405.5,""smooth"",""up"",""up"",""good_move"",21408,3113,2201.2,18295,911.8,""smooth"",""left"",""left"",""good_move"",24627,3218,1751.1,21409,1466.9,""smooth"",""up"",""up"",""good_move"",31460,6833,2609.3,28347,503.7,""smooth"",""left"",""left"",""good_move""]"
"128543","","<div style=""width:500px;"">
  <p>What determined the result of this run?</p>
  </div>","84","html-slider-response","29","910374","0.0-7.0-1.3","230","1","2025-08-07 13:24:37","36c45c0696341be0efffe67d72a12abb","37.47.250.53","Mozilla/5.0 (Windows NT 10.0; Win64; x64; rv:141.0) Gecko/20100101 Firefox/141.0","","Firefox","141.0","Windows","10.0","https://app.prolific.com/","pl","66a6211743bf2623c0a8eb81","6877649eabb845cf142cd221","6894a90c5be89fb9cf41d2f2","1","66a6211743bf2623c0a8eb81","1","2025-08-07T13:39:49.762Z","","","","AttribQ","","","","","","","","","","","50","","","","","","","","","","","","","","","","","","","","","","","","","","",""
"3381","","<div style=""width:500px;"">
  <p>How much control did you have over the ball?</p>
  </div>","79","html-slider-response","30","913764","0.0-7.0-2.3","230","1","2025-08-07 13:24:37","36c45c0696341be0efffe67d72a12abb","37.47.250.53","Mozilla/5.0 (Windows NT 10.0; Win64; x64; rv:141.0) Gecko/20100101 Firefox/141.0","","Firefox","141.0","Windows","10.0","https://app.prolific.com/","pl","66a6211743bf2623c0a8eb81","6877649eabb845cf142cd221","6894a90c5be89fb9cf41d2f2","1","66a6211743bf2623c0a8eb81","1","2025-08-07T13:39:53.152Z","","","","ControlQ","","","","","","","","","","","50","","","","","","","","","","","","","","","","","","","","","","","","","","",""
"49398","","<div style=""width:500px;"">
  <p>How would you describe your current emotional state?</p>
  </div>","12","html-slider-response","31","963164","0.0-7.0-3.3","230","1","2025-08-07 13:24:37","36c45c0696341be0efffe67d72a12abb","37.47.250.53","Mozilla/5.0 (Windows NT 10.0; Win64; x64; rv:141.0) Gecko/20100101 Firefox/141.0","","Firefox","141.0","Windows","10.0","https://app.prolific.com/","pl","66a6211743bf2623c0a8eb81","6877649eabb845cf142cd221","6894a90c5be89fb9cf41d2f2","1","66a6211743bf2623c0a8eb81","1","2025-08-07T13:40:42.552Z","","","","StressQ","","","","","","","","","","","50","","","","","","","","","","","","","","","","","","","","","","","","","","",""
"5444","","<div style=""width:500px;"">
  <p>What best describes how you currently feel?</p>
  </div>","91","html-slider-response","32","968611","0.0-7.0-4.3","230","1","2025-08-07 13:24:37","36c45c0696341be0efffe67d72a12abb","37.47.250.53","Mozilla/5.0 (Windows NT 10.0; Win64; x64; rv:141.0) Gecko/20100101 Firefox/141.0","","Firefox","141.0","Windows","10.0","https://app.prolific.com/","pl","66a6211743bf2623c0a8eb81","6877649eabb845cf142cd221","6894a90c5be89fb9cf41d2f2","1","66a6211743bf2623c0a8eb81","1","2025-08-07T13:40:48.000Z","","","","MotivationQ","","","","","","","","","","","50","","","","","","","","","","","","","","","","","","","","","","","","","","",""
"","","","","ctl-task-cpt","33","1015485","0.0-7.0-0.4","230","1","2025-08-07 13:24:37","36c45c0696341be0efffe67d72a12abb","37.47.250.53","Mozilla/5.0 (Windows NT 10.0; Win64; x64; rv:141.0) Gecko/20100101 Firefox/141.0","","Firefox","141.0","Windows","10.0","https://app.prolific.com/","pl","66a6211743bf2623c0a8eb81","6877649eabb845cf142cd221","6894a90c5be89fb9cf41d2f2","1","66a6211743bf2623c0a8eb81","1","2025-08-07T13:41:34.873Z","","","","","","","","","","","","","","","","win-only","2","g1:SE,g2:NW","0.6","5","0","970370","996","5998","43855","1","4","4","6","1","1","1","22","21","0.16666666666666666","1962","3000","890","[""down"",""right""]","{""num_key_presses"":8,""num_perfect"":5,""num_errors"":0,""num_randdir"":3,""num_randdir_good_moves"":1,""num_whilered"":0,""num_whileblue"":0,""num_blue"":4,""num_good_moves"":6}","[300.22857753208706,299.92857448032925,0,300.22857753208706,299.92857448032925,106,300.22857753208706,299.92857448032925,216,300.22857753208706,299.92857448032925,330,300.22857753208706,299.92857448032925,437,300.22857753208706,299.92857448032925,544,300.22857753208706,299.92857448032925,649,300.22857753208706,299.92857448032925,760,300.22857753208706,299.92857448032925,872,300.22857753208706,299.92857448032925,980,300.22857753208706,299.92857448032925,1094,300.22857753208706,299.92857448032925,1201,300.22857753208706,299.92857448032925,1311,311.22857753208706,305.92857448032925,1415,445.22857753208706,432.92857448032925,1526,464.22857753208706,466.92857448032925,1636,477.22857753208706,502.92857448032925,1745,522.228577532087,539.9285744803292,1858,526.228577532087,539.9285744803292,1964,526.228577532087,539.9285744803292,2077,557.228577532087,549.9285744803292,2185,863.228577532087,672.9285744803292,2296,865.228577532087,673.9285744803292,2408,865.228577532087,673.9285744803292,2513,865.228577532087,673.9285744803292,2621,865.228577532087,673.9285744803292,2734,865.228577532087,673.9285744803292,2843,865.228577532087,673.9285744803292,2949,865.228577532087,673.9285744803292,3058,865.228577532087,673.9285744803292,3164,865.228577532087,673.9285744803292,3268,865.228577532087,673.9285744803292,3376,865.228577532087,673.9285744803292,3486,865.228577532087,673.9285744803292,3593,865.228577532087,673.9285744803292,3703,865.228577532087,673.9285744803292,3812,865.228577532087,673.9285744803292,3919,865.228577532087,673.9285744803292,4028,865.228577532087,673.9285744803292,4135,865.228577532087,673.9285744803292,4243,865.228577532087,673.9285744803292,4354,865.228577532087,673.9285744803292,4462,865.228577532087,673.9285744803292,4573,865.228577532087,673.9285744803292,4682,865.228577532087,673.9285744803292,4788,865.228577532087,673.9285744803292,4893]","[4920,4920,2327.2,2009,583.8,""smooth"",""down"",""down"",""good_move"",7609,2689,1926.8,4920,762.2,""oops"",""down"",""down"",""good_move"",10770,3161,2623.6,7609,537.4,""smooth"",""right"",""right"",""good_move"",18292,7522,3204.8,14332,755.2,""oops"",""right"",""left"",""bad_move"",22182,3889,2560.7,18293,1328.3,""oops"",""right"",""up"",""bad_move"",28405,6223,1216.1,26180,1009.9,""smooth"",""right"",""right"",""good_move"",34872,6466,2661.7,31672,538.3,""smooth"",""down"",""down"",""good_move"",37595,2723,1562,34872,1161,""smooth"",""right"",""right"",""good_move""]"
"246214","","<div style=""width:500px;"">
  <p>What determined the result of this run?</p>
  </div>","89","html-slider-response","34","1261702","0.0-7.0-1.4","230","1","2025-08-07 13:24:37","36c45c0696341be0efffe67d72a12abb","37.47.250.53","Mozilla/5.0 (Windows NT 10.0; Win64; x64; rv:141.0) Gecko/20100101 Firefox/141.0","","Firefox","141.0","Windows","10.0","https://app.prolific.com/","pl","66a6211743bf2623c0a8eb81","6877649eabb845cf142cd221","6894a90c5be89fb9cf41d2f2","1","66a6211743bf2623c0a8eb81","1","2025-08-07T13:45:41.090Z","","","","AttribQ","","","","","","","","","","","50","","","","","","","","","","","","","","","","","","","","","","","","","","",""
"3191","","<div style=""width:500px;"">
  <p>How much control did you have over the ball?</p>
  </div>","84","html-slider-response","35","1264896","0.0-7.0-2.4","230","1","2025-08-07 13:24:37","36c45c0696341be0efffe67d72a12abb","37.47.250.53","Mozilla/5.0 (Windows NT 10.0; Win64; x64; rv:141.0) Gecko/20100101 Firefox/141.0","","Firefox","141.0","Windows","10.0","https://app.prolific.com/","pl","66a6211743bf2623c0a8eb81","6877649eabb845cf142cd221","6894a90c5be89fb9cf41d2f2","1","66a6211743bf2623c0a8eb81","1","2025-08-07T13:45:44.284Z","","","","ControlQ","","","","","","","","","","","50","","","","","","","","","","","","","","","","","","","","","","","","","","",""
"1986","","<div style=""width:500px;"">
  <p>How would you describe your current emotional state?</p>
  </div>","9","html-slider-response","36","1266884","0.0-7.0-3.4","230","1","2025-08-07 13:24:37","36c45c0696341be0efffe67d72a12abb","37.47.250.53","Mozilla/5.0 (Windows NT 10.0; Win64; x64; rv:141.0) Gecko/20100101 Firefox/141.0","","Firefox","141.0","Windows","10.0","https://app.prolific.com/","pl","66a6211743bf2623c0a8eb81","6877649eabb845cf142cd221","6894a90c5be89fb9cf41d2f2","1","66a6211743bf2623c0a8eb81","1","2025-08-07T13:45:46.273Z","","","","StressQ","","","","","","","","","","","50","","","","","","","","","","","","","","","","","","","","","","","","","","",""
"1728","","<div style=""width:500px;"">
  <p>What best describes how you currently feel?</p>
  </div>","97","html-slider-response","37","1268616","0.0-7.0-4.4","230","1","2025-08-07 13:24:37","36c45c0696341be0efffe67d72a12abb","37.47.250.53","Mozilla/5.0 (Windows NT 10.0; Win64; x64; rv:141.0) Gecko/20100101 Firefox/141.0","","Firefox","141.0","Windows","10.0","https://app.prolific.com/","pl","66a6211743bf2623c0a8eb81","6877649eabb845cf142cd221","6894a90c5be89fb9cf41d2f2","1","66a6211743bf2623c0a8eb81","1","2025-08-07T13:45:48.004Z","","","","MotivationQ","","","","","","","","","","","50","","","","","","","","","","","","","","","","","","","","","","","","","","",""
"","","","","ctl-task-cpt","38","1294589","0.0-7.0-0.5","230","1","2025-08-07 13:24:37","36c45c0696341be0efffe67d72a12abb","37.47.250.53","Mozilla/5.0 (Windows NT 10.0; Win64; x64; rv:141.0) Gecko/20100101 Firefox/141.0","","Firefox","141.0","Windows","10.0","https://app.prolific.com/","pl","66a6211743bf2623c0a8eb81","6877649eabb845cf142cd221","6894a90c5be89fb9cf41d2f2","1","66a6211743bf2623c0a8eb81","1","2025-08-07T13:46:13.977Z","","","","","","","","","","","","","","","","win-only","3","g1:SW,g2:NE","0.5","6","0","1270374","884","5895","22961","1","4","8","6","2","8","8","30","22","0.22727272727272727","970","3000","2020","[""up"",""right""]","{""num_key_presses"":6,""num_perfect"":3,""num_errors"":0,""num_randdir"":3,""num_randdir_good_moves"":3,""num_whilered"":0,""num_whileblue"":0,""num_blue"":0,""num_good_moves"":6}","[303.22857753208706,290.92857448032925,0,302.22857753208706,290.92857448032925,111,302.22857753208706,290.92857448032925,213,302.22857753208706,290.92857448032925,317,302.22857753208706,289.92857448032925,425,443.22857753208706,186.92857448032925,532,482.22857753208706,99.92857448032925,637,482.22857753208706,99.92857448032925,747,514.228577532087,83.92857448032925,853,537.228577532087,75.92857448032925,962,538.228577532087,74.92857448032925,1071,538.228577532087,74.92857448032925,1177,538.228577532087,74.92857448032925,1282,538.228577532087,74.92857448032925,1387,538.228577532087,74.92857448032925,1498,538.228577532087,74.92857448032925,1601,538.228577532087,74.92857448032925,1709,538.228577532087,74.92857448032925,1815,538.228577532087,74.92857448032925,1924,538.228577532087,74.92857448032925,2040,538.228577532087,74.92857448032925,2148,538.228577532087,74.92857448032925,2258,538.228577532087,74.92857448032925,2367,538.228577532087,74.92857448032925,2482,538.228577532087,74.92857448032925,2594,538.228577532087,74.92857448032925,2707,538.228577532087,74.92857448032925,2816,538.228577532087,74.92857448032925,2928,538.228577532087,74.92857448032925,3043,538.228577532087,74.92857448032925,3146,538.228577532087,74.92857448032925,3254,538.228577532087,74.92857448032925,3361,538.228577532087,74.92857448032925,3468,538.228577532087,74.92857448032925,3577,538.228577532087,74.92857448032925,3688,538.228577532087,74.92857448032925,3795,538.228577532087,74.92857448032925,3895,538.228577532087,74.92857448032925,3995,538.228577532087,74.92857448032925,4104,538.228577532087,74.92857448032925,4212,538.228577532087,74.92857448032925,4321,538.228577532087,74.92857448032925,4427,538.228577532087,74.92857448032925,4537,538.228577532087,74.92857448032925,4641,538.228577532087,74.92857448032925,4744,538.228577532087,74.92857448032925,4855,538.228577532087,74.92857448032925,4956]","[1447,1447,1000,0,447,""smooth"",""up"",""up"",""good_move"",4434,2986,2346.9,1448,639.1,""oops"",""right"",""right"",""good_move"",7791,3356,2864.2,4435,491.8,""oops"",""up"",""up"",""good_move"",11057,3265,2669.9,7792,595.1,""smooth"",""right"",""right"",""good_move"",13654,2597,2024.2,11057,572.8,""oops"",""up"",""up"",""good_move"",16771,3117,2436,13654,681,""smooth"",""right"",""right"",""good_move""]"
"58005","","<div style=""width:500px;"">
  <p>What determined the result of this run?</p>
  </div>","84","html-slider-response","39","1352595","0.0-7.0-1.5","230","1","2025-08-07 13:24:37","36c45c0696341be0efffe67d72a12abb","37.47.250.53","Mozilla/5.0 (Windows NT 10.0; Win64; x64; rv:141.0) Gecko/20100101 Firefox/141.0","","Firefox","141.0","Windows","10.0","https://app.prolific.com/","pl","66a6211743bf2623c0a8eb81","6877649eabb845cf142cd221","6894a90c5be89fb9cf41d2f2","1","66a6211743bf2623c0a8eb81","1","2025-08-07T13:47:11.983Z","","","","AttribQ","","","","","","","","","","","50","","","","","","","","","","","","","","","","","","","","","","","","","","",""
"2657","","<div style=""width:500px;"">
  <p>How much control did you have over the ball?</p>
  </div>","73","html-slider-response","40","1355255","0.0-7.0-2.5","230","1","2025-08-07 13:24:37","36c45c0696341be0efffe67d72a12abb","37.47.250.53","Mozilla/5.0 (Windows NT 10.0; Win64; x64; rv:141.0) Gecko/20100101 Firefox/141.0","","Firefox","141.0","Windows","10.0","https://app.prolific.com/","pl","66a6211743bf2623c0a8eb81","6877649eabb845cf142cd221","6894a90c5be89fb9cf41d2f2","1","66a6211743bf2623c0a8eb81","1","2025-08-07T13:47:14.643Z","","","","ControlQ","","","","","","","","","","","50","","","","","","","","","","","","","","","","","","","","","","","","","","",""
"1824","","<div style=""width:500px;"">
  <p>How would you describe your current emotional state?</p>
  </div>","10","html-slider-response","41","1357082","0.0-7.0-3.5","230","1","2025-08-07 13:24:37","36c45c0696341be0efffe67d72a12abb","37.47.250.53","Mozilla/5.0 (Windows NT 10.0; Win64; x64; rv:141.0) Gecko/20100101 Firefox/141.0","","Firefox","141.0","Windows","10.0","https://app.prolific.com/","pl","66a6211743bf2623c0a8eb81","6877649eabb845cf142cd221","6894a90c5be89fb9cf41d2f2","1","66a6211743bf2623c0a8eb81","1","2025-08-07T13:47:16.470Z","","","","StressQ","","","","","","","","","","","50","","","","","","","","","","","","","","","","","","","","","","","","","","",""
"1619","","<div style=""width:500px;"">
  <p>What best describes how you currently feel?</p>
  </div>","95","html-slider-response","42","1358704","0.0-7.0-4.5","230","1","2025-08-07 13:24:37","36c45c0696341be0efffe67d72a12abb","37.47.250.53","Mozilla/5.0 (Windows NT 10.0; Win64; x64; rv:141.0) Gecko/20100101 Firefox/141.0","","Firefox","141.0","Windows","10.0","https://app.prolific.com/","pl","66a6211743bf2623c0a8eb81","6877649eabb845cf142cd221","6894a90c5be89fb9cf41d2f2","1","66a6211743bf2623c0a8eb81","1","2025-08-07T13:47:18.092Z","","","","MotivationQ","","","","","","","","","","","50","","","","","","","","","","","","","","","","","","","","","","","","","","",""
"","","","","ctl-task-cpt","43","1406083","0.0-7.0-0.6","230","1","2025-08-07 13:24:37","36c45c0696341be0efffe67d72a12abb","37.47.250.53","Mozilla/5.0 (Windows NT 10.0; Win64; x64; rv:141.0) Gecko/20100101 Firefox/141.0","","Firefox","141.0","Windows","10.0","https://app.prolific.com/","pl","66a6211743bf2623c0a8eb81","6877649eabb845cf142cd221","6894a90c5be89fb9cf41d2f2","1","66a6211743bf2623c0a8eb81","1","2025-08-07T13:48:05.471Z","","","","","","","","","","","","","","","","win-only","1","g1:NE,g2:SW","0.4","7","0","1360462","2531","7543","44368","1","4","8","6","1","1","1","31","30","0.23484848484848486","1083","3000","1595","[""up"",""right""]","{""num_key_presses"":8,""num_perfect"":4,""num_errors"":0,""num_randdir"":4,""num_randdir_good_moves"":2,""num_whilered"":0,""num_whileblue"":0,""num_blue"":4,""num_good_moves"":6}","[298.22857753208706,299.92857448032925,0,298.22857753208706,299.92857448032925,112,298.22857753208706,299.92857448032925,222,298.22857753208706,299.92857448032925,332,298.22857753208706,299.92857448032925,442,393.22857753208706,249.92857448032925,553,474.22857753208706,143.92857448032925,659,499.22857753208706,87.92857448032925,770,516.228577532087,65.92857448032925,878,524.228577532087,59.92857448032924,986,525.228577532087,58.92857448032924,1094,525.228577532087,58.92857448032924,1203,525.228577532087,58.92857448032924,1315,561.228577532087,84.92857448032925,1423,887.228577532087,218.92857448032925,1533,887.228577532087,218.92857448032925,1638,887.228577532087,218.92857448032925,1746,887.228577532087,218.92857448032925,1857,887.228577532087,218.92857448032925,1970,887.228577532087,218.92857448032925,2074,887.228577532087,218.92857448032925,2184,887.228577532087,218.92857448032925,2288,887.228577532087,218.92857448032925,2399,887.228577532087,218.92857448032925,2508,887.228577532087,218.92857448032925,2619,887.228577532087,218.92857448032925,2731,887.228577532087,218.92857448032925,2842,887.228577532087,218.92857448032925,2950,887.228577532087,218.92857448032925,3055,887.228577532087,218.92857448032925,3168,887.228577532087,218.92857448032925,3277,887.228577532087,218.92857448032925,3385,887.228577532087,218.92857448032925,3497,887.228577532087,218.92857448032925,3605,887.228577532087,218.92857448032925,3714,887.228577532087,218.92857448032925,3822,887.228577532087,218.92857448032925,3936,887.228577532087,218.92857448032925,4047,887.228577532087,218.92857448032925,4155,887.228577532087,218.92857448032925,4264,887.228577532087,218.92857448032925,4367,887.228577532087,218.92857448032925,4481,887.228577532087,218.92857448032925,4587,887.228577532087,218.92857448032925,4696,887.228577532087,218.92857448032925,4802,887.228577532087,218.92857448032925,4914]","[11091,11091,2438.1,8105,547.9,""smooth"",""up"",""up"",""good_move"",14409,3318,2208.7,11091,1109.3,""oops"",""up"",""down"",""bad_move"",17688,3279,2624.6,14409,654.4,""oops"",""up"",""right"",""good_move"",20341,2653,1829.6,17688,823.4,""oops"",""up"",""down"",""bad_move"",26866,6525,2654.7,23741,470.3,""smooth"",""up"",""up"",""good_move"",30168,3301,2128.3,26867,1172.7,""smooth"",""up"",""up"",""good_move"",33389,3221,2792.8,30168,428.2,""smooth"",""up"",""up"",""good_move"",36533,3144,2688.5,33389,455.5,""oops"",""right"",""right"",""good_move""]"
"6058","","<div style=""width:500px;"">
  <p>What determined the result of this run?</p>
  </div>","83","html-slider-response","44","1412143","0.0-7.0-1.6","230","1","2025-08-07 13:24:37","36c45c0696341be0efffe67d72a12abb","37.47.250.53","Mozilla/5.0 (Windows NT 10.0; Win64; x64; rv:141.0) Gecko/20100101 Firefox/141.0","","Firefox","141.0","Windows","10.0","https://app.prolific.com/","pl","66a6211743bf2623c0a8eb81","6877649eabb845cf142cd221","6894a90c5be89fb9cf41d2f2","1","66a6211743bf2623c0a8eb81","1","2025-08-07T13:48:11.532Z","","","","AttribQ","","","","","","","","","","","50","","","","","","","","","","","","","","","","","","","","","","","","","","",""
"2466","","<div style=""width:500px;"">
  <p>How much control did you have over the ball?</p>
  </div>","63","html-slider-response","45","1414611","0.0-7.0-2.6","230","1","2025-08-07 13:24:37","36c45c0696341be0efffe67d72a12abb","37.47.250.53","Mozilla/5.0 (Windows NT 10.0; Win64; x64; rv:141.0) Gecko/20100101 Firefox/141.0","","Firefox","141.0","Windows","10.0","https://app.prolific.com/","pl","66a6211743bf2623c0a8eb81","6877649eabb845cf142cd221","6894a90c5be89fb9cf41d2f2","1","66a6211743bf2623c0a8eb81","1","2025-08-07T13:48:13.999Z","","","","ControlQ","","","","","","","","","","","50","","","","","","","","","","","","","","","","","","","","","","","","","","",""
"1951","","<div style=""width:500px;"">
  <p>How would you describe your current emotional state?</p>
  </div>","7","html-slider-response","46","1416564","0.0-7.0-3.6","230","1","2025-08-07 13:24:37","36c45c0696341be0efffe67d72a12abb","37.47.250.53","Mozilla/5.0 (Windows NT 10.0; Win64; x64; rv:141.0) Gecko/20100101 Firefox/141.0","","Firefox","141.0","Windows","10.0","https://app.prolific.com/","pl","66a6211743bf2623c0a8eb81","6877649eabb845cf142cd221","6894a90c5be89fb9cf41d2f2","1","66a6211743bf2623c0a8eb81","1","2025-08-07T13:48:15.952Z","","","","StressQ","","","","","","","","","","","50","","","","","","","","","","","","","","","","","","","","","","","","","","",""
"4564","","<div style=""width:500px;"">
  <p>What best describes how you currently feel?</p>
  </div>","82","html-slider-response","47","1421132","0.0-7.0-4.6","230","1","2025-08-07 13:24:37","36c45c0696341be0efffe67d72a12abb","37.47.250.53","Mozilla/5.0 (Windows NT 10.0; Win64; x64; rv:141.0) Gecko/20100101 Firefox/141.0","","Firefox","141.0","Windows","10.0","https://app.prolific.com/","pl","66a6211743bf2623c0a8eb81","6877649eabb845cf142cd221","6894a90c5be89fb9cf41d2f2","1","66a6211743bf2623c0a8eb81","1","2025-08-07T13:48:20.520Z","","","","MotivationQ","","","","","","","","","","","50","","","","","","","","","","","","","","","","","","","","","","","","","","",""
"","","","","ctl-task-cpt","48","1441578","0.0-7.0-0.7","230","1","2025-08-07 13:24:37","36c45c0696341be0efffe67d72a12abb","37.47.250.53","Mozilla/5.0 (Windows NT 10.0; Win64; x64; rv:141.0) Gecko/20100101 Firefox/141.0","","Firefox","141.0","Windows","10.0","https://app.prolific.com/","pl","66a6211743bf2623c0a8eb81","6877649eabb845cf142cd221","6894a90c5be89fb9cf41d2f2","1","66a6211743bf2623c0a8eb81","1","2025-08-07T13:48:40.966Z","","","","","","","","","","","","","","","","win-only","0","g1:NW,g2:SE","0.3","8","0","1422889","894","5909","17430","1","4","4","6","1","1","1","32","31","0.24242424242424243","2483","3000","2330","[""left"",""up""]","{""num_key_presses"":4,""num_perfect"":2,""num_errors"":0,""num_randdir"":2,""num_randdir_good_moves"":2,""num_whilered"":0,""num_whileblue"":0,""num_blue"":0,""num_good_moves"":4}","[300.22857753208706,299.92857448032925,0,300.22857753208706,299.92857448032925,105,300.22857753208706,299.92857448032925,214,300.22857753208706,299.92857448032925,325,300.22857753208706,299.92857448032925,435,300.22857753208706,299.92857448032925,540,300.22857753208706,299.92857448032925,650,300.22857753208706,299.92857448032925,757,312.22857753208706,297.92857448032925,868,378.22857753208706,340.92857448032925,974,409.22857753208706,397.92857448032925,1085,428.22857753208706,429.92857448032925,1192,419.22857753208706,437.92857448032925,1301,419.22857753208706,438.92857448032925,1411,422.22857753208706,446.92857448032925,1520,460.22857753208706,473.92857448032925,1629,328.22857753208706,429.92857448032925,1739,119.22857753208706,233.92857448032925,1850,99.22857753208706,169.92857448032925,1959,71.22857753208706,131.92857448032925,2068,59.22857753208705,96.92857448032925,2178,59.22857753208705,75.92857448032925,2287,59.22857753208705,67.92857448032925,2398,59.22857753208705,64.92857448032925,2507,59.22857753208705,64.92857448032925,2616,99.22857753208706,77.92857448032925,2724,542.228577532087,224.92857448032925,2832,802.228577532087,313.92857448032925,2941,802.228577532087,313.92857448032925,3050,802.228577532087,313.92857448032925,3158,802.228577532087,313.92857448032925,3269,802.228577532087,313.92857448032925,3378,802.228577532087,313.92857448032925,3488,802.228577532087,313.92857448032925,3600,802.228577532087,313.92857448032925,3707,802.228577532087,313.92857448032925,3818,802.228577532087,313.92857448032925,3927,802.228577532087,313.92857448032925,4035,802.228577532087,313.92857448032925,4143,802.228577532087,313.92857448032925,4252,802.228577532087,313.92857448032925,4363,802.228577532087,313.92857448032925,4470,802.228577532087,313.92857448032925,4580,802.228577532087,313.92857448032925,4688,802.228577532087,313.92857448032925,4798,802.228577532087,313.92857448032925,4907]","[1598,1598,1000,0,598,""smooth"",""up"",""up"",""good_move"",4716,3118,2463,1598,655,""oops"",""left"",""left"",""good_move"",7920,3204,1963.5,4716,1240.5,""oops"",""left"",""up"",""good_move"",11255,3335,2815.4,7920,519.6,""smooth"",""left"",""left"",""good_move""]"
"4581","","<div style=""width:500px;"">
  <p>What determined the result of this run?</p>
  </div>","81","html-slider-response","49","1446160","0.0-7.0-1.7","230","1","2025-08-07 13:24:37","36c45c0696341be0efffe67d72a12abb","37.47.250.53","Mozilla/5.0 (Windows NT 10.0; Win64; x64; rv:141.0) Gecko/20100101 Firefox/141.0","","Firefox","141.0","Windows","10.0","https://app.prolific.com/","pl","66a6211743bf2623c0a8eb81","6877649eabb845cf142cd221","6894a90c5be89fb9cf41d2f2","1","66a6211743bf2623c0a8eb81","1","2025-08-07T13:48:45.548Z","","","","AttribQ","","","","","","","","","","","50","","","","","","","","","","","","","","","","","","","","","","","","","","",""
"1762","","<div style=""width:500px;"">
  <p>How much control did you have over the ball?</p>
  </div>","79","html-slider-response","50","1447923","0.0-7.0-2.7","230","1","2025-08-07 13:24:37","36c45c0696341be0efffe67d72a12abb","37.47.250.53","Mozilla/5.0 (Windows NT 10.0; Win64; x64; rv:141.0) Gecko/20100101 Firefox/141.0","","Firefox","141.0","Windows","10.0","https://app.prolific.com/","pl","66a6211743bf2623c0a8eb81","6877649eabb845cf142cd221","6894a90c5be89fb9cf41d2f2","1","66a6211743bf2623c0a8eb81","1","2025-08-07T13:48:47.311Z","","","","ControlQ","","","","","","","","","","","50","","","","","","","","","","","","","","","","","","","","","","","","","","",""
"1615","","<div style=""width:500px;"">
  <p>How would you describe your current emotional state?</p>
  </div>","12","html-slider-response","51","1449542","0.0-7.0-3.7","230","1","2025-08-07 13:24:37","36c45c0696341be0efffe67d72a12abb","37.47.250.53","Mozilla/5.0 (Windows NT 10.0; Win64; x64; rv:141.0) Gecko/20100101 Firefox/141.0","","Firefox","141.0","Windows","10.0","https://app.prolific.com/","pl","66a6211743bf2623c0a8eb81","6877649eabb845cf142cd221","6894a90c5be89fb9cf41d2f2","1","66a6211743bf2623c0a8eb81","1","2025-08-07T13:48:48.930Z","","","","StressQ","","","","","","","","","","","50","","","","","","","","","","","","","","","","","","","","","","","","","","",""
"1615","","<div style=""width:500px;"">
  <p>What best describes how you currently feel?</p>
  </div>","97","html-slider-response","52","1451160","0.0-7.0-4.7","230","1","2025-08-07 13:24:37","36c45c0696341be0efffe67d72a12abb","37.47.250.53","Mozilla/5.0 (Windows NT 10.0; Win64; x64; rv:141.0) Gecko/20100101 Firefox/141.0","","Firefox","141.0","Windows","10.0","https://app.prolific.com/","pl","66a6211743bf2623c0a8eb81","6877649eabb845cf142cd221","6894a90c5be89fb9cf41d2f2","1","66a6211743bf2623c0a8eb81","1","2025-08-07T13:48:50.548Z","","","","MotivationQ","","","","","","","","","","","50","","","","","","","","","","","","","","","","","","","","","","","","","","",""
"","","","","ctl-task-cpt","53","1528794","0.0-7.0-0.8","230","1","2025-08-07 13:24:37","36c45c0696341be0efffe67d72a12abb","37.47.250.53","Mozilla/5.0 (Windows NT 10.0; Win64; x64; rv:141.0) Gecko/20100101 Firefox/141.0","","Firefox","141.0","Windows","10.0","https://app.prolific.com/","pl","66a6211743bf2623c0a8eb81","6877649eabb845cf142cd221","6894a90c5be89fb9cf41d2f2","1","66a6211743bf2623c0a8eb81","1","2025-08-07T13:50:08.182Z","","","","","","","","","","","","","","","","win-only","1","g1:NE,g2:SW","0.4","9","0","1452917","813","5825","74618","1","4","8","6","2","8","7","39","32","0.29545454545454547","1009","3000","645","[""down"",""left""]","{""num_key_presses"":18,""num_perfect"":7,""num_errors"":1,""num_randdir"":10,""num_randdir_good_moves"":5,""num_whilered"":0,""num_whileblue"":1,""num_blue"":5,""num_good_moves"":12}","[293.22857753208706,300.92857448032925,0,293.22857753208706,300.92857448032925,100,293.22857753208706,300.92857448032925,205,293.22857753208706,300.92857448032925,312,293.22857753208706,300.92857448032925,424,293.22857753208706,300.92857448032925,536,165.22857753208706,394.92857448032925,642,124.22857753208706,452.92857448032925,742,94.22857753208706,507.92857448032925,846,63.22857753208705,529.9285744803292,946,63.22857753208705,529.9285744803292,1052,63.22857753208705,529.9285744803292,1159,101.22857753208706,527.9285744803292,1264,927.228577532087,617.9285744803292,1375,978.228577532087,632.9285744803292,1479,978.228577532087,632.9285744803292,1590,978.228577532087,632.9285744803292,1690,978.228577532087,632.9285744803292,1795,978.228577532087,632.9285744803292,1896,978.228577532087,632.9285744803292,2007,978.228577532087,632.9285744803292,2120,978.228577532087,632.9285744803292,2225,978.228577532087,632.9285744803292,2329,978.228577532087,632.9285744803292,2432,978.228577532087,632.9285744803292,2535,978.228577532087,632.9285744803292,2646,978.228577532087,632.9285744803292,2749,978.228577532087,632.9285744803292,2858,978.228577532087,632.9285744803292,2958,978.228577532087,632.9285744803292,3067,978.228577532087,632.9285744803292,3172,978.228577532087,632.9285744803292,3287,978.228577532087,632.9285744803292,3388,978.228577532087,632.9285744803292,3500,978.228577532087,632.9285744803292,3604,978.228577532087,632.9285744803292,3710,978.228577532087,632.9285744803292,3814,978.228577532087,632.9285744803292,3919,978.228577532087,632.9285744803292,4025,978.228577532087,632.9285744803292,4134,978.228577532087,632.9285744803292,4244,978.228577532087,632.9285744803292,4352,978.228577532087,632.9285744803292,4462,978.228577532087,632.9285744803292,4575,978.228577532087,632.9285744803292,4682,978.228577532087,632.9285744803292,4789,978.228577532087,632.9285744803292,4889,978.228577532087,632.9285744803292,5000]","[1527,1527,1000,0,527,""oops"",""down"",""left"",""good_move"",7902,6375,2173.3,5235,493.7,""smooth"",""down"",""down"",""good_move"",10894,2993,2491,7902,502,""oops"",""down"",""down"",""good_move"",14440,3545,3037.8,10895,507.2,""oops"",""left"",""right"",""bad_move"",17715,3275,2811.9,14440,463.1,""oops"",""down"",""left"",""good_move"",28322,10606,2246.6,25561,514.4,""smooth"",""down"",""down"",""good_move"",30978,2656,2232.1,28322,423.9,""oops"",""left"",""right"",""bad_move"",34097,3119,2706.5,30978,412.5,""oops"",""left"",""right"",""bad_move"",37058,2961,2590,34097,371,""while_blue"",""left"",""right"",""bad_move"",40025,2966,2554.5,37059,411.5,""smooth"",""left"",""left"",""good_move"",47121,7095,2926.1,43731,463.9,""smooth"",""left"",""left"",""good_move"",50301,3179,2463.2,47122,715.8,""oops"",""left"",""up"",""bad_move"",53619,3318,2805.8,50301,512.2,""oops"",""left"",""down"",""good_move"",55901,2282,1802.3,53619,479.7,""smooth"",""left"",""left"",""good_move"",59007,3106,2227.4,55901,878.6,""oops"",""left"",""right"",""bad_move"",62465,3457,3030.2,59008,426.8,""oops"",""left"",""left"",""good_move"",65472,3006,1838.6,62466,1167.4,""smooth"",""left"",""left"",""good_move"",68526,3054,1759.3,65472,1294.7,""smooth"",""left"",""left"",""good_move""]"
"72550","","<div style=""width:500px;"">
  <p>What determined the result of this run?</p>
  </div>","78","html-slider-response","54","1601345","0.0-7.0-1.8","230","1","2025-08-07 13:24:37","36c45c0696341be0efffe67d72a12abb","37.47.250.53","Mozilla/5.0 (Windows NT 10.0; Win64; x64; rv:141.0) Gecko/20100101 Firefox/141.0","","Firefox","141.0","Windows","10.0","https://app.prolific.com/","pl","66a6211743bf2623c0a8eb81","6877649eabb845cf142cd221","6894a90c5be89fb9cf41d2f2","1","66a6211743bf2623c0a8eb81","1","2025-08-07T13:51:20.733Z","","","","AttribQ","","","","","","","","","","","50","","","","","","","","","","","","","","","","","","","","","","","","","","",""
"1589","","<div style=""width:500px;"">
  <p>How much control did you have over the ball?</p>
  </div>","69","html-slider-response","55","1602937","0.0-7.0-2.8","230","1","2025-08-07 13:24:37","36c45c0696341be0efffe67d72a12abb","37.47.250.53","Mozilla/5.0 (Windows NT 10.0; Win64; x64; rv:141.0) Gecko/20100101 Firefox/141.0","","Firefox","141.0","Windows","10.0","https://app.prolific.com/","pl","66a6211743bf2623c0a8eb81","6877649eabb845cf142cd221","6894a90c5be89fb9cf41d2f2","1","66a6211743bf2623c0a8eb81","1","2025-08-07T13:51:22.326Z","","","","ControlQ","","","","","","","","","","","50","","","","","","","","","","","","","","","","","","","","","","","","","","",""
"1865","","<div style=""width:500px;"">
  <p>How would you describe your current emotional state?</p>
  </div>","5","html-slider-response","56","1604806","0.0-7.0-3.8","230","1","2025-08-07 13:24:37","36c45c0696341be0efffe67d72a12abb","37.47.250.53","Mozilla/5.0 (Windows NT 10.0; Win64; x64; rv:141.0) Gecko/20100101 Firefox/141.0","","Firefox","141.0","Windows","10.0","https://app.prolific.com/","pl","66a6211743bf2623c0a8eb81","6877649eabb845cf142cd221","6894a90c5be89fb9cf41d2f2","1","66a6211743bf2623c0a8eb81","1","2025-08-07T13:51:24.194Z","","","","StressQ","","","","","","","","","","","50","","","","","","","","","","","","","","","","","","","","","","","","","","",""
"2208","","<div style=""width:500px;"">
  <p>What best describes how you currently feel?</p>
  </div>","96","html-slider-response","57","1607016","0.0-7.0-4.8","230","1","2025-08-07 13:24:37","36c45c0696341be0efffe67d72a12abb","37.47.250.53","Mozilla/5.0 (Windows NT 10.0; Win64; x64; rv:141.0) Gecko/20100101 Firefox/141.0","","Firefox","141.0","Windows","10.0","https://app.prolific.com/","pl","66a6211743bf2623c0a8eb81","6877649eabb845cf142cd221","6894a90c5be89fb9cf41d2f2","1","66a6211743bf2623c0a8eb81","1","2025-08-07T13:51:26.404Z","","","","MotivationQ","","","","","","","","","","","50","","","","","","","","","","","","","","","","","","","","","","","","","","",""
"","","","","ctl-task-cpt","58","1643420","0.0-7.0-0.9","230","1","2025-08-07 13:24:37","36c45c0696341be0efffe67d72a12abb","37.47.250.53","Mozilla/5.0 (Windows NT 10.0; Win64; x64; rv:141.0) Gecko/20100101 Firefox/141.0","","Firefox","141.0","Windows","10.0","https://app.prolific.com/","pl","66a6211743bf2623c0a8eb81","6877649eabb845cf142cd221","6894a90c5be89fb9cf41d2f2","1","66a6211743bf2623c0a8eb81","1","2025-08-07T13:52:02.808Z","","","","","","","","","","","","","","","","win-only","0","g1:NW,g2:SE","0.5","10","0","1608773","879","5880","33389","1","4","4","6","1","1","0","39","39","0.29545454545454547","1584","3000","2050","[""left"",""up""]","{""num_key_presses"":8,""num_perfect"":4,""num_errors"":1,""num_randdir"":3,""num_randdir_good_moves"":2,""num_whilered"":0,""num_whileblue"":1,""num_blue"":2,""num_good_moves"":6}","[297.22857753208706,297.92857448032925,0,297.22857753208706,297.92857448032925,105,297.22857753208706,297.92857448032925,217,297.22857753208706,297.92857448032925,327,297.22857753208706,297.92857448032925,441,321.22857753208706,318.92857448032925,554,342.22857753208706,331.92857448032925,667,191.22857753208706,211.92857448032925,778,96.22857753208706,116.92857448032925,891,76.22857753208706,85.92857448032925,1002,59.22857753208705,63.92857448032924,1116,59.22857753208705,61.92857448032924,1226,59.22857753208705,61.92857448032924,1338,59.22857753208705,61.92857448032924,1450,59.22857753208705,61.92857448032924,1562,59.22857753208705,61.92857448032924,1674,59.22857753208705,61.92857448032924,1786,249.22857753208706,175.92857448032925,1899,818.228577532087,332.92857448032925,2010,819.228577532087,332.92857448032925,2122,819.228577532087,332.92857448032925,2234,819.228577532087,332.92857448032925,2346,819.228577532087,332.92857448032925,2458,819.228577532087,332.92857448032925,2570,819.228577532087,332.92857448032925,2681,819.228577532087,332.92857448032925,2798,819.228577532087,332.92857448032925,2908,819.228577532087,332.92857448032925,3018,819.228577532087,332.92857448032925,3131,819.228577532087,332.92857448032925,3241,819.228577532087,332.92857448032925,3354,819.228577532087,332.92857448032925,3466,819.228577532087,332.92857448032925,3580,819.228577532087,332.92857448032925,3691,819.228577532087,332.92857448032925,3804,819.228577532087,332.92857448032925,3914,819.228577532087,332.92857448032925,4026,819.228577532087,332.92857448032925,4138,819.228577532087,332.92857448032925,4250,819.228577532087,332.92857448032925,4363,819.228577532087,332.92857448032925,4475,819.228577532087,332.92857448032925,4587,819.228577532087,332.92857448032925,4698,819.228577532087,332.92857448032925,4809,819.228577532087,332.92857448032925,4922]","[1450,1450,1000,0,450,""smooth"",""up"",""up"",""good_move"",4619,3169,2121.4,1450,1047.6,""oops"",""left"",""up"",""good_move"",7721,3102,2475.9,4619,626.1,""oops"",""left"",""right"",""bad_move"",10464,2743,2379.3,7722,362.7,""smooth"",""left"",""left"",""good_move"",13909,3445,3034.2,10464,410.8,""smooth"",""left"",""left"",""good_move"",17008,3099,2715,13909,384,""while_blue"",""left"",""right"",""bad_move"",20300,3292,2823.4,17008,468.6,""smooth"",""left"",""left"",""good_move"",27227,6927,2643.3,24023,560.7,""oops"",""left"",""left"",""good_move""]"
"2241","","<div style=""width:500px;"">
  <p>What determined the result of this run?</p>
  </div>","73","html-slider-response","59","1645662","0.0-7.0-1.9","230","1","2025-08-07 13:24:37","36c45c0696341be0efffe67d72a12abb","37.47.250.53","Mozilla/5.0 (Windows NT 10.0; Win64; x64; rv:141.0) Gecko/20100101 Firefox/141.0","","Firefox","141.0","Windows","10.0","https://app.prolific.com/","pl","66a6211743bf2623c0a8eb81","6877649eabb845cf142cd221","6894a90c5be89fb9cf41d2f2","1","66a6211743bf2623c0a8eb81","1","2025-08-07T13:52:05.050Z","","","","AttribQ","","","","","","","","","","","50","","","","","","","","","","","","","","","","","","","","","","","","","","",""
"1345","","<div style=""width:500px;"">
  <p>How much control did you have over the ball?</p>
  </div>","60","html-slider-response","60","1647009","0.0-7.0-2.9","230","1","2025-08-07 13:24:37","36c45c0696341be0efffe67d72a12abb","37.47.250.53","Mozilla/5.0 (Windows NT 10.0; Win64; x64; rv:141.0) Gecko/20100101 Firefox/141.0","","Firefox","141.0","Windows","10.0","https://app.prolific.com/","pl","66a6211743bf2623c0a8eb81","6877649eabb845cf142cd221","6894a90c5be89fb9cf41d2f2","1","66a6211743bf2623c0a8eb81","1","2025-08-07T13:52:06.397Z","","","","ControlQ","","","","","","","","","","","50","","","","","","","","","","","","","","","","","","","","","","","","","","",""
"2098","","<div style=""width:500px;"">
  <p>How would you describe your current emotional state?</p>
  </div>","38","html-slider-response","61","1649110","0.0-7.0-3.9","230","1","2025-08-07 13:24:37","36c45c0696341be0efffe67d72a12abb","37.47.250.53","Mozilla/5.0 (Windows NT 10.0; Win64; x64; rv:141.0) Gecko/20100101 Firefox/141.0","","Firefox","141.0","Windows","10.0","https://app.prolific.com/","pl","66a6211743bf2623c0a8eb81","6877649eabb845cf142cd221","6894a90c5be89fb9cf41d2f2","1","66a6211743bf2623c0a8eb81","1","2025-08-07T13:52:08.498Z","","","","StressQ","","","","","","","","","","","50","","","","","","","","","","","","","","","","","","","","","","","","","","",""
"1855","","<div style=""width:500px;"">
  <p>What best describes how you currently feel?</p>
  </div>","86","html-slider-response","62","1650967","0.0-7.0-4.9","230","1","2025-08-07 13:24:37","36c45c0696341be0efffe67d72a12abb","37.47.250.53","Mozilla/5.0 (Windows NT 10.0; Win64; x64; rv:141.0) Gecko/20100101 Firefox/141.0","","Firefox","141.0","Windows","10.0","https://app.prolific.com/","pl","66a6211743bf2623c0a8eb81","6877649eabb845cf142cd221","6894a90c5be89fb9cf41d2f2","1","66a6211743bf2623c0a8eb81","1","2025-08-07T13:52:10.355Z","","","","MotivationQ","","","","","","","","","","","50","","","","","","","","","","","","","","","","","","","","","","","","","","",""
"","","","","ctl-task-cpt","63","1689909","0.0-7.0-0.10","230","1","2025-08-07 13:24:37","36c45c0696341be0efffe67d72a12abb","37.47.250.53","Mozilla/5.0 (Windows NT 10.0; Win64; x64; rv:141.0) Gecko/20100101 Firefox/141.0","","Firefox","141.0","Windows","10.0","https://app.prolific.com/","pl","66a6211743bf2623c0a8eb81","6877649eabb845cf142cd221","6894a90c5be89fb9cf41d2f2","1","66a6211743bf2623c0a8eb81","1","2025-08-07T13:52:49.297Z","","","","","","","","","","","","","","","","win-only","0","g1:NW,g2:SE","0.6","11","0","1652725","587","5589","35928","1","4","8","6","2","8","8","47","39","0.3560606060606061","955","3000","1545","[""down"",""right""]","{""num_key_presses"":8,""num_perfect"":5,""num_errors"":0,""num_randdir"":3,""num_randdir_good_moves"":2,""num_whilered"":0,""num_whileblue"":0,""num_blue"":2,""num_good_moves"":7}","[299.22857753208706,304.92857448032925,1,299.22857753208706,303.92857448032925,103,299.22857753208706,303.92857448032925,207,299.22857753208706,303.92857448032925,316,299.22857753208706,303.92857448032925,422,426.22857753208706,417.92857448032925,532,470.22857753208706,478.92857448032925,638,496.22857753208706,517.9285744803292,743,518.228577532087,538.9285744803292,846,520.228577532087,538.9285744803292,956,520.228577532087,538.9285744803292,1068,547.228577532087,520.9285744803292,1183,677.228577532087,359.92857448032925,1290,684.228577532087,354.92857448032925,1402,684.228577532087,354.92857448032925,1514,684.228577532087,354.92857448032925,1627,684.228577532087,354.92857448032925,1739,684.228577532087,354.92857448032925,1853,684.228577532087,354.92857448032925,1964,684.228577532087,354.92857448032925,2076,684.228577532087,354.92857448032925,2190,684.228577532087,354.92857448032925,2303,684.228577532087,354.92857448032925,2413,684.228577532087,354.92857448032925,2514,684.228577532087,354.92857448032925,2622,684.228577532087,354.92857448032925,2735,684.228577532087,354.92857448032925,2847,684.228577532087,354.92857448032925,2948,684.228577532087,354.92857448032925,3055,684.228577532087,354.92857448032925,3165,684.228577532087,354.92857448032925,3278,684.228577532087,354.92857448032925,3388,684.228577532087,354.92857448032925,3500,684.228577532087,354.92857448032925,3615,684.228577532087,354.92857448032925,3724,684.228577532087,354.92857448032925,3837,684.228577532087,354.92857448032925,3947,684.228577532087,354.92857448032925,4060,684.228577532087,354.92857448032925,4170,684.228577532087,354.92857448032925,4282,684.228577532087,354.92857448032925,4395,684.228577532087,354.92857448032925,4506,684.228577532087,354.92857448032925,4618,684.228577532087,354.92857448032925,4729,684.228577532087,354.92857448032925,4843,684.228577532087,354.92857448032925,4954]","[8388,8388,2721.7,5028,638.3,""oops"",""down"",""left"",""bad_move"",11618,3229,2649.2,8389,579.8,""smooth"",""down"",""down"",""good_move"",14567,2949,2435.4,11618,513.6,""smooth"",""down"",""down"",""good_move"",17438,2871,2354.2,14567,516.8,""smooth"",""right"",""right"",""good_move"",19965,2527,1990.1,17438,536.9,""smooth"",""down"",""down"",""good_move"",22890,2925,2515.9,19965,409.1,""oops"",""right"",""right"",""good_move"",26499,3608,2919.7,22891,688.3,""smooth"",""right"",""right"",""good_move"",30048,3549,2702,26499,847,""oops"",""right"",""right"",""good_move""]"
"3009","","<div style=""width:500px;"">
  <p>What determined the result of this run?</p>
  </div>","80","html-slider-response","64","1692921","0.0-7.0-1.10","230","1","2025-08-07 13:24:37","36c45c0696341be0efffe67d72a12abb","37.47.250.53","Mozilla/5.0 (Windows NT 10.0; Win64; x64; rv:141.0) Gecko/20100101 Firefox/141.0","","Firefox","141.0","Windows","10.0","https://app.prolific.com/","pl","66a6211743bf2623c0a8eb81","6877649eabb845cf142cd221","6894a90c5be89fb9cf41d2f2","1","66a6211743bf2623c0a8eb81","1","2025-08-07T13:52:52.309Z","","","","AttribQ","","","","","","","","","","","50","","","","","","","","","","","","","","","","","","","","","","","","","","",""
"1409","","<div style=""width:500px;"">
  <p>How much control did you have over the ball?</p>
  </div>","68","html-slider-response","65","1694331","0.0-7.0-2.10","230","1","2025-08-07 13:24:37","36c45c0696341be0efffe67d72a12abb","37.47.250.53","Mozilla/5.0 (Windows NT 10.0; Win64; x64; rv:141.0) Gecko/20100101 Firefox/141.0","","Firefox","141.0","Windows","10.0","https://app.prolific.com/","pl","66a6211743bf2623c0a8eb81","6877649eabb845cf142cd221","6894a90c5be89fb9cf41d2f2","1","66a6211743bf2623c0a8eb81","1","2025-08-07T13:52:53.720Z","","","","ControlQ","","","","","","","","","","","50","","","","","","","","","","","","","","","","","","","","","","","","","","",""
"1761","","<div style=""width:500px;"">
  <p>How would you describe your current emotional state?</p>
  </div>","19","html-slider-response","66","1696095","0.0-7.0-3.10","230","1","2025-08-07 13:24:37","36c45c0696341be0efffe67d72a12abb","37.47.250.53","Mozilla/5.0 (Windows NT 10.0; Win64; x64; rv:141.0) Gecko/20100101 Firefox/141.0","","Firefox","141.0","Windows","10.0","https://app.prolific.com/","pl","66a6211743bf2623c0a8eb81","6877649eabb845cf142cd221","6894a90c5be89fb9cf41d2f2","1","66a6211743bf2623c0a8eb81","1","2025-08-07T13:52:55.483Z","","","","StressQ","","","","","","","","","","","50","","","","","","","","","","","","","","","","","","","","","","","","","","",""
"1776","","<div style=""width:500px;"">
  <p>What best describes how you currently feel?</p>
  </div>","96","html-slider-response","67","1697874","0.0-7.0-4.10","230","1","2025-08-07 13:24:37","36c45c0696341be0efffe67d72a12abb","37.47.250.53","Mozilla/5.0 (Windows NT 10.0; Win64; x64; rv:141.0) Gecko/20100101 Firefox/141.0","","Firefox","141.0","Windows","10.0","https://app.prolific.com/","pl","66a6211743bf2623c0a8eb81","6877649eabb845cf142cd221","6894a90c5be89fb9cf41d2f2","1","66a6211743bf2623c0a8eb81","1","2025-08-07T13:52:57.262Z","","","","MotivationQ","","","","","","","","","","","50","","","","","","","","","","","","","","","","","","","","","","","","","","",""
"","","","","ctl-task-cpt","68","1720879","0.0-7.0-0.11","230","1","2025-08-07 13:24:37","36c45c0696341be0efffe67d72a12abb","37.47.250.53","Mozilla/5.0 (Windows NT 10.0; Win64; x64; rv:141.0) Gecko/20100101 Firefox/141.0","","Firefox","141.0","Windows","10.0","https://app.prolific.com/","pl","66a6211743bf2623c0a8eb81","6877649eabb845cf142cd221","6894a90c5be89fb9cf41d2f2","1","66a6211743bf2623c0a8eb81","1","2025-08-07T13:53:20.267Z","","","","","","","","","","","","","","","","win-only","1","g1:NE,g2:SW","0.7","12","0","1699632","875","5888","19988","1","4","4","6","1","1","1","48","47","0.36363636363636365","1025","3000","2385","[""up"",""right""]","{""num_key_presses"":4,""num_perfect"":4,""num_errors"":0,""num_randdir"":0,""num_randdir_good_moves"":0,""num_whilered"":0,""num_whileblue"":0,""num_blue"":1,""num_good_moves"":4}","[298.22857753208706,295.92857448032925,0,298.22857753208706,295.92857448032925,107,298.22857753208706,295.92857448032925,215,298.22857753208706,295.92857448032925,324,298.22857753208706,295.92857448032925,428,399.22857753208706,192.92857448032925,533,442.22857753208706,114.92857448032925,641,459.22857753208706,100.92857448032925,746,471.22857753208706,88.92857448032925,852,513.228577532087,59.92857448032924,960,513.228577532087,59.92857448032924,1062,513.228577532087,59.92857448032924,1169,513.228577532087,59.92857448032924,1279,725.228577532087,95.92857448032925,1390,854.228577532087,115.92857448032925,1501,854.228577532087,115.92857448032925,1603,854.228577532087,115.92857448032925,1706,854.228577532087,115.92857448032925,1812,854.228577532087,115.92857448032925,1922,854.228577532087,115.92857448032925,2025,854.228577532087,115.92857448032925,2132,854.228577532087,115.92857448032925,2238,854.228577532087,115.92857448032925,2342,854.228577532087,115.92857448032925,2454,854.228577532087,115.92857448032925,2560,854.228577532087,115.92857448032925,2673,854.228577532087,115.92857448032925,2777,854.228577532087,115.92857448032925,2887,854.228577532087,115.92857448032925,2996,854.228577532087,115.92857448032925,3108,854.228577532087,115.92857448032925,3213,854.228577532087,115.92857448032925,3320,854.228577532087,115.92857448032925,3425,854.228577532087,115.92857448032925,3535,854.228577532087,115.92857448032925,3641,854.228577532087,115.92857448032925,3748,854.228577532087,115.92857448032925,3854,854.228577532087,115.92857448032925,3962,854.228577532087,115.92857448032925,4070,854.228577532087,115.92857448032925,4174,854.228577532087,115.92857448032925,4279,854.228577532087,115.92857448032925,4386,854.228577532087,115.92857448032925,4489,854.228577532087,115.92857448032925,4605,854.228577532087,115.92857448032925,4712,854.228577532087,115.92857448032925,4813,854.228577532087,115.92857448032925,4920]","[4663,4663,2108.4,2014,540.6,""smooth"",""up"",""up"",""good_move"",7799,3136,2443.8,4663,692.2,""smooth"",""right"",""right"",""good_move"",10807,3008,2498.1,7799,509.9,""smooth"",""up"",""up"",""good_move"",13836,3029,2255.1,10807,773.9,""smooth"",""right"",""right"",""good_move""]"
"3007","","<div style=""width:500px;"">
  <p>What determined the result of this run?</p>
  </div>","76","html-slider-response","69","1723887","0.0-7.0-1.11","230","1","2025-08-07 13:24:37","36c45c0696341be0efffe67d72a12abb","37.47.250.53","Mozilla/5.0 (Windows NT 10.0; Win64; x64; rv:141.0) Gecko/20100101 Firefox/141.0","","Firefox","141.0","Windows","10.0","https://app.prolific.com/","pl","66a6211743bf2623c0a8eb81","6877649eabb845cf142cd221","6894a90c5be89fb9cf41d2f2","1","66a6211743bf2623c0a8eb81","1","2025-08-07T13:53:23.275Z","","","","AttribQ","","","","","","","","","","","50","","","","","","","","","","","","","","","","","","","","","","","","","","",""
"1453","","<div style=""width:500px;"">
  <p>How much control did you have over the ball?</p>
  </div>","87","html-slider-response","70","1725342","0.0-7.0-2.11","230","1","2025-08-07 13:24:37","36c45c0696341be0efffe67d72a12abb","37.47.250.53","Mozilla/5.0 (Windows NT 10.0; Win64; x64; rv:141.0) Gecko/20100101 Firefox/141.0","","Firefox","141.0","Windows","10.0","https://app.prolific.com/","pl","66a6211743bf2623c0a8eb81","6877649eabb845cf142cd221","6894a90c5be89fb9cf41d2f2","1","66a6211743bf2623c0a8eb81","1","2025-08-07T13:53:24.730Z","","","","ControlQ","","","","","","","","","","","50","","","","","","","","","","","","","","","","","","","","","","","","","","",""
"2157","","<div style=""width:500px;"">
  <p>How would you describe your current emotional state?</p>
  </div>","5","html-slider-response","71","1727503","0.0-7.0-3.11","230","1","2025-08-07 13:24:37","36c45c0696341be0efffe67d72a12abb","37.47.250.53","Mozilla/5.0 (Windows NT 10.0; Win64; x64; rv:141.0) Gecko/20100101 Firefox/141.0","","Firefox","141.0","Windows","10.0","https://app.prolific.com/","pl","66a6211743bf2623c0a8eb81","6877649eabb845cf142cd221","6894a90c5be89fb9cf41d2f2","1","66a6211743bf2623c0a8eb81","1","2025-08-07T13:53:26.891Z","","","","StressQ","","","","","","","","","","","50","","","","","","","","","","","","","","","","","","","","","","","","","","",""
"1796","","<div style=""width:500px;"">
  <p>What best describes how you currently feel?</p>
  </div>","98","html-slider-response","72","1729299","0.0-7.0-4.11","230","1","2025-08-07 13:24:37","36c45c0696341be0efffe67d72a12abb","37.47.250.53","Mozilla/5.0 (Windows NT 10.0; Win64; x64; rv:141.0) Gecko/20100101 Firefox/141.0","","Firefox","141.0","Windows","10.0","https://app.prolific.com/","pl","66a6211743bf2623c0a8eb81","6877649eabb845cf142cd221","6894a90c5be89fb9cf41d2f2","1","66a6211743bf2623c0a8eb81","1","2025-08-07T13:53:28.687Z","","","","MotivationQ","","","","","","","","","","","50","","","","","","","","","","","","","","","","","","","","","","","","","","",""
"","","","","ctl-task-cpt","73","1777875","0.0-7.0-0.12","230","1","2025-08-07 13:24:37","36c45c0696341be0efffe67d72a12abb","37.47.250.53","Mozilla/5.0 (Windows NT 10.0; Win64; x64; rv:141.0) Gecko/20100101 Firefox/141.0","","Firefox","141.0","Windows","10.0","https://app.prolific.com/","pl","66a6211743bf2623c0a8eb81","6877649eabb845cf142cd221","6894a90c5be89fb9cf41d2f2","1","66a6211743bf2623c0a8eb81","1","2025-08-07T13:54:17.263Z","","","","","","","","","","","","","","","","win-only","1","g1:NE,g2:SW","0.8","13","0","1731056","652","5668","45563","1","4","8","6","2","8","8","56","48","0.42424242424242425","1011","3000","1530","[""down"",""left""]","{""num_key_presses"":10,""num_perfect"":8,""num_errors"":0,""num_randdir"":2,""num_randdir_good_moves"":0,""num_whilered"":0,""num_whileblue"":0,""num_blue"":3,""num_good_moves"":8}","[299.22857753208706,296.92857448032925,0,299.22857753208706,296.92857448032925,109,299.22857753208706,296.92857448032925,218,299.22857753208706,296.92857448032925,331,299.22857753208706,296.92857448032925,442,299.22857753208706,296.92857448032925,553,128.22857753208706,509.92857448032925,666,118.22857753208706,539.9285744803292,778,72.22857753208706,560.9285744803292,891,71.22857753208706,560.9285744803292,1002,71.22857753208706,560.9285744803292,1113,71.22857753208706,560.9285744803292,1224,457.22857753208706,560.9285744803292,1339,951.228577532087,559.9285744803292,1450,951.228577532087,559.9285744803292,1561,951.228577532087,559.9285744803292,1673,951.228577532087,559.9285744803292,1785,951.228577532087,559.9285744803292,1897,951.228577532087,559.9285744803292,2009,951.228577532087,559.9285744803292,2123,951.228577532087,559.9285744803292,2235,951.228577532087,559.9285744803292,2348,951.228577532087,559.9285744803292,2459,951.228577532087,559.9285744803292,2572,951.228577532087,559.9285744803292,2683,951.228577532087,559.9285744803292,2795,951.228577532087,559.9285744803292,2907,951.228577532087,559.9285744803292,3018,951.228577532087,559.9285744803292,3131,951.228577532087,559.9285744803292,3242,951.228577532087,559.9285744803292,3355,951.228577532087,559.9285744803292,3466,951.228577532087,559.9285744803292,3578,951.228577532087,559.9285744803292,3689,951.228577532087,559.9285744803292,3801,951.228577532087,559.9285744803292,3913,951.228577532087,559.9285744803292,4026,951.228577532087,559.9285744803292,4137,951.228577532087,559.9285744803292,4248,951.228577532087,559.9285744803292,4360,951.228577532087,559.9285744803292,4471,951.228577532087,559.9285744803292,4583,951.228577532087,559.9285744803292,4696,951.228577532087,559.9285744803292,4807,951.228577532087,559.9285744803292,4920]","[1427,1428,1000,0,428,""oops"",""down"",""up"",""bad_move"",7898,6470,2248.7,5134,515.3,""smooth"",""down"",""down"",""good_move"",13610,5712,2356.4,10817,436.6,""oops"",""down"",""right"",""bad_move"",16954,3344,2958.7,13610,385.3,""smooth"",""down"",""down"",""good_move"",23606,6652,2426.7,20700,479.3,""smooth"",""down"",""down"",""good_move"",26383,2777,2218.3,23606,558.7,""smooth"",""left"",""left"",""good_move"",29587,3204,2687.3,26383,516.7,""smooth"",""left"",""left"",""good_move"",33101,3514,2755.2,29587,758.8,""smooth"",""down"",""down"",""good_move"",36518,3417,3053.5,33101,363.5,""smooth"",""left"",""left"",""good_move"",39594,3075,1742.4,36519,1332.6,""smooth"",""left"",""left"",""good_move""]"
"3550","","<div style=""width:500px;"">
  <p>What determined the result of this run?</p>
  </div>","80","html-slider-response","74","1781427","0.0-7.0-1.12","230","1","2025-08-07 13:24:37","36c45c0696341be0efffe67d72a12abb","37.47.250.53","Mozilla/5.0 (Windows NT 10.0; Win64; x64; rv:141.0) Gecko/20100101 Firefox/141.0","","Firefox","141.0","Windows","10.0","https://app.prolific.com/","pl","66a6211743bf2623c0a8eb81","6877649eabb845cf142cd221","6894a90c5be89fb9cf41d2f2","1","66a6211743bf2623c0a8eb81","1","2025-08-07T13:54:20.815Z","","","","AttribQ","","","","","","","","","","","50","","","","","","","","","","","","","","","","","","","","","","","","","","",""
"1954","","<div style=""width:500px;"">
  <p>How much control did you have over the ball?</p>
  </div>","79","html-slider-response","75","1783382","0.0-7.0-2.12","230","1","2025-08-07 13:24:37","36c45c0696341be0efffe67d72a12abb","37.47.250.53","Mozilla/5.0 (Windows NT 10.0; Win64; x64; rv:141.0) Gecko/20100101 Firefox/141.0","","Firefox","141.0","Windows","10.0","https://app.prolific.com/","pl","66a6211743bf2623c0a8eb81","6877649eabb845cf142cd221","6894a90c5be89fb9cf41d2f2","1","66a6211743bf2623c0a8eb81","1","2025-08-07T13:54:22.770Z","","","","ControlQ","","","","","","","","","","","50","","","","","","","","","","","","","","","","","","","","","","","","","","",""
"1776","","<div style=""width:500px;"">
  <p>How would you describe your current emotional state?</p>
  </div>","10","html-slider-response","76","1785160","0.0-7.0-3.12","230","1","2025-08-07 13:24:37","36c45c0696341be0efffe67d72a12abb","37.47.250.53","Mozilla/5.0 (Windows NT 10.0; Win64; x64; rv:141.0) Gecko/20100101 Firefox/141.0","","Firefox","141.0","Windows","10.0","https://app.prolific.com/","pl","66a6211743bf2623c0a8eb81","6877649eabb845cf142cd221","6894a90c5be89fb9cf41d2f2","1","66a6211743bf2623c0a8eb81","1","2025-08-07T13:54:24.548Z","","","","StressQ","","","","","","","","","","","50","","","","","","","","","","","","","","","","","","","","","","","","","","",""
"1602","","<div style=""width:500px;"">
  <p>What best describes how you currently feel?</p>
  </div>","97","html-slider-response","77","1786762","0.0-7.0-4.12","230","1","2025-08-07 13:24:37","36c45c0696341be0efffe67d72a12abb","37.47.250.53","Mozilla/5.0 (Windows NT 10.0; Win64; x64; rv:141.0) Gecko/20100101 Firefox/141.0","","Firefox","141.0","Windows","10.0","https://app.prolific.com/","pl","66a6211743bf2623c0a8eb81","6877649eabb845cf142cd221","6894a90c5be89fb9cf41d2f2","1","66a6211743bf2623c0a8eb81","1","2025-08-07T13:54:26.150Z","","","","MotivationQ","","","","","","","","","","","50","","","","","","","","","","","","","","","","","","","","","","","","","","",""
"","","","","ctl-task-cpt","78","1806534","0.0-7.0-0.13","230","1","2025-08-07 13:24:37","36c45c0696341be0efffe67d72a12abb","37.47.250.53","Mozilla/5.0 (Windows NT 10.0; Win64; x64; rv:141.0) Gecko/20100101 Firefox/141.0","","Firefox","141.0","Windows","10.0","https://app.prolific.com/","pl","66a6211743bf2623c0a8eb81","6877649eabb845cf142cd221","6894a90c5be89fb9cf41d2f2","1","66a6211743bf2623c0a8eb81","1","2025-08-07T13:54:45.922Z","","","","","","","","","","","","","","","","win-only","2","g1:SE,g2:NW","0.9","14","0","1788519","743","5744","16768","1","4","4","6","1","1","1","57","56","0.4318181818181818","976","3000","2365","[""down"",""right""]","{""num_key_presses"":4,""num_perfect"":4,""num_errors"":0,""num_randdir"":0,""num_randdir_good_moves"":0,""num_whilered"":0,""num_whileblue"":0,""num_blue"":0,""num_good_moves"":4}","[300.22857753208706,299.92857448032925,0,300.22857753208706,299.92857448032925,109,300.22857753208706,299.92857448032925,220,300.22857753208706,299.92857448032925,332,300.22857753208706,299.92857448032925,443,302.22857753208706,299.92857448032925,557,498.22857753208706,469.92857448032925,668,539.228577532087,520.9285744803292,780,541.228577532087,531.9285744803292,891,541.228577532087,531.9285744803292,1004,541.228577532087,532.9285744803292,1116,548.228577532087,532.9285744803292,1230,828.228577532087,494.92857448032925,1340,828.228577532087,494.92857448032925,1452,828.228577532087,494.92857448032925,1565,828.228577532087,494.92857448032925,1677,828.228577532087,494.92857448032925,1789,828.228577532087,494.92857448032925,1900,828.228577532087,494.92857448032925,2011,828.228577532087,494.92857448032925,2122,828.228577532087,494.92857448032925,2234,828.228577532087,494.92857448032925,2348,828.228577532087,494.92857448032925,2460,828.228577532087,494.92857448032925,2571,828.228577532087,494.92857448032925,2682,828.228577532087,494.92857448032925,2795,828.228577532087,494.92857448032925,2906,828.228577532087,494.92857448032925,3019,828.228577532087,494.92857448032925,3130,828.228577532087,494.92857448032925,3244,828.228577532087,494.92857448032925,3355,828.228577532087,494.92857448032925,3466,828.228577532087,494.92857448032925,3578,828.228577532087,494.92857448032925,3691,828.228577532087,494.92857448032925,3802,828.228577532087,494.92857448032925,3914,828.228577532087,494.92857448032925,4026,828.228577532087,494.92857448032925,4137,828.228577532087,494.92857448032925,4249,828.228577532087,494.92857448032925,4362,828.228577532087,494.92857448032925,4473,828.228577532087,494.92857448032925,4584,828.228577532087,494.92857448032925,4697,828.228577532087,494.92857448032925,4810,828.228577532087,494.92857448032925,4920]","[1500,1500,1000,0,500,""smooth"",""down"",""down"",""good_move"",4246,2746,2315.5,1501,429.5,""smooth"",""down"",""down"",""good_move"",7561,3314,2732.1,4247,581.9,""smooth"",""right"",""right"",""good_move"",10749,3187,2606.8,7562,580.2,""smooth"",""right"",""right"",""good_move""]"
"2789","","<div style=""width:500px;"">
  <p>What determined the result of this run?</p>
  </div>","93","html-slider-response","79","1809326","0.0-7.0-1.13","230","1","2025-08-07 13:24:37","36c45c0696341be0efffe67d72a12abb","37.47.250.53","Mozilla/5.0 (Windows NT 10.0; Win64; x64; rv:141.0) Gecko/20100101 Firefox/141.0","","Firefox","141.0","Windows","10.0","https://app.prolific.com/","pl","66a6211743bf2623c0a8eb81","6877649eabb845cf142cd221","6894a90c5be89fb9cf41d2f2","1","66a6211743bf2623c0a8eb81","1","2025-08-07T13:54:48.714Z","","","","AttribQ","","","","","","","","","","","50","","","","","","","","","","","","","","","","","","","","","","","","","","",""
"1453","","<div style=""width:500px;"">
  <p>How much control did you have over the ball?</p>
  </div>","93","html-slider-response","80","1810781","0.0-7.0-2.13","230","1","2025-08-07 13:24:37","36c45c0696341be0efffe67d72a12abb","37.47.250.53","Mozilla/5.0 (Windows NT 10.0; Win64; x64; rv:141.0) Gecko/20100101 Firefox/141.0","","Firefox","141.0","Windows","10.0","https://app.prolific.com/","pl","66a6211743bf2623c0a8eb81","6877649eabb845cf142cd221","6894a90c5be89fb9cf41d2f2","1","66a6211743bf2623c0a8eb81","1","2025-08-07T13:54:50.170Z","","","","ControlQ","","","","","","","","","","","50","","","","","","","","","","","","","","","","","","","","","","","","","","",""
"1772","","<div style=""width:500px;"">
  <p>How would you describe your current emotional state?</p>
  </div>","5","html-slider-response","81","1812556","0.0-7.0-3.13","230","1","2025-08-07 13:24:37","36c45c0696341be0efffe67d72a12abb","37.47.250.53","Mozilla/5.0 (Windows NT 10.0; Win64; x64; rv:141.0) Gecko/20100101 Firefox/141.0","","Firefox","141.0","Windows","10.0","https://app.prolific.com/","pl","66a6211743bf2623c0a8eb81","6877649eabb845cf142cd221","6894a90c5be89fb9cf41d2f2","1","66a6211743bf2623c0a8eb81","1","2025-08-07T13:54:51.944Z","","","","StressQ","","","","","","","","","","","50","","","","","","","","","","","","","","","","","","","","","","","","","","",""
"1454","","<div style=""width:500px;"">
  <p>What best describes how you currently feel?</p>
  </div>","97","html-slider-response","82","1814013","0.0-7.0-4.13","230","1","2025-08-07 13:24:37","36c45c0696341be0efffe67d72a12abb","37.47.250.53","Mozilla/5.0 (Windows NT 10.0; Win64; x64; rv:141.0) Gecko/20100101 Firefox/141.0","","Firefox","141.0","Windows","10.0","https://app.prolific.com/","pl","66a6211743bf2623c0a8eb81","6877649eabb845cf142cd221","6894a90c5be89fb9cf41d2f2","1","66a6211743bf2623c0a8eb81","1","2025-08-07T13:54:53.401Z","","","","MotivationQ","","","","","","","","","","","50","","","","","","","","","","","","","","","","","","","","","","","","","","",""
"","","","","ctl-task-cpt","83","1840297","0.0-7.0-0.14","230","1","2025-08-07 13:24:37","36c45c0696341be0efffe67d72a12abb","37.47.250.53","Mozilla/5.0 (Windows NT 10.0; Win64; x64; rv:141.0) Gecko/20100101 Firefox/141.0","","Firefox","141.0","Windows","10.0","https://app.prolific.com/","pl","66a6211743bf2623c0a8eb81","6877649eabb845cf142cd221","6894a90c5be89fb9cf41d2f2","1","66a6211743bf2623c0a8eb81","1","2025-08-07T13:55:19.685Z","","","","","","","","","","","","","","","","win-only","3","g1:SW,g2:NE","1","15","0","1815769","815","5832","23276","1","4","8","6","1","1","1","58","57","0.4393939393939394","1183","3000","2430","[""down"",""left""]","{""num_key_presses"":4,""num_perfect"":4,""num_errors"":0,""num_randdir"":0,""num_randdir_good_moves"":0,""num_whilered"":0,""num_whileblue"":0,""num_blue"":2,""num_good_moves"":4}","[290.22857753208706,297.92857448032925,0,290.22857753208706,297.92857448032925,103,290.22857753208706,297.92857448032925,216,290.22857753208706,297.92857448032925,326,290.22857753208706,297.92857448032925,439,289.22857753208706,296.92857448032925,549,183.22857753208706,385.92857448032925,661,140.22857753208706,449.92857448032925,775,101.22857753208706,482.92857448032925,887,87.22857753208706,510.92857448032925,999,78.22857753208706,520.9285744803292,1110,77.22857753208706,521.9285744803292,1221,77.22857753208706,521.9285744803292,1333,24.22857753208705,474.92857448032925,1446,-177.77142246791294,329.92857448032925,1557,-189.77142246791294,329.92857448032925,1669,-189.77142246791294,329.92857448032925,1781,-189.77142246791294,329.92857448032925,1893,-189.77142246791294,329.92857448032925,2005,-189.77142246791294,329.92857448032925,2116,-189.77142246791294,329.92857448032925,2230,-189.77142246791294,329.92857448032925,2341,-189.77142246791294,329.92857448032925,2454,-189.77142246791294,329.92857448032925,2567,-189.77142246791294,329.92857448032925,2673,-189.77142246791294,329.92857448032925,2786,-189.77142246791294,329.92857448032925,2897,-189.77142246791294,329.92857448032925,3002,-189.77142246791294,329.92857448032925,3106,-189.77142246791294,329.92857448032925,3215,-189.77142246791294,329.92857448032925,3322,-189.77142246791294,329.92857448032925,3432,-189.77142246791294,329.92857448032925,3541,-189.77142246791294,329.92857448032925,3647,-189.77142246791294,329.92857448032925,3752,-189.77142246791294,329.92857448032925,3863,-189.77142246791294,329.92857448032925,3969,-189.77142246791294,329.92857448032925,4075,-189.77142246791294,329.92857448032925,4179,-189.77142246791294,329.92857448032925,4280,-189.77142246791294,329.92857448032925,4383,-189.77142246791294,329.92857448032925,4487,-189.77142246791294,329.92857448032925,4599,-189.77142246791294,329.92857448032925,4706,-189.77142246791294,329.92857448032925,4812,-189.77142246791294,329.92857448032925,4918]","[1481,1481,1000,0,481,""smooth"",""down"",""down"",""good_move"",4439,2958,2532.3,1481,425.7,""smooth"",""left"",""left"",""good_move"",10822,6382,2343.1,8055,423.9,""smooth"",""down"",""down"",""good_move"",17166,6344,2721.7,13920,524.3,""smooth"",""left"",""left"",""good_move""]"
"2971","","<div style=""width:500px;"">
  <p>What determined the result of this run?</p>
  </div>","91","html-slider-response","84","1843269","0.0-7.0-1.14","230","1","2025-08-07 13:24:37","36c45c0696341be0efffe67d72a12abb","37.47.250.53","Mozilla/5.0 (Windows NT 10.0; Win64; x64; rv:141.0) Gecko/20100101 Firefox/141.0","","Firefox","141.0","Windows","10.0","https://app.prolific.com/","pl","66a6211743bf2623c0a8eb81","6877649eabb845cf142cd221","6894a90c5be89fb9cf41d2f2","1","66a6211743bf2623c0a8eb81","1","2025-08-07T13:55:22.657Z","","","","AttribQ","","","","","","","","","","","50","","","","","","","","","","","","","","","","","","","","","","","","","","",""
"1742","","<div style=""width:500px;"">
  <p>How much control did you have over the ball?</p>
