"rt","response_timestamp","stimulus","response","trial_type","trial_index","time_elapsed","internal_node_id","run_id","condition","recorded_at","source_code_version","ip","user_agent","device","browser","browser_version","platform","platform_version","referer","accept_language","PROLIFIC_PID","STUDY_ID","SESSION_ID","BATCH","prolific_id","batch","realtime","success","question_order","question_id","eventType","responses","item_order","radio_event_ids","radio_event_times","key_event_times","mouse_event_times","straightlining","zigzagging","honeypot","view_history","slider_start","which_type","canvas_config","goals_layout","control_level","trial_number","tutorial_trial_number","trial_start_time","phase1_start_time","phase2_start_time","phase3_start_time","goal_1_value","goal_1_distance","goal_2_value","goal_2_distance","goal_selected","outcome","outcome_total","participant_final_score","participant_initial_score","participant_final_score_prop","goal_choice_rt","allocated_time","allocated_time_remaining","goal_direction","counts","mouse_movements","key_presses"
"4625","1753866247530","<p style='font-size:40px;line-height:1.25'><strong>Welcome to the experiment!</strong></p><p style='font-size:1.1em;line-height:1.25'>Thank you for participanting in our experiment again! You will be asked to play the Dysfunctional Ball Game again. We will briefly recap the rules before we start.</p><p style='font-size:1.1em;line-height:1.25'>Press <strong>Next</strong> to continue.</p>","0","custom-html-button-response","0","4634","0.0-0.0","73","1","2025-07-30 09:03:57","36c45c0696341be0efffe67d72a12abb","155.238.5.1","Mozilla/5.0 (Windows NT 10.0; Win64; x64) AppleWebKit/537.36 (KHTML, like Gecko) Chrome/138.0.0.0 Safari/537.36","WebKit","Chrome","138.0.0.0","Windows","10.0","https://app.prolific.com/","en-US,en;q=0.9,zu;q=0.8","66a79fce251c3b3fedb04d16","687a19d2168e237449fb8af4","6889df9e8125d2def46ad52b","0","66a79fce251c3b3fedb04d16","0","2025-07-30T09:04:07.533Z","","","","","","","","","","","","","","","","","","","","","","","","","","","","","","","","","","","","","","","","","",""
"4318","","","","fullscreen","1","9983","0.0-1.0","73","1","2025-07-30 09:03:57","36c45c0696341be0efffe67d72a12abb","155.238.5.1","Mozilla/5.0 (Windows NT 10.0; Win64; x64) AppleWebKit/537.36 (KHTML, like Gecko) Chrome/138.0.0.0 Safari/537.36","WebKit","Chrome","138.0.0.0","Windows","10.0","https://app.prolific.com/","en-US,en;q=0.9,zu;q=0.8","66a79fce251c3b3fedb04d16","687a19d2168e237449fb8af4","6889df9e8125d2def46ad52b","0","66a79fce251c3b3fedb04d16","0","","true","","","","","","","","","","","","","","","","","","","","","","","","","","","","","","","","","","","","","","","","",""
"5361","1753866258958"," <p style='font-size:1.1em;line-height:1.25'>Thank you for closing all other tabs.</p><p style='font-size:1.1em;line-height:1.25'>We will now invite you to fill in some questionnaires, before starting the game.<br>This will take about 5 minutes.<br></p><p style='font-size:1.1em;line-height:1.25'>Press the <strong>Next</strong> button to continue.</p>","0","custom-html-button-response","2","16060","0.0-2.0","73","1","2025-07-30 09:03:57","36c45c0696341be0efffe67d72a12abb","155.238.5.1","Mozilla/5.0 (Windows NT 10.0; Win64; x64) AppleWebKit/537.36 (KHTML, like Gecko) Chrome/138.0.0.0 Safari/537.36","WebKit","Chrome","138.0.0.0","Windows","10.0","https://app.prolific.com/","en-US,en;q=0.9,zu;q=0.8","66a79fce251c3b3fedb04d16","687a19d2168e237449fb8af4","6889df9e8125d2def46ad52b","0","66a79fce251c3b3fedb04d16","0","2025-07-30T09:04:18.959Z","","","","","","","","","","","","","","","","","","","","","","","","","","","","","","","","","","","","","","","","","",""
"8259","","","{""assigned_sex"":""male""}","survey-multi-choice","3","24329","0.0-3.0-0.0","73","1","2025-07-30 09:03:57","36c45c0696341be0efffe67d72a12abb","155.238.5.1","Mozilla/5.0 (Windows NT 10.0; Win64; x64) AppleWebKit/537.36 (KHTML, like Gecko) Chrome/138.0.0.0 Safari/537.36","WebKit","Chrome","138.0.0.0","Windows","10.0","https://app.prolific.com/","en-US,en;q=0.9,zu;q=0.8","66a79fce251c3b3fedb04d16","687a19d2168e237449fb8af4","6889df9e8125d2def46ad52b","0","66a79fce251c3b3fedb04d16","0","","","[0]","0","demographics","","","","","","","","","","","","","","","","","","","","","","","","","","","","","","","","","","","","","",""
"7431","1753866274660","<p style='font-size:1.1em;line-height:1.25'>In the following, we will perform a baseline assessment. This means that we will ask you a few questions relating to your experiences over the past month.<br></p><p style='font-size:1.1em;line-height:1.25'>Press the <strong>Next</strong> button to continue.</p>","0","custom-html-button-response","4","31762","0.0-4.0-0.0","73","1","2025-07-30 09:03:57","36c45c0696341be0efffe67d72a12abb","155.238.5.1","Mozilla/5.0 (Windows NT 10.0; Win64; x64) AppleWebKit/537.36 (KHTML, like Gecko) Chrome/138.0.0.0 Safari/537.36","WebKit","Chrome","138.0.0.0","Windows","10.0","https://app.prolific.com/","en-US,en;q=0.9,zu;q=0.8","66a79fce251c3b3fedb04d16","687a19d2168e237449fb8af4","6889df9e8125d2def46ad52b","0","66a79fce251c3b3fedb04d16","0","2025-07-30T09:04:34.661Z","","","","","","","","","","","","","","","","","","","","","","","","","","","","","","","","","","","","","","","","","",""
"108954.10000002384","","","","survey-template","5","140753","0.0-4.0-1.0","73","1","2025-07-30 09:03:57","36c45c0696341be0efffe67d72a12abb","155.238.5.1","Mozilla/5.0 (Windows NT 10.0; Win64; x64) AppleWebKit/537.36 (KHTML, like Gecko) Chrome/138.0.0.0 Safari/537.36","WebKit","Chrome","138.0.0.0","Windows","10.0","https://app.prolific.com/","en-US,en;q=0.9,zu;q=0.8","66a79fce251c3b3fedb04d16","687a19d2168e237449fb8af4","6889df9e8125d2def46ad52b","0","66a79fce251c3b3fedb04d16","0","2025-07-30T09:06:23.653Z","","","","pss","{""Q01"":""1"",""Q02"":""1"",""Q03"":""0"",""Q04"":""4"",""Q05"":""1"",""Q06"":""0"",""Q07"":""3"",""Q08"":""2"",""Q09"":""1"",""Q10"":""1""}","[0,1,2,3,4,5,6,7,8,9]","[""Q01"",""Q01"",""Q02"",""Q03"",""Q04"",""Q05"",""Q06"",""Q07"",""Q08"",""Q09"",""Q10"",""Q10"",""Q10""]","[19217.69999998808,21795.19999998808,30935.900000035763,35528.69999998808,40263.5,47741.60000002384,54526.5,57727.80000001192,76391.5,81939,102131.90000003576,103542.69999998808,103600.80000001192]","[]","[0.30000001192092896,19217.69999998808,20732.100000023842,21795.19999998808,30935.900000035763,35528.69999998808,40263.5,47741.60000002384,54526.5,57727.80000001192,76391.5,81939,102131.90000003576,103542.69999998808,103600.80000001192,103665.5,108931.80000001192]","0.5","0.4444444444444444","0","","","","","","","","","","","","","","","","","","","","","","","","","","","","",""
"4481","1753866388173","<p style='font-size:1.1em;line-height:1.25'>Thank you for your answers! Now we will ask you a few more questions relating to your feelings in the last 24 hours.<br></p><p style='font-size:1.1em;line-height:1.25'>Press the <strong>Next</strong> button to continue.</p>","0","custom-html-button-response","6","145278","0.0-4.0-2.0","73","1","2025-07-30 09:03:57","36c45c0696341be0efffe67d72a12abb","155.238.5.1","Mozilla/5.0 (Windows NT 10.0; Win64; x64) AppleWebKit/537.36 (KHTML, like Gecko) Chrome/138.0.0.0 Safari/537.36","WebKit","Chrome","138.0.0.0","Windows","10.0","https://app.prolific.com/","en-US,en;q=0.9,zu;q=0.8","66a79fce251c3b3fedb04d16","687a19d2168e237449fb8af4","6889df9e8125d2def46ad52b","0","66a79fce251c3b3fedb04d16","0","2025-07-30T09:06:28.178Z","","","","","","","","","","","","","","","","","","","","","","","","","","","","","","","","","","","","","","","","","",""
"57311.299999952316","","","","survey-template","7","202615","0.0-4.0-3.0","73","1","2025-07-30 09:03:57","36c45c0696341be0efffe67d72a12abb","155.238.5.1","Mozilla/5.0 (Windows NT 10.0; Win64; x64) AppleWebKit/537.36 (KHTML, like Gecko) Chrome/138.0.0.0 Safari/537.36","WebKit","Chrome","138.0.0.0","Windows","10.0","https://app.prolific.com/","en-US,en;q=0.9,zu;q=0.8","66a79fce251c3b3fedb04d16","687a19d2168e237449fb8af4","6889df9e8125d2def46ad52b","0","66a79fce251c3b3fedb04d16","0","2025-07-30T09:07:25.515Z","","","","drsp","{""Q01"":""0"",""Q02"":""0"",""Q03"":""0"",""Q04"":""0"",""Q05"":""0"",""Q06"":""0"",""Q07"":""0"",""Q08"":""0"",""Q09"":""0"",""Q10"":""0"",""Q11"":""0"",""Q12"":""3"",""Q13"":""5"",""Q14"":""0"",""Q15"":""3"",""Q16"":""3"",""Q17"":""0"",""Q18"":""0"",""Q19"":""0"",""Q20"":""0"",""Q21"":""1"",""Q22"":""1""}","[0,1,2,3,4,5,6,7,8,9,10,11,12,13,14,15,16,17,18,19,20,21]","[""Q01"",""Q02"",""Q03"",""Q04"",""Q05"",""Q06"",""Q07"",""Q08"",""Q09"",""Q10"",""Q11"",""Q13"",""Q12"",""Q14"",""Q15"",""Q16"",""Q17"",""Q18"",""Q19"",""Q20"",""Q21"",""Q22""]","[3263.199999988079,4129,5290.199999988079,8154,9191.799999952316,10996.799999952316,12616,14526.399999976158,16373.5,17919,19527.399999976158,22406.599999964237,26592,33606.89999997616,35069.5,38623.799999952316,40940.09999996424,42152.299999952316,45634.59999996424,48760.5,54190.39999997616,56256.89999997616]","[]","[0.09999996423721313,2201.5,3263.199999988079,4129,5290.199999988079,6460.699999988079,8154,9191.799999952316,10996.799999952316,12616,14526.399999976158,16373.5,17919,19527.399999976158,22406.599999964237,26592,29579.099999964237,33606.89999997616,35069.5,38623.799999952316,40940.09999996424,42152.299999952316,45634.59999996424,48760.5,54190.39999997616,56256.89999997616,57304.09999996424]","0.7272727272727273","0.09523809523809523","0","","","","","","","","","","","","","","","","","","","","","","","","","","","","",""
"15799","","","","survey-template","8","218419","0.0-4.0-4.0","73","1","2025-07-30 09:03:57","36c45c0696341be0efffe67d72a12abb","155.238.5.1","Mozilla/5.0 (Windows NT 10.0; Win64; x64) AppleWebKit/537.36 (KHTML, like Gecko) Chrome/138.0.0.0 Safari/537.36","WebKit","Chrome","138.0.0.0","Windows","10.0","https://app.prolific.com/","en-US,en;q=0.9,zu;q=0.8","66a79fce251c3b3fedb04d16","687a19d2168e237449fb8af4","6889df9e8125d2def46ad52b","0","66a79fce251c3b3fedb04d16","0","2025-07-30T09:07:41.318Z","","","","stress","{""Q01"":""0"",""Q02"":""2"",""Q03"":""0""}","[0,1,2]","[""Q01"",""Q02"",""Q03"",""Q03""]","[2835.199999988079,6165,9336.900000035763,14648]","[]","[2835.199999988079,6165,9336.900000035763,14648,15797.400000035763]","0.6666666666666666","0","0","","","","","","","","","","","","","","","","","","","","","","","","","","","","",""
"87812","","","","instructions","9","307478","0.0-5.0-0.0","73","1","2025-07-30 09:03:57","36c45c0696341be0efffe67d72a12abb","155.238.5.1","Mozilla/5.0 (Windows NT 10.0; Win64; x64) AppleWebKit/537.36 (KHTML, like Gecko) Chrome/138.0.0.0 Safari/537.36","WebKit","Chrome","138.0.0.0","Windows","10.0","https://app.prolific.com/","en-US,en;q=0.9,zu;q=0.8","66a79fce251c3b3fedb04d16","687a19d2168e237449fb8af4","6889df9e8125d2def46ad52b","0","66a79fce251c3b3fedb04d16","0","","","","","","","","","","","","","","","[{""page_index"":0,""viewing_time"":87811}]","","","","","","","","","","","","","","","","","","","","","","","","","","","",""
"31369","","<p>Before you start with this game please answer the following three questions yourself. </p>
  <p>Through this game, we measure several aspects of your cognitive performance, such as reaction times, multi-tasking capabilities </p>
  <p>and the ability to assess the situation you are in.</p>
  <p></p>
  <p><b>How good do you usually are in such tasks?</b></p>","87","html-slider-response","10","338871","0.0-6.0-0.0","73","1","2025-07-30 09:03:57","36c45c0696341be0efffe67d72a12abb","155.238.5.1","Mozilla/5.0 (Windows NT 10.0; Win64; x64) AppleWebKit/537.36 (KHTML, like Gecko) Chrome/138.0.0.0 Safari/537.36","WebKit","Chrome","138.0.0.0","Windows","10.0","https://app.prolific.com/","en-US,en;q=0.9,zu;q=0.8","66a79fce251c3b3fedb04d16","687a19d2168e237449fb8af4","6889df9e8125d2def46ad52b","0","66a79fce251c3b3fedb04d16","0","2025-07-30T09:09:41.771Z","","","","PreSkillQ","","","","","","","","","","","50","","","","","","","","","","","","","","","","","","","","","","","","","","",""
"6814","","<div style=""width:500px;"">
  <p>How well do you think you will perform in this task compared to other participants?</p>
  </div>","69","html-slider-response","11","345691","0.0-6.0-1.0","73","1","2025-07-30 09:03:57","36c45c0696341be0efffe67d72a12abb","155.238.5.1","Mozilla/5.0 (Windows NT 10.0; Win64; x64) AppleWebKit/537.36 (KHTML, like Gecko) Chrome/138.0.0.0 Safari/537.36","WebKit","Chrome","138.0.0.0","Windows","10.0","https://app.prolific.com/","en-US,en;q=0.9,zu;q=0.8","66a79fce251c3b3fedb04d16","687a19d2168e237449fb8af4","6889df9e8125d2def46ad52b","0","66a79fce251c3b3fedb04d16","0","2025-07-30T09:09:48.590Z","","","","PrePerfQ","","","","","","","","","","","50","","","","","","","","","","","","","","","","","","","","","","","","","","",""
"3957","","<div style=""width:500px;"">
  <p>What best describes how you currently feel?</p>
  </div>","100","html-slider-response","12","349651","0.0-6.0-2.0","73","1","2025-07-30 09:03:57","36c45c0696341be0efffe67d72a12abb","155.238.5.1","Mozilla/5.0 (Windows NT 10.0; Win64; x64) AppleWebKit/537.36 (KHTML, like Gecko) Chrome/138.0.0.0 Safari/537.36","WebKit","Chrome","138.0.0.0","Windows","10.0","https://app.prolific.com/","en-US,en;q=0.9,zu;q=0.8","66a79fce251c3b3fedb04d16","687a19d2168e237449fb8af4","6889df9e8125d2def46ad52b","0","66a79fce251c3b3fedb04d16","0","2025-07-30T09:09:52.550Z","","","","PreMotivationQ","","","","","","","","","","","50","","","","","","","","","","","","","","","","","","","","","","","","","","",""
"","","","","ctl-task-cpt","13","382252","0.0-7.0-0.0","73","1","2025-07-30 09:03:57","36c45c0696341be0efffe67d72a12abb","155.238.5.1","Mozilla/5.0 (Windows NT 10.0; Win64; x64) AppleWebKit/537.36 (KHTML, like Gecko) Chrome/138.0.0.0 Safari/537.36","WebKit","Chrome","138.0.0.0","Windows","10.0","https://app.prolific.com/","en-US,en;q=0.9,zu;q=0.8","66a79fce251c3b3fedb04d16","687a19d2168e237449fb8af4","6889df9e8125d2def46ad52b","0","66a79fce251c3b3fedb04d16","0","2025-07-30T09:10:25.151Z","","","","","","","","","","","","","","","","win-only","3","g1:SW,g2:NE","1","1","0","368415.1","5864.9","10867.1","29557.9","1","4","4","6","1","1","1","1","0","0.007575757575757576","5002.1","3000","1570","[""down"",""left""]","{""num_key_presses"":4,""num_perfect"":4,""num_errors"":0,""num_randdir"":0,""num_randdir_good_moves"":0,""num_whilered"":0,""num_whileblue"":0,""num_blue"":2,""num_good_moves"":4}","[292.22232142857143,296.12857142857143,5.9,292.22232142857143,296.12857142857143,104.3,292.22232142857143,296.12857142857143,209.7,292.22232142857143,296.12857142857143,316.4,292.22232142857143,296.12857142857143,419.3,292.22232142857143,296.12857142857143,521.9,292.22232142857143,296.12857142857143,622.2,292.22232142857143,296.12857142857143,724.6,292.22232142857143,296.12857142857143,825.8,292.22232142857143,296.12857142857143,927.9,292.22232142857143,296.12857142857143,1030.8,292.22232142857143,296.12857142857143,1135.5,292.22232142857143,296.12857142857143,1239,292.22232142857143,296.12857142857143,1344.3,292.22232142857143,296.12857142857143,1450.7,292.22232142857143,296.12857142857143,1555.9,292.22232142857143,296.12857142857143,1659.8,292.22232142857143,296.12857142857143,1767.8,292.22232142857143,296.12857142857143,1875.1,292.22232142857143,296.12857142857143,1977.7,292.22232142857143,296.12857142857143,2086,292.22232142857143,296.12857142857143,2189.4,292.22232142857143,296.12857142857143,2294.9,292.22232142857143,296.12857142857143,2401,292.22232142857143,296.12857142857143,2506.7,292.22232142857143,296.12857142857143,2608,292.22232142857143,296.12857142857143,2710.3,292.22232142857143,296.12857142857143,2811.6,292.22232142857143,296.12857142857143,2912.5,292.22232142857143,296.12857142857143,3013.6,292.22232142857143,296.12857142857143,3114.7,292.22232142857143,296.12857142857143,3214.8,292.22232142857143,296.12857142857143,3320.8,292.22232142857143,296.12857142857143,3423,292.22232142857143,296.12857142857143,3531.1,292.22232142857143,296.12857142857143,3637.3,292.22232142857143,296.12857142857143,3741.5,292.22232142857143,296.12857142857143,3846.1,292.22232142857143,296.12857142857143,3951,292.22232142857143,296.12857142857143,4055.6,292.22232142857143,296.12857142857143,4158.3,292.22232142857143,296.12857142857143,4258.6,292.22232142857143,296.12857142857143,4365.2,292.22232142857143,296.12857142857143,4469.7,292.22232142857143,296.12857142857143,4571.4,292.22232142857143,296.12857142857143,4674.1,292.22232142857143,296.12857142857143,4777.9,292.22232142857143,296.12857142857143,4884.9,292.22232142857143,296.12857142857143,4991.4]","[1717.7,1717.7,1000,0,717.7,""smooth"",""left"",""left"",""good_move"",8555.6,6836.7,2025.8,6142,387.8,""smooth"",""left"",""left"",""good_move"",15360.8,6804.6,2902.3,12099.5,359,""smooth"",""down"",""down"",""good_move"",18577.5,3214.3,2618.9,15363.2,595.4,""smooth"",""down"",""down"",""good_move""]"
"4970","","<div style=""width:500px;"">
  <p>What determined the result of this run?</p>
  </div>","100","html-slider-response","14","387226","0.0-7.0-1.0","73","1","2025-07-30 09:03:57","36c45c0696341be0efffe67d72a12abb","155.238.5.1","Mozilla/5.0 (Windows NT 10.0; Win64; x64) AppleWebKit/537.36 (KHTML, like Gecko) Chrome/138.0.0.0 Safari/537.36","WebKit","Chrome","138.0.0.0","Windows","10.0","https://app.prolific.com/","en-US,en;q=0.9,zu;q=0.8","66a79fce251c3b3fedb04d16","687a19d2168e237449fb8af4","6889df9e8125d2def46ad52b","0","66a79fce251c3b3fedb04d16","0","2025-07-30T09:10:30.125Z","","","","AttribQ","","","","","","","","","","","50","","","","","","","","","","","","","","","","","","","","","","","","","","",""
"3706","","<div style=""width:500px;"">
  <p>How much control did you have over the ball?</p>
  </div>","100","html-slider-response","15","390936","0.0-7.0-2.0","73","1","2025-07-30 09:03:57","36c45c0696341be0efffe67d72a12abb","155.238.5.1","Mozilla/5.0 (Windows NT 10.0; Win64; x64) AppleWebKit/537.36 (KHTML, like Gecko) Chrome/138.0.0.0 Safari/537.36","WebKit","Chrome","138.0.0.0","Windows","10.0","https://app.prolific.com/","en-US,en;q=0.9,zu;q=0.8","66a79fce251c3b3fedb04d16","687a19d2168e237449fb8af4","6889df9e8125d2def46ad52b","0","66a79fce251c3b3fedb04d16","0","2025-07-30T09:10:33.835Z","","","","ControlQ","","","","","","","","","","","50","","","","","","","","","","","","","","","","","","","","","","","","","","",""
"5697","","<div style=""width:500px;"">
  <p>How would you describe your current emotional state?</p>
  </div>","1","html-slider-response","16","396637","0.0-7.0-3.0","73","1","2025-07-30 09:03:57","36c45c0696341be0efffe67d72a12abb","155.238.5.1","Mozilla/5.0 (Windows NT 10.0; Win64; x64) AppleWebKit/537.36 (KHTML, like Gecko) Chrome/138.0.0.0 Safari/537.36","WebKit","Chrome","138.0.0.0","Windows","10.0","https://app.prolific.com/","en-US,en;q=0.9,zu;q=0.8","66a79fce251c3b3fedb04d16","687a19d2168e237449fb8af4","6889df9e8125d2def46ad52b","0","66a79fce251c3b3fedb04d16","0","2025-07-30T09:10:39.536Z","","","","StressQ","","","","","","","","","","","50","","","","","","","","","","","","","","","","","","","","","","","","","","",""
"5810","","<div style=""width:500px;"">
  <p>What best describes how you currently feel?</p>
  </div>","100","html-slider-response","17","402449","0.0-7.0-4.0","73","1","2025-07-30 09:03:57","36c45c0696341be0efffe67d72a12abb","155.238.5.1","Mozilla/5.0 (Windows NT 10.0; Win64; x64) AppleWebKit/537.36 (KHTML, like Gecko) Chrome/138.0.0.0 Safari/537.36","WebKit","Chrome","138.0.0.0","Windows","10.0","https://app.prolific.com/","en-US,en;q=0.9,zu;q=0.8","66a79fce251c3b3fedb04d16","687a19d2168e237449fb8af4","6889df9e8125d2def46ad52b","0","66a79fce251c3b3fedb04d16","0","2025-07-30T09:10:45.348Z","","","","MotivationQ","","","","","","","","","","","50","","","","","","","","","","","","","","","","","","","","","","","","","","",""
"","","","","ctl-task-cpt","18","434204","0.0-7.0-0.1","73","1","2025-07-30 09:03:57","36c45c0696341be0efffe67d72a12abb","155.238.5.1","Mozilla/5.0 (Windows NT 10.0; Win64; x64) AppleWebKit/537.36 (KHTML, like Gecko) Chrome/138.0.0.0 Safari/537.36","WebKit","Chrome","138.0.0.0","Windows","10.0","https://app.prolific.com/","en-US,en;q=0.9,zu;q=0.8","66a79fce251c3b3fedb04d16","687a19d2168e237449fb8af4","6889df9e8125d2def46ad52b","0","66a79fce251c3b3fedb04d16","0","2025-07-30T09:11:17.103Z","","","","","","","","","","","","","","","","win-only","0","g1:NW,g2:SE","0.9","2","0","421176.6","3983.7","8989.7","28742","1","4","8","6","1","1","1","2","1","0.015151515151515152","5005.9","3000","1495","[""left"",""up""]","{""num_key_presses"":4,""num_perfect"":4,""num_errors"":0,""num_randdir"":0,""num_randdir_good_moves"":0,""num_whilered"":0,""num_whileblue"":0,""num_blue"":3,""num_good_moves"":4}","[297.22232142857143,293.12857142857143,0.8,297.22232142857143,293.12857142857143,107.5,297.22232142857143,293.12857142857143,208.5,297.22232142857143,293.12857142857143,310.6,297.22232142857143,293.12857142857143,417.5,297.22232142857143,293.12857142857143,524.2,297.22232142857143,293.12857142857143,625.4,297.22232142857143,293.12857142857143,729.5,297.22232142857143,293.12857142857143,832.1,297.22232142857143,293.12857142857143,932.4,297.22232142857143,293.12857142857143,1034.6,297.22232142857143,293.12857142857143,1136.1,297.22232142857143,293.12857142857143,1240.2,297.22232142857143,293.12857142857143,1347.6,297.22232142857143,293.12857142857143,1459.2,297.22232142857143,293.12857142857143,1564.7,297.22232142857143,293.12857142857143,1668.2,297.22232142857143,293.12857142857143,1770.2,297.22232142857143,293.12857142857143,1871.8,297.22232142857143,293.12857142857143,1973.7,297.22232142857143,293.12857142857143,2074.9,297.22232142857143,293.12857142857143,2179.6,297.22232142857143,293.12857142857143,2283.3,297.22232142857143,293.12857142857143,2385.7,297.22232142857143,293.12857142857143,2487.9,297.22232142857143,293.12857142857143,2594.4,297.22232142857143,293.12857142857143,2695.1,297.22232142857143,293.12857142857143,2803.4,297.22232142857143,293.12857142857143,2907.8,297.22232142857143,293.12857142857143,3008.6,297.22232142857143,293.12857142857143,3111.8,297.22232142857143,293.12857142857143,3218.5,297.22232142857143,293.12857142857143,3325.7,297.22232142857143,293.12857142857143,3428.2,297.22232142857143,293.12857142857143,3531.5,297.22232142857143,293.12857142857143,3638.3,297.22232142857143,293.12857142857143,3741.9,297.22232142857143,293.12857142857143,3843,297.22232142857143,293.12857142857143,3948,297.22232142857143,293.12857142857143,4053.3,297.22232142857143,293.12857142857143,4156.9,297.22232142857143,293.12857142857143,4261.3,297.22232142857143,293.12857142857143,4367.4,297.22232142857143,293.12857142857143,4470.5,297.22232142857143,293.12857142857143,4577.9,297.22232142857143,293.12857142857143,4680.9,297.22232142857143,293.12857142857143,4781.8,297.22232142857143,293.12857142857143,4882.7,297.22232142857143,293.12857142857143,4991]","[1394.2,1394.2,1000,0,394.2,""smooth"",""up"",""up"",""good_move"",10020.1,8624.8,2339.9,7266.1,414.1,""smooth"",""up"",""up"",""good_move"",16594.2,6573.4,2423.1,13761.1,410.1,""smooth"",""left"",""left"",""good_move"",19597.2,3002.1,2224.5,16595.1,777.6,""smooth"",""left"",""left"",""good_move""]"
"6928","","<div style=""width:500px;"">
  <p>What determined the result of this run?</p>
  </div>","100","html-slider-response","19","441134","0.0-7.0-1.1","73","1","2025-07-30 09:03:57","36c45c0696341be0efffe67d72a12abb","155.238.5.1","Mozilla/5.0 (Windows NT 10.0; Win64; x64) AppleWebKit/537.36 (KHTML, like Gecko) Chrome/138.0.0.0 Safari/537.36","WebKit","Chrome","138.0.0.0","Windows","10.0","https://app.prolific.com/","en-US,en;q=0.9,zu;q=0.8","66a79fce251c3b3fedb04d16","687a19d2168e237449fb8af4","6889df9e8125d2def46ad52b","0","66a79fce251c3b3fedb04d16","0","2025-07-30T09:11:24.033Z","","","","AttribQ","","","","","","","","","","","50","","","","","","","","","","","","","","","","","","","","","","","","","","",""
"3628","","<div style=""width:500px;"">
  <p>How much control did you have over the ball?</p>
  </div>","100","html-slider-response","20","444765","0.0-7.0-2.1","73","1","2025-07-30 09:03:57","36c45c0696341be0efffe67d72a12abb","155.238.5.1","Mozilla/5.0 (Windows NT 10.0; Win64; x64) AppleWebKit/537.36 (KHTML, like Gecko) Chrome/138.0.0.0 Safari/537.36","WebKit","Chrome","138.0.0.0","Windows","10.0","https://app.prolific.com/","en-US,en;q=0.9,zu;q=0.8","66a79fce251c3b3fedb04d16","687a19d2168e237449fb8af4","6889df9e8125d2def46ad52b","0","66a79fce251c3b3fedb04d16","0","2025-07-30T09:11:27.664Z","","","","ControlQ","","","","","","","","","","","50","","","","","","","","","","","","","","","","","","","","","","","","","","",""
"3842","","<div style=""width:500px;"">
  <p>How would you describe your current emotional state?</p>
  </div>","3","html-slider-response","21","448609","0.0-7.0-3.1","73","1","2025-07-30 09:03:57","36c45c0696341be0efffe67d72a12abb","155.238.5.1","Mozilla/5.0 (Windows NT 10.0; Win64; x64) AppleWebKit/537.36 (KHTML, like Gecko) Chrome/138.0.0.0 Safari/537.36","WebKit","Chrome","138.0.0.0","Windows","10.0","https://app.prolific.com/","en-US,en;q=0.9,zu;q=0.8","66a79fce251c3b3fedb04d16","687a19d2168e237449fb8af4","6889df9e8125d2def46ad52b","0","66a79fce251c3b3fedb04d16","0","2025-07-30T09:11:31.509Z","","","","StressQ","","","","","","","","","","","50","","","","","","","","","","","","","","","","","","","","","","","","","","",""
"3723","","<div style=""width:500px;"">
  <p>What best describes how you currently feel?</p>
  </div>","100","html-slider-response","22","452335","0.0-7.0-4.1","73","1","2025-07-30 09:03:57","36c45c0696341be0efffe67d72a12abb","155.238.5.1","Mozilla/5.0 (Windows NT 10.0; Win64; x64) AppleWebKit/537.36 (KHTML, like Gecko) Chrome/138.0.0.0 Safari/537.36","WebKit","Chrome","138.0.0.0","Windows","10.0","https://app.prolific.com/","en-US,en;q=0.9,zu;q=0.8","66a79fce251c3b3fedb04d16","687a19d2168e237449fb8af4","6889df9e8125d2def46ad52b","0","66a79fce251c3b3fedb04d16","0","2025-07-30T09:11:35.234Z","","","","MotivationQ","","","","","","","","","","","50","","","","","","","","","","","","","","","","","","","","","","","","","","",""
"","","","","ctl-task-cpt","23","472846","0.0-7.0-0.2","73","1","2025-07-30 09:03:57","36c45c0696341be0efffe67d72a12abb","155.238.5.1","Mozilla/5.0 (Windows NT 10.0; Win64; x64) AppleWebKit/537.36 (KHTML, like Gecko) Chrome/138.0.0.0 Safari/537.36","WebKit","Chrome","138.0.0.0","Windows","10.0","https://app.prolific.com/","en-US,en;q=0.9,zu;q=0.8","66a79fce251c3b3fedb04d16","687a19d2168e237449fb8af4","6889df9e8125d2def46ad52b","0","66a79fce251c3b3fedb04d16","0","2025-07-30T09:11:55.745Z","","","","","","","","","","","","","","","","win-only","2","g1:SE,g2:NW","0.8","3","0","471066.1","2166.1","7173.8","17487","1","4","4","6","1","1","1","3","2","0.022727272727272728","5007.6","3000","1985","[""down"",""right""]","{""num_key_presses"":4,""num_perfect"":4,""num_errors"":0,""num_randdir"":0,""num_randdir_good_moves"":0,""num_whilered"":0,""num_whileblue"":0,""num_blue"":0,""num_good_moves"":4}","[294.22232142857143,294.12857142857143,0.7,294.22232142857143,294.12857142857143,101.1,294.22232142857143,294.12857142857143,201.3,294.22232142857143,294.12857142857143,304.7,294.22232142857143,294.12857142857143,404.8,294.22232142857143,294.12857142857143,508.4,294.22232142857143,294.12857142857143,615,294.22232142857143,294.12857142857143,719.4,294.22232142857143,294.12857142857143,823.5,294.22232142857143,294.12857142857143,926.6,294.22232142857143,294.12857142857143,1029,294.22232142857143,294.12857142857143,1133.8,294.22232142857143,294.12857142857143,1239.1,294.22232142857143,294.12857142857143,1344,294.22232142857143,294.12857142857143,1448.3,294.22232142857143,294.12857142857143,1548.5,294.22232142857143,294.12857142857143,1651.7,294.22232142857143,294.12857142857143,1757.6,294.22232142857143,294.12857142857143,1864.2,294.22232142857143,294.12857142857143,1966.6,294.22232142857143,294.12857142857143,2070.8,294.22232142857143,294.12857142857143,2177.2,294.22232142857143,294.12857142857143,2282.7,294.22232142857143,294.12857142857143,2384.4,294.22232142857143,294.12857142857143,2490.4,294.22232142857143,294.12857142857143,2593.3,294.22232142857143,294.12857142857143,2696.5,294.22232142857143,294.12857142857143,2797.8,294.22232142857143,294.12857142857143,2901.1,294.22232142857143,294.12857142857143,3005.9,294.22232142857143,294.12857142857143,3110.1,294.22232142857143,294.12857142857143,3215,294.22232142857143,294.12857142857143,3316.9,294.22232142857143,294.12857142857143,3421.8,294.22232142857143,294.12857142857143,3528,294.22232142857143,294.12857142857143,3630.9,294.22232142857143,294.12857142857143,3738.8,294.22232142857143,294.12857142857143,3844.6,294.22232142857143,294.12857142857143,3948.5,294.22232142857143,294.12857142857143,4054.1,294.22232142857143,294.12857142857143,4156.9,294.22232142857143,294.12857142857143,4261.5,294.22232142857143,294.12857142857143,4369.5,294.22232142857143,294.12857142857143,4475.8,294.22232142857143,294.12857142857143,4580.7,294.22232142857143,294.12857142857143,4680.8,294.22232142857143,294.12857142857143,4785.6,294.22232142857143,294.12857142857143,4891.2,294.22232142857143,294.12857142857143,4994.7]","[1437.8,1437.9,1000,0,437.9,""smooth"",""down"",""down"",""good_move"",3872.7,2433.4,2030.1,1439.3,403.4,""smooth"",""down"",""down"",""good_move"",6110.3,2236.4,2216.2,3873.9,20.2,""smooth"",""right"",""right"",""good_move"",10157.8,4045.6,3520.7,6112.2,524.9,""smooth"",""right"",""right"",""good_move""]"
"10132","","<div style=""width:500px;"">
  <p>What determined the result of this run?</p>
  </div>","100","html-slider-response","24","482981","0.0-7.0-1.2","73","1","2025-07-30 09:03:57","36c45c0696341be0efffe67d72a12abb","155.238.5.1","Mozilla/5.0 (Windows NT 10.0; Win64; x64) AppleWebKit/537.36 (KHTML, like Gecko) Chrome/138.0.0.0 Safari/537.36","WebKit","Chrome","138.0.0.0","Windows","10.0","https://app.prolific.com/","en-US,en;q=0.9,zu;q=0.8","66a79fce251c3b3fedb04d16","687a19d2168e237449fb8af4","6889df9e8125d2def46ad52b","0","66a79fce251c3b3fedb04d16","0","2025-07-30T09:12:05.880Z","","","","AttribQ","","","","","","","","","","","50","","","","","","","","","","","","","","","","","","","","","","","","","","",""
"6766","","<div style=""width:500px;"">
  <p>How much control did you have over the ball?</p>
  </div>","100","html-slider-response","25","489753","0.0-7.0-2.2","73","1","2025-07-30 09:03:57","36c45c0696341be0efffe67d72a12abb","155.238.5.1","Mozilla/5.0 (Windows NT 10.0; Win64; x64) AppleWebKit/537.36 (KHTML, like Gecko) Chrome/138.0.0.0 Safari/537.36","WebKit","Chrome","138.0.0.0","Windows","10.0","https://app.prolific.com/","en-US,en;q=0.9,zu;q=0.8","66a79fce251c3b3fedb04d16","687a19d2168e237449fb8af4","6889df9e8125d2def46ad52b","0","66a79fce251c3b3fedb04d16","0","2025-07-30T09:12:12.652Z","","","","ControlQ","","","","","","","","","","","50","","","","","","","","","","","","","","","","","","","","","","","","","","",""
"126884","","<div style=""width:500px;"">
  <p>How would you describe your current emotional state?</p>
  </div>","0","html-slider-response","26","616639","0.0-7.0-3.2","73","1","2025-07-30 09:03:57","36c45c0696341be0efffe67d72a12abb","155.238.5.1","Mozilla/5.0 (Windows NT 10.0; Win64; x64) AppleWebKit/537.36 (KHTML, like Gecko) Chrome/138.0.0.0 Safari/537.36","WebKit","Chrome","138.0.0.0","Windows","10.0","https://app.prolific.com/","en-US,en;q=0.9,zu;q=0.8","66a79fce251c3b3fedb04d16","687a19d2168e237449fb8af4","6889df9e8125d2def46ad52b","0","66a79fce251c3b3fedb04d16","0","2025-07-30T09:14:19.538Z","","","","StressQ","","","","","","","","","","","50","","","","","","","","","","","","","","","","","","","","","","","","","","",""
"3304","","<div style=""width:500px;"">
  <p>What best describes how you currently feel?</p>
  </div>","100","html-slider-response","27","619950","0.0-7.0-4.2","73","1","2025-07-30 09:03:57","36c45c0696341be0efffe67d72a12abb","155.238.5.1","Mozilla/5.0 (Windows NT 10.0; Win64; x64) AppleWebKit/537.36 (KHTML, like Gecko) Chrome/138.0.0.0 Safari/537.36","WebKit","Chrome","138.0.0.0","Windows","10.0","https://app.prolific.com/","en-US,en;q=0.9,zu;q=0.8","66a79fce251c3b3fedb04d16","687a19d2168e237449fb8af4","6889df9e8125d2def46ad52b","0","66a79fce251c3b3fedb04d16","0","2025-07-30T09:14:22.850Z","","","","MotivationQ","","","","","","","","","","","50","","","","","","","","","","","","","","","","","","","","","","","","","","",""
"","","","","ctl-task-cpt","28","644601","0.0-7.0-0.3","73","1","2025-07-30 09:03:57","36c45c0696341be0efffe67d72a12abb","155.238.5.1","Mozilla/5.0 (Windows NT 10.0; Win64; x64) AppleWebKit/537.36 (KHTML, like Gecko) Chrome/138.0.0.0 Safari/537.36","WebKit","Chrome","138.0.0.0","Windows","10.0","https://app.prolific.com/","en-US,en;q=0.9,zu;q=0.8","66a79fce251c3b3fedb04d16","687a19d2168e237449fb8af4","6889df9e8125d2def46ad52b","0","66a79fce251c3b3fedb04d16","0","2025-07-30T09:14:47.500Z","","","","","","","","","","","","","","","","win-only","0","g1:NW,g2:SE","0.7","4","0","638682.6","1873.8","6882.4","21636.5","1","4","8","6","1","1","1","4","3","0.030303030303030304","5008.6","3000","860","[""left"",""up""]","{""num_key_presses"":4,""num_perfect"":3,""num_errors"":0,""num_randdir"":1,""num_randdir_good_moves"":1,""num_whilered"":0,""num_whileblue"":0,""num_blue"":1,""num_good_moves"":4}","[294.22232142857143,301.12857142857143,0.2,294.22232142857143,301.12857142857143,103.2,294.22232142857143,301.12857142857143,219.3,294.22232142857143,301.12857142857143,321.6,294.22232142857143,301.12857142857143,422.2,294.22232142857143,301.12857142857143,523.6,294.22232142857143,301.12857142857143,626.1,294.22232142857143,301.12857142857143,728.5,294.22232142857143,301.12857142857143,840.4,294.22232142857143,301.12857142857143,950.5,294.22232142857143,301.12857142857143,1054,294.22232142857143,301.12857142857143,1159,294.22232142857143,301.12857142857143,1259.5,294.22232142857143,301.12857142857143,1462,294.22232142857143,301.12857142857143,1563,294.22232142857143,301.12857142857143,1675.4,294.22232142857143,301.12857142857143,1776.4,294.22232142857143,301.12857142857143,1877.8,294.22232142857143,301.12857142857143,1982.6,294.22232142857143,301.12857142857143,2085.2,294.22232142857143,301.12857142857143,2189.6,294.22232142857143,301.12857142857143,2292.4,294.22232142857143,301.12857142857143,2393.4,294.22232142857143,301.12857142857143,2503,294.22232142857143,301.12857142857143,2607.6,294.22232142857143,301.12857142857143,2712.6,294.22232142857143,301.12857142857143,2821.7,294.22232142857143,301.12857142857143,2922.7,294.22232142857143,301.12857142857143,3027.2,294.22232142857143,301.12857142857143,3128.2,294.22232142857143,301.12857142857143,3236.7,294.22232142857143,301.12857142857143,3339,294.22232142857143,301.12857142857143,3442,294.22232142857143,301.12857142857143,3542.2,294.22232142857143,301.12857142857143,3646.7,294.22232142857143,301.12857142857143,3748.4,294.22232142857143,301.12857142857143,3856.2,294.22232142857143,301.12857142857143,3956.4,294.22232142857143,301.12857142857143,4057.4,294.22232142857143,301.12857142857143,4160.5,294.22232142857143,301.12857142857143,4266.2,294.22232142857143,301.12857142857143,4377.2,294.22232142857143,301.12857142857143,4487.8,294.22232142857143,301.12857142857143,4591.5,294.22232142857143,301.12857142857143,4702.8,294.22232142857143,301.12857142857143,4804.1,294.22232142857143,301.12857142857143,4908]","[1605.4,1605.5,1000,0,605.5,""oops"",""up"",""left"",""good_move"",5449.3,3842.8,2612.7,1606.5,1230.1,""smooth"",""up"",""up"",""good_move"",8558,3105.7,2509.3,5452.3,596.4,""smooth"",""up"",""up"",""good_move"",14630.7,6068.8,2593,11609.1,428.6,""smooth"",""left"",""left"",""good_move""]"
"3454","","<div style=""width:500px;"">
  <p>What determined the result of this run?</p>
  </div>","100","html-slider-response","29","648057","0.0-7.0-1.3","73","1","2025-07-30 09:03:57","36c45c0696341be0efffe67d72a12abb","155.238.5.1","Mozilla/5.0 (Windows NT 10.0; Win64; x64) AppleWebKit/537.36 (KHTML, like Gecko) Chrome/138.0.0.0 Safari/537.36","WebKit","Chrome","138.0.0.0","Windows","10.0","https://app.prolific.com/","en-US,en;q=0.9,zu;q=0.8","66a79fce251c3b3fedb04d16","687a19d2168e237449fb8af4","6889df9e8125d2def46ad52b","0","66a79fce251c3b3fedb04d16","0","2025-07-30T09:14:50.956Z","","","","AttribQ","","","","","","","","","","","50","","","","","","","","","","","","","","","","","","","","","","","","","","",""
"4138","","<div style=""width:500px;"">
  <p>How much control did you have over the ball?</p>
  </div>","100","html-slider-response","30","652201","0.0-7.0-2.3","73","1","2025-07-30 09:03:57","36c45c0696341be0efffe67d72a12abb","155.238.5.1","Mozilla/5.0 (Windows NT 10.0; Win64; x64) AppleWebKit/537.36 (KHTML, like Gecko) Chrome/138.0.0.0 Safari/537.36","WebKit","Chrome","138.0.0.0","Windows","10.0","https://app.prolific.com/","en-US,en;q=0.9,zu;q=0.8","66a79fce251c3b3fedb04d16","687a19d2168e237449fb8af4","6889df9e8125d2def46ad52b","0","66a79fce251c3b3fedb04d16","0","2025-07-30T09:14:55.101Z","","","","ControlQ","","","","","","","","","","","50","","","","","","","","","","","","","","","","","","","","","","","","","","",""
"3808","","<div style=""width:500px;"">
  <p>How would you describe your current emotional state?</p>
  </div>","0","html-slider-response","31","656015","0.0-7.0-3.3","73","1","2025-07-30 09:03:57","36c45c0696341be0efffe67d72a12abb","155.238.5.1","Mozilla/5.0 (Windows NT 10.0; Win64; x64) AppleWebKit/537.36 (KHTML, like Gecko) Chrome/138.0.0.0 Safari/537.36","WebKit","Chrome","138.0.0.0","Windows","10.0","https://app.prolific.com/","en-US,en;q=0.9,zu;q=0.8","66a79fce251c3b3fedb04d16","687a19d2168e237449fb8af4","6889df9e8125d2def46ad52b","0","66a79fce251c3b3fedb04d16","0","2025-07-30T09:14:58.915Z","","","","StressQ","","","","","","","","","","","50","","","","","","","","","","","","","","","","","","","","","","","","","","",""
"3671","","<div style=""width:500px;"">
  <p>What best describes how you currently feel?</p>
  </div>","100","html-slider-response","32","659689","0.0-7.0-4.3","73","1","2025-07-30 09:03:57","36c45c0696341be0efffe67d72a12abb","155.238.5.1","Mozilla/5.0 (Windows NT 10.0; Win64; x64) AppleWebKit/537.36 (KHTML, like Gecko) Chrome/138.0.0.0 Safari/537.36","WebKit","Chrome","138.0.0.0","Windows","10.0","https://app.prolific.com/","en-US,en;q=0.9,zu;q=0.8","66a79fce251c3b3fedb04d16","687a19d2168e237449fb8af4","6889df9e8125d2def46ad52b","0","66a79fce251c3b3fedb04d16","0","2025-07-30T09:15:02.588Z","","","","MotivationQ","","","","","","","","","","","50","","","","","","","","","","","","","","","","","","","","","","","","","","",""
"","","","","ctl-task-cpt","33","709060","0.0-7.0-0.4","73","1","2025-07-30 09:03:57","36c45c0696341be0efffe67d72a12abb","155.238.5.1","Mozilla/5.0 (Windows NT 10.0; Win64; x64) AppleWebKit/537.36 (KHTML, like Gecko) Chrome/138.0.0.0 Safari/537.36","WebKit","Chrome","138.0.0.0","Windows","10.0","https://app.prolific.com/","en-US,en;q=0.9,zu;q=0.8","66a79fce251c3b3fedb04d16","687a19d2168e237449fb8af4","6889df9e8125d2def46ad52b","0","66a79fce251c3b3fedb04d16","0","2025-07-30T09:15:51.960Z","","","","","","","","","","","","","","","","win-only","0","g1:NW,g2:SE","0.6","5","0","678422.6","1322.8","6335","46337.3","1","4","4","6","2","-4","-5","0","4","0","5004","3000","-2345","[""down"",""right""]","{""num_key_presses"":10,""num_perfect"":6,""num_errors"":1,""num_randdir"":3,""num_randdir_good_moves"":2,""num_whilered"":0,""num_whileblue"":1,""num_blue"":4,""num_good_moves"":7}","[296.22232142857143,296.12857142857143,0.2,296.22232142857143,296.12857142857143,100.8,296.22232142857143,296.12857142857143,204.2,296.22232142857143,296.12857142857143,304.2,296.22232142857143,296.12857142857143,415.5,296.22232142857143,296.12857142857143,522,296.22232142857143,296.12857142857143,625,296.22232142857143,296.12857142857143,728.3,296.22232142857143,296.12857142857143,837.7,296.22232142857143,296.12857142857143,938.8,296.22232142857143,296.12857142857143,1039,296.22232142857143,296.12857142857143,1143.8,296.22232142857143,296.12857142857143,1248.6,296.22232142857143,296.12857142857143,1353.7,296.22232142857143,296.12857142857143,1462.9,296.22232142857143,296.12857142857143,1565.1,296.22232142857143,296.12857142857143,1669.2,296.22232142857143,296.12857142857143,1770.4,296.22232142857143,296.12857142857143,1879.9,296.22232142857143,296.12857142857143,1981.4,296.22232142857143,296.12857142857143,2081.7,296.22232142857143,296.12857142857143,2181.8,296.22232142857143,296.12857142857143,2282.9,296.22232142857143,296.12857142857143,2384.8,296.22232142857143,296.12857142857143,2487.9,296.22232142857143,296.12857142857143,2590.7,296.22232142857143,296.12857142857143,2701.5,296.22232142857143,296.12857142857143,2808.5,296.22232142857143,296.12857142857143,2909,296.22232142857143,296.12857142857143,3012.2,296.22232142857143,296.12857142857143,3118.6,296.22232142857143,296.12857142857143,3222.8,296.22232142857143,296.12857142857143,3334.8,296.22232142857143,296.12857142857143,3438.3,296.22232142857143,296.12857142857143,3545.9,296.22232142857143,296.12857142857143,3649.5,296.22232142857143,296.12857142857143,3761.3,296.22232142857143,296.12857142857143,3870.7,296.22232142857143,296.12857142857143,3972.7,296.22232142857143,296.12857142857143,4073,296.22232142857143,296.12857142857143,4173.2,296.22232142857143,296.12857142857143,4275.7,296.22232142857143,296.12857142857143,4378.1,296.22232142857143,296.12857142857143,4486,296.22232142857143,296.12857142857143,4589.3,296.22232142857143,296.12857142857143,4703.7,296.22232142857143,296.12857142857143,4804.1,296.22232142857143,296.12857142857143,4906.6]","[1474.1,1474.1,1000,0,474.1,""smooth"",""up"",""up"",""bad_move"",4326.2,2846.5,2292.7,1479.7,553.8,""oops"",""down"",""left"",""bad_move"",10148,5818.7,1624.4,8080.8,442.8,""smooth"",""down"",""down"",""good_move"",21244.3,11095.3,2836.2,18009.4,398.7,""smooth"",""down"",""down"",""good_move"",24761.4,3513.7,2945,21247.8,568.7,""smooth"",""down"",""down"",""good_move"",26831.3,2065.6,1529,24765.7,536.6,""oops"",""down"",""right"",""good_move"",29404.6,2566.8,2107.6,26837.8,459.2,""oops"",""right"",""down"",""good_move"",32306.2,2895.3,2504.1,29410.9,391.2,""smooth"",""right"",""right"",""good_move"",34962.2,2652.6,2232.8,32309.6,419.8,""smooth"",""right"",""right"",""good_move"",37703.4,2734.4,2393.3,34969,341.2,""while_blue"",""right"",""up"",""bad_move""]"
"9197","","<div style=""width:500px;"">
  <p>What determined the result of this run?</p>
  </div>","1","html-slider-response","34","718259","0.0-7.0-1.4","73","1","2025-07-30 09:03:57","36c45c0696341be0efffe67d72a12abb","155.238.5.1","Mozilla/5.0 (Windows NT 10.0; Win64; x64) AppleWebKit/537.36 (KHTML, like Gecko) Chrome/138.0.0.0 Safari/537.36","WebKit","Chrome","138.0.0.0","Windows","10.0","https://app.prolific.com/","en-US,en;q=0.9,zu;q=0.8","66a79fce251c3b3fedb04d16","687a19d2168e237449fb8af4","6889df9e8125d2def46ad52b","0","66a79fce251c3b3fedb04d16","0","2025-07-30T09:16:01.161Z","","","","AttribQ","","","","","","","","","","","50","","","","","","","","","","","","","","","","","","","","","","","","","","",""
"6650","","<div style=""width:500px;"">
  <p>How much control did you have over the ball?</p>
  </div>","100","html-slider-response","35","724919","0.0-7.0-2.4","73","1","2025-07-30 09:03:57","36c45c0696341be0efffe67d72a12abb","155.238.5.1","Mozilla/5.0 (Windows NT 10.0; Win64; x64) AppleWebKit/537.36 (KHTML, like Gecko) Chrome/138.0.0.0 Safari/537.36","WebKit","Chrome","138.0.0.0","Windows","10.0","https://app.prolific.com/","en-US,en;q=0.9,zu;q=0.8","66a79fce251c3b3fedb04d16","687a19d2168e237449fb8af4","6889df9e8125d2def46ad52b","0","66a79fce251c3b3fedb04d16","0","2025-07-30T09:16:07.819Z","","","","ControlQ","","","","","","","","","","","50","","","","","","","","","","","","","","","","","","","","","","","","","","",""
"11067","","<div style=""width:500px;"">
  <p>How would you describe your current emotional state?</p>
  </div>","0","html-slider-response","36","735990","0.0-7.0-3.4","73","1","2025-07-30 09:03:57","36c45c0696341be0efffe67d72a12abb","155.238.5.1","Mozilla/5.0 (Windows NT 10.0; Win64; x64) AppleWebKit/537.36 (KHTML, like Gecko) Chrome/138.0.0.0 Safari/537.36","WebKit","Chrome","138.0.0.0","Windows","10.0","https://app.prolific.com/","en-US,en;q=0.9,zu;q=0.8","66a79fce251c3b3fedb04d16","687a19d2168e237449fb8af4","6889df9e8125d2def46ad52b","0","66a79fce251c3b3fedb04d16","0","2025-07-30T09:16:18.889Z","","","","StressQ","","","","","","","","","","","50","","","","","","","","","","","","","","","","","","","","","","","","","","",""
"7405","","<div style=""width:500px;"">
  <p>What best describes how you currently feel?</p>
  </div>","100","html-slider-response","37","743403","0.0-7.0-4.4","73","1","2025-07-30 09:03:57","36c45c0696341be0efffe67d72a12abb","155.238.5.1","Mozilla/5.0 (Windows NT 10.0; Win64; x64) AppleWebKit/537.36 (KHTML, like Gecko) Chrome/138.0.0.0 Safari/537.36","WebKit","Chrome","138.0.0.0","Windows","10.0","https://app.prolific.com/","en-US,en;q=0.9,zu;q=0.8","66a79fce251c3b3fedb04d16","687a19d2168e237449fb8af4","6889df9e8125d2def46ad52b","0","66a79fce251c3b3fedb04d16","0","2025-07-30T09:16:26.303Z","","","","MotivationQ","","","","","","","","","","","50","","","","","","","","","","","","","","","","","","","","","","","","","","",""
"","","","","ctl-task-cpt","38","780233","0.0-7.0-0.5","73","1","2025-07-30 09:03:57","36c45c0696341be0efffe67d72a12abb","155.238.5.1","Mozilla/5.0 (Windows NT 10.0; Win64; x64) AppleWebKit/537.36 (KHTML, like Gecko) Chrome/138.0.0.0 Safari/537.36","WebKit","Chrome","138.0.0.0","Windows","10.0","https://app.prolific.com/","en-US,en;q=0.9,zu;q=0.8","66a79fce251c3b3fedb04d16","687a19d2168e237449fb8af4","6889df9e8125d2def46ad52b","0","66a79fce251c3b3fedb04d16","0","2025-07-30T09:17:03.132Z","","","","","","","","","","","","","","","","win-only","3","g1:SW,g2:NE","0.5","6","0","762132.9","1406.1","6415.2","33798.6","1","4","8","6","1","-1","-1","0","0","0","5009.1","3000","-2070","[""down"",""left""]","{""num_key_presses"":5,""num_perfect"":3,""num_errors"":0,""num_randdir"":2,""num_randdir_good_moves"":1,""num_whilered"":0,""num_whileblue"":0,""num_blue"":2,""num_good_moves"":4}","[295.22232142857143,291.12857142857143,5.6,295.22232142857143,291.12857142857143,100.4,295.22232142857143,291.12857142857143,202,295.22232142857143,291.12857142857143,305.4,295.22232142857143,291.12857142857143,408.3,295.22232142857143,291.12857142857143,508.5,295.22232142857143,291.12857142857143,610.3,295.22232142857143,291.12857142857143,712.7,295.22232142857143,291.12857142857143,822.3,295.22232142857143,291.12857142857143,927,295.22232142857143,291.12857142857143,1039.9,295.22232142857143,291.12857142857143,1141.2,295.22232142857143,291.12857142857143,1242.1,295.22232142857143,291.12857142857143,1348,295.22232142857143,291.12857142857143,1451.6,295.22232142857143,291.12857142857143,1567,295.22232142857143,291.12857142857143,1673.7,295.22232142857143,291.12857142857143,1777.7,295.22232142857143,291.12857142857143,1890.3,295.22232142857143,291.12857142857143,1992,295.22232142857143,291.12857142857143,2094.3,295.22232142857143,291.12857142857143,2194.6,295.22232142857143,291.12857142857143,2307.5,295.22232142857143,291.12857142857143,2407.9,295.22232142857143,291.12857142857143,2510.9,295.22232142857143,291.12857142857143,2610.9,295.22232142857143,291.12857142857143,2719.5,295.22232142857143,291.12857142857143,2823.7,295.22232142857143,291.12857142857143,2923.8,295.22232142857143,291.12857142857143,3024.2,295.22232142857143,291.12857142857143,3124.5,295.22232142857143,291.12857142857143,3226,295.22232142857143,291.12857142857143,3327.3,295.22232142857143,291.12857142857143,3429,295.22232142857143,291.12857142857143,3537.9,295.22232142857143,291.12857142857143,3640.3,295.22232142857143,291.12857142857143,3742.8,295.22232142857143,291.12857142857143,3845.5,295.22232142857143,291.12857142857143,3945.8,295.22232142857143,291.12857142857143,4049.9,295.22232142857143,291.12857142857143,4162,295.22232142857143,291.12857142857143,4274.8,295.22232142857143,291.12857142857143,4375.2,295.22232142857143,291.12857142857143,4482.3,295.22232142857143,291.12857142857143,4594.1,295.22232142857143,291.12857142857143,4694.6,295.22232142857143,291.12857142857143,4795.1,295.22232142857143,291.12857142857143,4897.7]","[1797,1797,1000,0,797,""oops"",""down"",""left"",""good_move"",5106.5,3308.2,2874.5,1798.3,433.7,""smooth"",""left"",""left"",""good_move"",16665.9,11554.6,3363.6,12838.4,463.9,""smooth"",""down"",""down"",""good_move"",20359.2,3690.1,2320,16669.2,1370.1,""oops"",""down"",""up"",""bad_move"",24127.1,3763.8,3136.7,20363.3,627.1,""smooth"",""down"",""down"",""good_move""]"
"6588","","<div style=""width:500px;"">
  <p>What determined the result of this run?</p>
  </div>","92","html-slider-response","39","786823","0.0-7.0-1.5","73","1","2025-07-30 09:03:57","36c45c0696341be0efffe67d72a12abb","155.238.5.1","Mozilla/5.0 (Windows NT 10.0; Win64; x64) AppleWebKit/537.36 (KHTML, like Gecko) Chrome/138.0.0.0 Safari/537.36","WebKit","Chrome","138.0.0.0","Windows","10.0","https://app.prolific.com/","en-US,en;q=0.9,zu;q=0.8","66a79fce251c3b3fedb04d16","687a19d2168e237449fb8af4","6889df9e8125d2def46ad52b","0","66a79fce251c3b3fedb04d16","0","2025-07-30T09:17:09.722Z","","","","AttribQ","","","","","","","","","","","50","","","","","","","","","","","","","","","","","","","","","","","","","","",""
"3980","","<div style=""width:500px;"">
  <p>How much control did you have over the ball?</p>
  </div>","15","html-slider-response","40","790807","0.0-7.0-2.5","73","1","2025-07-30 09:03:57","36c45c0696341be0efffe67d72a12abb","155.238.5.1","Mozilla/5.0 (Windows NT 10.0; Win64; x64) AppleWebKit/537.36 (KHTML, like Gecko) Chrome/138.0.0.0 Safari/537.36","WebKit","Chrome","138.0.0.0","Windows","10.0","https://app.prolific.com/","en-US,en;q=0.9,zu;q=0.8","66a79fce251c3b3fedb04d16","687a19d2168e237449fb8af4","6889df9e8125d2def46ad52b","0","66a79fce251c3b3fedb04d16","0","2025-07-30T09:17:13.707Z","","","","ControlQ","","","","","","","","","","","50","","","","","","","","","","","","","","","","","","","","","","","","","","",""
"3133","","<div style=""width:500px;"">
  <p>How would you describe your current emotional state?</p>
  </div>","11","html-slider-response","41","793945","0.0-7.0-3.5","73","1","2025-07-30 09:03:57","36c45c0696341be0efffe67d72a12abb","155.238.5.1","Mozilla/5.0 (Windows NT 10.0; Win64; x64) AppleWebKit/537.36 (KHTML, like Gecko) Chrome/138.0.0.0 Safari/537.36","WebKit","Chrome","138.0.0.0","Windows","10.0","https://app.prolific.com/","en-US,en;q=0.9,zu;q=0.8","66a79fce251c3b3fedb04d16","687a19d2168e237449fb8af4","6889df9e8125d2def46ad52b","0","66a79fce251c3b3fedb04d16","0","2025-07-30T09:17:16.844Z","","","","StressQ","","","","","","","","","","","50","","","","","","","","","","","","","","","","","","","","","","","","","","",""
"3640","","<div style=""width:500px;"">
  <p>What best describes how you currently feel?</p>
  </div>","83","html-slider-response","42","797588","0.0-7.0-4.5","73","1","2025-07-30 09:03:57","36c45c0696341be0efffe67d72a12abb","155.238.5.1","Mozilla/5.0 (Windows NT 10.0; Win64; x64) AppleWebKit/537.36 (KHTML, like Gecko) Chrome/138.0.0.0 Safari/537.36","WebKit","Chrome","138.0.0.0","Windows","10.0","https://app.prolific.com/","en-US,en;q=0.9,zu;q=0.8","66a79fce251c3b3fedb04d16","687a19d2168e237449fb8af4","6889df9e8125d2def46ad52b","0","66a79fce251c3b3fedb04d16","0","2025-07-30T09:17:20.489Z","","","","MotivationQ","","","","","","","","","","","50","","","","","","","","","","","","","","","","","","","","","","","","","","",""
"","","","","ctl-task-cpt","43","824535","0.0-7.0-0.6","73","1","2025-07-30 09:03:57","36c45c0696341be0efffe67d72a12abb","155.238.5.1","Mozilla/5.0 (Windows NT 10.0; Win64; x64) AppleWebKit/537.36 (KHTML, like Gecko) Chrome/138.0.0.0 Safari/537.36","WebKit","Chrome","138.0.0.0","Windows","10.0","https://app.prolific.com/","en-US,en;q=0.9,zu;q=0.8","66a79fce251c3b3fedb04d16","687a19d2168e237449fb8af4","6889df9e8125d2def46ad52b","0","66a79fce251c3b3fedb04d16","0","2025-07-30T09:17:47.434Z","","","","","","","","","","","","","","","","win-only","2","g1:SE,g2:NW","0.4","7","0","816319.5","1448.6","6450.7","23918.7","1","4","4","6","2","4","4","4","0","0.030303030303030304","5002.1","3000","1195","[""left"",""up""]","{""num_key_presses"":6,""num_perfect"":3,""num_errors"":0,""num_randdir"":3,""num_randdir_good_moves"":3,""num_whilered"":0,""num_whileblue"":0,""num_blue"":0,""num_good_moves"":6}","[300.22232142857143,291.12857142857143,0.8,300.22232142857143,291.12857142857143,116.8,300.22232142857143,291.12857142857143,223.8,300.22232142857143,291.12857142857143,329.7,300.22232142857143,291.12857142857143,431.1,300.22232142857143,291.12857142857143,533.4,300.22232142857143,291.12857142857143,637.2,300.22232142857143,291.12857142857143,738.1,300.22232142857143,291.12857142857143,844.4,300.22232142857143,291.12857142857143,945.3,300.22232142857143,291.12857142857143,1046.8,300.22232142857143,291.12857142857143,1147.7,300.22232142857143,291.12857142857143,1258.7,300.22232142857143,291.12857142857143,1359.4,300.22232142857143,291.12857142857143,1464.6,300.22232142857143,291.12857142857143,1565.7,300.22232142857143,291.12857142857143,1668.8,300.22232142857143,291.12857142857143,1781,300.22232142857143,291.12857142857143,1883.4,300.22232142857143,291.12857142857143,1993.3,300.22232142857143,291.12857142857143,2097.7,300.22232142857143,291.12857142857143,2202.7,300.22232142857143,291.12857142857143,2311.7,300.22232142857143,291.12857142857143,2413.7,300.22232142857143,291.12857142857143,2514.1,300.22232142857143,291.12857142857143,2617.3,300.22232142857143,291.12857142857143,2721.8,300.22232142857143,291.12857142857143,2823.3,300.22232142857143,291.12857142857143,2924.1,300.22232142857143,291.12857142857143,3038.3,300.22232142857143,291.12857142857143,3145.9,300.22232142857143,291.12857142857143,3247.7,300.22232142857143,291.12857142857143,3354.7,300.22232142857143,291.12857142857143,3457.5,300.22232142857143,291.12857142857143,3573.1,300.22232142857143,291.12857142857143,3684.7,300.22232142857143,291.12857142857143,3793.7,300.22232142857143,291.12857142857143,3896.9,300.22232142857143,291.12857142857143,4000.1,300.22232142857143,291.12857142857143,4102,300.22232142857143,291.12857142857143,4202.3,300.22232142857143,291.12857142857143,4303.5,300.22232142857143,291.12857142857143,4409.1,300.22232142857143,291.12857142857143,4511.6,300.22232142857143,291.12857142857143,4613.8,300.22232142857143,291.12857142857143,4715.2,300.22232142857143,291.12857142857143,4818.6,300.22232142857143,291.12857142857143,4919.4]","[1221.3,1221.3,1000,0.1,221.2,""smooth"",""up"",""up"",""good_move"",4620.6,3398.1,2926.7,1222.5,471.4,""oops"",""up"",""left"",""good_move"",8025.6,3396.5,2864,4629.1,532.5,""smooth"",""up"",""up"",""good_move"",10712.4,2680.6,2121.6,8031.8,559,""oops"",""up"",""left"",""good_move"",13976.3,3232.6,2654.3,10743.8,578.3,""oops"",""up"",""up"",""good_move"",17325.2,3343.9,2829.2,13981.4,514.7,""smooth"",""left"",""left"",""good_move""]"
"4290","","<div style=""width:500px;"">
  <p>What determined the result of this run?</p>
  </div>","0","html-slider-response","44","828831","0.0-7.0-1.6","73","1","2025-07-30 09:03:57","36c45c0696341be0efffe67d72a12abb","155.238.5.1","Mozilla/5.0 (Windows NT 10.0; Win64; x64) AppleWebKit/537.36 (KHTML, like Gecko) Chrome/138.0.0.0 Safari/537.36","WebKit","Chrome","138.0.0.0","Windows","10.0","https://app.prolific.com/","en-US,en;q=0.9,zu;q=0.8","66a79fce251c3b3fedb04d16","687a19d2168e237449fb8af4","6889df9e8125d2def46ad52b","0","66a79fce251c3b3fedb04d16","0","2025-07-30T09:17:51.730Z","","","","AttribQ","","","","","","","","","","","50","","","","","","","","","","","","","","","","","","","","","","","","","","",""
"6595","","<div style=""width:500px;"">
  <p>How much control did you have over the ball?</p>
  </div>","100","html-slider-response","45","835430","0.0-7.0-2.6","73","1","2025-07-30 09:03:57","36c45c0696341be0efffe67d72a12abb","155.238.5.1","Mozilla/5.0 (Windows NT 10.0; Win64; x64) AppleWebKit/537.36 (KHTML, like Gecko) Chrome/138.0.0.0 Safari/537.36","WebKit","Chrome","138.0.0.0","Windows","10.0","https://app.prolific.com/","en-US,en;q=0.9,zu;q=0.8","66a79fce251c3b3fedb04d16","687a19d2168e237449fb8af4","6889df9e8125d2def46ad52b","0","66a79fce251c3b3fedb04d16","0","2025-07-30T09:17:58.331Z","","","","ControlQ","","","","","","","","","","","50","","","","","","","","","","","","","","","","","","","","","","","","","","",""
"3735","","<div style=""width:500px;"">
  <p>How would you describe your current emotional state?</p>
  </div>","3","html-slider-response","46","839171","0.0-7.0-3.6","73","1","2025-07-30 09:03:57","36c45c0696341be0efffe67d72a12abb","155.238.5.1","Mozilla/5.0 (Windows NT 10.0; Win64; x64) AppleWebKit/537.36 (KHTML, like Gecko) Chrome/138.0.0.0 Safari/537.36","WebKit","Chrome","138.0.0.0","Windows","10.0","https://app.prolific.com/","en-US,en;q=0.9,zu;q=0.8","66a79fce251c3b3fedb04d16","687a19d2168e237449fb8af4","6889df9e8125d2def46ad52b","0","66a79fce251c3b3fedb04d16","0","2025-07-30T09:18:02.071Z","","","","StressQ","","","","","","","","","","","50","","","","","","","","","","","","","","","","","","","","","","","","","","",""
"3401","","<div style=""width:500px;"">
  <p>What best describes how you currently feel?</p>
  </div>","100","html-slider-response","47","842576","0.0-7.0-4.6","73","1","2025-07-30 09:03:57","36c45c0696341be0efffe67d72a12abb","155.238.5.1","Mozilla/5.0 (Windows NT 10.0; Win64; x64) AppleWebKit/537.36 (KHTML, like Gecko) Chrome/138.0.0.0 Safari/537.36","WebKit","Chrome","138.0.0.0","Windows","10.0","https://app.prolific.com/","en-US,en;q=0.9,zu;q=0.8","66a79fce251c3b3fedb04d16","687a19d2168e237449fb8af4","6889df9e8125d2def46ad52b","0","66a79fce251c3b3fedb04d16","0","2025-07-30T09:18:05.476Z","","","","MotivationQ","","","","","","","","","","","50","","","","","","","","","","","","","","","","","","","","","","","","","","",""
"","","","","ctl-task-cpt","48","883350","0.0-7.0-0.7","73","1","2025-07-30 09:03:57","36c45c0696341be0efffe67d72a12abb","155.238.5.1","Mozilla/5.0 (Windows NT 10.0; Win64; x64) AppleWebKit/537.36 (KHTML, like Gecko) Chrome/138.0.0.0 Safari/537.36","WebKit","Chrome","138.0.0.0","Windows","10.0","https://app.prolific.com/","en-US,en;q=0.9,zu;q=0.8","66a79fce251c3b3fedb04d16","687a19d2168e237449fb8af4","6889df9e8125d2def46ad52b","0","66a79fce251c3b3fedb04d16","0","2025-07-30T09:18:46.249Z","","","","","","","","","","","","","","","","win-only","3","g1:SW,g2:NE","0.3","8","0","861307.1","1197.2","6211","37756.4","1","4","8","6","1","-1","-2","2","4","0.015151515151515152","5013.8","3000","-1785","[""down"",""left""]","{""num_key_presses"":8,""num_perfect"":3,""num_errors"":1,""num_randdir"":4,""num_randdir_good_moves"":2,""num_whilered"":0,""num_whileblue"":0,""num_blue"":1,""num_good_moves"":5}","[296.22232142857143,295.12857142857143,1,296.22232142857143,295.12857142857143,105.9,296.22232142857143,295.12857142857143,210.3,296.22232142857143,295.12857142857143,313.7,296.22232142857143,295.12857142857143,415.9,296.22232142857143,295.12857142857143,519.2,296.22232142857143,295.12857142857143,619.4,296.22232142857143,295.12857142857143,726,296.22232142857143,295.12857142857143,830.4,296.22232142857143,295.12857142857143,938.5,296.22232142857143,295.12857142857143,1050.1,296.22232142857143,295.12857142857143,1161.8,296.22232142857143,295.12857142857143,1264.1,296.22232142857143,295.12857142857143,1364.7,296.22232142857143,295.12857142857143,1473,296.22232142857143,295.12857142857143,1578.4,296.22232142857143,295.12857142857143,1679.7,296.22232142857143,295.12857142857143,1780.2,296.22232142857143,295.12857142857143,1888.2,296.22232142857143,295.12857142857143,1990.7,296.22232142857143,295.12857142857143,2103.3,296.22232142857143,295.12857142857143,2206.9,296.22232142857143,295.12857142857143,2312.2,296.22232142857143,295.12857142857143,2413.7,296.22232142857143,295.12857142857143,2526,296.22232142857143,295.12857142857143,2628.3,296.22232142857143,295.12857142857143,2728.3,296.22232142857143,295.12857142857143,2831.4,296.22232142857143,295.12857142857143,2938.9,296.22232142857143,295.12857142857143,3049,296.22232142857143,295.12857142857143,3150,296.22232142857143,295.12857142857143,3250.6,296.22232142857143,295.12857142857143,3365.3,296.22232142857143,295.12857142857143,3470,296.22232142857143,295.12857142857143,3571.3,296.22232142857143,295.12857142857143,3692.2,296.22232142857143,295.12857142857143,3990.2,296.22232142857143,295.12857142857143,4098,296.22232142857143,295.12857142857143,4215.4,296.22232142857143,295.12857142857143,4317.7,296.22232142857143,295.12857142857143,4425.2,296.22232142857143,295.12857142857143,4537.9,296.22232142857143,295.12857142857143,4645.7,296.22232142857143,295.12857142857143,4746.4,296.22232142857143,295.12857142857143,4849.5,296.22232142857143,295.12857142857143,4954.9]","[1784,1784,1000,0,784,""oops"",""up"",""up"",""bad_move"",5402.8,3617,2323.3,1785.8,1293.7,""oops"",""left"",""right"",""bad_move"",9470,4063.1,2769.3,5406.9,1293.8,""smooth"",""left"",""left"",""good_move"",10080.9,601.8,2964.1,9479.1,-2362.3,""error"",""-"",""-"",""no_move"",14665.2,4571.8,3010.2,11099.4,555.6,""smooth"",""left"",""left"",""good_move"",17380.8,2709.3,2174.2,14671.5,535.1,""oops"",""left"",""left"",""good_move"",21219.1,3834.4,2750,17384.7,1084.4,""oops"",""down"",""down"",""good_move"",28463.5,7238.4,2752.5,25262.1,448.9,""smooth"",""down"",""down"",""good_move""]"
"17763","","<div style=""width:500px;"">
  <p>What determined the result of this run?</p>
  </div>","97","html-slider-response","49","901125","0.0-7.0-1.7","73","1","2025-07-30 09:03:57","36c45c0696341be0efffe67d72a12abb","155.238.5.1","Mozilla/5.0 (Windows NT 10.0; Win64; x64) AppleWebKit/537.36 (KHTML, like Gecko) Chrome/138.0.0.0 Safari/537.36","WebKit","Chrome","138.0.0.0","Windows","10.0","https://app.prolific.com/","en-US,en;q=0.9,zu;q=0.8","66a79fce251c3b3fedb04d16","687a19d2168e237449fb8af4","6889df9e8125d2def46ad52b","0","66a79fce251c3b3fedb04d16","0","2025-07-30T09:19:04.024Z","","","","AttribQ","","","","","","","","","","","50","","","","","","","","","","","","","","","","","","","","","","","","","","",""
"5969","","<div style=""width:500px;"">
  <p>How much control did you have over the ball?</p>
  </div>","15","html-slider-response","50","907100","0.0-7.0-2.7","73","1","2025-07-30 09:03:57","36c45c0696341be0efffe67d72a12abb","155.238.5.1","Mozilla/5.0 (Windows NT 10.0; Win64; x64) AppleWebKit/537.36 (KHTML, like Gecko) Chrome/138.0.0.0 Safari/537.36","WebKit","Chrome","138.0.0.0","Windows","10.0","https://app.prolific.com/","en-US,en;q=0.9,zu;q=0.8","66a79fce251c3b3fedb04d16","687a19d2168e237449fb8af4","6889df9e8125d2def46ad52b","0","66a79fce251c3b3fedb04d16","0","2025-07-30T09:19:10.001Z","","","","ControlQ","","","","","","","","","","","50","","","","","","","","","","","","","","","","","","","","","","","","","","",""
"5182","","<div style=""width:500px;"">
  <p>How would you describe your current emotional state?</p>
  </div>","15","html-slider-response","51","912288","0.0-7.0-3.7","73","1","2025-07-30 09:03:57","36c45c0696341be0efffe67d72a12abb","155.238.5.1","Mozilla/5.0 (Windows NT 10.0; Win64; x64) AppleWebKit/537.36 (KHTML, like Gecko) Chrome/138.0.0.0 Safari/537.36","WebKit","Chrome","138.0.0.0","Windows","10.0","https://app.prolific.com/","en-US,en;q=0.9,zu;q=0.8","66a79fce251c3b3fedb04d16","687a19d2168e237449fb8af4","6889df9e8125d2def46ad52b","0","66a79fce251c3b3fedb04d16","0","2025-07-30T09:19:15.188Z","","","","StressQ","","","","","","","","","","","50","","","","","","","","","","","","","","","","","","","","","","","","","","",""
"3274","","<div style=""width:500px;"">
  <p>What best describes how you currently feel?</p>
  </div>","97","html-slider-response","52","915568","0.0-7.0-4.7","73","1","2025-07-30 09:03:57","36c45c0696341be0efffe67d72a12abb","155.238.5.1","Mozilla/5.0 (Windows NT 10.0; Win64; x64) AppleWebKit/537.36 (KHTML, like Gecko) Chrome/138.0.0.0 Safari/537.36","WebKit","Chrome","138.0.0.0","Windows","10.0","https://app.prolific.com/","en-US,en;q=0.9,zu;q=0.8","66a79fce251c3b3fedb04d16","687a19d2168e237449fb8af4","6889df9e8125d2def46ad52b","0","66a79fce251c3b3fedb04d16","0","2025-07-30T09:19:18.467Z","","","","MotivationQ","","","","","","","","","","","50","","","","","","","","","","","","","","","","","","","","","","","","","","",""
"","","","","ctl-task-cpt","53","947950","0.0-7.0-0.8","73","1","2025-07-30 09:03:57","36c45c0696341be0efffe67d72a12abb","155.238.5.1","Mozilla/5.0 (Windows NT 10.0; Win64; x64) AppleWebKit/537.36 (KHTML, like Gecko) Chrome/138.0.0.0 Safari/537.36","WebKit","Chrome","138.0.0.0","Windows","10.0","https://app.prolific.com/","en-US,en;q=0.9,zu;q=0.8","66a79fce251c3b3fedb04d16","687a19d2168e237449fb8af4","6889df9e8125d2def46ad52b","0","66a79fce251c3b3fedb04d16","0","2025-07-30T09:19:50.849Z","","","","","","","","","","","","","","","","win-only","1","g1:NE,g2:SW","0.4","9","0","934310","1581.2","6589.6","29352.6","1","4","8","6","1","-1","-2","0","2","0","5008.4","3000","-1750","[""up"",""right""]","{""num_key_presses"":5,""num_perfect"":1,""num_errors"":1,""num_randdir"":3,""num_randdir_good_moves"":2,""num_whilered"":0,""num_whileblue"":0,""num_blue"":1,""num_good_moves"":3}","[295.22232142857143,298.12857142857143,0.1,295.22232142857143,298.12857142857143,111.6,295.22232142857143,298.12857142857143,218.1,295.22232142857143,298.12857142857143,318.5,295.22232142857143,298.12857142857143,422.4,295.22232142857143,298.12857142857143,523.8,295.22232142857143,298.12857142857143,635.5,295.22232142857143,298.12857142857143,736.4,295.22232142857143,298.12857142857143,836.9,295.22232142857143,298.12857142857143,940.5,295.22232142857143,298.12857142857143,1045.8,295.22232142857143,298.12857142857143,1153.3,295.22232142857143,298.12857142857143,1256.9,295.22232142857143,298.12857142857143,1371.4,295.22232142857143,298.12857142857143,1476.5,295.22232142857143,298.12857142857143,1578.7,295.22232142857143,298.12857142857143,1681.4,295.22232142857143,298.12857142857143,1782.1,295.22232142857143,298.12857142857143,1883.2,295.22232142857143,298.12857142857143,1990.7,295.22232142857143,298.12857142857143,2091,295.22232142857143,298.12857142857143,2194.9,295.22232142857143,298.12857142857143,2296.3,295.22232142857143,298.12857142857143,2396.7,295.22232142857143,298.12857142857143,2498.7,295.22232142857143,298.12857142857143,2610.6,295.22232142857143,298.12857142857143,2712.6,295.22232142857143,298.12857142857143,2821.5,295.22232142857143,298.12857142857143,2921.5,295.22232142857143,298.12857142857143,3029.6,295.22232142857143,298.12857142857143,3133.7,295.22232142857143,298.12857142857143,3234.8,295.22232142857143,298.12857142857143,3340.1,295.22232142857143,298.12857142857143,3440.3,295.22232142857143,298.12857142857143,3572.4,295.22232142857143,298.12857142857143,3800,295.22232142857143,298.12857142857143,3922.2,295.22232142857143,298.12857142857143,4024.9,295.22232142857143,298.12857142857143,4125.5,295.22232142857143,298.12857142857143,4229.3,295.22232142857143,298.12857142857143,4334.9,295.22232142857143,298.12857142857143,4436.5,295.22232142857143,298.12857142857143,4538.7,295.22232142857143,298.12857142857143,4646.3,295.22232142857143,298.12857142857143,4753.7,295.22232142857143,298.12857142857143,4856.8,295.22232142857143,298.12857142857143,4959.1]","[631.3,631.3,1000,0,-368.7,""error"",""-"",""-"",""no_move"",4502.5,3870.4,1997,1641.3,864.2,""oops"",""up"",""right"",""good_move"",8351.9,3847.5,2363.3,4504.4,1484.2,""oops"",""up"",""left"",""bad_move"",11482.2,3130.1,2397.6,8352.1,732.5,""smooth"",""up"",""up"",""good_move"",18716.6,7234.2,2810,15378.2,528.4,""oops"",""up"",""right"",""good_move""]"
"9883","","<div style=""width:500px;"">
  <p>What determined the result of this run?</p>
  </div>","94","html-slider-response","54","957835","0.0-7.0-1.8","73","1","2025-07-30 09:03:57","36c45c0696341be0efffe67d72a12abb","155.238.5.1","Mozilla/5.0 (Windows NT 10.0; Win64; x64) AppleWebKit/537.36 (KHTML, like Gecko) Chrome/138.0.0.0 Safari/537.36","WebKit","Chrome","138.0.0.0","Windows","10.0","https://app.prolific.com/","en-US,en;q=0.9,zu;q=0.8","66a79fce251c3b3fedb04d16","687a19d2168e237449fb8af4","6889df9e8125d2def46ad52b","0","66a79fce251c3b3fedb04d16","0","2025-07-30T09:20:00.734Z","","","","AttribQ","","","","","","","","","","","50","","","","","","","","","","","","","","","","","","","","","","","","","","",""
"7892","","<div style=""width:500px;"">
  <p>How much control did you have over the ball?</p>
  </div>","83","html-slider-response","55","965730","0.0-7.0-2.8","73","1","2025-07-30 09:03:57","36c45c0696341be0efffe67d72a12abb","155.238.5.1","Mozilla/5.0 (Windows NT 10.0; Win64; x64) AppleWebKit/537.36 (KHTML, like Gecko) Chrome/138.0.0.0 Safari/537.36","WebKit","Chrome","138.0.0.0","Windows","10.0","https://app.prolific.com/","en-US,en;q=0.9,zu;q=0.8","66a79fce251c3b3fedb04d16","687a19d2168e237449fb8af4","6889df9e8125d2def46ad52b","0","66a79fce251c3b3fedb04d16","0","2025-07-30T09:20:08.629Z","","","","ControlQ","","","","","","","","","","","50","","","","","","","","","","","","","","","","","","","","","","","","","","",""
"5054","","<div style=""width:500px;"">
  <p>How would you describe your current emotional state?</p>
  </div>","4","html-slider-response","56","970787","0.0-7.0-3.8","73","1","2025-07-30 09:03:57","36c45c0696341be0efffe67d72a12abb","155.238.5.1","Mozilla/5.0 (Windows NT 10.0; Win64; x64) AppleWebKit/537.36 (KHTML, like Gecko) Chrome/138.0.0.0 Safari/537.36","WebKit","Chrome","138.0.0.0","Windows","10.0","https://app.prolific.com/","en-US,en;q=0.9,zu;q=0.8","66a79fce251c3b3fedb04d16","687a19d2168e237449fb8af4","6889df9e8125d2def46ad52b","0","66a79fce251c3b3fedb04d16","0","2025-07-30T09:20:13.686Z","","","","StressQ","","","","","","","","","","","50","","","","","","","","","","","","","","","","","","","","","","","","","","",""
"6148","","<div style=""width:500px;"">
  <p>What best describes how you currently feel?</p>
  </div>","99","html-slider-response","57","976939","0.0-7.0-4.8","73","1","2025-07-30 09:03:57","36c45c0696341be0efffe67d72a12abb","155.238.5.1","Mozilla/5.0 (Windows NT 10.0; Win64; x64) AppleWebKit/537.36 (KHTML, like Gecko) Chrome/138.0.0.0 Safari/537.36","WebKit","Chrome","138.0.0.0","Windows","10.0","https://app.prolific.com/","en-US,en;q=0.9,zu;q=0.8","66a79fce251c3b3fedb04d16","687a19d2168e237449fb8af4","6889df9e8125d2def46ad52b","0","66a79fce251c3b3fedb04d16","0","2025-07-30T09:20:19.838Z","","","","MotivationQ","","","","","","","","","","","50","","","","","","","","","","","","","","","","","","","","","","","","","","",""
"","","","","ctl-task-cpt","58","1018880","0.0-7.0-0.9","73","1","2025-07-30 09:03:57","36c45c0696341be0efffe67d72a12abb","155.238.5.1","Mozilla/5.0 (Windows NT 10.0; Win64; x64) AppleWebKit/537.36 (KHTML, like Gecko) Chrome/138.0.0.0 Safari/537.36","WebKit","Chrome","138.0.0.0","Windows","10.0","https://app.prolific.com/","en-US,en;q=0.9,zu;q=0.8","66a79fce251c3b3fedb04d16","687a19d2168e237449fb8af4","6889df9e8125d2def46ad52b","0","66a79fce251c3b3fedb04d16","0","2025-07-30T09:21:01.779Z","","","","","","","","","","","","","","","","win-only","1","g1:NE,g2:SW","0.5","10","0","995668.5","1222.1","6234.8","38914.3","1","4","4","6","2","4","4","4","0","0.030303030303030304","5012.6","3000","780","[""down"",""left""]","{""num_key_presses"":8,""num_perfect"":5,""num_errors"":0,""num_randdir"":3,""num_randdir_good_moves"":2,""num_whilered"":0,""num_whileblue"":0,""num_blue"":3,""num_good_moves"":7}","[295.22232142857143,297.12857142857143,0,295.22232142857143,297.12857142857143,120.1,295.22232142857143,297.12857142857143,227.2,295.22232142857143,297.12857142857143,337.6,295.22232142857143,297.12857142857143,448.9,295.22232142857143,297.12857142857143,556,295.22232142857143,297.12857142857143,663.3,295.22232142857143,297.12857142857143,766.5,295.22232142857143,297.12857142857143,887.9,295.22232142857143,297.12857142857143,993.1,295.22232142857143,297.12857142857143,1093.5,295.22232142857143,297.12857142857143,1197.2,295.22232142857143,297.12857142857143,1307.8,295.22232142857143,297.12857142857143,1411.1,295.22232142857143,297.12857142857143,1517,295.22232142857143,297.12857142857143,1621.1,295.22232142857143,297.12857142857143,1741.7,295.22232142857143,297.12857142857143,1847.6,295.22232142857143,297.12857142857143,1958.7,295.22232142857143,297.12857142857143,2061.2,295.22232142857143,297.12857142857143,2169.9,295.22232142857143,297.12857142857143,2281.8,295.22232142857143,297.12857142857143,2400.1,295.22232142857143,297.12857142857143,2505.3,295.22232142857143,297.12857142857143,2612.8,295.22232142857143,297.12857142857143,2718.5,295.22232142857143,297.12857142857143,2828.7,295.22232142857143,297.12857142857143,2935.9,295.22232142857143,297.12857142857143,3040.4,295.22232142857143,297.12857142857143,3141.6,295.22232142857143,297.12857142857143,3242.9,295.22232142857143,297.12857142857143,3345.6,295.22232142857143,297.12857142857143,3452.6,295.22232142857143,297.12857142857143,3564.2,295.22232142857143,297.12857142857143,3666.7,295.22232142857143,297.12857142857143,3776,295.22232142857143,297.12857142857143,3879.6,295.22232142857143,297.12857142857143,3981.2,295.22232142857143,297.12857142857143,4091.3,295.22232142857143,297.12857142857143,4197.2,295.22232142857143,297.12857142857143,4297.4,295.22232142857143,297.12857142857143,4401.2,295.22232142857143,297.12857142857143,4510.4,295.22232142857143,297.12857142857143,4611.5,295.22232142857143,297.12857142857143,4715.6,295.22232142857143,297.12857142857143,4816.4,295.22232142857143,297.12857142857143,4929.1]","[1559.3,1559.3,1000,0,559.3,""oops"",""up"",""right"",""bad_move"",4496.6,2933.2,2337.7,1563.4,595.5,""oops"",""down"",""down"",""good_move"",10617.3,6120,2039.2,8045.4,532.7,""smooth"",""down"",""down"",""good_move"",13573.3,2950.1,2343.1,10623.3,606.9,""smooth"",""down"",""down"",""good_move"",16369.9,2794.7,1928,13575.3,866.6,""smooth"",""left"",""left"",""good_move"",23083.8,6705.8,2533.4,19971,579.4,""smooth"",""left"",""left"",""good_move"",25751.2,2662.7,2051.1,23088.5,611.6,""smooth"",""left"",""left"",""good_move"",32495.9,6736.7,2571.1,29417.1,507.7,""oops"",""left"",""left"",""good_move""]"
"8856","","<div style=""width:500px;"">
  <p>What determined the result of this run?</p>
  </div>","0","html-slider-response","59","1027744","0.0-7.0-1.9","73","1","2025-07-30 09:03:57","36c45c0696341be0efffe67d72a12abb","155.238.5.1","Mozilla/5.0 (Windows NT 10.0; Win64; x64) AppleWebKit/537.36 (KHTML, like Gecko) Chrome/138.0.0.0 Safari/537.36","WebKit","Chrome","138.0.0.0","Windows","10.0","https://app.prolific.com/","en-US,en;q=0.9,zu;q=0.8","66a79fce251c3b3fedb04d16","687a19d2168e237449fb8af4","6889df9e8125d2def46ad52b","0","66a79fce251c3b3fedb04d16","0","2025-07-30T09:21:10.799Z","","","","AttribQ","","","","","","","","","","","50","","","","","","","","","","","","","","","","","","","","","","","","","","",""
"4530","","<div style=""width:500px;"">
  <p>How much control did you have over the ball?</p>
  </div>","100","html-slider-response","60","1032472","0.0-7.0-2.9","73","1","2025-07-30 09:03:57","36c45c0696341be0efffe67d72a12abb","155.238.5.1","Mozilla/5.0 (Windows NT 10.0; Win64; x64) AppleWebKit/537.36 (KHTML, like Gecko) Chrome/138.0.0.0 Safari/537.36","WebKit","Chrome","138.0.0.0","Windows","10.0","https://app.prolific.com/","en-US,en;q=0.9,zu;q=0.8","66a79fce251c3b3fedb04d16","687a19d2168e237449fb8af4","6889df9e8125d2def46ad52b","0","66a79fce251c3b3fedb04d16","0","2025-07-30T09:21:15.372Z","","","","ControlQ","","","","","","","","","","","50","","","","","","","","","","","","","","","","","","","","","","","","","","",""
"9967","","<div style=""width:500px;"">
  <p>How would you describe your current emotional state?</p>
  </div>","0","html-slider-response","61","1042443","0.0-7.0-3.9","73","1","2025-07-30 09:03:57","36c45c0696341be0efffe67d72a12abb","155.238.5.1","Mozilla/5.0 (Windows NT 10.0; Win64; x64) AppleWebKit/537.36 (KHTML, like Gecko) Chrome/138.0.0.0 Safari/537.36","WebKit","Chrome","138.0.0.0","Windows","10.0","https://app.prolific.com/","en-US,en;q=0.9,zu;q=0.8","66a79fce251c3b3fedb04d16","687a19d2168e237449fb8af4","6889df9e8125d2def46ad52b","0","66a79fce251c3b3fedb04d16","0","2025-07-30T09:21:25.342Z","","","","StressQ","","","","","","","","","","","50","","","","","","","","","","","","","","","","","","","","","","","","","","",""
"4833","","<div style=""width:500px;"">
  <p>What best describes how you currently feel?</p>
  </div>","93","html-slider-response","62","1047282","0.0-7.0-4.9","73","1","2025-07-30 09:03:57","36c45c0696341be0efffe67d72a12abb","155.238.5.1","Mozilla/5.0 (Windows NT 10.0; Win64; x64) AppleWebKit/537.36 (KHTML, like Gecko) Chrome/138.0.0.0 Safari/537.36","WebKit","Chrome","138.0.0.0","Windows","10.0","https://app.prolific.com/","en-US,en;q=0.9,zu;q=0.8","66a79fce251c3b3fedb04d16","687a19d2168e237449fb8af4","6889df9e8125d2def46ad52b","0","66a79fce251c3b3fedb04d16","0","2025-07-30T09:21:30.181Z","","","","MotivationQ","","","","","","","","","","","50","","","","","","","","","","","","","","","","","","","","","","","","","","",""
"","","","","ctl-task-cpt","63","1103655","0.0-7.0-0.10","73","1","2025-07-30 09:03:57","36c45c0696341be0efffe67d72a12abb","155.238.5.1","Mozilla/5.0 (Windows NT 10.0; Win64; x64) AppleWebKit/537.36 (KHTML, like Gecko) Chrome/138.0.0.0 Safari/537.36","WebKit","Chrome","138.0.0.0","Windows","10.0","https://app.prolific.com/","en-US,en;q=0.9,zu;q=0.8","66a79fce251c3b3fedb04d16","687a19d2168e237449fb8af4","6889df9e8125d2def46ad52b","0","66a79fce251c3b3fedb04d16","0","2025-07-30T09:22:26.554Z","","","","","","","","","","","","","","","","win-only","2","g1:SE,g2:NW","0.6","11","0","1066014.5","1799.6","6810","53330.8","1","4","4","6","2","-4","-4","0","4","0","5010.4","3000","-1395","[""left"",""up""]","{""num_key_presses"":11,""num_perfect"":6,""num_errors"":0,""num_randdir"":5,""num_randdir_good_moves"":1,""num_whilered"":0,""num_whileblue"":0,""num_blue"":3,""num_good_moves"":7}","[301.22232142857143,294.12857142857143,0.8,301.22232142857143,294.12857142857143,124.7,301.22232142857143,294.12857142857143,230.8,301.22232142857143,294.12857142857143,332,301.22232142857143,294.12857142857143,446.8,301.22232142857143,294.12857142857143,554.2,301.22232142857143,294.12857142857143,666.5,301.22232142857143,294.12857142857143,772.4,301.22232142857143,294.12857142857143,882.1,301.22232142857143,294.12857142857143,988.3,301.22232142857143,294.12857142857143,1091.4,301.22232142857143,294.12857142857143,1201.2,301.22232142857143,294.12857142857143,1305.8,301.22232142857143,294.12857142857143,1408,301.22232142857143,294.12857142857143,1522.4,301.22232142857143,294.12857142857143,1627.7,301.22232142857143,294.12857142857143,1742.2,301.22232142857143,294.12857142857143,1850,301.22232142857143,294.12857142857143,1955,301.22232142857143,294.12857142857143,2067.8,301.22232142857143,294.12857142857143,2182.4,301.22232142857143,294.12857142857143,2292.1,301.22232142857143,294.12857142857143,2405.9,301.22232142857143,294.12857142857143,2509.8,301.22232142857143,294.12857142857143,2619.9,301.22232142857143,294.12857142857143,2734.9,301.22232142857143,294.12857142857143,2838.3,301.22232142857143,294.12857142857143,2947.5,301.22232142857143,294.12857142857143,3063.3,301.22232142857143,294.12857142857143,3174.9,301.22232142857143,294.12857142857143,3289.6,301.22232142857143,294.12857142857143,3406.3,301.22232142857143,294.12857142857143,3508.5,301.22232142857143,294.12857142857143,3617.6,301.22232142857143,294.12857142857143,3727.2,301.22232142857143,294.12857142857143,3840.2,301.22232142857143,294.12857142857143,3945.5,301.22232142857143,294.12857142857143,4047.3,301.22232142857143,294.12857142857143,4161.1,301.22232142857143,294.12857142857143,4262.9,301.22232142857143,294.12857142857143,4367.3,301.22232142857143,294.12857142857143,4467.4,301.22232142857143,294.12857142857143,4567.5,301.22232142857143,294.12857142857143,4684.2,301.22232142857143,294.12857142857143,4798,301.22232142857143,294.12857142857143,4901.4]","[4925.9,4926,2758.1,2012.3,155.7,""smooth"",""up"",""up"",""good_move"",8621,3688.5,2953.1,4932.5,735.4,""smooth"",""up"",""up"",""good_move"",14695.6,6064.1,2251,11827,617.6,""smooth"",""up"",""up"",""good_move"",19080.3,4383.5,2422.7,14696.9,1960.7,""smooth"",""left"",""left"",""good_move"",22677.4,3590.9,2242.5,19086.7,1348.3,""oops"",""left"",""right"",""bad_move"",26119,3436.2,2899.9,22682.8,536.3,""smooth"",""left"",""left"",""good_move"",28925.2,2800.3,2253.8,26124.9,546.5,""oops"",""left"",""left"",""good_move"",31695.5,2765,1932.8,28930.6,832.2,""oops"",""left"",""right"",""bad_move"",38237.4,6535.1,3295.1,34451.5,490.8,""oops"",""left"",""right"",""bad_move"",41090.4,2850.2,2301.3,38240.2,548.9,""smooth"",""left"",""left"",""good_move"",44017,2920.1,2424.8,41097,495.3,""oops"",""left"",""right"",""bad_move""]"
"3245","","<div style=""width:500px;"">
  <p>What determined the result of this run?</p>
  </div>","95","html-slider-response","64","1106902","0.0-7.0-1.10","73","1","2025-07-30 09:03:57","36c45c0696341be0efffe67d72a12abb","155.238.5.1","Mozilla/5.0 (Windows NT 10.0; Win64; x64) AppleWebKit/537.36 (KHTML, like Gecko) Chrome/138.0.0.0 Safari/537.36","WebKit","Chrome","138.0.0.0","Windows","10.0","https://app.prolific.com/","en-US,en;q=0.9,zu;q=0.8","66a79fce251c3b3fedb04d16","687a19d2168e237449fb8af4","6889df9e8125d2def46ad52b","0","66a79fce251c3b3fedb04d16","0","2025-07-30T09:22:29.801Z","","","","AttribQ","","","","","","","","","","","50","","","","","","","","","","","","","","","","","","","","","","","","","","",""
"4261","","<div style=""width:500px;"">
  <p>How much control did you have over the ball?</p>
  </div>","22","html-slider-response","65","1111168","0.0-7.0-2.10","73","1","2025-07-30 09:03:57","36c45c0696341be0efffe67d72a12abb","155.238.5.1","Mozilla/5.0 (Windows NT 10.0; Win64; x64) AppleWebKit/537.36 (KHTML, like Gecko) Chrome/138.0.0.0 Safari/537.36","WebKit","Chrome","138.0.0.0","Windows","10.0","https://app.prolific.com/","en-US,en;q=0.9,zu;q=0.8","66a79fce251c3b3fedb04d16","687a19d2168e237449fb8af4","6889df9e8125d2def46ad52b","0","66a79fce251c3b3fedb04d16","0","2025-07-30T09:22:34.067Z","","","","ControlQ","","","","","","","","","","","50","","","","","","","","","","","","","","","","","","","","","","","","","","",""
"3138","","<div style=""width:500px;"">
  <p>How would you describe your current emotional state?</p>
  </div>","14","html-slider-response","66","1114312","0.0-7.0-3.10","73","1","2025-07-30 09:03:57","36c45c0696341be0efffe67d72a12abb","155.238.5.1","Mozilla/5.0 (Windows NT 10.0; Win64; x64) AppleWebKit/537.36 (KHTML, like Gecko) Chrome/138.0.0.0 Safari/537.36","WebKit","Chrome","138.0.0.0","Windows","10.0","https://app.prolific.com/","en-US,en;q=0.9,zu;q=0.8","66a79fce251c3b3fedb04d16","687a19d2168e237449fb8af4","6889df9e8125d2def46ad52b","0","66a79fce251c3b3fedb04d16","0","2025-07-30T09:22:37.211Z","","","","StressQ","","","","","","","","","","","50","","","","","","","","","","","","","","","","","","","","","","","","","","",""
"3574","","<div style=""width:500px;"">
  <p>What best describes how you currently feel?</p>
  </div>","85","html-slider-response","67","1117891","0.0-7.0-4.10","73","1","2025-07-30 09:03:57","36c45c0696341be0efffe67d72a12abb","155.238.5.1","Mozilla/5.0 (Windows NT 10.0; Win64; x64) AppleWebKit/537.36 (KHTML, like Gecko) Chrome/138.0.0.0 Safari/537.36","WebKit","Chrome","138.0.0.0","Windows","10.0","https://app.prolific.com/","en-US,en;q=0.9,zu;q=0.8","66a79fce251c3b3fedb04d16","687a19d2168e237449fb8af4","6889df9e8125d2def46ad52b","0","66a79fce251c3b3fedb04d16","0","2025-07-30T09:22:40.790Z","","","","MotivationQ","","","","","","","","","","","50","","","","","","","","","","","","","","","","","","","","","","","","","","",""
"","","","","ctl-task-cpt","68","1157876","0.0-7.0-0.11","73","1","2025-07-30 09:03:57","36c45c0696341be0efffe67d72a12abb","155.238.5.1","Mozilla/5.0 (Windows NT 10.0; Win64; x64) AppleWebKit/537.36 (KHTML, like Gecko) Chrome/138.0.0.0 Safari/537.36","WebKit","Chrome","138.0.0.0","Windows","10.0","https://app.prolific.com/","en-US,en;q=0.9,zu;q=0.8","66a79fce251c3b3fedb04d16","687a19d2168e237449fb8af4","6889df9e8125d2def46ad52b","0","66a79fce251c3b3fedb04d16","0","2025-07-30T09:23:20.776Z","","","","","","","","","","","","","","","","win-only","3","g1:SW,g2:NE","0.7","12","0","1136620.2","1386","6401.1","36960.5","1","4","8","6","2","8","7","7","0","0.05303030303030303","5015","3000","395","[""up"",""right""]","{""num_key_presses"":9,""num_perfect"":5,""num_errors"":1,""num_randdir"":3,""num_randdir_good_moves"":2,""num_whilered"":0,""num_whileblue"":0,""num_blue"":0,""num_good_moves"":7}","[297.22232142857143,294.12857142857143,0.2,297.22232142857143,294.12857142857143,126.7,297.22232142857143,294.12857142857143,230.8,297.22232142857143,294.12857142857143,340.3,297.22232142857143,294.12857142857143,451.5,297.22232142857143,294.12857142857143,570,297.22232142857143,294.12857142857143,681.4,297.22232142857143,294.12857142857143,789.2,297.22232142857143,294.12857142857143,896.3,297.22232142857143,294.12857142857143,1006.2,297.22232142857143,294.12857142857143,1114.2,297.22232142857143,294.12857142857143,1217.4,297.22232142857143,294.12857142857143,1328.8,297.22232142857143,294.12857142857143,1432.5,297.22232142857143,294.12857142857143,1541.5,297.22232142857143,294.12857142857143,1647.6,297.22232142857143,294.12857142857143,1750.1,297.22232142857143,294.12857142857143,1851.8,297.22232142857143,294.12857142857143,1953.3,297.22232142857143,294.12857142857143,2068.5,297.22232142857143,294.12857142857143,2176.5,297.22232142857143,294.12857142857143,2293.5,297.22232142857143,294.12857142857143,2403,297.22232142857143,294.12857142857143,2513.3,297.22232142857143,294.12857142857143,2627,297.22232142857143,294.12857142857143,2745.2,297.22232142857143,294.12857142857143,2856.3,297.22232142857143,294.12857142857143,2962.8,297.22232142857143,294.12857142857143,3068.8,297.22232142857143,294.12857142857143,3176.1,297.22232142857143,294.12857142857143,3278.9,297.22232142857143,294.12857142857143,3382.7,297.22232142857143,294.12857142857143,3488.4,297.22232142857143,294.12857142857143,3598.6,297.22232142857143,294.12857142857143,3709.6,297.22232142857143,294.12857142857143,3815.5,297.22232142857143,294.12857142857143,3925.5,297.22232142857143,294.12857142857143,4036.2,297.22232142857143,294.12857142857143,4145.3,297.22232142857143,294.12857142857143,4263.8,297.22232142857143,294.12857142857143,4381.3,297.22232142857143,294.12857142857143,4486.9,297.22232142857143,294.12857142857143,4587.4,297.22232142857143,294.12857142857143,4695,297.22232142857143,294.12857142857143,4798.8,297.22232142857143,294.12857142857143,4903.9]","[1554,1553.9,1000,0.1,553.9,""oops"",""up"",""up"",""good_move"",5278.3,3716.8,2995.5,1561.6,721.2,""smooth"",""right"",""right"",""good_move"",8439.7,3156.1,2644.8,5283.6,511.4,""oops"",""right"",""left"",""bad_move"",12955.5,4511.1,2163.5,8444.4,2347.6,""smooth"",""up"",""up"",""good_move"",16854.1,3893.9,2478.2,12960.2,1415.7,""smooth"",""up"",""up"",""good_move"",20545.8,3686,3195.7,16859.9,490.3,""oops"",""right"",""right"",""good_move"",24209,3659.7,2640,20549.3,1019.7,""smooth"",""right"",""right"",""good_move"",26979.1,2763.2,2999.3,24216.3,-236.1,""error"",""-"",""-"",""no_move"",30265.9,3281.7,1801,27989.3,475.6,""smooth"",""right"",""right"",""good_move""]"
"5156","","<div style=""width:500px;"">
  <p>What determined the result of this run?</p>
  </div>","1","html-slider-response","69","1163035","0.0-7.0-1.11","73","1","2025-07-30 09:03:57","36c45c0696341be0efffe67d72a12abb","155.238.5.1","Mozilla/5.0 (Windows NT 10.0; Win64; x64) AppleWebKit/537.36 (KHTML, like Gecko) Chrome/138.0.0.0 Safari/537.36","WebKit","Chrome","138.0.0.0","Windows","10.0","https://app.prolific.com/","en-US,en;q=0.9,zu;q=0.8","66a79fce251c3b3fedb04d16","687a19d2168e237449fb8af4","6889df9e8125d2def46ad52b","0","66a79fce251c3b3fedb04d16","0","2025-07-30T09:23:25.937Z","","","","AttribQ","","","","","","","","","","","50","","","","","","","","","","","","","","","","","","","","","","","","","","",""
"3390","","<div style=""width:500px;"">
  <p>How much control did you have over the ball?</p>
  </div>","94","html-slider-response","70","1166436","0.0-7.0-2.11","73","1","2025-07-30 09:03:57","36c45c0696341be0efffe67d72a12abb","155.238.5.1","Mozilla/5.0 (Windows NT 10.0; Win64; x64) AppleWebKit/537.36 (KHTML, like Gecko) Chrome/138.0.0.0 Safari/537.36","WebKit","Chrome","138.0.0.0","Windows","10.0","https://app.prolific.com/","en-US,en;q=0.9,zu;q=0.8","66a79fce251c3b3fedb04d16","687a19d2168e237449fb8af4","6889df9e8125d2def46ad52b","0","66a79fce251c3b3fedb04d16","0","2025-07-30T09:23:29.335Z","","","","ControlQ","","","","","","","","","","","50","","","","","","","","","","","","","","","","","","","","","","","","","","",""
"9379","","<div style=""width:500px;"">
  <p>How would you describe your current emotional state?</p>
  </div>","8","html-slider-response","71","1175826","0.0-7.0-3.11","73","1","2025-07-30 09:03:57","36c45c0696341be0efffe67d72a12abb","155.238.5.1","Mozilla/5.0 (Windows NT 10.0; Win64; x64) AppleWebKit/537.36 (KHTML, like Gecko) Chrome/138.0.0.0 Safari/537.36","WebKit","Chrome","138.0.0.0","Windows","10.0","https://app.prolific.com/","en-US,en;q=0.9,zu;q=0.8","66a79fce251c3b3fedb04d16","687a19d2168e237449fb8af4","6889df9e8125d2def46ad52b","0","66a79fce251c3b3fedb04d16","0","2025-07-30T09:23:38.725Z","","","","StressQ","","","","","","","","","","","50","","","","","","","","","","","","","","","","","","","","","","","","","","",""
"2550","","<div style=""width:500px;"">
  <p>What best describes how you currently feel?</p>
  </div>","86","html-slider-response","72","1178380","0.0-7.0-4.11","73","1","2025-07-30 09:03:57","36c45c0696341be0efffe67d72a12abb","155.238.5.1","Mozilla/5.0 (Windows NT 10.0; Win64; x64) AppleWebKit/537.36 (KHTML, like Gecko) Chrome/138.0.0.0 Safari/537.36","WebKit","Chrome","138.0.0.0","Windows","10.0","https://app.prolific.com/","en-US,en;q=0.9,zu;q=0.8","66a79fce251c3b3fedb04d16","687a19d2168e237449fb8af4","6889df9e8125d2def46ad52b","0","66a79fce251c3b3fedb04d16","0","2025-07-30T09:23:41.279Z","","","","MotivationQ","","","","","","","","","","","50","","","","","","","","","","","","","","","","","","","","","","","","","","",""
"","","","","ctl-task-cpt","73","1219042","0.0-7.0-0.12","73","1","2025-07-30 09:03:57","36c45c0696341be0efffe67d72a12abb","155.238.5.1","Mozilla/5.0 (Windows NT 10.0; Win64; x64) AppleWebKit/537.36 (KHTML, like Gecko) Chrome/138.0.0.0 Safari/537.36","WebKit","Chrome","138.0.0.0","Windows","10.0","https://app.prolific.com/","en-US,en;q=0.9,zu;q=0.8","66a79fce251c3b3fedb04d16","687a19d2168e237449fb8af4","6889df9e8125d2def46ad52b","0","66a79fce251c3b3fedb04d16","0","2025-07-30T09:24:21.942Z","","","","","","","","","","","","","","","","win-only","0","g1:NW,g2:SE","0.8","13","0","1197109.2","2208.9","7235.3","37644.2","1","4","4","6","1","1","1","8","7","0.06060606060606061","5026.4","3000","1160","[""left"",""up""]","{""num_key_presses"":8,""num_perfect"":6,""num_errors"":0,""num_randdir"":2,""num_randdir_good_moves"":0,""num_whilered"":0,""num_whileblue"":0,""num_blue"":1,""num_good_moves"":6}","[296.22232142857143,296.12857142857143,1.3,296.22232142857143,296.12857142857143,118.4,296.22232142857143,296.12857142857143,226.4,296.22232142857143,296.12857142857143,337.2,296.22232142857143,296.12857142857143,443.6,296.22232142857143,296.12857142857143,550.2,296.22232142857143,296.12857142857143,650.2,296.22232142857143,296.12857142857143,755.8,296.22232142857143,296.12857142857143,867.2,296.22232142857143,296.12857142857143,989.9,296.22232142857143,296.12857142857143,1099.7,296.22232142857143,296.12857142857143,1207.4,296.22232142857143,296.12857142857143,1322.5,296.22232142857143,296.12857142857143,1430.7,296.22232142857143,296.12857142857143,1545.6,296.22232142857143,296.12857142857143,1652.1,296.22232142857143,296.12857142857143,1757.2,296.22232142857143,296.12857142857143,1860.1,296.22232142857143,296.12857142857143,1963.6,296.22232142857143,296.12857142857143,2077.2,296.22232142857143,296.12857142857143,2184.7,296.22232142857143,296.12857142857143,2296.6,296.22232142857143,296.12857142857143,2403.5,296.22232142857143,296.12857142857143,2512.8,296.22232142857143,296.12857142857143,2614.1,296.22232142857143,296.12857142857143,2723.7,296.22232142857143,296.12857142857143,2830,296.22232142857143,296.12857142857143,2937.2,296.22232142857143,296.12857142857143,3051,296.22232142857143,296.12857142857143,3155,296.22232142857143,296.12857142857143,3267.4,296.22232142857143,296.12857142857143,3375,296.22232142857143,296.12857142857143,3485.5,296.22232142857143,296.12857142857143,3600.6,296.22232142857143,296.12857142857143,3708.6,296.22232142857143,296.12857142857143,3815,296.22232142857143,296.12857142857143,3917.6,296.22232142857143,296.12857142857143,4025.7,296.22232142857143,296.12857142857143,4139.2,296.22232142857143,296.12857142857143,4239.5,296.22232142857143,296.12857142857143,4350.2,296.22232142857143,296.12857142857143,4451.1,296.22232142857143,296.12857142857143,4558.3,296.22232142857143,296.12857142857143,4659.5,296.22232142857143,296.12857142857143,4768,296.22232142857143,296.12857142857143,4879.1,296.22232142857143,296.12857142857143,4991.6]","[1712.2,1712.2,1000,0,712.2,""smooth"",""up"",""up"",""good_move"",5829.5,4112.1,2457.6,1717.5,1654.5,""smooth"",""up"",""up"",""good_move"",12145.5,6312,2220.8,9278.9,645.9,""smooth"",""left"",""left"",""good_move"",16002.8,3853.6,3149.2,12149.2,704.4,""oops"",""left"",""down"",""bad_move"",19371.3,3365.3,2304.3,16006,1061,""smooth"",""left"",""left"",""good_move"",23011.9,3638.2,1880.9,19373.7,1757.3,""oops"",""up"",""down"",""bad_move"",26526.2,3507.6,2586.2,23018.7,921.3,""smooth"",""up"",""up"",""good_move"",30039.7,3508.4,2425,26531.3,1083.4,""smooth"",""up"",""up"",""good_move""]"
"9301","","<div style=""width:500px;"">
  <p>What determined the result of this run?</p>
  </div>","93","html-slider-response","74","1228347","0.0-7.0-1.12","73","1","2025-07-30 09:03:57","36c45c0696341be0efffe67d72a12abb","155.238.5.1","Mozilla/5.0 (Windows NT 10.0; Win64; x64) AppleWebKit/537.36 (KHTML, like Gecko) Chrome/138.0.0.0 Safari/537.36","WebKit","Chrome","138.0.0.0","Windows","10.0","https://app.prolific.com/","en-US,en;q=0.9,zu;q=0.8","66a79fce251c3b3fedb04d16","687a19d2168e237449fb8af4","6889df9e8125d2def46ad52b","0","66a79fce251c3b3fedb04d16","0","2025-07-30T09:24:31.246Z","","","","AttribQ","","","","","","","","","","","50","","","","","","","","","","","","","","","","","","","","","","","","","","",""
"2999","","<div style=""width:500px;"">
  <p>How much control did you have over the ball?</p>
  </div>","98","html-slider-response","75","1231353","0.0-7.0-2.12","73","1","2025-07-30 09:03:57","36c45c0696341be0efffe67d72a12abb","155.238.5.1","Mozilla/5.0 (Windows NT 10.0; Win64; x64) AppleWebKit/537.36 (KHTML, like Gecko) Chrome/138.0.0.0 Safari/537.36","WebKit","Chrome","138.0.0.0","Windows","10.0","https://app.prolific.com/","en-US,en;q=0.9,zu;q=0.8","66a79fce251c3b3fedb04d16","687a19d2168e237449fb8af4","6889df9e8125d2def46ad52b","0","66a79fce251c3b3fedb04d16","0","2025-07-30T09:24:34.252Z","","","","ControlQ","","","","","","","","","","","50","","","","","","","","","","","","","","","","","","","","","","","","","","",""
"8207","","<div style=""width:500px;"">
  <p>How would you describe your current emotional state?</p>
  </div>","4","html-slider-response","76","1239562","0.0-7.0-3.12","73","1","2025-07-30 09:03:57","36c45c0696341be0efffe67d72a12abb","155.238.5.1","Mozilla/5.0 (Windows NT 10.0; Win64; x64) AppleWebKit/537.36 (KHTML, like Gecko) Chrome/138.0.0.0 Safari/537.36","WebKit","Chrome","138.0.0.0","Windows","10.0","https://app.prolific.com/","en-US,en;q=0.9,zu;q=0.8","66a79fce251c3b3fedb04d16","687a19d2168e237449fb8af4","6889df9e8125d2def46ad52b","0","66a79fce251c3b3fedb04d16","0","2025-07-30T09:24:42.466Z","","","","StressQ","","","","","","","","","","","50","","","","","","","","","","","","","","","","","","","","","","","","","","",""
"3607","","<div style=""width:500px;"">
  <p>What best describes how you currently feel?</p>
  </div>","87","html-slider-response","77","1243177","0.0-7.0-4.12","73","1","2025-07-30 09:03:57","36c45c0696341be0efffe67d72a12abb","155.238.5.1","Mozilla/5.0 (Windows NT 10.0; Win64; x64) AppleWebKit/537.36 (KHTML, like Gecko) Chrome/138.0.0.0 Safari/537.36","WebKit","Chrome","138.0.0.0","Windows","10.0","https://app.prolific.com/","en-US,en;q=0.9,zu;q=0.8","66a79fce251c3b3fedb04d16","687a19d2168e237449fb8af4","6889df9e8125d2def46ad52b","0","66a79fce251c3b3fedb04d16","0","2025-07-30T09:24:46.076Z","","","","MotivationQ","","","","","","","","","","","50","","","","","","","","","","","","","","","","","","","","","","","","","","",""
