"rt","response_timestamp","stimulus","response","trial_type","trial_index","time_elapsed","internal_node_id","run_id","condition","recorded_at","source_code_version","ip","user_agent","device","browser","browser_version","platform","platform_version","referer","accept_language","PROLIFIC_PID","STUDY_ID","SESSION_ID","BATCH","prolific_id","batch","realtime","success","question_order","question_id","eventType","responses","item_order","radio_event_ids","radio_event_times","key_event_times","mouse_event_times","straightlining","zigzagging","honeypot","view_history","slider_start","which_type","canvas_config","goals_layout","control_level","trial_number","tutorial_trial_number","trial_start_time","phase1_start_time","phase2_start_time","phase3_start_time","goal_1_value","goal_1_distance","goal_2_value","goal_2_distance","goal_selected","outcome","outcome_total","participant_final_score","participant_initial_score","participant_final_score_prop","goal_choice_rt","allocated_time","allocated_time_remaining","goal_direction","counts","mouse_movements","key_presses"
"5224","1754490089072","<p style='font-size:40px;line-height:1.25'><strong>Welcome to the experiment!</strong></p><p style='font-size:1.1em;line-height:1.25'>Thank you for participanting in our experiment again! You will be asked to play the Dysfunctional Ball Game again. We will briefly recap the rules before we start.</p><p style='font-size:1.1em;line-height:1.25'>Press <strong>Next</strong> to continue.</p>","0","custom-html-button-response","0","5228","0.0-0.0","208","1","2025-08-06 14:21:24","36c45c0696341be0efffe67d72a12abb","2.83.17.203","Mozilla/5.0 (Windows NT 10.0; Win64; x64) AppleWebKit/537.36 (KHTML, like Gecko) Chrome/138.0.0.0 Safari/537.36","WebKit","Chrome","138.0.0.0","Windows","10.0","https://app.prolific.com/","pt-PT,pt;q=0.9,en-US;q=0.8,en;q=0.7,es;q=0.6,de;q=0.5,it;q=0.4","66aea8fcd9cd711541bf63e5","687a1a965b9f5b85a264363e","689364d3c005a4e2b592231a","1","66aea8fcd9cd711541bf63e5","1","2025-08-06T14:21:29.073Z","","","","","","","","","","","","","","","","","","","","","","","","","","","","","","","","","","","","","","","","","",""
"1846","","","","fullscreen","1","8093","0.0-1.0","208","1","2025-08-06 14:21:24","36c45c0696341be0efffe67d72a12abb","2.83.17.203","Mozilla/5.0 (Windows NT 10.0; Win64; x64) AppleWebKit/537.36 (KHTML, like Gecko) Chrome/138.0.0.0 Safari/537.36","WebKit","Chrome","138.0.0.0","Windows","10.0","https://app.prolific.com/","pt-PT,pt;q=0.9,en-US;q=0.8,en;q=0.7,es;q=0.6,de;q=0.5,it;q=0.4","66aea8fcd9cd711541bf63e5","687a1a965b9f5b85a264363e","689364d3c005a4e2b592231a","1","66aea8fcd9cd711541bf63e5","1","","true","","","","","","","","","","","","","","","","","","","","","","","","","","","","","","","","","","","","","","","","",""
"2480","1754490094419"," <p style='font-size:1.1em;line-height:1.25'>Thank you for closing all other tabs.</p><p style='font-size:1.1em;line-height:1.25'>We will now invite you to fill in some questionnaires, before starting the game.<br>This will take about 5 minutes.<br></p><p style='font-size:1.1em;line-height:1.25'>Press the <strong>Next</strong> button to continue.</p>","0","custom-html-button-response","2","10575","0.0-2.0","208","1","2025-08-06 14:21:24","36c45c0696341be0efffe67d72a12abb","2.83.17.203","Mozilla/5.0 (Windows NT 10.0; Win64; x64) AppleWebKit/537.36 (KHTML, like Gecko) Chrome/138.0.0.0 Safari/537.36","WebKit","Chrome","138.0.0.0","Windows","10.0","https://app.prolific.com/","pt-PT,pt;q=0.9,en-US;q=0.8,en;q=0.7,es;q=0.6,de;q=0.5,it;q=0.4","66aea8fcd9cd711541bf63e5","687a1a965b9f5b85a264363e","689364d3c005a4e2b592231a","1","66aea8fcd9cd711541bf63e5","1","2025-08-06T14:21:34.420Z","","","","","","","","","","","","","","","","","","","","","","","","","","","","","","","","","","","","","","","","","",""
"5409","","","{""assigned_sex"":""female""}","survey-multi-choice","3","15986","0.0-3.0-0.0","208","1","2025-08-06 14:21:24","36c45c0696341be0efffe67d72a12abb","2.83.17.203","Mozilla/5.0 (Windows NT 10.0; Win64; x64) AppleWebKit/537.36 (KHTML, like Gecko) Chrome/138.0.0.0 Safari/537.36","WebKit","Chrome","138.0.0.0","Windows","10.0","https://app.prolific.com/","pt-PT,pt;q=0.9,en-US;q=0.8,en;q=0.7,es;q=0.6,de;q=0.5,it;q=0.4","66aea8fcd9cd711541bf63e5","687a1a965b9f5b85a264363e","689364d3c005a4e2b592231a","1","66aea8fcd9cd711541bf63e5","1","","","[0]","0","demographics","","","","","","","","","","","","","","","","","","","","","","","","","","","","","","","","","","","","","",""
"1451","1754490101283","<p style='font-size:1.1em;line-height:1.25'>In the following, we will perform a baseline assessment. This means that we will ask you a few questions relating to your experiences over the past month.<br></p><p style='font-size:1.1em;line-height:1.25'>Press the <strong>Next</strong> button to continue.</p>","0","custom-html-button-response","4","17438","0.0-4.0-0.0","208","1","2025-08-06 14:21:24","36c45c0696341be0efffe67d72a12abb","2.83.17.203","Mozilla/5.0 (Windows NT 10.0; Win64; x64) AppleWebKit/537.36 (KHTML, like Gecko) Chrome/138.0.0.0 Safari/537.36","WebKit","Chrome","138.0.0.0","Windows","10.0","https://app.prolific.com/","pt-PT,pt;q=0.9,en-US;q=0.8,en;q=0.7,es;q=0.6,de;q=0.5,it;q=0.4","66aea8fcd9cd711541bf63e5","687a1a965b9f5b85a264363e","689364d3c005a4e2b592231a","1","66aea8fcd9cd711541bf63e5","1","2025-08-06T14:21:41.283Z","","","","","","","","","","","","","","","","","","","","","","","","","","","","","","","","","","","","","","","","","",""
"42519.30000001192","","","","survey-template","5","59962","0.0-4.0-1.0","208","1","2025-08-06 14:21:24","36c45c0696341be0efffe67d72a12abb","2.83.17.203","Mozilla/5.0 (Windows NT 10.0; Win64; x64) AppleWebKit/537.36 (KHTML, like Gecko) Chrome/138.0.0.0 Safari/537.36","WebKit","Chrome","138.0.0.0","Windows","10.0","https://app.prolific.com/","pt-PT,pt;q=0.9,en-US;q=0.8,en;q=0.7,es;q=0.6,de;q=0.5,it;q=0.4","66aea8fcd9cd711541bf63e5","687a1a965b9f5b85a264363e","689364d3c005a4e2b592231a","1","66aea8fcd9cd711541bf63e5","1","2025-08-06T14:22:23.807Z","","","","pss","{""Q01"":""3"",""Q02"":""3"",""Q03"":""4"",""Q04"":""1"",""Q05"":""3"",""Q06"":""1"",""Q07"":""2"",""Q08"":""3"",""Q09"":""3"",""Q10"":""3""}","[0,1,2,3,4,5,6,7,8,9]","[""Q01"",""Q02"",""Q03"",""Q03"",""Q04"",""Q05"",""Q05"",""Q06"",""Q07"",""Q08"",""Q09"",""Q09"",""Q10""]","[4584.5,5428.300000011921,9424.5,10268.700000047684,14387,16969.400000035763,19786.700000047684,25817.400000035763,29335.80000001192,33769.5,38079.80000001192,39829,40582.60000002384]","[]","[0.20000004768371582,4584.5,5428.300000011921,9424.5,10268.700000047684,14387,16969.400000035763,19349.30000001192,19786.700000047684,25278.700000047684,25817.400000035763,28755.200000047684,29335.80000001192,33769.5,37745.5,38079.80000001192,39829,40582.60000002384,42515.200000047684]","0.5","0.4444444444444444","0","","","","","","","","","","","","","","","","","","","","","","","","","","","","",""
"2738","1754490146546","<p style='font-size:1.1em;line-height:1.25'>Thank you for your answers! Now we will ask you a few more questions relating to your feelings in the last 24 hours.<br></p><p style='font-size:1.1em;line-height:1.25'>Press the <strong>Next</strong> button to continue.</p>","0","custom-html-button-response","6","62702","0.0-4.0-2.0","208","1","2025-08-06 14:21:24","36c45c0696341be0efffe67d72a12abb","2.83.17.203","Mozilla/5.0 (Windows NT 10.0; Win64; x64) AppleWebKit/537.36 (KHTML, like Gecko) Chrome/138.0.0.0 Safari/537.36","WebKit","Chrome","138.0.0.0","Windows","10.0","https://app.prolific.com/","pt-PT,pt;q=0.9,en-US;q=0.8,en;q=0.7,es;q=0.6,de;q=0.5,it;q=0.4","66aea8fcd9cd711541bf63e5","687a1a965b9f5b85a264363e","689364d3c005a4e2b592231a","1","66aea8fcd9cd711541bf63e5","1","2025-08-06T14:22:26.547Z","","","","","","","","","","","","","","","","","","","","","","","","","","","","","","","","","","","","","","","","","",""
"52106.5","","","","survey-template","7","114814","0.0-4.0-3.0","208","1","2025-08-06 14:21:24","36c45c0696341be0efffe67d72a12abb","2.83.17.203","Mozilla/5.0 (Windows NT 10.0; Win64; x64) AppleWebKit/537.36 (KHTML, like Gecko) Chrome/138.0.0.0 Safari/537.36","WebKit","Chrome","138.0.0.0","Windows","10.0","https://app.prolific.com/","pt-PT,pt;q=0.9,en-US;q=0.8,en;q=0.7,es;q=0.6,de;q=0.5,it;q=0.4","66aea8fcd9cd711541bf63e5","687a1a965b9f5b85a264363e","689364d3c005a4e2b592231a","1","66aea8fcd9cd711541bf63e5","1","2025-08-06T14:23:18.659Z","","","","drsp","{""Q01"":""2"",""Q02"":""2"",""Q03"":""1"",""Q04"":""1"",""Q05"":""1"",""Q06"":""1"",""Q07"":""3"",""Q08"":""0"",""Q09"":""1"",""Q10"":""3"",""Q11"":""1"",""Q12"":""1"",""Q13"":""5"",""Q14"":""1"",""Q15"":""2"",""Q16"":""2"",""Q17"":""2"",""Q18"":""2"",""Q19"":""0"",""Q20"":""1"",""Q21"":""1"",""Q22"":""1""}","[0,1,2,3,4,5,6,7,8,9,10,11,12,13,14,15,16,17,18,19,20,21]","[""Q01"",""Q02"",""Q03"",""Q04"",""Q05"",""Q06"",""Q07"",""Q08"",""Q09"",""Q10"",""Q11"",""Q12"",""Q13"",""Q14"",""Q15"",""Q16"",""Q17"",""Q18"",""Q19"",""Q20"",""Q20"",""Q21"",""Q22""]","[3157.300000011921,5180.699999988079,6065.800000011921,7162.699999988079,9522.399999976158,12247.099999964237,14279.899999976158,20076.69999998808,20828.899999976158,23635.099999964237,25323.899999976158,26931.099999964237,28303.69999998808,35229.5,36846.59999996424,39154.89999997616,40507.19999998808,41544.19999998808,45978,47289.80000001192,49140.5,49780.89999997616,50472.59999996424]","[]","[0.09999996423721313,3157.300000011921,3818.399999976158,5180.699999988079,6065.800000011921,7162.699999988079,9522.399999976158,12247.099999964237,13924.399999976158,14279.899999976158,18155.19999998808,18856.5,20076.69999998808,20828.899999976158,22965.19999998808,23635.099999964237,25323.899999976158,26105.899999976158,26543.69999998808,26931.099999964237,28303.69999998808,35229.5,36846.59999996424,39154.89999997616,40507.19999998808,41544.19999998808,45012.09999996424,45978,47289.80000001192,49140.5,49780.89999997616,50472.59999996424,52100.19999998808]","0.5","0.19047619047619047","0","","","","","","","","","","","","","","","","","","","","","","","","","","","","",""
"8114.899999976158","","","","survey-template","8","122931","0.0-4.0-4.0","208","1","2025-08-06 14:21:24","36c45c0696341be0efffe67d72a12abb","2.83.17.203","Mozilla/5.0 (Windows NT 10.0; Win64; x64) AppleWebKit/537.36 (KHTML, like Gecko) Chrome/138.0.0.0 Safari/537.36","WebKit","Chrome","138.0.0.0","Windows","10.0","https://app.prolific.com/","pt-PT,pt;q=0.9,en-US;q=0.8,en;q=0.7,es;q=0.6,de;q=0.5,it;q=0.4","66aea8fcd9cd711541bf63e5","687a1a965b9f5b85a264363e","689364d3c005a4e2b592231a","1","66aea8fcd9cd711541bf63e5","1","2025-08-06T14:23:26.776Z","","","","stress","{""Q01"":""2"",""Q02"":""3"",""Q03"":""2""}","[0,1,2]","[""Q01"",""Q02"",""Q03""]","[2012.199999988079,4636.899999976158,7310.300000011921]","[]","[2012.199999988079,4636.899999976158,5327.699999988079,6680.100000023842,7310.300000011921,8113.5]","1","0","0","","","","","","","","","","","","","","","","","","","","","","","","","","","","",""
"7470","","","","instructions","9","130403","0.0-5.0-0.0","208","1","2025-08-06 14:21:24","36c45c0696341be0efffe67d72a12abb","2.83.17.203","Mozilla/5.0 (Windows NT 10.0; Win64; x64) AppleWebKit/537.36 (KHTML, like Gecko) Chrome/138.0.0.0 Safari/537.36","WebKit","Chrome","138.0.0.0","Windows","10.0","https://app.prolific.com/","pt-PT,pt;q=0.9,en-US;q=0.8,en;q=0.7,es;q=0.6,de;q=0.5,it;q=0.4","66aea8fcd9cd711541bf63e5","687a1a965b9f5b85a264363e","689364d3c005a4e2b592231a","1","66aea8fcd9cd711541bf63e5","1","","","","","","","","","","","","","","","[{""page_index"":0,""viewing_time"":7469}]","","","","","","","","","","","","","","","","","","","","","","","","","","","",""
"3231","","<p>Before you start with this game please answer the following three questions yourself. </p>
  <p>Through this game, we measure several aspects of your cognitive performance, such as reaction times, multi-tasking capabilities </p>
  <p>and the ability to assess the situation you are in.</p>
  <p></p>
  <p><b>How good do you usually are in such tasks?</b></p>","10","html-slider-response","10","133637","0.0-6.0-0.0","208","1","2025-08-06 14:21:24","36c45c0696341be0efffe67d72a12abb","2.83.17.203","Mozilla/5.0 (Windows NT 10.0; Win64; x64) AppleWebKit/537.36 (KHTML, like Gecko) Chrome/138.0.0.0 Safari/537.36","WebKit","Chrome","138.0.0.0","Windows","10.0","https://app.prolific.com/","pt-PT,pt;q=0.9,en-US;q=0.8,en;q=0.7,es;q=0.6,de;q=0.5,it;q=0.4","66aea8fcd9cd711541bf63e5","687a1a965b9f5b85a264363e","689364d3c005a4e2b592231a","1","66aea8fcd9cd711541bf63e5","1","2025-08-06T14:23:37.482Z","","","","PreSkillQ","","","","","","","","","","","50","","","","","","","","","","","","","","","","","","","","","","","","","","",""
"2235","","<div style=""width:500px;"">
  <p>How well do you think you will perform in this task compared to other participants?</p>
  </div>","17","html-slider-response","11","135873","0.0-6.0-1.0","208","1","2025-08-06 14:21:24","36c45c0696341be0efffe67d72a12abb","2.83.17.203","Mozilla/5.0 (Windows NT 10.0; Win64; x64) AppleWebKit/537.36 (KHTML, like Gecko) Chrome/138.0.0.0 Safari/537.36","WebKit","Chrome","138.0.0.0","Windows","10.0","https://app.prolific.com/","pt-PT,pt;q=0.9,en-US;q=0.8,en;q=0.7,es;q=0.6,de;q=0.5,it;q=0.4","66aea8fcd9cd711541bf63e5","687a1a965b9f5b85a264363e","689364d3c005a4e2b592231a","1","66aea8fcd9cd711541bf63e5","1","2025-08-06T14:23:39.718Z","","","","PrePerfQ","","","","","","","","","","","50","","","","","","","","","","","","","","","","","","","","","","","","","","",""
"3009","","<div style=""width:500px;"">
  <p>What best describes how you currently feel?</p>
  </div>","54","html-slider-response","12","138884","0.0-6.0-2.0","208","1","2025-08-06 14:21:24","36c45c0696341be0efffe67d72a12abb","2.83.17.203","Mozilla/5.0 (Windows NT 10.0; Win64; x64) AppleWebKit/537.36 (KHTML, like Gecko) Chrome/138.0.0.0 Safari/537.36","WebKit","Chrome","138.0.0.0","Windows","10.0","https://app.prolific.com/","pt-PT,pt;q=0.9,en-US;q=0.8,en;q=0.7,es;q=0.6,de;q=0.5,it;q=0.4","66aea8fcd9cd711541bf63e5","687a1a965b9f5b85a264363e","689364d3c005a4e2b592231a","1","66aea8fcd9cd711541bf63e5","1","2025-08-06T14:23:42.729Z","","","","PreMotivationQ","","","","","","","","","","","50","","","","","","","","","","","","","","","","","","","","","","","","","","",""
"","","","","ctl-task-cpt","13","163593","0.0-7.0-0.0","208","1","2025-08-06 14:21:24","36c45c0696341be0efffe67d72a12abb","2.83.17.203","Mozilla/5.0 (Windows NT 10.0; Win64; x64) AppleWebKit/537.36 (KHTML, like Gecko) Chrome/138.0.0.0 Safari/537.36","WebKit","Chrome","138.0.0.0","Windows","10.0","https://app.prolific.com/","pt-PT,pt;q=0.9,en-US;q=0.8,en;q=0.7,es;q=0.6,de;q=0.5,it;q=0.4","66aea8fcd9cd711541bf63e5","687a1a965b9f5b85a264363e","689364d3c005a4e2b592231a","1","66aea8fcd9cd711541bf63e5","1","2025-08-06T14:24:07.438Z","","","","","","","","","","","","","","","","win-only","1","g1:NE,g2:SW","1","1","0","140901.4","1048.1","6052","21694.9","1","4","8","6","2","8","8","8","0","0.06060606060606061","1556.7","3000","900","[""down"",""left""]","{""num_key_presses"":6,""num_perfect"":6,""num_errors"":0,""num_randdir"":0,""num_randdir_good_moves"":0,""num_whilered"":0,""num_whileblue"":0,""num_blue"":0,""num_good_moves"":6}","[419.0714133126395,416.57142761775424,1.3,419.0714133126395,416.57142761775424,103.1,419.0714133126395,416.57142761775424,203.2,419.0714133126395,416.57142761775424,303.2,419.0714133126395,416.57142761775424,403.3,419.0714133126395,416.57142761775424,503.9,419.0714133126395,416.57142761775424,604,315.3214133126395,545.3214276177542,704.2,240.3214133126395,666.5714276177542,807.2,234.0714133126395,680.3214276177542,907.6,234.0714133126395,680.3214276177542,1008.2,376.5714133126395,516.5714276177542,1108.1,141.5714133126395,661.5714276177542,1214.6,41.57141331263951,722.8214276177542,1314.9,41.57141331263951,722.8214276177542,1418.7,61.57141331263951,755.3214276177542,1519.2,61.57141331263951,756.5714276177542,1623.2,61.57141331263951,756.5714276177542,1723.2,5.321413312639507,739.0714276177542,1823.2,-342.1785866873605,685.3214276177542,1923.4,-342.1785866873605,685.3214276177542,2023.8,-342.1785866873605,685.3214276177542,2127.7,-342.1785866873605,685.3214276177542,2228.1,-342.1785866873605,685.3214276177542,2329.7,-342.1785866873605,685.3214276177542,2434.1,-342.1785866873605,685.3214276177542,2535.4,-342.1785866873605,685.3214276177542,2637.3,-342.1785866873605,685.3214276177542,2737.7,-342.1785866873605,685.3214276177542,2842.9,-342.1785866873605,685.3214276177542,2943.2,-342.1785866873605,685.3214276177542,3043.2,-342.1785866873605,685.3214276177542,3143.2,-342.1785866873605,685.3214276177542,3243.3,-342.1785866873605,685.3214276177542,3347.5,-342.1785866873605,685.3214276177542,3447.5,-342.1785866873605,685.3214276177542,3547.7,-342.1785866873605,685.3214276177542,3648.6,-342.1785866873605,685.3214276177542,3749.1,-342.1785866873605,685.3214276177542,3854.2,-342.1785866873605,685.3214276177542,3957.5,-342.1785866873605,685.3214276177542,4057.6,-342.1785866873605,685.3214276177542,4157.6,-342.1785866873605,685.3214276177542,4262.6,-342.1785866873605,685.3214276177542,4366,-342.1785866873605,685.3214276177542,4466.2,-342.1785866873605,685.3214276177542,4567.6,-342.1785866873605,685.3214276177542,4668.3,-342.1785866873605,685.3214276177542,4773.1,-342.1785866873605,685.3214276177542,4874,-342.1785866873605,685.3214276177542,4980.3]","[1446.5,1446.4,1000,0.1,446.4,""smooth"",""left"",""left"",""good_move"",4577.1,3130.1,2766.6,1447.1,363.4,""smooth"",""left"",""left"",""good_move"",7589.1,3011.8,2654.8,4577.4,357,""smooth"",""left"",""left"",""good_move"",10337.4,2747.4,2484.1,7590,263.4,""smooth"",""down"",""down"",""good_move"",12811,2470.3,1994.9,10340.9,475.2,""smooth"",""down"",""down"",""good_move"",15535.5,2724,2356.7,12811.5,367.3,""smooth"",""down"",""down"",""good_move""]"
"3171","","<div style=""width:500px;"">
  <p>What determined the result of this run?</p>
  </div>","13","html-slider-response","14","166765","0.0-7.0-1.0","208","1","2025-08-06 14:21:24","36c45c0696341be0efffe67d72a12abb","2.83.17.203","Mozilla/5.0 (Windows NT 10.0; Win64; x64) AppleWebKit/537.36 (KHTML, like Gecko) Chrome/138.0.0.0 Safari/537.36","WebKit","Chrome","138.0.0.0","Windows","10.0","https://app.prolific.com/","pt-PT,pt;q=0.9,en-US;q=0.8,en;q=0.7,es;q=0.6,de;q=0.5,it;q=0.4","66aea8fcd9cd711541bf63e5","687a1a965b9f5b85a264363e","689364d3c005a4e2b592231a","1","66aea8fcd9cd711541bf63e5","1","2025-08-06T14:24:10.610Z","","","","AttribQ","","","","","","","","","","","50","","","","","","","","","","","","","","","","","","","","","","","","","","",""
"4505","","<div style=""width:500px;"">
  <p>How much control did you have over the ball?</p>
  </div>","100","html-slider-response","15","171271","0.0-7.0-2.0","208","1","2025-08-06 14:21:24","36c45c0696341be0efffe67d72a12abb","2.83.17.203","Mozilla/5.0 (Windows NT 10.0; Win64; x64) AppleWebKit/537.36 (KHTML, like Gecko) Chrome/138.0.0.0 Safari/537.36","WebKit","Chrome","138.0.0.0","Windows","10.0","https://app.prolific.com/","pt-PT,pt;q=0.9,en-US;q=0.8,en;q=0.7,es;q=0.6,de;q=0.5,it;q=0.4","66aea8fcd9cd711541bf63e5","687a1a965b9f5b85a264363e","689364d3c005a4e2b592231a","1","66aea8fcd9cd711541bf63e5","1","2025-08-06T14:24:15.116Z","","","","ControlQ","","","","","","","","","","","50","","","","","","","","","","","","","","","","","","","","","","","","","","",""
"2611","","<div style=""width:500px;"">
  <p>How would you describe your current emotional state?</p>
  </div>","58","html-slider-response","16","173884","0.0-7.0-3.0","208","1","2025-08-06 14:21:24","36c45c0696341be0efffe67d72a12abb","2.83.17.203","Mozilla/5.0 (Windows NT 10.0; Win64; x64) AppleWebKit/537.36 (KHTML, like Gecko) Chrome/138.0.0.0 Safari/537.36","WebKit","Chrome","138.0.0.0","Windows","10.0","https://app.prolific.com/","pt-PT,pt;q=0.9,en-US;q=0.8,en;q=0.7,es;q=0.6,de;q=0.5,it;q=0.4","66aea8fcd9cd711541bf63e5","687a1a965b9f5b85a264363e","689364d3c005a4e2b592231a","1","66aea8fcd9cd711541bf63e5","1","2025-08-06T14:24:17.729Z","","","","StressQ","","","","","","","","","","","50","","","","","","","","","","","","","","","","","","","","","","","","","","",""
"4259","","<div style=""width:500px;"">
  <p>What best describes how you currently feel?</p>
  </div>","58","html-slider-response","17","178145","0.0-7.0-4.0","208","1","2025-08-06 14:21:24","36c45c0696341be0efffe67d72a12abb","2.83.17.203","Mozilla/5.0 (Windows NT 10.0; Win64; x64) AppleWebKit/537.36 (KHTML, like Gecko) Chrome/138.0.0.0 Safari/537.36","WebKit","Chrome","138.0.0.0","Windows","10.0","https://app.prolific.com/","pt-PT,pt;q=0.9,en-US;q=0.8,en;q=0.7,es;q=0.6,de;q=0.5,it;q=0.4","66aea8fcd9cd711541bf63e5","687a1a965b9f5b85a264363e","689364d3c005a4e2b592231a","1","66aea8fcd9cd711541bf63e5","1","2025-08-06T14:24:21.990Z","","","","MotivationQ","","","","","","","","","","","50","","","","","","","","","","","","","","","","","","","","","","","","","","",""
"","","","","ctl-task-cpt","18","207591","0.0-7.0-0.1","208","1","2025-08-06 14:21:24","36c45c0696341be0efffe67d72a12abb","2.83.17.203","Mozilla/5.0 (Windows NT 10.0; Win64; x64) AppleWebKit/537.36 (KHTML, like Gecko) Chrome/138.0.0.0 Safari/537.36","WebKit","Chrome","138.0.0.0","Windows","10.0","https://app.prolific.com/","pt-PT,pt;q=0.9,en-US;q=0.8,en;q=0.7,es;q=0.6,de;q=0.5,it;q=0.4","66aea8fcd9cd711541bf63e5","687a1a965b9f5b85a264363e","689364d3c005a4e2b592231a","1","66aea8fcd9cd711541bf63e5","1","2025-08-06T14:24:51.436Z","","","","","","","","","","","","","","","","win-only","2","g1:SE,g2:NW","0.9","2","0","180160.3","1629.8","6631.7","26426.3","1","4","4","6","2","4","4","12","8","0.09090909090909091","2379.1","3000","850","[""left"",""up""]","{""num_key_presses"":8,""num_perfect"":7,""num_errors"":0,""num_randdir"":1,""num_randdir_good_moves"":0,""num_whilered"":0,""num_whileblue"":0,""num_blue"":0,""num_good_moves"":7}","[412.8214133126395,419.07142761775424,0.6,412.8214133126395,419.07142761775424,100.7,412.8214133126395,419.07142761775424,202.4,412.8214133126395,419.07142761775424,309.7,412.8214133126395,419.07142761775424,412.1,412.8214133126395,419.07142761775424,512.2,412.8214133126395,419.07142761775424,615.9,215.3214133126395,221.57142761775424,716.8,97.8214133126395,60.32142761775425,828.9,97.8214133126395,60.32142761775425,932.2,91.5714133126395,76.57142761775425,1032.2,101.5714133126395,126.57142761775425,1146.9,409.0714133126395,304.07142761775424,1247,417.8214133126395,310.32142761775424,1352.2,417.8214133126395,310.32142761775424,1462,417.8214133126395,310.32142761775424,1566.4,417.8214133126395,310.32142761775424,1666.4,417.8214133126395,310.32142761775424,1776.4,417.8214133126395,310.32142761775424,1877.2,321.5714133126395,235.32142761775424,1982.4,175.3214133126395,137.82142761775424,2085.5,160.3214133126395,127.82142761775425,2186.4,95.3214133126395,112.82142761775425,2294.7,86.5714133126395,94.07142761775425,2396,86.5714133126395,94.07142761775425,2496.2,86.5714133126395,94.07142761775425,2596.3,79.0714133126395,102.82142761775425,2701.1,-320.9285866873605,676.5714276177542,2812.5,-320.9285866873605,677.8214276177542,2916.2,-320.9285866873605,677.8214276177542,3016.2,-320.9285866873605,677.8214276177542,3121.6,-320.9285866873605,677.8214276177542,3222.6,-320.9285866873605,677.8214276177542,3326.8,-320.9285866873605,677.8214276177542,3430.6,-320.9285866873605,677.8214276177542,3530.9,-320.9285866873605,677.8214276177542,3631.1,-320.9285866873605,677.8214276177542,3742.1,-320.9285866873605,677.8214276177542,3846.3,-320.9285866873605,677.8214276177542,3946.3,-320.9285866873605,677.8214276177542,4047.2,-320.9285866873605,677.8214276177542,4150.8,-320.9285866873605,677.8214276177542,4253.5,-320.9285866873605,677.8214276177542,4353.7,-320.9285866873605,677.8214276177542,4459.7,-320.9285866873605,677.8214276177542,4560.5,-320.9285866873605,677.8214276177542,4662,-320.9285866873605,677.8214276177542,4762.1,-320.9285866873605,677.8214276177542,4875,-320.9285866873605,677.8214276177542,4975.9]","[1420.7,1420.7,1000,0.1,420.6,""smooth"",""left"",""left"",""good_move"",3902.3,2481.3,2131,1421,350.3,""oops"",""left"",""right"",""bad_move"",6451.7,2548.8,2240.4,3902.9,308.4,""smooth"",""left"",""left"",""good_move"",9384.2,2932.2,2614.9,6452,317.3,""smooth"",""up"",""up"",""good_move"",12533.2,3148.3,2850.2,9384.9,298.1,""smooth"",""up"",""up"",""good_move"",15035.7,2502.2,2214.9,12533.5,287.3,""smooth"",""up"",""up"",""good_move"",17248.3,2212.3,1915.3,15036.2,297,""smooth"",""left"",""left"",""good_move"",19695.1,2445.8,2109.5,17249.3,336.3,""smooth"",""left"",""left"",""good_move""]"
"2114","","<div style=""width:500px;"">
  <p>What determined the result of this run?</p>
  </div>","17","html-slider-response","19","209707","0.0-7.0-1.1","208","1","2025-08-06 14:21:24","36c45c0696341be0efffe67d72a12abb","2.83.17.203","Mozilla/5.0 (Windows NT 10.0; Win64; x64) AppleWebKit/537.36 (KHTML, like Gecko) Chrome/138.0.0.0 Safari/537.36","WebKit","Chrome","138.0.0.0","Windows","10.0","https://app.prolific.com/","pt-PT,pt;q=0.9,en-US;q=0.8,en;q=0.7,es;q=0.6,de;q=0.5,it;q=0.4","66aea8fcd9cd711541bf63e5","687a1a965b9f5b85a264363e","689364d3c005a4e2b592231a","1","66aea8fcd9cd711541bf63e5","1","2025-08-06T14:24:53.552Z","","","","AttribQ","","","","","","","","","","","50","","","","","","","","","","","","","","","","","","","","","","","","","","",""
"2020","","<div style=""width:500px;"">
  <p>How much control did you have over the ball?</p>
  </div>","83","html-slider-response","20","211729","0.0-7.0-2.1","208","1","2025-08-06 14:21:24","36c45c0696341be0efffe67d72a12abb","2.83.17.203","Mozilla/5.0 (Windows NT 10.0; Win64; x64) AppleWebKit/537.36 (KHTML, like Gecko) Chrome/138.0.0.0 Safari/537.36","WebKit","Chrome","138.0.0.0","Windows","10.0","https://app.prolific.com/","pt-PT,pt;q=0.9,en-US;q=0.8,en;q=0.7,es;q=0.6,de;q=0.5,it;q=0.4","66aea8fcd9cd711541bf63e5","687a1a965b9f5b85a264363e","689364d3c005a4e2b592231a","1","66aea8fcd9cd711541bf63e5","1","2025-08-06T14:24:55.575Z","","","","ControlQ","","","","","","","","","","","50","","","","","","","","","","","","","","","","","","","","","","","","","","",""
"2751","","<div style=""width:500px;"">
  <p>How would you describe your current emotional state?</p>
  </div>","67","html-slider-response","21","214485","0.0-7.0-3.1","208","1","2025-08-06 14:21:24","36c45c0696341be0efffe67d72a12abb","2.83.17.203","Mozilla/5.0 (Windows NT 10.0; Win64; x64) AppleWebKit/537.36 (KHTML, like Gecko) Chrome/138.0.0.0 Safari/537.36","WebKit","Chrome","138.0.0.0","Windows","10.0","https://app.prolific.com/","pt-PT,pt;q=0.9,en-US;q=0.8,en;q=0.7,es;q=0.6,de;q=0.5,it;q=0.4","66aea8fcd9cd711541bf63e5","687a1a965b9f5b85a264363e","689364d3c005a4e2b592231a","1","66aea8fcd9cd711541bf63e5","1","2025-08-06T14:24:58.330Z","","","","StressQ","","","","","","","","","","","50","","","","","","","","","","","","","","","","","","","","","","","","","","",""
"3251","","<div style=""width:500px;"">
  <p>What best describes how you currently feel?</p>
  </div>","69","html-slider-response","22","217739","0.0-7.0-4.1","208","1","2025-08-06 14:21:24","36c45c0696341be0efffe67d72a12abb","2.83.17.203","Mozilla/5.0 (Windows NT 10.0; Win64; x64) AppleWebKit/537.36 (KHTML, like Gecko) Chrome/138.0.0.0 Safari/537.36","WebKit","Chrome","138.0.0.0","Windows","10.0","https://app.prolific.com/","pt-PT,pt;q=0.9,en-US;q=0.8,en;q=0.7,es;q=0.6,de;q=0.5,it;q=0.4","66aea8fcd9cd711541bf63e5","687a1a965b9f5b85a264363e","689364d3c005a4e2b592231a","1","66aea8fcd9cd711541bf63e5","1","2025-08-06T14:25:01.584Z","","","","MotivationQ","","","","","","","","","","","50","","","","","","","","","","","","","","","","","","","","","","","","","","",""
"","","","","ctl-task-cpt","23","439513","0.0-7.0-0.2","208","1","2025-08-06 14:21:24","36c45c0696341be0efffe67d72a12abb","2.83.17.203","Mozilla/5.0 (Windows NT 10.0; Win64; x64) AppleWebKit/537.36 (KHTML, like Gecko) Chrome/138.0.0.0 Safari/537.36","WebKit","Chrome","138.0.0.0","Windows","10.0","https://app.prolific.com/","pt-PT,pt;q=0.9,en-US;q=0.8,en;q=0.7,es;q=0.6,de;q=0.5,it;q=0.4","66aea8fcd9cd711541bf63e5","687a1a965b9f5b85a264363e","689364d3c005a4e2b592231a","1","66aea8fcd9cd711541bf63e5","1","2025-08-06T14:28:43.358Z","","","","","","","","","","","","","","","","win-only","3","g1:SW,g2:NE","0.8","3","0","219757.2","173611.4","178616.6","218742.1","1","4","8","6","2","-8","-8","4","12","0.030303030303030304","1215.7","3000","-2155","[""up"",""right""]","{""num_key_presses"":11,""num_perfect"":9,""num_errors"":0,""num_randdir"":2,""num_randdir_good_moves"":0,""num_whilered"":0,""num_whileblue"":0,""num_blue"":2,""num_good_moves"":8}","[424.0714133126395,419.07142761775424,0.5,424.0714133126395,419.07142761775424,114.2,424.0714133126395,419.07142761775424,218.4,424.0714133126395,419.07142761775424,319.6,424.0714133126395,419.07142761775424,424.6,424.0714133126395,417.82142761775424,524.8,802.8214133126395,-83.42857238224575,644.5,802.8214133126395,-83.42857238224575,753.3,802.8214133126395,-83.42857238224575,862.6,856.5714133126395,17.821427617754253,964.3,839.0714133126395,44.07142761775425,1065.3,806.5714133126395,56.57142761775425,1173.2,806.5714133126395,56.57142761775425,1275.3,806.5714133126395,56.57142761775425,1382.5,806.5714133126395,56.57142761775425,1484,806.5714133126395,56.57142761775425,1584.9,806.5714133126395,56.57142761775425,1701,812.8214133126395,65.32142761775425,1806.7,1096.5714133126396,397.82142761775424,1906.8,1307.8214133126396,569.0714276177542,2009.8,1307.8214133126396,569.0714276177542,2116.5,1307.8214133126396,569.0714276177542,2216.9,1307.8214133126396,569.0714276177542,2319.1,1307.8214133126396,569.0714276177542,2419.1,1307.8214133126396,569.0714276177542,2530.8,1307.8214133126396,569.0714276177542,2630.9,1307.8214133126396,569.0714276177542,2733.9,1307.8214133126396,569.0714276177542,2834,1307.8214133126396,569.0714276177542,2934.4,1307.8214133126396,569.0714276177542,3035,1307.8214133126396,569.0714276177542,3139.5,1307.8214133126396,569.0714276177542,3240,1307.8214133126396,569.0714276177542,3340.2,1307.8214133126396,569.0714276177542,3444.6,1307.8214133126396,569.0714276177542,3550.3,1307.8214133126396,569.0714276177542,3664.9,1307.8214133126396,569.0714276177542,3770.8,1307.8214133126396,569.0714276177542,3875.7,1307.8214133126396,569.0714276177542,3978.9,1307.8214133126396,569.0714276177542,4079.1,1307.8214133126396,569.0714276177542,4179.4,1307.8214133126396,569.0714276177542,4295.2,1307.8214133126396,569.0714276177542,4399.4,1307.8214133126396,569.0714276177542,4499.7,1307.8214133126396,569.0714276177542,4605.8,1307.8214133126396,569.0714276177542,4707.6,1307.8214133126396,569.0714276177542,4809.4,1307.8214133126396,569.0714276177542,4910.9]","[1389.4,1389.4,1000,0,389.4,""smooth"",""up"",""up"",""good_move"",7324.7,5934.4,1763.2,5122.5,439,""smooth"",""up"",""up"",""good_move"",9240.8,1915.6,1488.9,7325.2,426.7,""smooth"",""up"",""up"",""good_move"",12317,3076,2741.8,9241,334.2,""smooth"",""right"",""right"",""good_move"",15167.7,2849.5,2487.8,12318.3,361.6,""oops"",""right"",""down"",""bad_move"",18498.4,3330,3008.4,15168.4,321.6,""smooth"",""right"",""right"",""good_move"",21997.3,3498.6,3205.3,18498.7,293.3,""smooth"",""right"",""right"",""good_move"",28379.5,6381.6,2727.1,25279.7,372.8,""oops"",""up"",""down"",""bad_move"",31430.3,3050.4,2601.9,28379.9,448.5,""smooth"",""left"",""left"",""bad_move"",34435,3003.1,2648.8,31432,354.2,""smooth"",""up"",""up"",""good_move"",37556.8,3121.2,2811.8,34435.6,309.4,""smooth"",""up"",""up"",""good_move""]"
"14422","","<div style=""width:500px;"">
  <p>What determined the result of this run?</p>
  </div>","18","html-slider-response","24","453936","0.0-7.0-1.2","208","1","2025-08-06 14:21:24","36c45c0696341be0efffe67d72a12abb","2.83.17.203","Mozilla/5.0 (Windows NT 10.0; Win64; x64) AppleWebKit/537.36 (KHTML, like Gecko) Chrome/138.0.0.0 Safari/537.36","WebKit","Chrome","138.0.0.0","Windows","10.0","https://app.prolific.com/","pt-PT,pt;q=0.9,en-US;q=0.8,en;q=0.7,es;q=0.6,de;q=0.5,it;q=0.4","66aea8fcd9cd711541bf63e5","687a1a965b9f5b85a264363e","689364d3c005a4e2b592231a","1","66aea8fcd9cd711541bf63e5","1","2025-08-06T14:28:57.781Z","","","","AttribQ","","","","","","","","","","","50","","","","","","","","","","","","","","","","","","","","","","","","","","",""
"6701","","<div style=""width:500px;"">
  <p>How much control did you have over the ball?</p>
  </div>","30","html-slider-response","25","460639","0.0-7.0-2.2","208","1","2025-08-06 14:21:24","36c45c0696341be0efffe67d72a12abb","2.83.17.203","Mozilla/5.0 (Windows NT 10.0; Win64; x64) AppleWebKit/537.36 (KHTML, like Gecko) Chrome/138.0.0.0 Safari/537.36","WebKit","Chrome","138.0.0.0","Windows","10.0","https://app.prolific.com/","pt-PT,pt;q=0.9,en-US;q=0.8,en;q=0.7,es;q=0.6,de;q=0.5,it;q=0.4","66aea8fcd9cd711541bf63e5","687a1a965b9f5b85a264363e","689364d3c005a4e2b592231a","1","66aea8fcd9cd711541bf63e5","1","2025-08-06T14:29:04.485Z","","","","ControlQ","","","","","","","","","","","50","","","","","","","","","","","","","","","","","","","","","","","","","","",""
"22894","","<div style=""width:500px;"">
  <p>How would you describe your current emotional state?</p>
  </div>","66","html-slider-response","26","483536","0.0-7.0-3.2","208","1","2025-08-06 14:21:24","36c45c0696341be0efffe67d72a12abb","2.83.17.203","Mozilla/5.0 (Windows NT 10.0; Win64; x64) AppleWebKit/537.36 (KHTML, like Gecko) Chrome/138.0.0.0 Safari/537.36","WebKit","Chrome","138.0.0.0","Windows","10.0","https://app.prolific.com/","pt-PT,pt;q=0.9,en-US;q=0.8,en;q=0.7,es;q=0.6,de;q=0.5,it;q=0.4","66aea8fcd9cd711541bf63e5","687a1a965b9f5b85a264363e","689364d3c005a4e2b592231a","1","66aea8fcd9cd711541bf63e5","1","2025-08-06T14:29:27.381Z","","","","StressQ","","","","","","","","","","","50","","","","","","","","","","","","","","","","","","","","","","","","","","",""
"11811","","<div style=""width:500px;"">
  <p>What best describes how you currently feel?</p>
  </div>","15","html-slider-response","27","495349","0.0-7.0-4.2","208","1","2025-08-06 14:21:24","36c45c0696341be0efffe67d72a12abb","2.83.17.203","Mozilla/5.0 (Windows NT 10.0; Win64; x64) AppleWebKit/537.36 (KHTML, like Gecko) Chrome/138.0.0.0 Safari/537.36","WebKit","Chrome","138.0.0.0","Windows","10.0","https://app.prolific.com/","pt-PT,pt;q=0.9,en-US;q=0.8,en;q=0.7,es;q=0.6,de;q=0.5,it;q=0.4","66aea8fcd9cd711541bf63e5","687a1a965b9f5b85a264363e","689364d3c005a4e2b592231a","1","66aea8fcd9cd711541bf63e5","1","2025-08-06T14:29:39.194Z","","","","MotivationQ","","","","","","","","","","","50","","","","","","","","","","","","","","","","","","","","","","","","","","",""
"","","","","ctl-task-cpt","28","602085","0.0-7.0-0.3","208","1","2025-08-06 14:21:24","36c45c0696341be0efffe67d72a12abb","2.83.17.203","Mozilla/5.0 (Windows NT 10.0; Win64; x64) AppleWebKit/537.36 (KHTML, like Gecko) Chrome/138.0.0.0 Safari/537.36","WebKit","Chrome","138.0.0.0","Windows","10.0","https://app.prolific.com/","pt-PT,pt;q=0.9,en-US;q=0.8,en;q=0.7,es;q=0.6,de;q=0.5,it;q=0.4","66aea8fcd9cd711541bf63e5","687a1a965b9f5b85a264363e","689364d3c005a4e2b592231a","1","66aea8fcd9cd711541bf63e5","1","2025-08-06T14:31:25.930Z","","","","","","","","","","","","","","","","win-only","1","g1:NE,g2:SW","0.7","4","0","497366.9","76157.8","81160.6","103716","1","4","4","6","2","4","4","8","4","0.06060606060606061","1357.4","3000","970","[""down"",""left""]","{""num_key_presses"":8,""num_perfect"":6,""num_errors"":0,""num_randdir"":2,""num_randdir_good_moves"":1,""num_whilered"":0,""num_whileblue"":0,""num_blue"":0,""num_good_moves"":7}","[410.3214133126395,421.57142761775424,1.3,410.3214133126395,421.57142761775424,103.8,410.3214133126395,421.57142761775424,203.9,410.3214133126395,421.57142761775424,307.8,410.3214133126395,421.57142761775424,407.8,410.3214133126395,421.57142761775424,521.6,410.3214133126395,421.57142761775424,623.1,410.3214133126395,421.57142761775424,724.4,406.5714133126395,422.82142761775424,843.1,251.5714133126395,645.3214276177542,946.1,227.8214133126395,666.5714276177542,1047.5,181.5714133126395,676.5714276177542,1147.6,131.5714133126395,701.5714276177542,1251.3,130.3214133126395,701.5714276177542,1363.9,130.3214133126395,701.5714276177542,1473.6,130.3214133126395,701.5714276177542,1573.6,130.3214133126395,701.5714276177542,1692.6,130.3214133126395,701.5714276177542,1795.2,-465.9285866873605,756.5714276177542,1912.3,-465.9285866873605,756.5714276177542,2014.9,-465.9285866873605,756.5714276177542,2118.2,-465.9285866873605,756.5714276177542,2218.4,-465.9285866873605,756.5714276177542,2323.2,-465.9285866873605,756.5714276177542,2442.5,-465.9285866873605,756.5714276177542,2544.2,-465.9285866873605,756.5714276177542,2644.8,-465.9285866873605,756.5714276177542,2745.8,-465.9285866873605,756.5714276177542,2847.8,-465.9285866873605,756.5714276177542,2948.9,-465.9285866873605,756.5714276177542,3052.8,-465.9285866873605,756.5714276177542,3153.1,-465.9285866873605,756.5714276177542,3258.2,-465.9285866873605,756.5714276177542,3359,-465.9285866873605,756.5714276177542,3460.4,-465.9285866873605,756.5714276177542,3562.9,-465.9285866873605,756.5714276177542,3663.6,-465.9285866873605,756.5714276177542,3767.9,-465.9285866873605,756.5714276177542,3868.4,-465.9285866873605,756.5714276177542,3988.8,-465.9285866873605,756.5714276177542,4092.2,-465.9285866873605,756.5714276177542,4194.8,-465.9285866873605,756.5714276177542,4295.1,-465.9285866873605,756.5714276177542,4402.2,-465.9285866873605,756.5714276177542,4502.8,-465.9285866873605,756.5714276177542,4621.5,-465.9285866873605,756.5714276177542,4722.7,-465.9285866873605,756.5714276177542,4823.1,-465.9285866873605,756.5714276177542,4930]","[1388.2,1388.2,1000,0,388.2,""smooth"",""left"",""left"",""good_move"",3830.7,2440.9,2135.9,1389.8,305,""oops"",""left"",""right"",""bad_move"",7262.7,3431.5,3079.8,3831.2,351.7,""smooth"",""down"",""down"",""good_move"",9978.4,2714.8,2376.1,7263.6,338.7,""smooth"",""left"",""left"",""good_move"",13276.9,3298.2,2863.8,9978.7,434.4,""oops"",""left"",""down"",""good_move"",16169.8,2892.2,2566.7,13277.6,325.5,""smooth"",""left"",""left"",""good_move"",19240.1,3069.5,2728.5,16170.6,341,""smooth"",""down"",""down"",""good_move"",22440.4,3199.9,2913.6,19240.5,286.3,""smooth"",""left"",""left"",""good_move""]"
"3511","","<div style=""width:500px;"">
  <p>What determined the result of this run?</p>
  </div>","25","html-slider-response","29","605598","0.0-7.0-1.3","208","1","2025-08-06 14:21:24","36c45c0696341be0efffe67d72a12abb","2.83.17.203","Mozilla/5.0 (Windows NT 10.0; Win64; x64) AppleWebKit/537.36 (KHTML, like Gecko) Chrome/138.0.0.0 Safari/537.36","WebKit","Chrome","138.0.0.0","Windows","10.0","https://app.prolific.com/","pt-PT,pt;q=0.9,en-US;q=0.8,en;q=0.7,es;q=0.6,de;q=0.5,it;q=0.4","66aea8fcd9cd711541bf63e5","687a1a965b9f5b85a264363e","689364d3c005a4e2b592231a","1","66aea8fcd9cd711541bf63e5","1","2025-08-06T14:31:29.444Z","","","","AttribQ","","","","","","","","","","","50","","","","","","","","","","","","","","","","","","","","","","","","","","",""
"1835","","<div style=""width:500px;"">
  <p>How much control did you have over the ball?</p>
  </div>","74","html-slider-response","30","607438","0.0-7.0-2.3","208","1","2025-08-06 14:21:24","36c45c0696341be0efffe67d72a12abb","2.83.17.203","Mozilla/5.0 (Windows NT 10.0; Win64; x64) AppleWebKit/537.36 (KHTML, like Gecko) Chrome/138.0.0.0 Safari/537.36","WebKit","Chrome","138.0.0.0","Windows","10.0","https://app.prolific.com/","pt-PT,pt;q=0.9,en-US;q=0.8,en;q=0.7,es;q=0.6,de;q=0.5,it;q=0.4","66aea8fcd9cd711541bf63e5","687a1a965b9f5b85a264363e","689364d3c005a4e2b592231a","1","66aea8fcd9cd711541bf63e5","1","2025-08-06T14:31:31.283Z","","","","ControlQ","","","","","","","","","","","50","","","","","","","","","","","","","","","","","","","","","","","","","","",""
"2622","","<div style=""width:500px;"">
  <p>How would you describe your current emotional state?</p>
  </div>","66","html-slider-response","31","610062","0.0-7.0-3.3","208","1","2025-08-06 14:21:24","36c45c0696341be0efffe67d72a12abb","2.83.17.203","Mozilla/5.0 (Windows NT 10.0; Win64; x64) AppleWebKit/537.36 (KHTML, like Gecko) Chrome/138.0.0.0 Safari/537.36","WebKit","Chrome","138.0.0.0","Windows","10.0","https://app.prolific.com/","pt-PT,pt;q=0.9,en-US;q=0.8,en;q=0.7,es;q=0.6,de;q=0.5,it;q=0.4","66aea8fcd9cd711541bf63e5","687a1a965b9f5b85a264363e","689364d3c005a4e2b592231a","1","66aea8fcd9cd711541bf63e5","1","2025-08-06T14:31:33.908Z","","","","StressQ","","","","","","","","","","","50","","","","","","","","","","","","","","","","","","","","","","","","","","",""
"46562","","<div style=""width:500px;"">
  <p>What best describes how you currently feel?</p>
  </div>","30","html-slider-response","32","656628","0.0-7.0-4.3","208","1","2025-08-06 14:21:24","36c45c0696341be0efffe67d72a12abb","2.83.17.203","Mozilla/5.0 (Windows NT 10.0; Win64; x64) AppleWebKit/537.36 (KHTML, like Gecko) Chrome/138.0.0.0 Safari/537.36","WebKit","Chrome","138.0.0.0","Windows","10.0","https://app.prolific.com/","pt-PT,pt;q=0.9,en-US;q=0.8,en;q=0.7,es;q=0.6,de;q=0.5,it;q=0.4","66aea8fcd9cd711541bf63e5","687a1a965b9f5b85a264363e","689364d3c005a4e2b592231a","1","66aea8fcd9cd711541bf63e5","1","2025-08-06T14:32:20.473Z","","","","MotivationQ","","","","","","","","","","","50","","","","","","","","","","","","","","","","","","","","","","","","","","",""
"","","","","ctl-task-cpt","33","710508","0.0-7.0-0.4","208","1","2025-08-06 14:21:24","36c45c0696341be0efffe67d72a12abb","2.83.17.203","Mozilla/5.0 (Windows NT 10.0; Win64; x64) AppleWebKit/537.36 (KHTML, like Gecko) Chrome/138.0.0.0 Safari/537.36","WebKit","Chrome","138.0.0.0","Windows","10.0","https://app.prolific.com/","pt-PT,pt;q=0.9,en-US;q=0.8,en;q=0.7,es;q=0.6,de;q=0.5,it;q=0.4","66aea8fcd9cd711541bf63e5","687a1a965b9f5b85a264363e","689364d3c005a4e2b592231a","1","66aea8fcd9cd711541bf63e5","1","2025-08-06T14:33:14.353Z","","","","","","","","","","","","","","","","win-only","0","g1:NW,g2:SE","0.6","5","0","658647.4","1882.6","6887.3","50868.6","1","4","8","6","2","-8","-10","0","8","0","980.1","3000","-1940","[""down"",""right""]","{""num_key_presses"":14,""num_perfect"":8,""num_errors"":2,""num_randdir"":4,""num_randdir_good_moves"":1,""num_whilered"":0,""num_whileblue"":1,""num_blue"":1,""num_good_moves"":9}","[421.5714133126395,411.57142761775424,1.2,421.5714133126395,411.57142761775424,103.6,421.5714133126395,411.57142761775424,204.1,421.5714133126395,411.57142761775424,316.7,421.5714133126395,411.57142761775424,419,421.5714133126395,411.57142761775424,519.4,421.5714133126395,411.57142761775424,619.6,746.5714133126395,824.0714276177542,727.7,747.8214133126395,825.3214276177542,849.4,756.5714133126395,817.8214276177542,968.4,756.5714133126395,817.8214276177542,1071.4,756.5714133126395,817.8214276177542,1175,800.3214133126395,784.0714276177542,1281.8,1221.5714133126396,620.3214276177542,1384.7,1221.5714133126396,620.3214276177542,1489.2,1221.5714133126396,620.3214276177542,1600.2,1221.5714133126396,620.3214276177542,1700.2,1221.5714133126396,620.3214276177542,1801.3,1221.5714133126396,620.3214276177542,1907.1,1221.5714133126396,620.3214276177542,2011.1,1221.5714133126396,620.3214276177542,2128.8,1221.5714133126396,620.3214276177542,2242.1,1221.5714133126396,620.3214276177542,2343.6,1221.5714133126396,620.3214276177542,2459.5,1221.5714133126396,620.3214276177542,2565.2,1221.5714133126396,620.3214276177542,2668.1,1221.5714133126396,620.3214276177542,2769.2,1221.5714133126396,620.3214276177542,2874.7,1221.5714133126396,620.3214276177542,2974.7,1221.5714133126396,620.3214276177542,3084.1,1221.5714133126396,620.3214276177542,3190,1221.5714133126396,620.3214276177542,3296.7,1221.5714133126396,620.3214276177542,3407.7,1221.5714133126396,620.3214276177542,3510.5,1221.5714133126396,620.3214276177542,3626.1,1221.5714133126396,620.3214276177542,3730.5,1221.5714133126396,620.3214276177542,3831.5,1221.5714133126396,620.3214276177542,3933.1,1221.5714133126396,620.3214276177542,4039.5,1221.5714133126396,620.3214276177542,4162.9,1221.5714133126396,620.3214276177542,4273.9,1221.5714133126396,620.3214276177542,4392.5,1221.5714133126396,620.3214276177542,4507.7,1221.5714133126396,620.3214276177542,4608.7,1221.5714133126396,620.3214276177542,4719.1,1221.5714133126396,620.3214276177542,4823.8,1221.5714133126396,620.3214276177542,4925]","[1341,1341,1000,0,341,""smooth"",""down"",""down"",""good_move"",4534.9,3192.1,2859.9,1342.8,332.2,""smooth"",""down"",""down"",""good_move"",6660.7,2124.8,1753.8,4535.9,371,""oops"",""down"",""left"",""bad_move"",9810.3,3147.3,2813.5,6663,333.8,""oops"",""right"",""down"",""good_move"",13163.3,3352.2,3040.7,9811.1,311.5,""oops"",""right"",""up"",""bad_move"",15901.7,2737.3,2966.5,13164.5,-229.2,""error"",""-"",""-"",""no_move"",19738,3835.3,2449,16904.2,384.8,""while_blue"",""right"",""right"",""good_move"",22552.7,2813.9,2439.5,19738.9,374.3,""smooth"",""right"",""right"",""good_move"",25174.2,2620.9,2256.5,22553.3,364.4,""oops"",""right"",""left"",""bad_move"",27985.4,2810.8,2420.8,25174.6,390,""smooth"",""up"",""up"",""bad_move"",31850.6,3864.4,3522.7,27986.2,341.7,""smooth"",""right"",""right"",""good_move"",35083.7,3232.6,2679,31851.1,553.6,""smooth"",""right"",""right"",""good_move"",38122.8,3038.6,2696.1,35084.2,342.5,""smooth"",""right"",""right"",""good_move"",40776,2652.4,2021.9,38123.7,630.5,""smooth"",""down"",""down"",""good_move""]"
"2307","","<div style=""width:500px;"">
  <p>What determined the result of this run?</p>
  </div>","71","html-slider-response","34","712817","0.0-7.0-1.4","208","1","2025-08-06 14:21:24","36c45c0696341be0efffe67d72a12abb","2.83.17.203","Mozilla/5.0 (Windows NT 10.0; Win64; x64) AppleWebKit/537.36 (KHTML, like Gecko) Chrome/138.0.0.0 Safari/537.36","WebKit","Chrome","138.0.0.0","Windows","10.0","https://app.prolific.com/","pt-PT,pt;q=0.9,en-US;q=0.8,en;q=0.7,es;q=0.6,de;q=0.5,it;q=0.4","66aea8fcd9cd711541bf63e5","687a1a965b9f5b85a264363e","689364d3c005a4e2b592231a","1","66aea8fcd9cd711541bf63e5","1","2025-08-06T14:33:16.662Z","","","","AttribQ","","","","","","","","","","","50","","","","","","","","","","","","","","","","","","","","","","","","","","",""
"2101","","<div style=""width:500px;"">
  <p>How much control did you have over the ball?</p>
  </div>","19","html-slider-response","35","714922","0.0-7.0-2.4","208","1","2025-08-06 14:21:24","36c45c0696341be0efffe67d72a12abb","2.83.17.203","Mozilla/5.0 (Windows NT 10.0; Win64; x64) AppleWebKit/537.36 (KHTML, like Gecko) Chrome/138.0.0.0 Safari/537.36","WebKit","Chrome","138.0.0.0","Windows","10.0","https://app.prolific.com/","pt-PT,pt;q=0.9,en-US;q=0.8,en;q=0.7,es;q=0.6,de;q=0.5,it;q=0.4","66aea8fcd9cd711541bf63e5","687a1a965b9f5b85a264363e","689364d3c005a4e2b592231a","1","66aea8fcd9cd711541bf63e5","1","2025-08-06T14:33:18.767Z","","","","ControlQ","","","","","","","","","","","50","","","","","","","","","","","","","","","","","","","","","","","","","","",""
"1726","","<div style=""width:500px;"">
  <p>How would you describe your current emotional state?</p>
  </div>","74","html-slider-response","36","716654","0.0-7.0-3.4","208","1","2025-08-06 14:21:24","36c45c0696341be0efffe67d72a12abb","2.83.17.203","Mozilla/5.0 (Windows NT 10.0; Win64; x64) AppleWebKit/537.36 (KHTML, like Gecko) Chrome/138.0.0.0 Safari/537.36","WebKit","Chrome","138.0.0.0","Windows","10.0","https://app.prolific.com/","pt-PT,pt;q=0.9,en-US;q=0.8,en;q=0.7,es;q=0.6,de;q=0.5,it;q=0.4","66aea8fcd9cd711541bf63e5","687a1a965b9f5b85a264363e","689364d3c005a4e2b592231a","1","66aea8fcd9cd711541bf63e5","1","2025-08-06T14:33:20.499Z","","","","StressQ","","","","","","","","","","","50","","","","","","","","","","","","","","","","","","","","","","","","","","",""
"62611","","<div style=""width:500px;"">
  <p>What best describes how you currently feel?</p>
  </div>","19","html-slider-response","37","779269","0.0-7.0-4.4","208","1","2025-08-06 14:21:24","36c45c0696341be0efffe67d72a12abb","2.83.17.203","Mozilla/5.0 (Windows NT 10.0; Win64; x64) AppleWebKit/537.36 (KHTML, like Gecko) Chrome/138.0.0.0 Safari/537.36","WebKit","Chrome","138.0.0.0","Windows","10.0","https://app.prolific.com/","pt-PT,pt;q=0.9,en-US;q=0.8,en;q=0.7,es;q=0.6,de;q=0.5,it;q=0.4","66aea8fcd9cd711541bf63e5","687a1a965b9f5b85a264363e","689364d3c005a4e2b592231a","1","66aea8fcd9cd711541bf63e5","1","2025-08-06T14:34:23.115Z","","","","MotivationQ","","","","","","","","","","","50","","","","","","","","","","","","","","","","","","","","","","","","","","",""
"","","","","ctl-task-cpt","38","829553","0.0-7.0-0.5","208","1","2025-08-06 14:21:24","36c45c0696341be0efffe67d72a12abb","2.83.17.203","Mozilla/5.0 (Windows NT 10.0; Win64; x64) AppleWebKit/537.36 (KHTML, like Gecko) Chrome/138.0.0.0 Safari/537.36","WebKit","Chrome","138.0.0.0","Windows","10.0","https://app.prolific.com/","pt-PT,pt;q=0.9,en-US;q=0.8,en;q=0.7,es;q=0.6,de;q=0.5,it;q=0.4","66aea8fcd9cd711541bf63e5","687a1a965b9f5b85a264363e","689364d3c005a4e2b592231a","1","66aea8fcd9cd711541bf63e5","1","2025-08-06T14:35:13.398Z","","","","","","","","","","","","","","","","win-only","3","g1:SW,g2:NE","0.5","6","0","781288.2","1987.6","7012.5","47261.3","1","4","4","6","1","1","0","0","0","0","1572.9","3000","605","[""down"",""left""]","{""num_key_presses"":14,""num_perfect"":7,""num_errors"":1,""num_randdir"":6,""num_randdir_good_moves"":3,""num_whilered"":0,""num_whileblue"":1,""num_blue"":2,""num_good_moves"":9}","[414.0714133126395,414.07142761775424,1,414.0714133126395,414.07142761775424,102.6,414.0714133126395,414.07142761775424,212.6,414.0714133126395,414.07142761775424,336.6,414.0714133126395,414.07142761775424,442.9,414.0714133126395,414.07142761775424,556,586.5714133126395,306.57142761775424,662.1,620.3214133126395,296.57142761775424,772,621.5714133126395,292.82142761775424,875.6,679.0714133126395,179.07142761775424,982.5,684.0714133126395,137.82142761775424,1083.6,507.8214133126395,251.57142761775424,1184.3,152.8214133126395,697.8214276177542,1306.1,134.0714133126395,706.5714276177542,1427.9,56.57141331263951,737.8214276177542,1530.7,56.57141331263951,737.8214276177542,1632.8,56.57141331263951,737.8214276177542,1733.4,56.57141331263951,737.8214276177542,1836.5,56.57141331263951,737.8214276177542,1956.2,56.57141331263951,737.8214276177542,2057.7,56.57141331263951,737.8214276177542,2161.3,12.821413312639507,699.0714276177542,2264.3,-234.6785866873605,684.0714276177542,2365.4,-278.4285866873605,691.5714276177542,2469.8,-278.4285866873605,691.5714276177542,2579.2,-278.4285866873605,691.5714276177542,2679.9,-278.4285866873605,691.5714276177542,2782.9,-278.4285866873605,691.5714276177542,2885.5,-278.4285866873605,691.5714276177542,2999.5,-278.4285866873605,691.5714276177542,3103.1,-278.4285866873605,691.5714276177542,3203.6,-278.4285866873605,691.5714276177542,3325.2,-278.4285866873605,691.5714276177542,3435.3,-278.4285866873605,691.5714276177542,3556.8,-278.4285866873605,691.5714276177542,3676,-278.4285866873605,691.5714276177542,3777.9,-278.4285866873605,691.5714276177542,3879,-278.4285866873605,691.5714276177542,3983.6,-278.4285866873605,691.5714276177542,4084.3,-278.4285866873605,691.5714276177542,4187.2,-278.4285866873605,691.5714276177542,4290.5,-278.4285866873605,691.5714276177542,4391.6,-278.4285866873605,691.5714276177542,4500.7,-278.4285866873605,691.5714276177542,4606.1,-278.4285866873605,691.5714276177542,4708.7,-278.4285866873605,691.5714276177542,4825.9,-278.4285866873605,691.5714276177542,4937.1]","[4566.5,4566.6,2174.6,2007.9,384.1,""oops"",""left"",""left"",""good_move"",7589.6,3022.2,2669.4,4567.6,352.7,""smooth"",""left"",""left"",""good_move"",10568.1,2978,2600.6,7590.1,377.4,""oops"",""down"",""up"",""bad_move"",13428.3,2859,2485.6,10569.3,373.4,""smooth"",""right"",""right"",""bad_move"",15716.7,2287.4,2155.6,13429.4,131.7,""oops"",""down"",""right"",""bad_move"",18117.6,2400.4,2006.9,15717.2,393.5,""oops"",""down"",""up"",""bad_move"",20733.2,2615.2,2351.3,18118,263.9,""smooth"",""left"",""left"",""good_move"",22931.2,2196.7,1938.8,20734.6,257.8,""smooth"",""down"",""down"",""good_move"",25553.3,2620.9,2322.1,22932.5,298.7,""smooth"",""down"",""down"",""good_move"",28670,3116.1,2809.4,25553.9,306.7,""oops"",""down"",""left"",""good_move"",31890.3,3219.3,2924.9,28671,294.4,""smooth"",""down"",""down"",""good_move"",34329.2,2438.5,2178.5,31890.8,259.9,""while_blue"",""down"",""right"",""bad_move"",37144.7,2814.1,2392.7,34330.6,421.4,""oops"",""down"",""left"",""good_move"",40125.9,2980.7,2692.2,37145.2,288.5,""smooth"",""down"",""down"",""good_move""]"
"6074","","<div style=""width:500px;"">
  <p>What determined the result of this run?</p>
  </div>","20","html-slider-response","39","835630","0.0-7.0-1.5","208","1","2025-08-06 14:21:24","36c45c0696341be0efffe67d72a12abb","2.83.17.203","Mozilla/5.0 (Windows NT 10.0; Win64; x64) AppleWebKit/537.36 (KHTML, like Gecko) Chrome/138.0.0.0 Safari/537.36","WebKit","Chrome","138.0.0.0","Windows","10.0","https://app.prolific.com/","pt-PT,pt;q=0.9,en-US;q=0.8,en;q=0.7,es;q=0.6,de;q=0.5,it;q=0.4","66aea8fcd9cd711541bf63e5","687a1a965b9f5b85a264363e","689364d3c005a4e2b592231a","1","66aea8fcd9cd711541bf63e5","1","2025-08-06T14:35:19.476Z","","","","AttribQ","","","","","","","","","","","50","","","","","","","","","","","","","","","","","","","","","","","","","","",""
"8971","","<div style=""width:500px;"">
  <p>How much control did you have over the ball?</p>
  </div>","31","html-slider-response","40","844606","0.0-7.0-2.5","208","1","2025-08-06 14:21:24","36c45c0696341be0efffe67d72a12abb","2.83.17.203","Mozilla/5.0 (Windows NT 10.0; Win64; x64) AppleWebKit/537.36 (KHTML, like Gecko) Chrome/138.0.0.0 Safari/537.36","WebKit","Chrome","138.0.0.0","Windows","10.0","https://app.prolific.com/","pt-PT,pt;q=0.9,en-US;q=0.8,en;q=0.7,es;q=0.6,de;q=0.5,it;q=0.4","66aea8fcd9cd711541bf63e5","687a1a965b9f5b85a264363e","689364d3c005a4e2b592231a","1","66aea8fcd9cd711541bf63e5","1","2025-08-06T14:35:28.451Z","","","","ControlQ","","","","","","","","","","","50","","","","","","","","","","","","","","","","","","","","","","","","","","",""
"1651","","<div style=""width:500px;"">
  <p>How would you describe your current emotional state?</p>
  </div>","78","html-slider-response","41","846262","0.0-7.0-3.5","208","1","2025-08-06 14:21:24","36c45c0696341be0efffe67d72a12abb","2.83.17.203","Mozilla/5.0 (Windows NT 10.0; Win64; x64) AppleWebKit/537.36 (KHTML, like Gecko) Chrome/138.0.0.0 Safari/537.36","WebKit","Chrome","138.0.0.0","Windows","10.0","https://app.prolific.com/","pt-PT,pt;q=0.9,en-US;q=0.8,en;q=0.7,es;q=0.6,de;q=0.5,it;q=0.4","66aea8fcd9cd711541bf63e5","687a1a965b9f5b85a264363e","689364d3c005a4e2b592231a","1","66aea8fcd9cd711541bf63e5","1","2025-08-06T14:35:30.107Z","","","","StressQ","","","","","","","","","","","50","","","","","","","","","","","","","","","","","","","","","","","","","","",""
"1810","","<div style=""width:500px;"">
  <p>What best describes how you currently feel?</p>
  </div>","10","html-slider-response","42","848075","0.0-7.0-4.5","208","1","2025-08-06 14:21:24","36c45c0696341be0efffe67d72a12abb","2.83.17.203","Mozilla/5.0 (Windows NT 10.0; Win64; x64) AppleWebKit/537.36 (KHTML, like Gecko) Chrome/138.0.0.0 Safari/537.36","WebKit","Chrome","138.0.0.0","Windows","10.0","https://app.prolific.com/","pt-PT,pt;q=0.9,en-US;q=0.8,en;q=0.7,es;q=0.6,de;q=0.5,it;q=0.4","66aea8fcd9cd711541bf63e5","687a1a965b9f5b85a264363e","689364d3c005a4e2b592231a","1","66aea8fcd9cd711541bf63e5","1","2025-08-06T14:35:31.920Z","","","","MotivationQ","","","","","","","","","","","50","","","","","","","","","","","","","","","","","","","","","","","","","","",""
"","","","","ctl-task-cpt","43","882359","0.0-7.0-0.6","208","1","2025-08-06 14:21:24","36c45c0696341be0efffe67d72a12abb","2.83.17.203","Mozilla/5.0 (Windows NT 10.0; Win64; x64) AppleWebKit/537.36 (KHTML, like Gecko) Chrome/138.0.0.0 Safari/537.36","WebKit","Chrome","138.0.0.0","Windows","10.0","https://app.prolific.com/","pt-PT,pt;q=0.9,en-US;q=0.8,en;q=0.7,es;q=0.6,de;q=0.5,it;q=0.4","66aea8fcd9cd711541bf63e5","687a1a965b9f5b85a264363e","689364d3c005a4e2b592231a","1","66aea8fcd9cd711541bf63e5","1","2025-08-06T14:36:06.204Z","","","","","","","","","","","","","","","","win-only","0","g1:NW,g2:SE","0.4","7","0","850093.2","4016.4","9040.9","31247.5","1","4","8","6","2","8","8","8","0","0.06060606060606061","1010.2","3000","1500","[""down"",""right""]","{""num_key_presses"":8,""num_perfect"":4,""num_errors"":0,""num_randdir"":4,""num_randdir_good_moves"":3,""num_whilered"":0,""num_whileblue"":0,""num_blue"":0,""num_good_moves"":7}","[417.8214133126395,410.32142761775424,0.7,417.8214133126395,411.57142761775424,101.1,417.8214133126395,411.57142761775424,219.2,417.8214133126395,411.57142761775424,344.2,417.8214133126395,411.57142761775424,445,466.5714133126395,531.5714276177542,550.5,556.5714133126395,597.8214276177542,651.2,556.5714133126395,597.8214276177542,772.9,781.5714133126395,776.5714276177542,875.5,791.5714133126395,782.8214276177542,975.8,791.5714133126395,782.8214276177542,1089.2,791.5714133126395,782.8214276177542,1195.4,791.5714133126395,782.8214276177542,1296.5,791.5714133126395,782.8214276177542,1408.7,857.8214133126395,711.5714276177542,1512.9,1170.3214133126396,497.82142761775424,1614.3,1171.5714133126396,496.57142761775424,1725.1,1172.8214133126396,495.32142761775424,1832.5,1172.8214133126396,495.32142761775424,1934.8,1172.8214133126396,495.32142761775424,2035.1,1172.8214133126396,495.32142761775424,2158.5,1172.8214133126396,495.32142761775424,2274.2,1172.8214133126396,495.32142761775424,2381.6,1172.8214133126396,495.32142761775424,2506.3,1172.8214133126396,495.32142761775424,2611.3,1172.8214133126396,495.32142761775424,2711.3,1172.8214133126396,495.32142761775424,2815.1,1172.8214133126396,495.32142761775424,2932.6,1172.8214133126396,495.32142761775424,3033,1172.8214133126396,495.32142761775424,3134.1,1172.8214133126396,495.32142761775424,3234.2,1172.8214133126396,495.32142761775424,3338.3,1172.8214133126396,495.32142761775424,3457.1,1172.8214133126396,495.32142761775424,3575.6,1172.8214133126396,495.32142761775424,3679.9,1172.8214133126396,495.32142761775424,3787.4,1172.8214133126396,495.32142761775424,3899.5,1172.8214133126396,495.32142761775424,4009.2,1172.8214133126396,495.32142761775424,4109.9,1172.8214133126396,495.32142761775424,4225,1172.8214133126396,495.32142761775424,4331.3,1172.8214133126396,495.32142761775424,4435.8,1172.8214133126396,495.32142761775424,4546,1172.8214133126396,495.32142761775424,4650.2,1172.8214133126396,495.32142761775424,4774,1172.8214133126396,495.32142761775424,4874.6,1172.8214133126396,495.32142761775424,4976.6]","[1462,1462,1000,0,462,""smooth"",""down"",""down"",""good_move"",4764.3,3300.1,2903.7,1464.2,396.4,""smooth"",""down"",""down"",""good_move"",7680.6,2915.7,2575.4,4764.9,340.3,""oops"",""down"",""right"",""good_move"",11238,3556.6,3214.9,7681.4,341.7,""oops"",""down"",""right"",""good_move"",13767.9,2529.6,2118.2,11238.4,411.4,""oops"",""down"",""left"",""bad_move"",16328.2,2558.2,2194.1,13770,364.1,""smooth"",""down"",""down"",""good_move"",19540.2,3211.6,2895.5,16328.7,316,""smooth"",""right"",""right"",""good_move"",22040.6,2499.9,2185.5,19540.7,314.4,""oops"",""right"",""right"",""good_move""]"
"2384","","<div style=""width:500px;"">
  <p>What determined the result of this run?</p>
  </div>","76","html-slider-response","44","884747","0.0-7.0-1.6","208","1","2025-08-06 14:21:24","36c45c0696341be0efffe67d72a12abb","2.83.17.203","Mozilla/5.0 (Windows NT 10.0; Win64; x64) AppleWebKit/537.36 (KHTML, like Gecko) Chrome/138.0.0.0 Safari/537.36","WebKit","Chrome","138.0.0.0","Windows","10.0","https://app.prolific.com/","pt-PT,pt;q=0.9,en-US;q=0.8,en;q=0.7,es;q=0.6,de;q=0.5,it;q=0.4","66aea8fcd9cd711541bf63e5","687a1a965b9f5b85a264363e","689364d3c005a4e2b592231a","1","66aea8fcd9cd711541bf63e5","1","2025-08-06T14:36:08.593Z","","","","AttribQ","","","","","","","","","","","50","","","","","","","","","","","","","","","","","","","","","","","","","","",""
"1717","","<div style=""width:500px;"">
  <p>How much control did you have over the ball?</p>
  </div>","29","html-slider-response","45","886469","0.0-7.0-2.6","208","1","2025-08-06 14:21:24","36c45c0696341be0efffe67d72a12abb","2.83.17.203","Mozilla/5.0 (Windows NT 10.0; Win64; x64) AppleWebKit/537.36 (KHTML, like Gecko) Chrome/138.0.0.0 Safari/537.36","WebKit","Chrome","138.0.0.0","Windows","10.0","https://app.prolific.com/","pt-PT,pt;q=0.9,en-US;q=0.8,en;q=0.7,es;q=0.6,de;q=0.5,it;q=0.4","66aea8fcd9cd711541bf63e5","687a1a965b9f5b85a264363e","689364d3c005a4e2b592231a","1","66aea8fcd9cd711541bf63e5","1","2025-08-06T14:36:10.314Z","","","","ControlQ","","","","","","","","","","","50","","","","","","","","","","","","","","","","","","","","","","","","","","",""
"2606","","<div style=""width:500px;"">
  <p>How would you describe your current emotional state?</p>
  </div>","79","html-slider-response","46","889078","0.0-7.0-3.6","208","1","2025-08-06 14:21:24","36c45c0696341be0efffe67d72a12abb","2.83.17.203","Mozilla/5.0 (Windows NT 10.0; Win64; x64) AppleWebKit/537.36 (KHTML, like Gecko) Chrome/138.0.0.0 Safari/537.36","WebKit","Chrome","138.0.0.0","Windows","10.0","https://app.prolific.com/","pt-PT,pt;q=0.9,en-US;q=0.8,en;q=0.7,es;q=0.6,de;q=0.5,it;q=0.4","66aea8fcd9cd711541bf63e5","687a1a965b9f5b85a264363e","689364d3c005a4e2b592231a","1","66aea8fcd9cd711541bf63e5","1","2025-08-06T14:36:12.924Z","","","","StressQ","","","","","","","","","","","50","","","","","","","","","","","","","","","","","","","","","","","","","","",""
"1845","","<div style=""width:500px;"">
  <p>What best describes how you currently feel?</p>
  </div>","17","html-slider-response","47","890928","0.0-7.0-4.6","208","1","2025-08-06 14:21:24","36c45c0696341be0efffe67d72a12abb","2.83.17.203","Mozilla/5.0 (Windows NT 10.0; Win64; x64) AppleWebKit/537.36 (KHTML, like Gecko) Chrome/138.0.0.0 Safari/537.36","WebKit","Chrome","138.0.0.0","Windows","10.0","https://app.prolific.com/","pt-PT,pt;q=0.9,en-US;q=0.8,en;q=0.7,es;q=0.6,de;q=0.5,it;q=0.4","66aea8fcd9cd711541bf63e5","687a1a965b9f5b85a264363e","689364d3c005a4e2b592231a","1","66aea8fcd9cd711541bf63e5","1","2025-08-06T14:36:14.774Z","","","","MotivationQ","","","","","","","","","","","50","","","","","","","","","","","","","","","","","","","","","","","","","","",""
"","","","","ctl-task-cpt","48","979448","0.0-7.0-0.7","208","1","2025-08-06 14:21:24","36c45c0696341be0efffe67d72a12abb","2.83.17.203","Mozilla/5.0 (Windows NT 10.0; Win64; x64) AppleWebKit/537.36 (KHTML, like Gecko) Chrome/138.0.0.0 Safari/537.36","WebKit","Chrome","138.0.0.0","Windows","10.0","https://app.prolific.com/","pt-PT,pt;q=0.9,en-US;q=0.8,en;q=0.7,es;q=0.6,de;q=0.5,it;q=0.4","66aea8fcd9cd711541bf63e5","687a1a965b9f5b85a264363e","689364d3c005a4e2b592231a","1","66aea8fcd9cd711541bf63e5","1","2025-08-06T14:37:43.293Z","","","","","","","","","","","","","","","","win-only","0","g1:NW,g2:SE","0.3","8","0","892950.7","3464.1","8466.8","85491.8","1","4","4","6","1","-1","-3","5","8","0.03787878787878788","1169.2","3000","-1625","[""left"",""up""]","{""num_key_presses"":18,""num_perfect"":6,""num_errors"":2,""num_randdir"":10,""num_randdir_good_moves"":2,""num_whilered"":0,""num_whileblue"":2,""num_blue"":9,""num_good_moves"":10}","[410.3214133126395,412.82142761775424,0.7,410.3214133126395,412.82142761775424,105.2,410.3214133126395,412.82142761775424,222.7,410.3214133126395,412.82142761775424,323.5,410.3214133126395,412.82142761775424,426,410.3214133126395,412.82142761775424,556.7,421.5714133126395,416.57142761775424,658.1,454.0714133126395,495.32142761775424,763.6,167.8214133126395,109.07142761775425,891.9,167.8214133126395,109.07142761775425,992.1,86.5714133126395,55.32142761775425,1105.6,84.0714133126395,55.32142761775425,1207.2,84.0714133126395,55.32142761775425,1307.9,84.0714133126395,55.32142761775425,1408.5,-333.4285866873605,231.57142761775424,1520.6,-333.4285866873605,231.57142761775424,1623.5,-333.4285866873605,231.57142761775424,1730.3,-333.4285866873605,231.57142761775424,1859.3,-333.4285866873605,231.57142761775424,1974.6,-333.4285866873605,231.57142761775424,2078,-333.4285866873605,231.57142761775424,2197.3,-333.4285866873605,231.57142761775424,2304.6,-333.4285866873605,231.57142761775424,2407.5,-333.4285866873605,231.57142761775424,2507.7,-333.4285866873605,231.57142761775424,2610.6,-333.4285866873605,231.57142761775424,2723,-333.4285866873605,231.57142761775424,2825,-333.4285866873605,231.57142761775424,2942.2,-333.4285866873605,231.57142761775424,3046.2,-333.4285866873605,231.57142761775424,3161,-333.4285866873605,231.57142761775424,3263.1,-333.4285866873605,231.57142761775424,3369.6,-333.4285866873605,231.57142761775424,3477,-333.4285866873605,231.57142761775424,3590.1,-333.4285866873605,231.57142761775424,3693.4,-333.4285866873605,231.57142761775424,3833.4,-333.4285866873605,231.57142761775424,3937.1,-333.4285866873605,231.57142761775424,4037.6,-333.4285866873605,231.57142761775424,4139,-333.4285866873605,231.57142761775424,4252.9,-333.4285866873605,231.57142761775424,4353.4,-333.4285866873605,231.57142761775424,4468.8,-333.4285866873605,231.57142761775424,4578.7,-333.4285866873605,231.57142761775424,4680.5,-333.4285866873605,231.57142761775424,4788.4,-333.4285866873605,231.57142761775424,4898]","[1425.4,1425.4,1000,0,425.4,""oops"",""up"",""left"",""good_move"",4692.8,3266.9,2906.7,1425.9,360.3,""oops"",""up"",""right"",""bad_move"",7716.1,3022,2672.8,4694.1,349.2,""smooth"",""up"",""up"",""good_move"",10314.5,2597.3,2263.1,7717.2,334.2,""while_blue"",""left"",""up"",""good_move"",16924,6608.8,3173.8,13325.5,424.7,""oops"",""left"",""left"",""good_move"",19853.6,2928.7,2600.5,16924.9,328.2,""oops"",""left"",""right"",""bad_move"",23368.8,3512.6,3207.6,19856.2,305.1,""smooth"",""left"",""left"",""good_move"",26744.1,3374.7,3011.3,23369.4,363.4,""oops"",""left"",""right"",""bad_move"",29811.9,3067.2,2721.7,26744.7,345.5,""smooth"",""left"",""left"",""good_move"",35750.9,5938.4,2401.8,33019.7,329.5,""oops"",""down"",""right"",""bad_move"",38579.7,2828.4,2490.7,35751.3,337.9,""oops"",""down"",""right"",""bad_move"",51355.8,12775.6,2507.6,48391.2,457,""smooth"",""left"",""left"",""good_move"",53935.6,2579,2251.2,51356.6,327.8,""smooth"",""left"",""left"",""good_move"",59498.1,5562.2,2231.7,56890.5,375.9,""oops"",""left"",""right"",""bad_move"",62804.7,3304.2,2990.5,59500.6,313.6,""oops"",""left"",""down"",""bad_move"",65862.7,3056.8,2703.6,62805.9,353.2,""smooth"",""left"",""left"",""good_move"",68679.9,2816.1,2530.5,65863.9,285.6,""while_blue"",""left"",""up"",""good_move"",74565.2,5883.7,2690.4,71569.2,305.6,""oops"",""left"",""right"",""bad_move""]"
"3746","","<div style=""width:500px;"">
  <p>What determined the result of this run?</p>
  </div>","21","html-slider-response","49","983197","0.0-7.0-1.7","208","1","2025-08-06 14:21:24","36c45c0696341be0efffe67d72a12abb","2.83.17.203","Mozilla/5.0 (Windows NT 10.0; Win64; x64) AppleWebKit/537.36 (KHTML, like Gecko) Chrome/138.0.0.0 Safari/537.36","WebKit","Chrome","138.0.0.0","Windows","10.0","https://app.prolific.com/","pt-PT,pt;q=0.9,en-US;q=0.8,en;q=0.7,es;q=0.6,de;q=0.5,it;q=0.4","66aea8fcd9cd711541bf63e5","687a1a965b9f5b85a264363e","689364d3c005a4e2b592231a","1","66aea8fcd9cd711541bf63e5","1","2025-08-06T14:37:47.043Z","","","","AttribQ","","","","","","","","","","","50","","","","","","","","","","","","","","","","","","","","","","","","","","",""
"1770","","<div style=""width:500px;"">
  <p>How much control did you have over the ball?</p>
  </div>","0","html-slider-response","50","984976","0.0-7.0-2.7","208","1","2025-08-06 14:21:24","36c45c0696341be0efffe67d72a12abb","2.83.17.203","Mozilla/5.0 (Windows NT 10.0; Win64; x64) AppleWebKit/537.36 (KHTML, like Gecko) Chrome/138.0.0.0 Safari/537.36","WebKit","Chrome","138.0.0.0","Windows","10.0","https://app.prolific.com/","pt-PT,pt;q=0.9,en-US;q=0.8,en;q=0.7,es;q=0.6,de;q=0.5,it;q=0.4","66aea8fcd9cd711541bf63e5","687a1a965b9f5b85a264363e","689364d3c005a4e2b592231a","1","66aea8fcd9cd711541bf63e5","1","2025-08-06T14:37:48.822Z","","","","ControlQ","","","","","","","","","","","50","","","","","","","","","","","","","","","","","","","","","","","","","","",""
"2193","","<div style=""width:500px;"">
  <p>How would you describe your current emotional state?</p>
  </div>","100","html-slider-response","51","987173","0.0-7.0-3.7","208","1","2025-08-06 14:21:24","36c45c0696341be0efffe67d72a12abb","2.83.17.203","Mozilla/5.0 (Windows NT 10.0; Win64; x64) AppleWebKit/537.36 (KHTML, like Gecko) Chrome/138.0.0.0 Safari/537.36","WebKit","Chrome","138.0.0.0","Windows","10.0","https://app.prolific.com/","pt-PT,pt;q=0.9,en-US;q=0.8,en;q=0.7,es;q=0.6,de;q=0.5,it;q=0.4","66aea8fcd9cd711541bf63e5","687a1a965b9f5b85a264363e","689364d3c005a4e2b592231a","1","66aea8fcd9cd711541bf63e5","1","2025-08-06T14:37:51.018Z","","","","StressQ","","","","","","","","","","","50","","","","","","","","","","","","","","","","","","","","","","","","","","",""
"1776","","<div style=""width:500px;"">
  <p>What best describes how you currently feel?</p>
  </div>","0","html-slider-response","52","988954","0.0-7.0-4.7","208","1","2025-08-06 14:21:24","36c45c0696341be0efffe67d72a12abb","2.83.17.203","Mozilla/5.0 (Windows NT 10.0; Win64; x64) AppleWebKit/537.36 (KHTML, like Gecko) Chrome/138.0.0.0 Safari/537.36","WebKit","Chrome","138.0.0.0","Windows","10.0","https://app.prolific.com/","pt-PT,pt;q=0.9,en-US;q=0.8,en;q=0.7,es;q=0.6,de;q=0.5,it;q=0.4","66aea8fcd9cd711541bf63e5","687a1a965b9f5b85a264363e","689364d3c005a4e2b592231a","1","66aea8fcd9cd711541bf63e5","1","2025-08-06T14:37:52.800Z","","","","MotivationQ","","","","","","","","","","","50","","","","","","","","","","","","","","","","","","","","","","","","","","",""
"","","","","ctl-task-cpt","53","1062159","0.0-7.0-0.8","208","1","2025-08-06 14:21:24","36c45c0696341be0efffe67d72a12abb","2.83.17.203","Mozilla/5.0 (Windows NT 10.0; Win64; x64) AppleWebKit/537.36 (KHTML, like Gecko) Chrome/138.0.0.0 Safari/537.36","WebKit","Chrome","138.0.0.0","Windows","10.0","https://app.prolific.com/","pt-PT,pt;q=0.9,en-US;q=0.8,en;q=0.7,es;q=0.6,de;q=0.5,it;q=0.4","66aea8fcd9cd711541bf63e5","687a1a965b9f5b85a264363e","689364d3c005a4e2b592231a","1","66aea8fcd9cd711541bf63e5","1","2025-08-06T14:39:06.005Z","","","","","","","","","","","","","","","","win-only","0","g1:NW,g2:SE","0.4","9","0","990974.2","13848.8","18850.6","70188.7","1","4","8","6","2","-8","-11","0","5","0","996.6","3000","-1450","[""down"",""right""]","{""num_key_presses"":14,""num_perfect"":4,""num_errors"":3,""num_randdir"":7,""num_randdir_good_moves"":3,""num_whilered"":0,""num_whileblue"":3,""num_blue"":5,""num_good_moves"":8}","[429.0714133126395,417.82142761775424,1,427.8214133126395,417.82142761775424,119.6,427.8214133126395,417.82142761775424,225.3,427.8214133126395,417.82142761775424,329.7,427.8214133126395,417.82142761775424,434.1,456.5714133126395,449.07142761775424,539.5,659.0714133126395,690.3214276177542,643.1,659.0714133126395,690.3214276177542,746.4,696.5714133126395,706.5714276177542,869.6,711.5714133126395,725.3214276177542,1008.2,711.5714133126395,725.3214276177542,1108.7,711.5714133126395,725.3214276177542,1236.3,711.5714133126395,725.3214276177542,1338.8,711.5714133126395,725.3214276177542,1443.1,956.5714133126395,565.3214276177542,1569.7,1171.5714133126396,482.82142761775424,1677.2,1171.5714133126396,482.82142761775424,1777.9,1171.5714133126396,482.82142761775424,1878,1171.5714133126396,482.82142761775424,1983.5,1171.5714133126396,482.82142761775424,2102.3,1171.5714133126396,482.82142761775424,2209.2,1171.5714133126396,482.82142761775424,2312.7,1171.5714133126396,482.82142761775424,2429,1171.5714133126396,482.82142761775424,2534.3,1171.5714133126396,482.82142761775424,2640,1171.5714133126396,482.82142761775424,2740.1,1171.5714133126396,482.82142761775424,2843.3,1171.5714133126396,482.82142761775424,2945.7,1171.5714133126396,482.82142761775424,3049.2,1171.5714133126396,482.82142761775424,3152.8,1171.5714133126396,482.82142761775424,3267.3,1171.5714133126396,482.82142761775424,3369.1,1171.5714133126396,482.82142761775424,3469.3,1171.5714133126396,482.82142761775424,3586.5,1171.5714133126396,482.82142761775424,3688.2,1171.5714133126396,482.82142761775424,3793.8,1171.5714133126396,482.82142761775424,3900,1171.5714133126396,482.82142761775424,4019.2,1171.5714133126396,482.82142761775424,4121.9,1171.5714133126396,482.82142761775424,4224.7,1171.5714133126396,482.82142761775424,4325.4,1171.5714133126396,482.82142761775424,4441.3,1171.5714133126396,482.82142761775424,4541.6,1171.5714133126396,482.82142761775424,4641.9,1171.5714133126396,482.82142761775424,4743,1171.5714133126396,482.82142761775424,4857.1,1171.5714133126396,482.82142761775424,4957.1]","[5154.5,5154.5,2705.7,2020.8,428,""smooth"",""down"",""down"",""good_move"",7344.2,2188.9,1773.8,5155.4,415,""smooth"",""down"",""down"",""good_move"",10230.4,2885.8,2522.4,7344.6,363.4,""oops"",""down"",""right"",""good_move"",12968.5,2736.8,2285.4,10231.7,451.4,""oops"",""down"",""up"",""bad_move"",16309.3,3340.2,2708.9,12969.1,631.3,""oops"",""right"",""up"",""bad_move"",19576,3266.1,3145.3,16310,120.7,""while_blue"",""right"",""left"",""bad_move"",22830.8,3254,2712.6,19576.8,541.4,""oops"",""down"",""left"",""bad_move"",25733.3,2901.3,2118.6,22832,782.8,""smooth"",""down"",""down"",""good_move"",28271.6,2537.1,2193.6,25734.5,343.5,""oops"",""down"",""up"",""bad_move"",31725.7,3453.2,3117,28272.5,336.2,""while_blue"",""down"",""left"",""bad_move"",35355.7,3629.4,2788.7,31726.3,840.7,""smooth"",""down"",""down"",""good_move"",38852.4,3496.4,3005.3,35356,491.1,""oops"",""down"",""down"",""good_move"",41456.9,2603.9,2264.8,38853.1,339.1,""while_blue"",""down"",""right"",""good_move"",48162.9,6703.5,2617,45094,451.9,""oops"",""down"",""down"",""good_move""]"
"4468","","<div style=""width:500px;"">
  <p>What determined the result of this run?</p>
  </div>","22","html-slider-response","54","1066631","0.0-7.0-1.8","208","1","2025-08-06 14:21:24","36c45c0696341be0efffe67d72a12abb","2.83.17.203","Mozilla/5.0 (Windows NT 10.0; Win64; x64) AppleWebKit/537.36 (KHTML, like Gecko) Chrome/138.0.0.0 Safari/537.36","WebKit","Chrome","138.0.0.0","Windows","10.0","https://app.prolific.com/","pt-PT,pt;q=0.9,en-US;q=0.8,en;q=0.7,es;q=0.6,de;q=0.5,it;q=0.4","66aea8fcd9cd711541bf63e5","687a1a965b9f5b85a264363e","689364d3c005a4e2b592231a","1","66aea8fcd9cd711541bf63e5","1","2025-08-06T14:39:10.477Z","","","","AttribQ","","","","","","","","","","","50","","","","","","","","","","","","","","","","","","","","","","","","","","",""
"2961","","<div style=""width:500px;"">
  <p>How much control did you have over the ball?</p>
  </div>","20","html-slider-response","55","1069596","0.0-7.0-2.8","208","1","2025-08-06 14:21:24","36c45c0696341be0efffe67d72a12abb","2.83.17.203","Mozilla/5.0 (Windows NT 10.0; Win64; x64) AppleWebKit/537.36 (KHTML, like Gecko) Chrome/138.0.0.0 Safari/537.36","WebKit","Chrome","138.0.0.0","Windows","10.0","https://app.prolific.com/","pt-PT,pt;q=0.9,en-US;q=0.8,en;q=0.7,es;q=0.6,de;q=0.5,it;q=0.4","66aea8fcd9cd711541bf63e5","687a1a965b9f5b85a264363e","689364d3c005a4e2b592231a","1","66aea8fcd9cd711541bf63e5","1","2025-08-06T14:39:13.441Z","","","","ControlQ","","","","","","","","","","","50","","","","","","","","","","","","","","","","","","","","","","","","","","",""
"2266","","<div style=""width:500px;"">
  <p>How would you describe your current emotional state?</p>
  </div>","83","html-slider-response","56","1071866","0.0-7.0-3.8","208","1","2025-08-06 14:21:24","36c45c0696341be0efffe67d72a12abb","2.83.17.203","Mozilla/5.0 (Windows NT 10.0; Win64; x64) AppleWebKit/537.36 (KHTML, like Gecko) Chrome/138.0.0.0 Safari/537.36","WebKit","Chrome","138.0.0.0","Windows","10.0","https://app.prolific.com/","pt-PT,pt;q=0.9,en-US;q=0.8,en;q=0.7,es;q=0.6,de;q=0.5,it;q=0.4","66aea8fcd9cd711541bf63e5","687a1a965b9f5b85a264363e","689364d3c005a4e2b592231a","1","66aea8fcd9cd711541bf63e5","1","2025-08-06T14:39:15.712Z","","","","StressQ","","","","","","","","","","","50","","","","","","","","","","","","","","","","","","","","","","","","","","",""
"2363","","<div style=""width:500px;"">
  <p>What best describes how you currently feel?</p>
  </div>","15","html-slider-response","57","1074234","0.0-7.0-4.8","208","1","2025-08-06 14:21:24","36c45c0696341be0efffe67d72a12abb","2.83.17.203","Mozilla/5.0 (Windows NT 10.0; Win64; x64) AppleWebKit/537.36 (KHTML, like Gecko) Chrome/138.0.0.0 Safari/537.36","WebKit","Chrome","138.0.0.0","Windows","10.0","https://app.prolific.com/","pt-PT,pt;q=0.9,en-US;q=0.8,en;q=0.7,es;q=0.6,de;q=0.5,it;q=0.4","66aea8fcd9cd711541bf63e5","687a1a965b9f5b85a264363e","689364d3c005a4e2b592231a","1","66aea8fcd9cd711541bf63e5","1","2025-08-06T14:39:18.079Z","","","","MotivationQ","","","","","","","","","","","50","","","","","","","","","","","","","","","","","","","","","","","","","","",""
"","","","","ctl-task-cpt","58","1115682","0.0-7.0-0.9","208","1","2025-08-06 14:21:24","36c45c0696341be0efffe67d72a12abb","2.83.17.203","Mozilla/5.0 (Windows NT 10.0; Win64; x64) AppleWebKit/537.36 (KHTML, like Gecko) Chrome/138.0.0.0 Safari/537.36","WebKit","Chrome","138.0.0.0","Windows","10.0","https://app.prolific.com/","pt-PT,pt;q=0.9,en-US;q=0.8,en;q=0.7,es;q=0.6,de;q=0.5,it;q=0.4","66aea8fcd9cd711541bf63e5","687a1a965b9f5b85a264363e","689364d3c005a4e2b592231a","1","66aea8fcd9cd711541bf63e5","1","2025-08-06T14:39:59.528Z","","","","","","","","","","","","","","","","win-only","2","g1:SE,g2:NW","0.5","10","0","1076255.4","10820.9","15835.5","38427.5","1","4","4","6","1","1","1","1","0","0.007575757575757576","1169.9","3000","2330","[""down"",""right""]","{""num_key_presses"":4,""num_perfect"":3,""num_errors"":0,""num_randdir"":1,""num_randdir_good_moves"":1,""num_whilered"":0,""num_whileblue"":0,""num_blue"":4,""num_good_moves"":4}","[411.5714133126395,424.07142761775424,0.5,411.5714133126395,424.07142761775424,103.1,411.5714133126395,424.07142761775424,243.9,411.5714133126395,424.07142761775424,345.2,411.5714133126395,424.07142761775424,448.6,411.5714133126395,424.07142761775424,557.5,411.5714133126395,424.07142761775424,663.6,411.5714133126395,424.07142761775424,765,514.0714133126395,537.8214276177542,870.4,701.5714133126395,729.0714276177542,975.3,716.5714133126395,745.3214276177542,1099.5,716.5714133126395,745.3214276177542,1202.1,716.5714133126395,745.3214276177542,1302.2,921.5714133126395,681.5714276177542,1409.9,1006.5714133126395,681.5714276177542,1527.7,1006.5714133126395,681.5714276177542,1644.1,1006.5714133126395,681.5714276177542,1745,1006.5714133126395,681.5714276177542,1845.2,1006.5714133126395,681.5714276177542,1976.6,1006.5714133126395,681.5714276177542,2101.2,1006.5714133126395,681.5714276177542,2203.2,1006.5714133126395,681.5714276177542,2342.1,1006.5714133126395,681.5714276177542,2462.4,1006.5714133126395,681.5714276177542,2566.2,1006.5714133126395,681.5714276177542,2672.2,1006.5714133126395,681.5714276177542,2775.5,1006.5714133126395,681.5714276177542,2876.4,1006.5714133126395,681.5714276177542,2978.7,1006.5714133126395,681.5714276177542,3109.8,1006.5714133126395,681.5714276177542,3211.7,1006.5714133126395,681.5714276177542,3313.1,1006.5714133126395,681.5714276177542,3415.4,1006.5714133126395,681.5714276177542,3516.8,1006.5714133126395,681.5714276177542,3633.3,1006.5714133126395,681.5714276177542,3735.5,1006.5714133126395,681.5714276177542,3857.1,1006.5714133126395,681.5714276177542,3959.3,1006.5714133126395,681.5714276177542,4060,1006.5714133126395,681.5714276177542,4178.4,1006.5714133126395,681.5714276177542,4281.7,1006.5714133126395,681.5714276177542,4383,1006.5714133126395,681.5714276177542,4487.1,1006.5714133126395,681.5714276177542,4594.8,1006.5714133126395,681.5714276177542,4695.2,1006.5714133126395,681.5714276177542,4808,1006.5714133126395,681.5714276177542,4908.4]","[4989.9,4990,2535.4,2030.9,423.7,""smooth"",""down"",""down"",""good_move"",11667.3,6676.1,2434.5,8728.4,504.4,""smooth"",""down"",""down"",""good_move"",16702,5033.7,1415.6,14824.8,461.6,""oops"",""right"",""right"",""good_move"",22271.2,5568.6,1732.3,20151.2,387.8,""smooth"",""right"",""right"",""good_move""]"
"3144","","<div style=""width:500px;"">
  <p>What determined the result of this run?</p>
  </div>","79","html-slider-response","59","1118829","0.0-7.0-1.9","208","1","2025-08-06 14:21:24","36c45c0696341be0efffe67d72a12abb","2.83.17.203","Mozilla/5.0 (Windows NT 10.0; Win64; x64) AppleWebKit/537.36 (KHTML, like Gecko) Chrome/138.0.0.0 Safari/537.36","WebKit","Chrome","138.0.0.0","Windows","10.0","https://app.prolific.com/","pt-PT,pt;q=0.9,en-US;q=0.8,en;q=0.7,es;q=0.6,de;q=0.5,it;q=0.4","66aea8fcd9cd711541bf63e5","687a1a965b9f5b85a264363e","689364d3c005a4e2b592231a","1","66aea8fcd9cd711541bf63e5","1","2025-08-06T14:40:02.674Z","","","","AttribQ","","","","","","","","","","","50","","","","","","","","","","","","","","","","","","","","","","","","","","",""
"2107","","<div style=""width:500px;"">
  <p>How much control did you have over the ball?</p>
  </div>","18","html-slider-response","60","1120944","0.0-7.0-2.9","208","1","2025-08-06 14:21:24","36c45c0696341be0efffe67d72a12abb","2.83.17.203","Mozilla/5.0 (Windows NT 10.0; Win64; x64) AppleWebKit/537.36 (KHTML, like Gecko) Chrome/138.0.0.0 Safari/537.36","WebKit","Chrome","138.0.0.0","Windows","10.0","https://app.prolific.com/","pt-PT,pt;q=0.9,en-US;q=0.8,en;q=0.7,es;q=0.6,de;q=0.5,it;q=0.4","66aea8fcd9cd711541bf63e5","687a1a965b9f5b85a264363e","689364d3c005a4e2b592231a","1","66aea8fcd9cd711541bf63e5","1","2025-08-06T14:40:04.789Z","","","","ControlQ","","","","","","","","","","","50","","","","","","","","","","","","","","","","","","","","","","","","","","",""
"2006","","<div style=""width:500px;"">
  <p>How would you describe your current emotional state?</p>
  </div>","66","html-slider-response","61","1122955","0.0-7.0-3.9","208","1","2025-08-06 14:21:24","36c45c0696341be0efffe67d72a12abb","2.83.17.203","Mozilla/5.0 (Windows NT 10.0; Win64; x64) AppleWebKit/537.36 (KHTML, like Gecko) Chrome/138.0.0.0 Safari/537.36","WebKit","Chrome","138.0.0.0","Windows","10.0","https://app.prolific.com/","pt-PT,pt;q=0.9,en-US;q=0.8,en;q=0.7,es;q=0.6,de;q=0.5,it;q=0.4","66aea8fcd9cd711541bf63e5","687a1a965b9f5b85a264363e","689364d3c005a4e2b592231a","1","66aea8fcd9cd711541bf63e5","1","2025-08-06T14:40:06.800Z","","","","StressQ","","","","","","","","","","","50","","","","","","","","","","","","","","","","","","","","","","","","","","",""
"1785","","<div style=""width:500px;"">
  <p>What best describes how you currently feel?</p>
  </div>","21","html-slider-response","62","1124744","0.0-7.0-4.9","208","1","2025-08-06 14:21:24","36c45c0696341be0efffe67d72a12abb","2.83.17.203","Mozilla/5.0 (Windows NT 10.0; Win64; x64) AppleWebKit/537.36 (KHTML, like Gecko) Chrome/138.0.0.0 Safari/537.36","WebKit","Chrome","138.0.0.0","Windows","10.0","https://app.prolific.com/","pt-PT,pt;q=0.9,en-US;q=0.8,en;q=0.7,es;q=0.6,de;q=0.5,it;q=0.4","66aea8fcd9cd711541bf63e5","687a1a965b9f5b85a264363e","689364d3c005a4e2b592231a","1","66aea8fcd9cd711541bf63e5","1","2025-08-06T14:40:08.589Z","","","","MotivationQ","","","","","","","","","","","50","","","","","","","","","","","","","","","","","","","","","","","","","","",""
"","","","","ctl-task-cpt","63","1175033","0.0-7.0-0.10","208","1","2025-08-06 14:21:24","36c45c0696341be0efffe67d72a12abb","2.83.17.203","Mozilla/5.0 (Windows NT 10.0; Win64; x64) AppleWebKit/537.36 (KHTML, like Gecko) Chrome/138.0.0.0 Safari/537.36","WebKit","Chrome","138.0.0.0","Windows","10.0","https://app.prolific.com/","pt-PT,pt;q=0.9,en-US;q=0.8,en;q=0.7,es;q=0.6,de;q=0.5,it;q=0.4","66aea8fcd9cd711541bf63e5","687a1a965b9f5b85a264363e","689364d3c005a4e2b592231a","1","66aea8fcd9cd711541bf63e5","1","2025-08-06T14:40:58.879Z","","","","","","","","","","","","","","","","win-only","1","g1:NE,g2:SW","0.6","11","0","1126766.2","4582.4","9599.2","47252.1","1","4","4","6","1","1","1","2","1","0.015151515151515152","1289","3000","1855","[""up"",""right""]","{""num_key_presses"":8,""num_perfect"":5,""num_errors"":0,""num_randdir"":3,""num_randdir_good_moves"":1,""num_whilered"":0,""num_whileblue"":0,""num_blue"":4,""num_good_moves"":6}","[419.0714133126395,412.82142761775424,3.2,419.0714133126395,412.82142761775424,108.3,419.0714133126395,412.82142761775424,220.1,419.0714133126395,412.82142761775424,321.3,419.0714133126395,412.82142761775424,426.5,419.0714133126395,412.82142761775424,535.9,419.0714133126395,412.82142761775424,637.8,290.3214133126395,539.0714276177542,738.5,562.8214133126395,235.32142761775424,857.5,562.8214133126395,235.32142761775424,969.7,686.5714133126395,115.32142761775425,1079.6,755.3214133126395,56.57142761775425,1187.9,755.3214133126395,56.57142761775425,1303.3,755.3214133126395,56.57142761775425,1415.6,755.3214133126395,56.57142761775425,1520.8,1089.0714133126396,161.57142761775424,1622.4,1231.5714133126396,219.07142761775424,1725.6,1231.5714133126396,219.07142761775424,1840.5,1231.5714133126396,219.07142761775424,1940.6,1231.5714133126396,219.07142761775424,2051.3,1231.5714133126396,219.07142761775424,2160.3,1231.5714133126396,219.07142761775424,2266.1,1231.5714133126396,219.07142761775424,2373.2,1231.5714133126396,219.07142761775424,2478.6,1231.5714133126396,219.07142761775424,2579,1231.5714133126396,219.07142761775424,2681.8,1231.5714133126396,219.07142761775424,2785.3,1231.5714133126396,219.07142761775424,2901.8,1231.5714133126396,219.07142761775424,3002.7,1231.5714133126396,219.07142761775424,3104.5,1231.5714133126396,219.07142761775424,3219,1231.5714133126396,219.07142761775424,3323.1,1231.5714133126396,219.07142761775424,3423.8,1231.5714133126396,219.07142761775424,3524,1231.5714133126396,219.07142761775424,3626.8,1231.5714133126396,219.07142761775424,3741.9,1231.5714133126396,219.07142761775424,3855.3,1231.5714133126396,219.07142761775424,3960.3,1231.5714133126396,219.07142761775424,4069.6,1231.5714133126396,219.07142761775424,4182.6,1231.5714133126396,219.07142761775424,4293.4,1231.5714133126396,219.07142761775424,4397.2,1231.5714133126396,219.07142761775424,4503,1231.5714133126396,219.07142761775424,4611.1,1231.5714133126396,219.07142761775424,4714.3,1231.5714133126396,219.07142761775424,4819.7,1231.5714133126396,219.07142761775424,4924.7]","[1395.6,1395.6,1000,0,395.6,""smooth"",""up"",""up"",""good_move"",5260.9,3864.7,3489.2,1396.2,375.5,""oops"",""up"",""up"",""good_move"",11884.3,6623.1,2782.3,8650.5,451.5,""oops"",""right"",""left"",""bad_move"",15057.1,3172.1,2730.6,11885,441.5,""oops"",""right"",""down"",""bad_move"",20926.4,5868.1,2076.4,18454.3,395.7,""smooth"",""right"",""right"",""good_move"",27159.6,6232.2,2281.6,24466.1,411.9,""smooth"",""right"",""right"",""good_move"",30542.3,3382.5,3011.3,27159.8,371.2,""smooth"",""right"",""right"",""good_move"",37446.6,6903,3133.3,33946.7,366.6,""smooth"",""up"",""up"",""good_move""]"
"13536","","<div style=""width:500px;"">
  <p>What determined the result of this run?</p>
  </div>","20","html-slider-response","64","1188571","0.0-7.0-1.10","208","1","2025-08-06 14:21:24","36c45c0696341be0efffe67d72a12abb","2.83.17.203","Mozilla/5.0 (Windows NT 10.0; Win64; x64) AppleWebKit/537.36 (KHTML, like Gecko) Chrome/138.0.0.0 Safari/537.36","WebKit","Chrome","138.0.0.0","Windows","10.0","https://app.prolific.com/","pt-PT,pt;q=0.9,en-US;q=0.8,en;q=0.7,es;q=0.6,de;q=0.5,it;q=0.4","66aea8fcd9cd711541bf63e5","687a1a965b9f5b85a264363e","689364d3c005a4e2b592231a","1","66aea8fcd9cd711541bf63e5","1","2025-08-06T14:41:12.417Z","","","","AttribQ","","","","","","","","","","","50","","","","","","","","","","","","","","","","","","","","","","","","","","",""
"15490","","<div style=""width:500px;"">
  <p>How much control did you have over the ball?</p>
  </div>","21","html-slider-response","65","1204066","0.0-7.0-2.10","208","1","2025-08-06 14:21:24","36c45c0696341be0efffe67d72a12abb","2.83.17.203","Mozilla/5.0 (Windows NT 10.0; Win64; x64) AppleWebKit/537.36 (KHTML, like Gecko) Chrome/138.0.0.0 Safari/537.36","WebKit","Chrome","138.0.0.0","Windows","10.0","https://app.prolific.com/","pt-PT,pt;q=0.9,en-US;q=0.8,en;q=0.7,es;q=0.6,de;q=0.5,it;q=0.4","66aea8fcd9cd711541bf63e5","687a1a965b9f5b85a264363e","689364d3c005a4e2b592231a","1","66aea8fcd9cd711541bf63e5","1","2025-08-06T14:41:27.911Z","","","","ControlQ","","","","","","","","","","","50","","","","","","","","","","","","","","","","","","","","","","","","","","",""
"1725","","<div style=""width:500px;"">
  <p>How would you describe your current emotional state?</p>
  </div>","78","html-slider-response","66","1205797","0.0-7.0-3.10","208","1","2025-08-06 14:21:24","36c45c0696341be0efffe67d72a12abb","2.83.17.203","Mozilla/5.0 (Windows NT 10.0; Win64; x64) AppleWebKit/537.36 (KHTML, like Gecko) Chrome/138.0.0.0 Safari/537.36","WebKit","Chrome","138.0.0.0","Windows","10.0","https://app.prolific.com/","pt-PT,pt;q=0.9,en-US;q=0.8,en;q=0.7,es;q=0.6,de;q=0.5,it;q=0.4","66aea8fcd9cd711541bf63e5","687a1a965b9f5b85a264363e","689364d3c005a4e2b592231a","1","66aea8fcd9cd711541bf63e5","1","2025-08-06T14:41:29.642Z","","","","StressQ","","","","","","","","","","","50","","","","","","","","","","","","","","","","","","","","","","","","","","",""
"13592","","<div style=""width:500px;"">
  <p>What best describes how you currently feel?</p>
  </div>","21","html-slider-response","67","1219394","0.0-7.0-4.10","208","1","2025-08-06 14:21:24","36c45c0696341be0efffe67d72a12abb","2.83.17.203","Mozilla/5.0 (Windows NT 10.0; Win64; x64) AppleWebKit/537.36 (KHTML, like Gecko) Chrome/138.0.0.0 Safari/537.36","WebKit","Chrome","138.0.0.0","Windows","10.0","https://app.prolific.com/","pt-PT,pt;q=0.9,en-US;q=0.8,en;q=0.7,es;q=0.6,de;q=0.5,it;q=0.4","66aea8fcd9cd711541bf63e5","687a1a965b9f5b85a264363e","689364d3c005a4e2b592231a","1","66aea8fcd9cd711541bf63e5","1","2025-08-06T14:41:43.239Z","","","","MotivationQ","","","","","","","","","","","50","","","","","","","","","","","","","","","","","","","","","","","","","","",""
"","","","","ctl-task-cpt","68","1258540","0.0-7.0-0.11","208","1","2025-08-06 14:21:24","36c45c0696341be0efffe67d72a12abb","2.83.17.203","Mozilla/5.0 (Windows NT 10.0; Win64; x64) AppleWebKit/537.36 (KHTML, like Gecko) Chrome/138.0.0.0 Safari/537.36","WebKit","Chrome","138.0.0.0","Windows","10.0","https://app.prolific.com/","pt-PT,pt;q=0.9,en-US;q=0.8,en;q=0.7,es;q=0.6,de;q=0.5,it;q=0.4","66aea8fcd9cd711541bf63e5","687a1a965b9f5b85a264363e","689364d3c005a4e2b592231a","1","66aea8fcd9cd711541bf63e5","1","2025-08-06T14:42:22.385Z","","","","","","","","","","","","","","","","win-only","0","g1:NW,g2:SE","0.7","12","0","1221416.6","1288.2","6300.8","36108.4","1","4","8","6","2","8","7","9","2","0.06818181818181818","1363.6","3000","1920","[""down"",""right""]","{""num_key_presses"":10,""num_perfect"":7,""num_errors"":1,""num_randdir"":2,""num_randdir_good_moves"":0,""num_whilered"":0,""num_whileblue"":1,""num_blue"":2,""num_good_moves"":8}","[412.8214133126395,410.32142761775424,0.4,412.8214133126395,410.32142761775424,116.3,412.8214133126395,410.32142761775424,235,412.8214133126395,410.32142761775424,341.5,412.8214133126395,410.32142761775424,484.7,412.8214133126395,410.32142761775424,588.1,677.8214133126395,676.5714276177542,710.4,951.5714133126395,960.3214276177542,816.1,951.5714133126395,960.3214276177542,918.9,951.5714133126395,960.3214276177542,1037.6,777.8214133126395,784.0714276177542,1172.1,776.5714133126395,780.3214276177542,1275,776.5714133126395,780.3214276177542,1383.3,776.5714133126395,780.3214276177542,1546.4,776.5714133126395,780.3214276177542,1653.8,784.0714133126395,777.8214276177542,1754.5,1205.3214133126396,720.3214276177542,1856.4,1205.3214133126396,720.3214276177542,1956.7,1205.3214133126396,720.3214276177542,2065.7,1205.3214133126396,720.3214276177542,2171.3,1205.3214133126396,720.3214276177542,2278.1,1205.3214133126396,720.3214276177542,2388.7,1205.3214133126396,720.3214276177542,2491.3,1205.3214133126396,720.3214276177542,2602.5,1205.3214133126396,720.3214276177542,2706.6,1205.3214133126396,720.3214276177542,2813.2,1205.3214133126396,720.3214276177542,2934.5,1205.3214133126396,720.3214276177542,3045.2,1205.3214133126396,720.3214276177542,3149.6,1205.3214133126396,720.3214276177542,3285.5,1205.3214133126396,720.3214276177542,3389.8,1205.3214133126396,720.3214276177542,3498.9,1205.3214133126396,720.3214276177542,3600,1205.3214133126396,720.3214276177542,3708.4,1205.3214133126396,720.3214276177542,3818,1205.3214133126396,720.3214276177542,3923,1205.3214133126396,720.3214276177542,4029,1205.3214133126396,720.3214276177542,4140.5,1205.3214133126396,720.3214276177542,4247.2,1205.3214133126396,720.3214276177542,4358.7,1205.3214133126396,720.3214276177542,4461.6,1205.3214133126396,720.3214276177542,4570.7,1205.3214133126396,720.3214276177542,4674.7,1205.3214133126396,720.3214276177542,4777,1205.3214133126396,720.3214276177542,4890,1205.3214133126396,720.3214276177542,4994.6]","[1388.8,1388.8,1000,0,388.8,""smooth"",""down"",""down"",""good_move"",4335.9,2946,2585.4,1390.1,360.6,""smooth"",""down"",""down"",""good_move"",7095.2,2758.1,2456.9,4337.1,301.2,""smooth"",""down"",""down"",""good_move"",10105.6,3010,2637.5,7095.6,372.5,""oops"",""right"",""left"",""bad_move"",13071,2964.9,2548.9,10106.1,416,""oops"",""right"",""up"",""bad_move"",15966.5,2893,2492.5,13073.5,400.5,""smooth"",""right"",""right"",""good_move"",18489.5,2521.7,2193.8,15967.8,327.9,""while_blue"",""right"",""right"",""good_move"",21092.8,2602.7,2135.5,18490.2,467.1,""smooth"",""right"",""right"",""good_move"",27112.3,6019.2,2417.5,24119.8,575.1,""smooth"",""right"",""right"",""good_move"",29572,2459.1,2051.4,27112.9,407.7,""smooth"",""down"",""down"",""good_move""]"
"19071","","<div style=""width:500px;"">
  <p>What determined the result of this run?</p>
  </div>","19","html-slider-response","69","1277613","0.0-7.0-1.11","208","1","2025-08-06 14:21:24","36c45c0696341be0efffe67d72a12abb","2.83.17.203","Mozilla/5.0 (Windows NT 10.0; Win64; x64) AppleWebKit/537.36 (KHTML, like Gecko) Chrome/138.0.0.0 Safari/537.36","WebKit","Chrome","138.0.0.0","Windows","10.0","https://app.prolific.com/","pt-PT,pt;q=0.9,en-US;q=0.8,en;q=0.7,es;q=0.6,de;q=0.5,it;q=0.4","66aea8fcd9cd711541bf63e5","687a1a965b9f5b85a264363e","689364d3c005a4e2b592231a","1","66aea8fcd9cd711541bf63e5","1","2025-08-06T14:42:41.458Z","","","","AttribQ","","","","","","","","","","","50","","","","","","","","","","","","","","","","","","","","","","","","","","",""
"6047","","<div style=""width:500px;"">
  <p>How much control did you have over the ball?</p>
  </div>","20","html-slider-response","70","1283663","0.0-7.0-2.11","208","1","2025-08-06 14:21:24","36c45c0696341be0efffe67d72a12abb","2.83.17.203","Mozilla/5.0 (Windows NT 10.0; Win64; x64) AppleWebKit/537.36 (KHTML, like Gecko) Chrome/138.0.0.0 Safari/537.36","WebKit","Chrome","138.0.0.0","Windows","10.0","https://app.prolific.com/","pt-PT,pt;q=0.9,en-US;q=0.8,en;q=0.7,es;q=0.6,de;q=0.5,it;q=0.4","66aea8fcd9cd711541bf63e5","687a1a965b9f5b85a264363e","689364d3c005a4e2b592231a","1","66aea8fcd9cd711541bf63e5","1","2025-08-06T14:42:47.508Z","","","","ControlQ","","","","","","","","","","","50","","","","","","","","","","","","","","","","","","","","","","","","","","",""
"5669","","<div style=""width:500px;"">
  <p>How would you describe your current emotional state?</p>
  </div>","74","html-slider-response","71","1289337","0.0-7.0-3.11","208","1","2025-08-06 14:21:24","36c45c0696341be0efffe67d72a12abb","2.83.17.203","Mozilla/5.0 (Windows NT 10.0; Win64; x64) AppleWebKit/537.36 (KHTML, like Gecko) Chrome/138.0.0.0 Safari/537.36","WebKit","Chrome","138.0.0.0","Windows","10.0","https://app.prolific.com/","pt-PT,pt;q=0.9,en-US;q=0.8,en;q=0.7,es;q=0.6,de;q=0.5,it;q=0.4","66aea8fcd9cd711541bf63e5","687a1a965b9f5b85a264363e","689364d3c005a4e2b592231a","1","66aea8fcd9cd711541bf63e5","1","2025-08-06T14:42:53.183Z","","","","StressQ","","","","","","","","","","","50","","","","","","","","","","","","","","","","","","","","","","","","","","",""
"2442","","<div style=""width:500px;"">
  <p>What best describes how you currently feel?</p>
  </div>","18","html-slider-response","72","1291784","0.0-7.0-4.11","208","1","2025-08-06 14:21:24","36c45c0696341be0efffe67d72a12abb","2.83.17.203","Mozilla/5.0 (Windows NT 10.0; Win64; x64) AppleWebKit/537.36 (KHTML, like Gecko) Chrome/138.0.0.0 Safari/537.36","WebKit","Chrome","138.0.0.0","Windows","10.0","https://app.prolific.com/","pt-PT,pt;q=0.9,en-US;q=0.8,en;q=0.7,es;q=0.6,de;q=0.5,it;q=0.4","66aea8fcd9cd711541bf63e5","687a1a965b9f5b85a264363e","689364d3c005a4e2b592231a","1","66aea8fcd9cd711541bf63e5","1","2025-08-06T14:42:55.629Z","","","","MotivationQ","","","","","","","","","","","50","","","","","","","","","","","","","","","","","","","","","","","","","","",""
