"rt","response_timestamp","stimulus","response","trial_type","trial_index","time_elapsed","internal_node_id","run_id","condition","recorded_at","source_code_version","ip","user_agent","device","browser","browser_version","platform","platform_version","referer","accept_language","PROLIFIC_PID","STUDY_ID","SESSION_ID","BATCH","prolific_id","batch","realtime","success","question_order","question_id","eventType","responses","item_order","radio_event_ids","radio_event_times","key_event_times","mouse_event_times","straightlining","zigzagging","honeypot","view_history","slider_start","which_type","canvas_config","goals_layout","control_level","trial_number","tutorial_trial_number","trial_start_time","phase1_start_time","phase2_start_time","phase3_start_time","goal_1_value","goal_1_distance","goal_2_value","goal_2_distance","goal_selected","outcome","outcome_total","participant_final_score","participant_initial_score","participant_final_score_prop","goal_choice_rt","allocated_time","allocated_time_remaining","goal_direction","counts","mouse_movements","key_presses"
"14849","1753864707985","<p style='font-size:40px;line-height:1.25'><strong>Welcome to the experiment!</strong></p><p style='font-size:1.1em;line-height:1.25'>Thank you for participanting in our experiment again! You will be asked to play the Dysfunctional Ball Game again. We will briefly recap the rules before we start.</p><p style='font-size:1.1em;line-height:1.25'>Press <strong>Next</strong> to continue.</p>","0","custom-html-button-response","0","14852","0.0-0.0","6","1","2025-07-30 08:38:10","36c45c0696341be0efffe67d72a12abb","165.165.127.92","Mozilla/5.0 (Windows NT 10.0; Win64; x64) AppleWebKit/537.36 (KHTML, like Gecko) Chrome/138.0.0.0 Safari/537.36","WebKit","Chrome","138.0.0.0","Windows","10.0","https://app.prolific.com/","en-AU,en-ZA;q=0.9,en-GB;q=0.8,en-US;q=0.7,en;q=0.6,fr;q=0.5","66b61da8697a1059a78e7008","687a19d2168e237449fb8af4","6889d9d5d679758a90a275ef","0","66b61da8697a1059a78e7008","0","2025-07-30T08:38:27.987Z","","","","","","","","","","","","","","","","","","","","","","","","","","","","","","","","","","","","","","","","","",""
"8562","","","","fullscreen","1","24429","0.0-1.0","6","1","2025-07-30 08:38:10","36c45c0696341be0efffe67d72a12abb","165.165.127.92","Mozilla/5.0 (Windows NT 10.0; Win64; x64) AppleWebKit/537.36 (KHTML, like Gecko) Chrome/138.0.0.0 Safari/537.36","WebKit","Chrome","138.0.0.0","Windows","10.0","https://app.prolific.com/","en-AU,en-ZA;q=0.9,en-GB;q=0.8,en-US;q=0.7,en;q=0.6,fr;q=0.5","66b61da8697a1059a78e7008","687a19d2168e237449fb8af4","6889d9d5d679758a90a275ef","0","66b61da8697a1059a78e7008","0","","true","","","","","","","","","","","","","","","","","","","","","","","","","","","","","","","","","","","","","","","","",""
"2613","1753864720177"," <p style='font-size:1.1em;line-height:1.25'>Thank you for closing all other tabs.</p><p style='font-size:1.1em;line-height:1.25'>We will now invite you to fill in some questionnaires, before starting the game.<br>This will take about 5 minutes.<br></p><p style='font-size:1.1em;line-height:1.25'>Press the <strong>Next</strong> button to continue.</p>","0","custom-html-button-response","2","27044","0.0-2.0","6","1","2025-07-30 08:38:10","36c45c0696341be0efffe67d72a12abb","165.165.127.92","Mozilla/5.0 (Windows NT 10.0; Win64; x64) AppleWebKit/537.36 (KHTML, like Gecko) Chrome/138.0.0.0 Safari/537.36","WebKit","Chrome","138.0.0.0","Windows","10.0","https://app.prolific.com/","en-AU,en-ZA;q=0.9,en-GB;q=0.8,en-US;q=0.7,en;q=0.6,fr;q=0.5","66b61da8697a1059a78e7008","687a19d2168e237449fb8af4","6889d9d5d679758a90a275ef","0","66b61da8697a1059a78e7008","0","2025-07-30T08:38:40.178Z","","","","","","","","","","","","","","","","","","","","","","","","","","","","","","","","","","","","","","","","","",""
"3291","","","{""assigned_sex"":""male""}","survey-multi-choice","3","30337","0.0-3.0-0.0","6","1","2025-07-30 08:38:10","36c45c0696341be0efffe67d72a12abb","165.165.127.92","Mozilla/5.0 (Windows NT 10.0; Win64; x64) AppleWebKit/537.36 (KHTML, like Gecko) Chrome/138.0.0.0 Safari/537.36","WebKit","Chrome","138.0.0.0","Windows","10.0","https://app.prolific.com/","en-AU,en-ZA;q=0.9,en-GB;q=0.8,en-US;q=0.7,en;q=0.6,fr;q=0.5","66b61da8697a1059a78e7008","687a19d2168e237449fb8af4","6889d9d5d679758a90a275ef","0","66b61da8697a1059a78e7008","0","","","[0]","0","demographics","","","","","","","","","","","","","","","","","","","","","","","","","","","","","","","","","","","","","",""
"3320","1753864726793","<p style='font-size:1.1em;line-height:1.25'>In the following, we will perform a baseline assessment. This means that we will ask you a few questions relating to your experiences over the past month.<br></p><p style='font-size:1.1em;line-height:1.25'>Press the <strong>Next</strong> button to continue.</p>","0","custom-html-button-response","4","33659","0.0-4.0-0.0","6","1","2025-07-30 08:38:10","36c45c0696341be0efffe67d72a12abb","165.165.127.92","Mozilla/5.0 (Windows NT 10.0; Win64; x64) AppleWebKit/537.36 (KHTML, like Gecko) Chrome/138.0.0.0 Safari/537.36","WebKit","Chrome","138.0.0.0","Windows","10.0","https://app.prolific.com/","en-AU,en-ZA;q=0.9,en-GB;q=0.8,en-US;q=0.7,en;q=0.6,fr;q=0.5","66b61da8697a1059a78e7008","687a19d2168e237449fb8af4","6889d9d5d679758a90a275ef","0","66b61da8697a1059a78e7008","0","2025-07-30T08:38:46.794Z","","","","","","","","","","","","","","","","","","","","","","","","","","","","","","","","","","","","","","","","","",""
"33595.29999999702","","","","survey-template","5","67260","0.0-4.0-1.0","6","1","2025-07-30 08:38:10","36c45c0696341be0efffe67d72a12abb","165.165.127.92","Mozilla/5.0 (Windows NT 10.0; Win64; x64) AppleWebKit/537.36 (KHTML, like Gecko) Chrome/138.0.0.0 Safari/537.36","WebKit","Chrome","138.0.0.0","Windows","10.0","https://app.prolific.com/","en-AU,en-ZA;q=0.9,en-GB;q=0.8,en-US;q=0.7,en;q=0.6,fr;q=0.5","66b61da8697a1059a78e7008","687a19d2168e237449fb8af4","6889d9d5d679758a90a275ef","0","66b61da8697a1059a78e7008","0","2025-07-30T08:39:20.394Z","","","","pss","{""Q01"":""2"",""Q02"":""1"",""Q03"":""3"",""Q04"":""0"",""Q05"":""2"",""Q06"":""2"",""Q07"":""1"",""Q08"":""2"",""Q09"":""3"",""Q10"":""2""}","[0,1,2,3,4,5,6,7,8,9]","[""Q01"",""Q02"",""Q03"",""Q03"",""Q04"",""Q05"",""Q06"",""Q07"",""Q08"",""Q09"",""Q10""]","[4328.69999999553,8674.29999999702,9681.60000000149,11057.79999999702,13798.39999999851,18937.19999999553,21829.29999999702,26060.89999999851,28214.10000000149,30023.10000000149,32683.5]","[]","[0.29999999701976776,4328.69999999553,7744.10000000149,8674.29999999702,9681.60000000149,10433.79999999702,11057.79999999702,13798.39999999851,15456,16767.79999999702,18937.19999999553,21829.29999999702,24645.5,25384.69999999553,26060.89999999851,28214.10000000149,30023.10000000149,31731,32683.5,33590.19999999553]","0.5","0.6666666666666666","0","","","","","","","","","","","","","","","","","","","","","","","","","","","","",""
"1857","1753864762252","<p style='font-size:1.1em;line-height:1.25'>Thank you for your answers! Now we will ask you a few more questions relating to your feelings in the last 24 hours.<br></p><p style='font-size:1.1em;line-height:1.25'>Press the <strong>Next</strong> button to continue.</p>","0","custom-html-button-response","6","69119","0.0-4.0-2.0","6","1","2025-07-30 08:38:10","36c45c0696341be0efffe67d72a12abb","165.165.127.92","Mozilla/5.0 (Windows NT 10.0; Win64; x64) AppleWebKit/537.36 (KHTML, like Gecko) Chrome/138.0.0.0 Safari/537.36","WebKit","Chrome","138.0.0.0","Windows","10.0","https://app.prolific.com/","en-AU,en-ZA;q=0.9,en-GB;q=0.8,en-US;q=0.7,en;q=0.6,fr;q=0.5","66b61da8697a1059a78e7008","687a19d2168e237449fb8af4","6889d9d5d679758a90a275ef","0","66b61da8697a1059a78e7008","0","2025-07-30T08:39:22.253Z","","","","","","","","","","","","","","","","","","","","","","","","","","","","","","","","","","","","","","","","","",""
"45186.70000000298","","","","survey-template","7","114312","0.0-4.0-3.0","6","1","2025-07-30 08:38:10","36c45c0696341be0efffe67d72a12abb","165.165.127.92","Mozilla/5.0 (Windows NT 10.0; Win64; x64) AppleWebKit/537.36 (KHTML, like Gecko) Chrome/138.0.0.0 Safari/537.36","WebKit","Chrome","138.0.0.0","Windows","10.0","https://app.prolific.com/","en-AU,en-ZA;q=0.9,en-GB;q=0.8,en-US;q=0.7,en;q=0.6,fr;q=0.5","66b61da8697a1059a78e7008","687a19d2168e237449fb8af4","6889d9d5d679758a90a275ef","0","66b61da8697a1059a78e7008","0","2025-07-30T08:40:07.446Z","","","","drsp","{""Q01"":""3"",""Q02"":""3"",""Q03"":""1"",""Q04"":""2"",""Q05"":""3"",""Q06"":""3"",""Q07"":""3"",""Q08"":""3"",""Q09"":""4"",""Q10"":""3"",""Q11"":""3"",""Q12"":""2"",""Q13"":""3"",""Q14"":""3"",""Q15"":""3"",""Q16"":""4"",""Q17"":""3"",""Q18"":""2"",""Q19"":""3"",""Q20"":""3"",""Q21"":""3"",""Q22"":""3""}","[0,1,2,3,4,5,6,7,8,9,10,11,12,13,14,15,16,17,18,19,20,21]","[""Q01"",""Q02"",""Q03"",""Q04"",""Q05"",""Q06"",""Q07"",""Q09"",""Q08"",""Q10"",""Q11"",""Q12"",""Q13"",""Q14"",""Q15"",""Q16"",""Q17"",""Q18"",""Q18"",""Q19"",""Q20"",""Q21"",""Q22""]","[2625.2000000029802,5314.10000000149,6922.10000000149,8222.30000000447,9496.40000000596,11014.5,12199.30000000447,16837.20000000298,17973.20000000298,19185.40000000596,21583.30000000447,24055.10000000149,25202.60000000149,27048.10000000149,30135,33245.5,34875.80000000447,35514.10000000149,38422,40777.60000000149,41708.30000000447,42742.30000000447,43825.80000000447]","[]","[0,2625.2000000029802,3924.3000000044703,5314.10000000149,6334.80000000447,6922.10000000149,8222.30000000447,9496.40000000596,11014.5,12199.30000000447,15474.5,16837.20000000298,17973.20000000298,19185.40000000596,20307.90000000596,20983.30000000447,21583.30000000447,22514.10000000149,23328.10000000149,24055.10000000149,25202.60000000149,26019.30000000447,27048.10000000149,30135,33245.5,34164.20000000298,34875.80000000447,35514.10000000149,38422,40777.60000000149,41708.30000000447,42742.30000000447,43825.80000000447,45178.40000000596]","0.7272727272727273","0.47619047619047616","0","","","","","","","","","","","","","","","","","","","","","","","","","","","","",""
"17512.5","","","","survey-template","8","131828","0.0-4.0-4.0","6","1","2025-07-30 08:38:10","36c45c0696341be0efffe67d72a12abb","165.165.127.92","Mozilla/5.0 (Windows NT 10.0; Win64; x64) AppleWebKit/537.36 (KHTML, like Gecko) Chrome/138.0.0.0 Safari/537.36","WebKit","Chrome","138.0.0.0","Windows","10.0","https://app.prolific.com/","en-AU,en-ZA;q=0.9,en-GB;q=0.8,en-US;q=0.7,en;q=0.6,fr;q=0.5","66b61da8697a1059a78e7008","687a19d2168e237449fb8af4","6889d9d5d679758a90a275ef","0","66b61da8697a1059a78e7008","0","2025-07-30T08:40:24.962Z","","","","stress","{""Q01"":""3"",""Q02"":""2"",""Q03"":""3""}","[0,1,2]","[""Q01"",""Q02"",""Q03""]","[9999,11770.20000000298,16528.5]","[]","[9999,11770.20000000298,12879,15200.70000000298,16528.5,17510.80000000447]","1","0","0","","","","","","","","","","","","","","","","","","","","","","","","","","","","",""
"62805","","","","instructions","9","194634","0.0-5.0-0.0","6","1","2025-07-30 08:38:10","36c45c0696341be0efffe67d72a12abb","165.165.127.92","Mozilla/5.0 (Windows NT 10.0; Win64; x64) AppleWebKit/537.36 (KHTML, like Gecko) Chrome/138.0.0.0 Safari/537.36","WebKit","Chrome","138.0.0.0","Windows","10.0","https://app.prolific.com/","en-AU,en-ZA;q=0.9,en-GB;q=0.8,en-US;q=0.7,en;q=0.6,fr;q=0.5","66b61da8697a1059a78e7008","687a19d2168e237449fb8af4","6889d9d5d679758a90a275ef","0","66b61da8697a1059a78e7008","0","","","","","","","","","","","","","","","[{""page_index"":0,""viewing_time"":62805}]","","","","","","","","","","","","","","","","","","","","","","","","","","","",""
"6331","","<p>Before you start with this game please answer the following three questions yourself. </p>
  <p>Through this game, we measure several aspects of your cognitive performance, such as reaction times, multi-tasking capabilities </p>
  <p>and the ability to assess the situation you are in.</p>
  <p></p>
  <p><b>How good do you usually are in such tasks?</b></p>","85","html-slider-response","10","200968","0.0-6.0-0.0","6","1","2025-07-30 08:38:10","36c45c0696341be0efffe67d72a12abb","165.165.127.92","Mozilla/5.0 (Windows NT 10.0; Win64; x64) AppleWebKit/537.36 (KHTML, like Gecko) Chrome/138.0.0.0 Safari/537.36","WebKit","Chrome","138.0.0.0","Windows","10.0","https://app.prolific.com/","en-AU,en-ZA;q=0.9,en-GB;q=0.8,en-US;q=0.7,en;q=0.6,fr;q=0.5","66b61da8697a1059a78e7008","687a19d2168e237449fb8af4","6889d9d5d679758a90a275ef","0","66b61da8697a1059a78e7008","0","2025-07-30T08:41:34.102Z","","","","PreSkillQ","","","","","","","","","","","50","","","","","","","","","","","","","","","","","","","","","","","","","","",""
"3791","","<div style=""width:500px;"">
  <p>How well do you think you will perform in this task compared to other participants?</p>
  </div>","78","html-slider-response","11","204760","0.0-6.0-1.0","6","1","2025-07-30 08:38:10","36c45c0696341be0efffe67d72a12abb","165.165.127.92","Mozilla/5.0 (Windows NT 10.0; Win64; x64) AppleWebKit/537.36 (KHTML, like Gecko) Chrome/138.0.0.0 Safari/537.36","WebKit","Chrome","138.0.0.0","Windows","10.0","https://app.prolific.com/","en-AU,en-ZA;q=0.9,en-GB;q=0.8,en-US;q=0.7,en;q=0.6,fr;q=0.5","66b61da8697a1059a78e7008","687a19d2168e237449fb8af4","6889d9d5d679758a90a275ef","0","66b61da8697a1059a78e7008","0","2025-07-30T08:41:37.895Z","","","","PrePerfQ","","","","","","","","","","","50","","","","","","","","","","","","","","","","","","","","","","","","","","",""
"5774","","<div style=""width:500px;"">
  <p>What best describes how you currently feel?</p>
  </div>","72","html-slider-response","12","210536","0.0-6.0-2.0","6","1","2025-07-30 08:38:10","36c45c0696341be0efffe67d72a12abb","165.165.127.92","Mozilla/5.0 (Windows NT 10.0; Win64; x64) AppleWebKit/537.36 (KHTML, like Gecko) Chrome/138.0.0.0 Safari/537.36","WebKit","Chrome","138.0.0.0","Windows","10.0","https://app.prolific.com/","en-AU,en-ZA;q=0.9,en-GB;q=0.8,en-US;q=0.7,en;q=0.6,fr;q=0.5","66b61da8697a1059a78e7008","687a19d2168e237449fb8af4","6889d9d5d679758a90a275ef","0","66b61da8697a1059a78e7008","0","2025-07-30T08:41:43.670Z","","","","PreMotivationQ","","","","","","","","","","","50","","","","","","","","","","","","","","","","","","","","","","","","","","",""
"","","","","ctl-task-cpt","13","240032","0.0-7.0-0.0","6","1","2025-07-30 08:38:10","36c45c0696341be0efffe67d72a12abb","165.165.127.92","Mozilla/5.0 (Windows NT 10.0; Win64; x64) AppleWebKit/537.36 (KHTML, like Gecko) Chrome/138.0.0.0 Safari/537.36","WebKit","Chrome","138.0.0.0","Windows","10.0","https://app.prolific.com/","en-AU,en-ZA;q=0.9,en-GB;q=0.8,en-US;q=0.7,en;q=0.6,fr;q=0.5","66b61da8697a1059a78e7008","687a19d2168e237449fb8af4","6889d9d5d679758a90a275ef","0","66b61da8697a1059a78e7008","0","2025-07-30T08:42:13.166Z","","","","","","","","","","","","","","","","win-only","1","g1:NE,g2:SW","1","1","0","214036","2556","7561.9","26491","1","4","8","6","2","8","7","7","0","0.05303030303030303","1707.5","3000","1015","[""down"",""left""]","{""num_key_presses"":7,""num_perfect"":6,""num_errors"":1,""num_randdir"":0,""num_randdir_good_moves"":0,""num_whilered"":0,""num_whileblue"":0,""num_blue"":0,""num_good_moves"":6}","[294.22232142857143,296.12857142857143,0.7,294.22232142857143,296.12857142857143,107.7,294.22232142857143,296.12857142857143,210.1,294.22232142857143,296.12857142857143,314.9,294.22232142857143,296.12857142857143,420.1,294.22232142857143,296.12857142857143,520.7,294.22232142857143,296.12857142857143,624.8,273.22232142857143,304.12857142857143,724.9,-44.777678571428574,544.1285714285714,825.6,-55.777678571428574,563.1285714285714,925.7,-57.777678571428574,564.1285714285714,1025.7,-48.777678571428574,562.1285714285714,1130.2,18.222321428571426,557.1285714285714,1232.4,26.222321428571426,555.1285714285714,1337.5,27.222321428571426,555.1285714285714,1442.4,30.222321428571426,554.1285714285714,1544.7,34.222321428571426,551.1285714285714,1649.6,35.222321428571426,550.1285714285714,1756.7,35.222321428571426,550.1285714285714,1859.6,35.222321428571426,550.1285714285714,1960.4,35.222321428571426,550.1285714285714,2064.7,35.222321428571426,550.1285714285714,2165.8,35.222321428571426,550.1285714285714,2270.1,35.222321428571426,550.1285714285714,2374.8,35.222321428571426,550.1285714285714,2475.7,37.222321428571426,548.1285714285714,2580.1,52.222321428571426,534.1285714285714,2680.1,57.222321428571426,528.1285714285714,2784.7,61.222321428571426,524.1285714285714,2886.4,61.222321428571426,523.1285714285714,2991.2,61.222321428571426,523.1285714285714,3092.4,61.222321428571426,523.1285714285714,3194.6,61.222321428571426,521.1285714285714,3295.9,58.222321428571426,517.1285714285714,3400,-104.77767857142857,505.12857142857143,3500.2,-117.77767857142857,505.12857142857143,3607.2,-118.77767857142857,505.12857142857143,3710,-118.77767857142857,505.12857142857143,3814.9,-118.77767857142857,505.12857142857143,3921,-118.77767857142857,505.12857142857143,4024.6,-118.77767857142857,505.12857142857143,4126.3,-118.77767857142857,505.12857142857143,4229.7,-118.77767857142857,505.12857142857143,4335.7,-118.77767857142857,505.12857142857143,4440,-118.77767857142857,505.12857142857143,4540,-118.77767857142857,505.12857142857143,4642.6,-118.77767857142857,505.12857142857143,4745.6,-118.77767857142857,505.12857142857143,4849.6,-118.77767857142857,505.12857142857143,4949.7]","[471,470.9,1000,0.1,-529.1,""error"",""-"",""-"",""no_move"",4712.3,4240.8,2820.9,1473.9,417.5,""smooth"",""left"",""left"",""good_move"",7902.6,3189.6,2784.4,4713.1,405.1,""smooth"",""left"",""left"",""good_move"",10857.3,2953.6,2585.3,7903.8,368.2,""smooth"",""down"",""down"",""good_move"",13440.5,2582.6,2228.7,10857.9,353.9,""smooth"",""down"",""down"",""good_move"",16590.2,3149.2,2800.9,13441,348.3,""smooth"",""left"",""left"",""good_move"",18838,2247.3,1891.9,16590.7,355.4,""smooth"",""down"",""down"",""good_move""]"
"6758","","<div style=""width:500px;"">
  <p>What determined the result of this run?</p>
  </div>","97","html-slider-response","14","246792","0.0-7.0-1.0","6","1","2025-07-30 08:38:10","36c45c0696341be0efffe67d72a12abb","165.165.127.92","Mozilla/5.0 (Windows NT 10.0; Win64; x64) AppleWebKit/537.36 (KHTML, like Gecko) Chrome/138.0.0.0 Safari/537.36","WebKit","Chrome","138.0.0.0","Windows","10.0","https://app.prolific.com/","en-AU,en-ZA;q=0.9,en-GB;q=0.8,en-US;q=0.7,en;q=0.6,fr;q=0.5","66b61da8697a1059a78e7008","687a19d2168e237449fb8af4","6889d9d5d679758a90a275ef","0","66b61da8697a1059a78e7008","0","2025-07-30T08:42:19.926Z","","","","AttribQ","","","","","","","","","","","50","","","","","","","","","","","","","","","","","","","","","","","","","","",""
"3399","","<div style=""width:500px;"">
  <p>How much control did you have over the ball?</p>
  </div>","100","html-slider-response","15","250194","0.0-7.0-2.0","6","1","2025-07-30 08:38:10","36c45c0696341be0efffe67d72a12abb","165.165.127.92","Mozilla/5.0 (Windows NT 10.0; Win64; x64) AppleWebKit/537.36 (KHTML, like Gecko) Chrome/138.0.0.0 Safari/537.36","WebKit","Chrome","138.0.0.0","Windows","10.0","https://app.prolific.com/","en-AU,en-ZA;q=0.9,en-GB;q=0.8,en-US;q=0.7,en;q=0.6,fr;q=0.5","66b61da8697a1059a78e7008","687a19d2168e237449fb8af4","6889d9d5d679758a90a275ef","0","66b61da8697a1059a78e7008","0","2025-07-30T08:42:23.328Z","","","","ControlQ","","","","","","","","","","","50","","","","","","","","","","","","","","","","","","","","","","","","","","",""
"3974","","<div style=""width:500px;"">
  <p>How would you describe your current emotional state?</p>
  </div>","43","html-slider-response","16","254169","0.0-7.0-3.0","6","1","2025-07-30 08:38:10","36c45c0696341be0efffe67d72a12abb","165.165.127.92","Mozilla/5.0 (Windows NT 10.0; Win64; x64) AppleWebKit/537.36 (KHTML, like Gecko) Chrome/138.0.0.0 Safari/537.36","WebKit","Chrome","138.0.0.0","Windows","10.0","https://app.prolific.com/","en-AU,en-ZA;q=0.9,en-GB;q=0.8,en-US;q=0.7,en;q=0.6,fr;q=0.5","66b61da8697a1059a78e7008","687a19d2168e237449fb8af4","6889d9d5d679758a90a275ef","0","66b61da8697a1059a78e7008","0","2025-07-30T08:42:27.304Z","","","","StressQ","","","","","","","","","","","50","","","","","","","","","","","","","","","","","","","","","","","","","","",""
"2680","","<div style=""width:500px;"">
  <p>What best describes how you currently feel?</p>
  </div>","85","html-slider-response","17","256851","0.0-7.0-4.0","6","1","2025-07-30 08:38:10","36c45c0696341be0efffe67d72a12abb","165.165.127.92","Mozilla/5.0 (Windows NT 10.0; Win64; x64) AppleWebKit/537.36 (KHTML, like Gecko) Chrome/138.0.0.0 Safari/537.36","WebKit","Chrome","138.0.0.0","Windows","10.0","https://app.prolific.com/","en-AU,en-ZA;q=0.9,en-GB;q=0.8,en-US;q=0.7,en;q=0.6,fr;q=0.5","66b61da8697a1059a78e7008","687a19d2168e237449fb8af4","6889d9d5d679758a90a275ef","0","66b61da8697a1059a78e7008","0","2025-07-30T08:42:29.985Z","","","","MotivationQ","","","","","","","","","","","50","","","","","","","","","","","","","","","","","","","","","","","","","","",""
"","","","","ctl-task-cpt","18","280228","0.0-7.0-0.1","6","1","2025-07-30 08:38:10","36c45c0696341be0efffe67d72a12abb","165.165.127.92","Mozilla/5.0 (Windows NT 10.0; Win64; x64) AppleWebKit/537.36 (KHTML, like Gecko) Chrome/138.0.0.0 Safari/537.36","WebKit","Chrome","138.0.0.0","Windows","10.0","https://app.prolific.com/","en-AU,en-ZA;q=0.9,en-GB;q=0.8,en-US;q=0.7,en;q=0.6,fr;q=0.5","66b61da8697a1059a78e7008","687a19d2168e237449fb8af4","6889d9d5d679758a90a275ef","0","66b61da8697a1059a78e7008","0","2025-07-30T08:42:53.363Z","","","","","","","","","","","","","","","","win-only","2","g1:SE,g2:NW","0.9","2","0","260348.9","1796.9","6805.3","20361.5","1","4","4","6","1","1","0","7","7","0.05303030303030303","1637.6","3000","1050","[""down"",""right""]","{""num_key_presses"":5,""num_perfect"":3,""num_errors"":1,""num_randdir"":1,""num_randdir_good_moves"":1,""num_whilered"":0,""num_whileblue"":0,""num_blue"":0,""num_good_moves"":4}","[300.22232142857143,302.12857142857143,0.6,300.22232142857143,302.12857142857143,103.3,300.22232142857143,302.12857142857143,205.5,300.22232142857143,302.12857142857143,309.2,300.22232142857143,302.12857142857143,410.3,300.22232142857143,302.12857142857143,515.7,300.22232142857143,302.12857142857143,623.1,295.22232142857143,308.12857142857143,724.3,319.22232142857143,404.12857142857143,829.4,328.22232142857143,419.12857142857143,939.9,414.22232142857143,491.12857142857143,1040,453.22232142857143,503.12857142857143,1143.8,462.22232142857143,501.12857142857143,1244.3,489.22232142857143,499.12857142857143,1344.4,508.22232142857143,502.12857142857143,1452.6,528.2223214285714,512.1285714285714,1555,530.2223214285714,515.1285714285714,1659.3,530.2223214285714,515.1285714285714,1759.5,530.2223214285714,515.1285714285714,1860.4,530.2223214285714,515.1285714285714,1964.3,530.2223214285714,515.1285714285714,2065.1,530.2223214285714,515.1285714285714,2172.7,530.2223214285714,515.1285714285714,2273.9,530.2223214285714,515.1285714285714,2374.7,530.2223214285714,515.1285714285714,2474.7,530.2223214285714,515.1285714285714,2575,530.2223214285714,515.1285714285714,2679.3,530.2223214285714,515.1285714285714,2788,521.2223214285714,504.12857142857143,2890.5,521.2223214285714,504.12857142857143,2994.5,522.2223214285714,506.12857142857143,3101.5,526.2223214285714,505.12857142857143,3203.2,773.2223214285714,509.12857142857143,3308.8,793.2223214285714,509.12857142857143,3409.7,797.2223214285714,509.12857142857143,3516.1,797.2223214285714,509.12857142857143,3616.4,797.2223214285714,509.12857142857143,3718.4,797.2223214285714,509.12857142857143,3819.5,797.2223214285714,509.12857142857143,3921.1,797.2223214285714,509.12857142857143,4025.6,797.2223214285714,509.12857142857143,4129.7,797.2223214285714,509.12857142857143,4234.3,797.2223214285714,509.12857142857143,4334.6,797.2223214285714,509.12857142857143,4440.9,797.2223214285714,509.12857142857143,4544.1,797.2223214285714,509.12857142857143,4644.8,797.2223214285714,509.12857142857143,4750.8,797.2223214285714,509.12857142857143,4851,797.2223214285714,509.12857142857143,4951]","[364.5,364.6,1000,0,-635.4,""error"",""-"",""-"",""no_move"",4878.2,4513.3,3183.1,1365.5,329.6,""smooth"",""right"",""right"",""good_move"",7530.4,2651.1,1924.5,4879.3,726.6,""smooth"",""down"",""down"",""good_move"",10765.3,3233.4,2594.2,7531.9,639.2,""smooth"",""right"",""right"",""good_move"",13468.8,2702.6,2367,10766.2,335.6,""oops"",""down"",""down"",""good_move""]"
"2089","","<div style=""width:500px;"">
  <p>What determined the result of this run?</p>
  </div>","94","html-slider-response","19","282320","0.0-7.0-1.1","6","1","2025-07-30 08:38:10","36c45c0696341be0efffe67d72a12abb","165.165.127.92","Mozilla/5.0 (Windows NT 10.0; Win64; x64) AppleWebKit/537.36 (KHTML, like Gecko) Chrome/138.0.0.0 Safari/537.36","WebKit","Chrome","138.0.0.0","Windows","10.0","https://app.prolific.com/","en-AU,en-ZA;q=0.9,en-GB;q=0.8,en-US;q=0.7,en;q=0.6,fr;q=0.5","66b61da8697a1059a78e7008","687a19d2168e237449fb8af4","6889d9d5d679758a90a275ef","0","66b61da8697a1059a78e7008","0","2025-07-30T08:42:55.455Z","","","","AttribQ","","","","","","","","","","","50","","","","","","","","","","","","","","","","","","","","","","","","","","",""
"2804","","<div style=""width:500px;"">
  <p>How much control did you have over the ball?</p>
  </div>","98","html-slider-response","20","285126","0.0-7.0-2.1","6","1","2025-07-30 08:38:10","36c45c0696341be0efffe67d72a12abb","165.165.127.92","Mozilla/5.0 (Windows NT 10.0; Win64; x64) AppleWebKit/537.36 (KHTML, like Gecko) Chrome/138.0.0.0 Safari/537.36","WebKit","Chrome","138.0.0.0","Windows","10.0","https://app.prolific.com/","en-AU,en-ZA;q=0.9,en-GB;q=0.8,en-US;q=0.7,en;q=0.6,fr;q=0.5","66b61da8697a1059a78e7008","687a19d2168e237449fb8af4","6889d9d5d679758a90a275ef","0","66b61da8697a1059a78e7008","0","2025-07-30T08:42:58.260Z","","","","ControlQ","","","","","","","","","","","50","","","","","","","","","","","","","","","","","","","","","","","","","","",""
"3251","","<div style=""width:500px;"">
  <p>How would you describe your current emotional state?</p>
  </div>","27","html-slider-response","21","288378","0.0-7.0-3.1","6","1","2025-07-30 08:38:10","36c45c0696341be0efffe67d72a12abb","165.165.127.92","Mozilla/5.0 (Windows NT 10.0; Win64; x64) AppleWebKit/537.36 (KHTML, like Gecko) Chrome/138.0.0.0 Safari/537.36","WebKit","Chrome","138.0.0.0","Windows","10.0","https://app.prolific.com/","en-AU,en-ZA;q=0.9,en-GB;q=0.8,en-US;q=0.7,en;q=0.6,fr;q=0.5","66b61da8697a1059a78e7008","687a19d2168e237449fb8af4","6889d9d5d679758a90a275ef","0","66b61da8697a1059a78e7008","0","2025-07-30T08:43:01.512Z","","","","StressQ","","","","","","","","","","","50","","","","","","","","","","","","","","","","","","","","","","","","","","",""
"2129","","<div style=""width:500px;"">
  <p>What best describes how you currently feel?</p>
  </div>","81","html-slider-response","22","290509","0.0-7.0-4.1","6","1","2025-07-30 08:38:10","36c45c0696341be0efffe67d72a12abb","165.165.127.92","Mozilla/5.0 (Windows NT 10.0; Win64; x64) AppleWebKit/537.36 (KHTML, like Gecko) Chrome/138.0.0.0 Safari/537.36","WebKit","Chrome","138.0.0.0","Windows","10.0","https://app.prolific.com/","en-AU,en-ZA;q=0.9,en-GB;q=0.8,en-US;q=0.7,en;q=0.6,fr;q=0.5","66b61da8697a1059a78e7008","687a19d2168e237449fb8af4","6889d9d5d679758a90a275ef","0","66b61da8697a1059a78e7008","0","2025-07-30T08:43:03.643Z","","","","MotivationQ","","","","","","","","","","","50","","","","","","","","","","","","","","","","","","","","","","","","","","",""
"","","","","ctl-task-cpt","23","316997","0.0-7.0-0.2","6","1","2025-07-30 08:38:10","36c45c0696341be0efffe67d72a12abb","165.165.127.92","Mozilla/5.0 (Windows NT 10.0; Win64; x64) AppleWebKit/537.36 (KHTML, like Gecko) Chrome/138.0.0.0 Safari/537.36","WebKit","Chrome","138.0.0.0","Windows","10.0","https://app.prolific.com/","en-AU,en-ZA;q=0.9,en-GB;q=0.8,en-US;q=0.7,en;q=0.6,fr;q=0.5","66b61da8697a1059a78e7008","687a19d2168e237449fb8af4","6889d9d5d679758a90a275ef","0","66b61da8697a1059a78e7008","0","2025-07-30T08:43:30.131Z","","","","","","","","","","","","","","","","win-only","1","g1:NE,g2:SW","0.8","3","0","294008.7","1820.8","6823.4","23461.3","1","4","4","6","2","4","4","11","7","0.08333333333333333","1339.3","3000","1290","[""down"",""left""]","{""num_key_presses"":6,""num_perfect"":5,""num_errors"":0,""num_randdir"":1,""num_randdir_good_moves"":1,""num_whilered"":0,""num_whileblue"":0,""num_blue"":0,""num_good_moves"":6}","[296.22232142857143,292.12857142857143,1.1,296.22232142857143,292.12857142857143,100.1,296.22232142857143,292.12857142857143,200.7,296.22232142857143,292.12857142857143,305,296.22232142857143,292.12857142857143,405.4,296.22232142857143,292.12857142857143,515.2,111.22232142857143,392.12857142857143,616.5,83.22232142857143,405.12857142857143,719.1,78.22232142857143,426.12857142857143,821.8,78.22232142857143,453.12857142857143,925,66.22232142857143,491.12857142857143,1030,58.222321428571426,514.1285714285714,1130.9,53.222321428571426,524.1285714285714,1231.4,53.222321428571426,527.1285714285714,1336.7,51.222321428571426,530.1285714285714,1436.8,50.222321428571426,530.1285714285714,1537.8,50.222321428571426,530.1285714285714,1639.5,42.222321428571426,530.1285714285714,1740.3,-157.77767857142857,489.12857142857143,1840.3,-168.77767857142857,486.12857142857143,1947.1,-169.77767857142857,486.12857142857143,2047.6,-169.77767857142857,486.12857142857143,2153.2,-169.77767857142857,486.12857142857143,2256.1,-169.77767857142857,486.12857142857143,2359.9,-169.77767857142857,486.12857142857143,2460.2,-169.77767857142857,486.12857142857143,2569.2,-169.77767857142857,486.12857142857143,2669.8,-169.77767857142857,486.12857142857143,2771.2,-169.77767857142857,486.12857142857143,2875,-169.77767857142857,486.12857142857143,2976.9,-169.77767857142857,486.12857142857143,3087.5,-169.77767857142857,486.12857142857143,3190.7,-169.77767857142857,486.12857142857143,3298.9,-169.77767857142857,486.12857142857143,3406.4,-169.77767857142857,486.12857142857143,3510.9,-169.77767857142857,486.12857142857143,3615.3,-169.77767857142857,486.12857142857143,3719.1,-169.77767857142857,486.12857142857143,3819.9,-169.77767857142857,486.12857142857143,3920.1,-169.77767857142857,486.12857142857143,4021.7,-169.77767857142857,486.12857142857143,4124.7,-169.77767857142857,486.12857142857143,4225.5,-169.77767857142857,486.12857142857143,4335.3,-169.77767857142857,486.12857142857143,4439.7,-169.77767857142857,486.12857142857143,4541.3,-169.77767857142857,486.12857142857143,4650.5,-169.77767857142857,486.12857142857143,4756.3,-169.77767857142857,486.12857142857143,4864.6,-169.77767857142857,486.12857142857143,4965.7]","[1386.2,1386.2,1000,0,386.3,""smooth"",""down"",""down"",""good_move"",3980,2592.9,2270.2,1387.2,322.6,""smooth"",""down"",""down"",""good_move"",7176.4,3195.7,2848.8,3980.8,346.8,""smooth"",""left"",""left"",""good_move"",10672.1,3494.7,3152.2,7177.4,342.5,""oops"",""left"",""down"",""good_move"",13778.1,3105.6,2760.8,10672.5,344.8,""smooth"",""left"",""left"",""good_move"",16535.7,2757.4,2396.8,13778.4,360.6,""smooth"",""left"",""left"",""good_move""]"
"2493","","<div style=""width:500px;"">
  <p>What determined the result of this run?</p>
  </div>","90","html-slider-response","24","319492","0.0-7.0-1.2","6","1","2025-07-30 08:38:10","36c45c0696341be0efffe67d72a12abb","165.165.127.92","Mozilla/5.0 (Windows NT 10.0; Win64; x64) AppleWebKit/537.36 (KHTML, like Gecko) Chrome/138.0.0.0 Safari/537.36","WebKit","Chrome","138.0.0.0","Windows","10.0","https://app.prolific.com/","en-AU,en-ZA;q=0.9,en-GB;q=0.8,en-US;q=0.7,en;q=0.6,fr;q=0.5","66b61da8697a1059a78e7008","687a19d2168e237449fb8af4","6889d9d5d679758a90a275ef","0","66b61da8697a1059a78e7008","0","2025-07-30T08:43:32.626Z","","","","AttribQ","","","","","","","","","","","50","","","","","","","","","","","","","","","","","","","","","","","","","","",""
"2892","","<div style=""width:500px;"">
  <p>How much control did you have over the ball?</p>
  </div>","70","html-slider-response","25","322387","0.0-7.0-2.2","6","1","2025-07-30 08:38:10","36c45c0696341be0efffe67d72a12abb","165.165.127.92","Mozilla/5.0 (Windows NT 10.0; Win64; x64) AppleWebKit/537.36 (KHTML, like Gecko) Chrome/138.0.0.0 Safari/537.36","WebKit","Chrome","138.0.0.0","Windows","10.0","https://app.prolific.com/","en-AU,en-ZA;q=0.9,en-GB;q=0.8,en-US;q=0.7,en;q=0.6,fr;q=0.5","66b61da8697a1059a78e7008","687a19d2168e237449fb8af4","6889d9d5d679758a90a275ef","0","66b61da8697a1059a78e7008","0","2025-07-30T08:43:35.521Z","","","","ControlQ","","","","","","","","","","","50","","","","","","","","","","","","","","","","","","","","","","","","","","",""
"3020","","<div style=""width:500px;"">
  <p>How would you describe your current emotional state?</p>
  </div>","30","html-slider-response","26","325409","0.0-7.0-3.2","6","1","2025-07-30 08:38:10","36c45c0696341be0efffe67d72a12abb","165.165.127.92","Mozilla/5.0 (Windows NT 10.0; Win64; x64) AppleWebKit/537.36 (KHTML, like Gecko) Chrome/138.0.0.0 Safari/537.36","WebKit","Chrome","138.0.0.0","Windows","10.0","https://app.prolific.com/","en-AU,en-ZA;q=0.9,en-GB;q=0.8,en-US;q=0.7,en;q=0.6,fr;q=0.5","66b61da8697a1059a78e7008","687a19d2168e237449fb8af4","6889d9d5d679758a90a275ef","0","66b61da8697a1059a78e7008","0","2025-07-30T08:43:38.543Z","","","","StressQ","","","","","","","","","","","50","","","","","","","","","","","","","","","","","","","","","","","","","","",""
"3339","","<div style=""width:500px;"">
  <p>What best describes how you currently feel?</p>
  </div>","85","html-slider-response","27","328750","0.0-7.0-4.2","6","1","2025-07-30 08:38:10","36c45c0696341be0efffe67d72a12abb","165.165.127.92","Mozilla/5.0 (Windows NT 10.0; Win64; x64) AppleWebKit/537.36 (KHTML, like Gecko) Chrome/138.0.0.0 Safari/537.36","WebKit","Chrome","138.0.0.0","Windows","10.0","https://app.prolific.com/","en-AU,en-ZA;q=0.9,en-GB;q=0.8,en-US;q=0.7,en;q=0.6,fr;q=0.5","66b61da8697a1059a78e7008","687a19d2168e237449fb8af4","6889d9d5d679758a90a275ef","0","66b61da8697a1059a78e7008","0","2025-07-30T08:43:41.884Z","","","","MotivationQ","","","","","","","","","","","50","","","","","","","","","","","","","","","","","","","","","","","","","","",""
"","","","","ctl-task-cpt","28","359866","0.0-7.0-0.3","6","1","2025-07-30 08:38:10","36c45c0696341be0efffe67d72a12abb","165.165.127.92","Mozilla/5.0 (Windows NT 10.0; Win64; x64) AppleWebKit/537.36 (KHTML, like Gecko) Chrome/138.0.0.0 Safari/537.36","WebKit","Chrome","138.0.0.0","Windows","10.0","https://app.prolific.com/","en-AU,en-ZA;q=0.9,en-GB;q=0.8,en-US;q=0.7,en;q=0.6,fr;q=0.5","66b61da8697a1059a78e7008","687a19d2168e237449fb8af4","6889d9d5d679758a90a275ef","0","66b61da8697a1059a78e7008","0","2025-07-30T08:44:13.000Z","","","","","","","","","","","","","","","","win-only","2","g1:SE,g2:NW","0.7","4","0","332249.6","1892.1","6893.7","28095.4","1","4","8","6","2","8","7","18","11","0.13636363636363635","1411","3000","1265","[""left"",""up""]","{""num_key_presses"":8,""num_perfect"":5,""num_errors"":1,""num_randdir"":2,""num_randdir_good_moves"":1,""num_whilered"":0,""num_whileblue"":1,""num_blue"":1,""num_good_moves"":7}","[297.22232142857143,299.12857142857143,0.6,297.22232142857143,299.12857142857143,101.5,297.22232142857143,299.12857142857143,203.7,297.22232142857143,299.12857142857143,307.6,297.22232142857143,299.12857142857143,408.3,297.22232142857143,299.12857142857143,509.7,297.22232142857143,299.12857142857143,620.2,175.22232142857143,156.12857142857143,724.7,116.22232142857143,58.128571428571426,829.2,112.22232142857143,55.128571428571426,930.7,112.22232142857143,55.128571428571426,1041.8,109.22232142857143,54.128571428571426,1143.4,84.22232142857143,51.128571428571426,1243.8,66.22232142857143,51.128571428571426,1349.7,62.222321428571426,51.128571428571426,1463.5,62.222321428571426,51.128571428571426,1568.8,62.222321428571426,51.128571428571426,1669.3,-51.777678571428574,73.12857142857143,1778.2,-211.77767857142857,89.12857142857143,1885.5,-220.77767857142857,93.12857142857143,1997.9,-221.77767857142857,93.12857142857143,2099.8,-221.77767857142857,93.12857142857143,2205.8,-221.77767857142857,93.12857142857143,2306.8,-221.77767857142857,93.12857142857143,2410.3,-221.77767857142857,93.12857142857143,2510.3,-221.77767857142857,93.12857142857143,2622.9,-221.77767857142857,93.12857142857143,2724.3,-221.77767857142857,93.12857142857143,2824.3,-221.77767857142857,93.12857142857143,2928.8,-221.77767857142857,93.12857142857143,3030.6,-221.77767857142857,93.12857142857143,3133.9,-221.77767857142857,93.12857142857143,3233.9,-221.77767857142857,93.12857142857143,3340,-221.77767857142857,93.12857142857143,3444.1,-221.77767857142857,93.12857142857143,3550.2,-221.77767857142857,93.12857142857143,3650.2,-221.77767857142857,93.12857142857143,3755.7,-221.77767857142857,93.12857142857143,3856.8,-221.77767857142857,93.12857142857143,3958.8,-221.77767857142857,93.12857142857143,4062.1,-221.77767857142857,93.12857142857143,4171.6,-221.77767857142857,93.12857142857143,4274.1,-221.77767857142857,93.12857142857143,4374.9,-221.77767857142857,93.12857142857143,4475.5,-221.77767857142857,93.12857142857143,4580.8,-221.77767857142857,93.12857142857143,4689.9,-221.77767857142857,93.12857142857143,4794.8,-221.77767857142857,93.12857142857143,4900.6]","[1389.6,1389.6,1000,0,389.6,""smooth"",""left"",""left"",""good_move"",4825,3434.6,3107.5,1390.4,327.1,""smooth"",""left"",""left"",""good_move"",7794.4,2968.7,2625.7,4825.7,343,""smooth"",""up"",""up"",""good_move"",10753.5,2958.6,2555.1,7795.1,403.4,""smooth"",""up"",""up"",""good_move"",13145.8,2391.4,2064.3,10754.5,327,""oops"",""left"",""right"",""bad_move"",15723.9,2575.9,2213.3,13148,362.6,""oops"",""up"",""up"",""good_move"",18410.9,2686.7,2347.1,15724.3,339.5,""smooth"",""left"",""left"",""good_move"",21080.8,2669.1,2356.5,18411.7,312.6,""while_blue"",""left"",""left"",""good_move""]"
"2890","","<div style=""width:500px;"">
  <p>What determined the result of this run?</p>
  </div>","96","html-slider-response","29","362757","0.0-7.0-1.3","6","1","2025-07-30 08:38:10","36c45c0696341be0efffe67d72a12abb","165.165.127.92","Mozilla/5.0 (Windows NT 10.0; Win64; x64) AppleWebKit/537.36 (KHTML, like Gecko) Chrome/138.0.0.0 Safari/537.36","WebKit","Chrome","138.0.0.0","Windows","10.0","https://app.prolific.com/","en-AU,en-ZA;q=0.9,en-GB;q=0.8,en-US;q=0.7,en;q=0.6,fr;q=0.5","66b61da8697a1059a78e7008","687a19d2168e237449fb8af4","6889d9d5d679758a90a275ef","0","66b61da8697a1059a78e7008","0","2025-07-30T08:44:15.891Z","","","","AttribQ","","","","","","","","","","","50","","","","","","","","","","","","","","","","","","","","","","","","","","",""
"4028","","<div style=""width:500px;"">
  <p>How much control did you have over the ball?</p>
  </div>","55","html-slider-response","30","366788","0.0-7.0-2.3","6","1","2025-07-30 08:38:10","36c45c0696341be0efffe67d72a12abb","165.165.127.92","Mozilla/5.0 (Windows NT 10.0; Win64; x64) AppleWebKit/537.36 (KHTML, like Gecko) Chrome/138.0.0.0 Safari/537.36","WebKit","Chrome","138.0.0.0","Windows","10.0","https://app.prolific.com/","en-AU,en-ZA;q=0.9,en-GB;q=0.8,en-US;q=0.7,en;q=0.6,fr;q=0.5","66b61da8697a1059a78e7008","687a19d2168e237449fb8af4","6889d9d5d679758a90a275ef","0","66b61da8697a1059a78e7008","0","2025-07-30T08:44:19.922Z","","","","ControlQ","","","","","","","","","","","50","","","","","","","","","","","","","","","","","","","","","","","","","","",""
"2856","","<div style=""width:500px;"">
  <p>How would you describe your current emotional state?</p>
  </div>","24","html-slider-response","31","369647","0.0-7.0-3.3","6","1","2025-07-30 08:38:10","36c45c0696341be0efffe67d72a12abb","165.165.127.92","Mozilla/5.0 (Windows NT 10.0; Win64; x64) AppleWebKit/537.36 (KHTML, like Gecko) Chrome/138.0.0.0 Safari/537.36","WebKit","Chrome","138.0.0.0","Windows","10.0","https://app.prolific.com/","en-AU,en-ZA;q=0.9,en-GB;q=0.8,en-US;q=0.7,en;q=0.6,fr;q=0.5","66b61da8697a1059a78e7008","687a19d2168e237449fb8af4","6889d9d5d679758a90a275ef","0","66b61da8697a1059a78e7008","0","2025-07-30T08:44:22.781Z","","","","StressQ","","","","","","","","","","","50","","","","","","","","","","","","","","","","","","","","","","","","","","",""
"3023","","<div style=""width:500px;"">
  <p>What best describes how you currently feel?</p>
  </div>","83","html-slider-response","32","372673","0.0-7.0-4.3","6","1","2025-07-30 08:38:10","36c45c0696341be0efffe67d72a12abb","165.165.127.92","Mozilla/5.0 (Windows NT 10.0; Win64; x64) AppleWebKit/537.36 (KHTML, like Gecko) Chrome/138.0.0.0 Safari/537.36","WebKit","Chrome","138.0.0.0","Windows","10.0","https://app.prolific.com/","en-AU,en-ZA;q=0.9,en-GB;q=0.8,en-US;q=0.7,en;q=0.6,fr;q=0.5","66b61da8697a1059a78e7008","687a19d2168e237449fb8af4","6889d9d5d679758a90a275ef","0","66b61da8697a1059a78e7008","0","2025-07-30T08:44:25.807Z","","","","MotivationQ","","","","","","","","","","","50","","","","","","","","","","","","","","","","","","","","","","","","","","",""
"","","","","ctl-task-cpt","33","409962","0.0-7.0-0.4","6","1","2025-07-30 08:38:10","36c45c0696341be0efffe67d72a12abb","165.165.127.92","Mozilla/5.0 (Windows NT 10.0; Win64; x64) AppleWebKit/537.36 (KHTML, like Gecko) Chrome/138.0.0.0 Safari/537.36","WebKit","Chrome","138.0.0.0","Windows","10.0","https://app.prolific.com/","en-AU,en-ZA;q=0.9,en-GB;q=0.8,en-US;q=0.7,en;q=0.6,fr;q=0.5","66b61da8697a1059a78e7008","687a19d2168e237449fb8af4","6889d9d5d679758a90a275ef","0","66b61da8697a1059a78e7008","0","2025-07-30T08:45:03.096Z","","","","","","","","","","","","","","","","win-only","1","g1:NE,g2:SW","0.6","5","0","376175.1","3520.3","8523.6","34269","1","4","8","6","2","8","8","26","18","0.19696969696969696","1194.8","3000","1375","[""down"",""left""]","{""num_key_presses"":6,""num_perfect"":4,""num_errors"":0,""num_randdir"":2,""num_randdir_good_moves"":2,""num_whilered"":0,""num_whileblue"":0,""num_blue"":3,""num_good_moves"":6}","[295.22232142857143,293.12857142857143,0.9,295.22232142857143,293.12857142857143,105.6,295.22232142857143,293.12857142857143,205.9,295.22232142857143,293.12857142857143,307.3,293.22232142857143,290.12857142857143,418.2,291.22232142857143,288.12857142857143,521.2,286.22232142857143,286.12857142857143,621.3,277.22232142857143,288.12857142857143,722.3,85.22232142857143,437.12857142857143,842,39.222321428571426,524.1285714285714,942.5,37.222321428571426,528.1285714285714,1046.4,37.222321428571426,528.1285714285714,1147.2,37.222321428571426,528.1285714285714,1254.4,37.222321428571426,528.1285714285714,1356.7,35.222321428571426,528.1285714285714,1475.8,-9.777678571428574,506.12857142857143,1577.8,-150.77767857142857,477.12857142857143,1681.4,-153.77767857142857,476.12857142857143,1782.3,-153.77767857142857,476.12857142857143,1882.4,-153.77767857142857,476.12857142857143,1993.4,-153.77767857142857,476.12857142857143,2111.3,-153.77767857142857,476.12857142857143,2213.5,-153.77767857142857,476.12857142857143,2316.4,-153.77767857142857,476.12857142857143,2419.3,-153.77767857142857,476.12857142857143,2520.6,-153.77767857142857,476.12857142857143,2623.2,-153.77767857142857,476.12857142857143,2728.7,-153.77767857142857,476.12857142857143,2844.8,-153.77767857142857,476.12857142857143,2949,-153.77767857142857,476.12857142857143,3049.4,-153.77767857142857,476.12857142857143,3156.6,-153.77767857142857,476.12857142857143,3263,-153.77767857142857,476.12857142857143,3373.2,-153.77767857142857,476.12857142857143,3475.8,-153.77767857142857,476.12857142857143,3576,-153.77767857142857,476.12857142857143,3676.7,-153.77767857142857,476.12857142857143,3789.7,-153.77767857142857,476.12857142857143,3892.2,-153.77767857142857,476.12857142857143,4010.5,-153.77767857142857,476.12857142857143,4111.5,-153.77767857142857,476.12857142857143,4222.2,-153.77767857142857,476.12857142857143,4325.8,-153.77767857142857,476.12857142857143,4425.9,-153.77767857142857,476.12857142857143,4526.6,-153.77767857142857,476.12857142857143,4626.9,-153.77767857142857,476.12857142857143,4726.9,-153.77767857142857,476.12857142857143,4830.6,-153.77767857142857,476.12857142857143,4932.9]","[8666,8666,2902.7,5363.2,400.1,""smooth"",""down"",""down"",""good_move"",11524.7,2856.8,2370.4,8667.9,486.4,""smooth"",""left"",""left"",""good_move"",14085.6,2559.7,2185.5,11525.9,374.2,""smooth"",""down"",""down"",""good_move"",17225.2,3138.9,2737.6,14086.3,401.3,""oops"",""left"",""down"",""good_move"",19807.7,2581.7,2175.8,17226,405.9,""smooth"",""left"",""left"",""good_move"",25581.9,5773.4,2354.6,22797.2,430.1,""oops"",""left"",""left"",""good_move""]"
"144609","","<div style=""width:500px;"">
  <p>What determined the result of this run?</p>
  </div>","93","html-slider-response","34","554573","0.0-7.0-1.4","6","1","2025-07-30 08:38:10","36c45c0696341be0efffe67d72a12abb","165.165.127.92","Mozilla/5.0 (Windows NT 10.0; Win64; x64) AppleWebKit/537.36 (KHTML, like Gecko) Chrome/138.0.0.0 Safari/537.36","WebKit","Chrome","138.0.0.0","Windows","10.0","https://app.prolific.com/","en-AU,en-ZA;q=0.9,en-GB;q=0.8,en-US;q=0.7,en;q=0.6,fr;q=0.5","66b61da8697a1059a78e7008","687a19d2168e237449fb8af4","6889d9d5d679758a90a275ef","0","66b61da8697a1059a78e7008","0","2025-07-30T08:47:27.707Z","","","","AttribQ","","","","","","","","","","","50","","","","","","","","","","","","","","","","","","","","","","","","","","",""
"3097","","<div style=""width:500px;"">
  <p>How much control did you have over the ball?</p>
  </div>","86","html-slider-response","35","557673","0.0-7.0-2.4","6","1","2025-07-30 08:38:10","36c45c0696341be0efffe67d72a12abb","165.165.127.92","Mozilla/5.0 (Windows NT 10.0; Win64; x64) AppleWebKit/537.36 (KHTML, like Gecko) Chrome/138.0.0.0 Safari/537.36","WebKit","Chrome","138.0.0.0","Windows","10.0","https://app.prolific.com/","en-AU,en-ZA;q=0.9,en-GB;q=0.8,en-US;q=0.7,en;q=0.6,fr;q=0.5","66b61da8697a1059a78e7008","687a19d2168e237449fb8af4","6889d9d5d679758a90a275ef","0","66b61da8697a1059a78e7008","0","2025-07-30T08:47:30.807Z","","","","ControlQ","","","","","","","","","","","50","","","","","","","","","","","","","","","","","","","","","","","","","","",""
"2406","","<div style=""width:500px;"">
  <p>How would you describe your current emotional state?</p>
  </div>","15","html-slider-response","36","560081","0.0-7.0-3.4","6","1","2025-07-30 08:38:10","36c45c0696341be0efffe67d72a12abb","165.165.127.92","Mozilla/5.0 (Windows NT 10.0; Win64; x64) AppleWebKit/537.36 (KHTML, like Gecko) Chrome/138.0.0.0 Safari/537.36","WebKit","Chrome","138.0.0.0","Windows","10.0","https://app.prolific.com/","en-AU,en-ZA;q=0.9,en-GB;q=0.8,en-US;q=0.7,en;q=0.6,fr;q=0.5","66b61da8697a1059a78e7008","687a19d2168e237449fb8af4","6889d9d5d679758a90a275ef","0","66b61da8697a1059a78e7008","0","2025-07-30T08:47:33.216Z","","","","StressQ","","","","","","","","","","","50","","","","","","","","","","","","","","","","","","","","","","","","","","",""
"3437","","<div style=""width:500px;"">
  <p>What best describes how you currently feel?</p>
  </div>","86","html-slider-response","37","563520","0.0-7.0-4.4","6","1","2025-07-30 08:38:10","36c45c0696341be0efffe67d72a12abb","165.165.127.92","Mozilla/5.0 (Windows NT 10.0; Win64; x64) AppleWebKit/537.36 (KHTML, like Gecko) Chrome/138.0.0.0 Safari/537.36","WebKit","Chrome","138.0.0.0","Windows","10.0","https://app.prolific.com/","en-AU,en-ZA;q=0.9,en-GB;q=0.8,en-US;q=0.7,en;q=0.6,fr;q=0.5","66b61da8697a1059a78e7008","687a19d2168e237449fb8af4","6889d9d5d679758a90a275ef","0","66b61da8697a1059a78e7008","0","2025-07-30T08:47:36.654Z","","","","MotivationQ","","","","","","","","","","","50","","","","","","","","","","","","","","","","","","","","","","","","","","",""
"","","","","ctl-task-cpt","38","593280","0.0-7.0-0.5","6","1","2025-07-30 08:38:10","36c45c0696341be0efffe67d72a12abb","165.165.127.92","Mozilla/5.0 (Windows NT 10.0; Win64; x64) AppleWebKit/537.36 (KHTML, like Gecko) Chrome/138.0.0.0 Safari/537.36","WebKit","Chrome","138.0.0.0","Windows","10.0","https://app.prolific.com/","en-AU,en-ZA;q=0.9,en-GB;q=0.8,en-US;q=0.7,en;q=0.6,fr;q=0.5","66b61da8697a1059a78e7008","687a19d2168e237449fb8af4","6889d9d5d679758a90a275ef","0","66b61da8697a1059a78e7008","0","2025-07-30T08:48:06.414Z","","","","","","","","","","","","","","","","win-only","2","g1:SE,g2:NW","0.5","6","0","567021.1","1670.6","6674.8","26722.5","1","4","4","6","1","1","1","27","26","0.20454545454545456","1548.8","3000","1580","[""down"",""right""]","{""num_key_presses"":6,""num_perfect"":4,""num_errors"":0,""num_randdir"":2,""num_randdir_good_moves"":1,""num_whilered"":0,""num_whileblue"":0,""num_blue"":1,""num_good_moves"":5}","[293.22232142857143,305.12857142857143,0.4,293.22232142857143,305.12857142857143,101,293.22232142857143,305.12857142857143,220.1,293.22232142857143,305.12857142857143,338.5,293.22232142857143,305.12857142857143,457.7,293.22232142857143,305.12857142857143,561.6,292.22232142857143,310.12857142857143,667.2,274.22232142857143,313.12857142857143,771.8,176.22232142857143,230.12857142857143,889.5,173.22232142857143,228.12857142857143,995.5,510.22232142857143,540.1285714285714,1110.6,522.2223214285714,559.1285714285714,1217.1,522.2223214285714,567.1285714285714,1324.4,522.2223214285714,568.1285714285714,1426.5,529.2223214285714,558.1285714285714,1526.7,530.2223214285714,558.1285714285714,1631.9,530.2223214285714,558.1285714285714,1733.2,529.2223214285714,557.1285714285714,1837.2,545.2223214285714,553.1285714285714,1939.9,611.2223214285714,522.1285714285714,2041.4,656.2223214285714,504.12857142857143,2144.1,696.2223214285714,490.12857142857143,2246.8,710.2223214285714,483.12857142857143,2357.5,711.2223214285714,481.12857142857143,2463.1,711.2223214285714,481.12857142857143,2565.2,711.2223214285714,481.12857142857143,2667.7,711.2223214285714,481.12857142857143,2785.1,711.2223214285714,481.12857142857143,2889.7,711.2223214285714,481.12857142857143,2992.8,711.2223214285714,481.12857142857143,3093.7,711.2223214285714,481.12857142857143,3196.9,711.2223214285714,481.12857142857143,3297.2,711.2223214285714,481.12857142857143,3402.7,711.2223214285714,481.12857142857143,3508.9,711.2223214285714,481.12857142857143,3612,711.2223214285714,481.12857142857143,3715.9,711.2223214285714,481.12857142857143,3817.3,711.2223214285714,481.12857142857143,3921.9,711.2223214285714,481.12857142857143,4049,711.2223214285714,481.12857142857143,4152.2,711.2223214285714,481.12857142857143,4261.4,711.2223214285714,481.12857142857143,4362.5,711.2223214285714,481.12857142857143,4466.1,711.2223214285714,481.12857142857143,4568.7,711.2223214285714,481.12857142857143,4673.2,711.2223214285714,481.12857142857143,4776.1,711.2223214285714,481.12857142857143,4876.5,711.2223214285714,481.12857142857143,4979.2]","[1512.8,1512.8,1000,0,512.8,""smooth"",""right"",""right"",""good_move"",4750.8,3235.9,2874.3,1514.9,361.6,""smooth"",""down"",""down"",""good_move"",11139.4,6387.1,2411.5,8324.4,403.5,""smooth"",""right"",""right"",""good_move"",13886.5,2746.3,2358.7,11140.2,387.7,""oops"",""down"",""up"",""bad_move"",16786,2898.2,2526.7,13887.9,371.5,""smooth"",""down"",""down"",""good_move"",19922.1,3135.4,2711,16786.7,424.4,""oops"",""down"",""down"",""good_move""]"
"3482","","<div style=""width:500px;"">
  <p>What determined the result of this run?</p>
  </div>","77","html-slider-response","39","596764","0.0-7.0-1.5","6","1","2025-07-30 08:38:10","36c45c0696341be0efffe67d72a12abb","165.165.127.92","Mozilla/5.0 (Windows NT 10.0; Win64; x64) AppleWebKit/537.36 (KHTML, like Gecko) Chrome/138.0.0.0 Safari/537.36","WebKit","Chrome","138.0.0.0","Windows","10.0","https://app.prolific.com/","en-AU,en-ZA;q=0.9,en-GB;q=0.8,en-US;q=0.7,en;q=0.6,fr;q=0.5","66b61da8697a1059a78e7008","687a19d2168e237449fb8af4","6889d9d5d679758a90a275ef","0","66b61da8697a1059a78e7008","0","2025-07-30T08:48:09.898Z","","","","AttribQ","","","","","","","","","","","50","","","","","","","","","","","","","","","","","","","","","","","","","","",""
"2956","","<div style=""width:500px;"">
  <p>How much control did you have over the ball?</p>
  </div>","42","html-slider-response","40","599723","0.0-7.0-2.5","6","1","2025-07-30 08:38:10","36c45c0696341be0efffe67d72a12abb","165.165.127.92","Mozilla/5.0 (Windows NT 10.0; Win64; x64) AppleWebKit/537.36 (KHTML, like Gecko) Chrome/138.0.0.0 Safari/537.36","WebKit","Chrome","138.0.0.0","Windows","10.0","https://app.prolific.com/","en-AU,en-ZA;q=0.9,en-GB;q=0.8,en-US;q=0.7,en;q=0.6,fr;q=0.5","66b61da8697a1059a78e7008","687a19d2168e237449fb8af4","6889d9d5d679758a90a275ef","0","66b61da8697a1059a78e7008","0","2025-07-30T08:48:12.857Z","","","","ControlQ","","","","","","","","","","","50","","","","","","","","","","","","","","","","","","","","","","","","","","",""
"2639","","<div style=""width:500px;"">
  <p>How would you describe your current emotional state?</p>
  </div>","33","html-slider-response","41","602364","0.0-7.0-3.5","6","1","2025-07-30 08:38:10","36c45c0696341be0efffe67d72a12abb","165.165.127.92","Mozilla/5.0 (Windows NT 10.0; Win64; x64) AppleWebKit/537.36 (KHTML, like Gecko) Chrome/138.0.0.0 Safari/537.36","WebKit","Chrome","138.0.0.0","Windows","10.0","https://app.prolific.com/","en-AU,en-ZA;q=0.9,en-GB;q=0.8,en-US;q=0.7,en;q=0.6,fr;q=0.5","66b61da8697a1059a78e7008","687a19d2168e237449fb8af4","6889d9d5d679758a90a275ef","0","66b61da8697a1059a78e7008","0","2025-07-30T08:48:15.498Z","","","","StressQ","","","","","","","","","","","50","","","","","","","","","","","","","","","","","","","","","","","","","","",""
"2726","","<div style=""width:500px;"">
  <p>What best describes how you currently feel?</p>
  </div>","80","html-slider-response","42","605092","0.0-7.0-4.5","6","1","2025-07-30 08:38:10","36c45c0696341be0efffe67d72a12abb","165.165.127.92","Mozilla/5.0 (Windows NT 10.0; Win64; x64) AppleWebKit/537.36 (KHTML, like Gecko) Chrome/138.0.0.0 Safari/537.36","WebKit","Chrome","138.0.0.0","Windows","10.0","https://app.prolific.com/","en-AU,en-ZA;q=0.9,en-GB;q=0.8,en-US;q=0.7,en;q=0.6,fr;q=0.5","66b61da8697a1059a78e7008","687a19d2168e237449fb8af4","6889d9d5d679758a90a275ef","0","66b61da8697a1059a78e7008","0","2025-07-30T08:48:18.227Z","","","","MotivationQ","","","","","","","","","","","50","","","","","","","","","","","","","","","","","","","","","","","","","","",""
"","","","","ctl-task-cpt","43","666442","0.0-7.0-0.6","6","1","2025-07-30 08:38:10","36c45c0696341be0efffe67d72a12abb","165.165.127.92","Mozilla/5.0 (Windows NT 10.0; Win64; x64) AppleWebKit/537.36 (KHTML, like Gecko) Chrome/138.0.0.0 Safari/537.36","WebKit","Chrome","138.0.0.0","Windows","10.0","https://app.prolific.com/","en-AU,en-ZA;q=0.9,en-GB;q=0.8,en-US;q=0.7,en;q=0.6,fr;q=0.5","66b61da8697a1059a78e7008","687a19d2168e237449fb8af4","6889d9d5d679758a90a275ef","0","66b61da8697a1059a78e7008","0","2025-07-30T08:49:19.576Z","","","","","","","","","","","","","","","","win-only","2","g1:SE,g2:NW","0.4","7","0","608595","3659.7","8662.1","58331.2","1","4","8","6","2","-8","-8","19","27","0.14393939393939395","912","3000","-1690","[""left"",""up""]","{""num_key_presses"":13,""num_perfect"":5,""num_errors"":0,""num_randdir"":8,""num_randdir_good_moves"":4,""num_whilered"":0,""num_whileblue"":0,""num_blue"":2,""num_good_moves"":9}","[297.22232142857143,298.12857142857143,0.6,297.22232142857143,298.12857142857143,103.8,297.22232142857143,298.12857142857143,210.2,297.22232142857143,298.12857142857143,313.5,297.22232142857143,298.12857142857143,415,176.22232142857143,171.12857142857143,515.3,98.22232142857143,116.12857142857143,616.6,92.22232142857143,94.12857142857143,719.6,79.22232142857143,62.128571428571426,824.4,75.22232142857143,56.128571428571426,932.2,75.22232142857143,56.128571428571426,1033.3,75.22232142857143,56.128571428571426,1142.2,-72.77767857142857,79.12857142857143,1273.9,-267.77767857142857,121.12857142857143,1379.8,-289.77767857142857,134.12857142857143,1483.5,-309.77767857142857,143.12857142857143,1589.1,-310.77767857142857,143.12857142857143,1738.1,-310.77767857142857,143.12857142857143,1842.5,-310.77767857142857,143.12857142857143,1947.4,-310.77767857142857,143.12857142857143,2054.3,-310.77767857142857,143.12857142857143,2166.9,-310.77767857142857,143.12857142857143,2269.1,-310.77767857142857,143.12857142857143,2373.5,-310.77767857142857,143.12857142857143,2496.4,-310.77767857142857,143.12857142857143,2597.4,-310.77767857142857,143.12857142857143,2702.5,-310.77767857142857,143.12857142857143,2804.2,-310.77767857142857,143.12857142857143,2927.2,-310.77767857142857,143.12857142857143,3053.5,-310.77767857142857,143.12857142857143,3158.7,-310.77767857142857,143.12857142857143,3275.3,-310.77767857142857,143.12857142857143,3398.6,-310.77767857142857,143.12857142857143,3501.3,-310.77767857142857,143.12857142857143,3603.8,-310.77767857142857,143.12857142857143,3709.1,-310.77767857142857,143.12857142857143,3823.7,-310.77767857142857,143.12857142857143,3926,-310.77767857142857,143.12857142857143,4033.3,-310.77767857142857,143.12857142857143,4137.8,-310.77767857142857,143.12857142857143,4244.2,-310.77767857142857,143.12857142857143,4345.5,-310.77767857142857,143.12857142857143,4468.1,-310.77767857142857,143.12857142857143,4584.9,-310.77767857142857,143.12857142857143,4685.6,-310.77767857142857,143.12857142857143,4790.2,-310.77767857142857,143.12857142857143,4901.7]","[4819.8,4819.8,2460,2005.1,354.7,""oops"",""left"",""right"",""bad_move"",8118.4,3297.1,2729.1,4821.3,568,""smooth"",""up"",""up"",""good_move"",11088.5,2968.7,2573.1,8119.8,395.6,""oops"",""up"",""left"",""good_move"",14829,3739.7,3333.6,11089.3,406.1,""smooth"",""up"",""up"",""good_move"",17765,2935.3,2534.4,14829.7,401,""smooth"",""up"",""up"",""good_move"",24226.4,6460.6,2985.2,20856,385.2,""oops"",""left"",""right"",""bad_move"",27481.7,3253.9,2723.5,24227.8,530.4,""smooth"",""left"",""left"",""good_move"",30929.9,3446.8,3080.4,27483.1,366.4,""oops"",""down"",""right"",""bad_move"",33589.7,2658.8,2230.7,30930.9,428.1,""oops"",""up"",""left"",""good_move"",36574.9,2984.5,2574.6,33590.4,409.9,""oops"",""left"",""down"",""bad_move"",40087,3511.5,3079.8,36575.5,431.7,""smooth"",""left"",""left"",""good_move"",42689.2,2601,2173.1,40088.2,427.9,""oops"",""up"",""left"",""good_move"",46040,3350,2962,42690,388,""oops"",""left"",""left"",""good_move""]"
"5211","","<div style=""width:500px;"">
  <p>What determined the result of this run?</p>
  </div>","27","html-slider-response","44","671655","0.0-7.0-1.6","6","1","2025-07-30 08:38:10","36c45c0696341be0efffe67d72a12abb","165.165.127.92","Mozilla/5.0 (Windows NT 10.0; Win64; x64) AppleWebKit/537.36 (KHTML, like Gecko) Chrome/138.0.0.0 Safari/537.36","WebKit","Chrome","138.0.0.0","Windows","10.0","https://app.prolific.com/","en-AU,en-ZA;q=0.9,en-GB;q=0.8,en-US;q=0.7,en;q=0.6,fr;q=0.5","66b61da8697a1059a78e7008","687a19d2168e237449fb8af4","6889d9d5d679758a90a275ef","0","66b61da8697a1059a78e7008","0","2025-07-30T08:49:24.789Z","","","","AttribQ","","","","","","","","","","","50","","","","","","","","","","","","","","","","","","","","","","","","","","",""
"3007","","<div style=""width:500px;"">
  <p>How much control did you have over the ball?</p>
  </div>","15","html-slider-response","45","674664","0.0-7.0-2.6","6","1","2025-07-30 08:38:10","36c45c0696341be0efffe67d72a12abb","165.165.127.92","Mozilla/5.0 (Windows NT 10.0; Win64; x64) AppleWebKit/537.36 (KHTML, like Gecko) Chrome/138.0.0.0 Safari/537.36","WebKit","Chrome","138.0.0.0","Windows","10.0","https://app.prolific.com/","en-AU,en-ZA;q=0.9,en-GB;q=0.8,en-US;q=0.7,en;q=0.6,fr;q=0.5","66b61da8697a1059a78e7008","687a19d2168e237449fb8af4","6889d9d5d679758a90a275ef","0","66b61da8697a1059a78e7008","0","2025-07-30T08:49:27.799Z","","","","ControlQ","","","","","","","","","","","50","","","","","","","","","","","","","","","","","","","","","","","","","","",""
"3919","","<div style=""width:500px;"">
  <p>How would you describe your current emotional state?</p>
  </div>","58","html-slider-response","46","678586","0.0-7.0-3.6","6","1","2025-07-30 08:38:10","36c45c0696341be0efffe67d72a12abb","165.165.127.92","Mozilla/5.0 (Windows NT 10.0; Win64; x64) AppleWebKit/537.36 (KHTML, like Gecko) Chrome/138.0.0.0 Safari/537.36","WebKit","Chrome","138.0.0.0","Windows","10.0","https://app.prolific.com/","en-AU,en-ZA;q=0.9,en-GB;q=0.8,en-US;q=0.7,en;q=0.6,fr;q=0.5","66b61da8697a1059a78e7008","687a19d2168e237449fb8af4","6889d9d5d679758a90a275ef","0","66b61da8697a1059a78e7008","0","2025-07-30T08:49:31.720Z","","","","StressQ","","","","","","","","","","","50","","","","","","","","","","","","","","","","","","","","","","","","","","",""
"2850","","<div style=""width:500px;"">
  <p>What best describes how you currently feel?</p>
  </div>","74","html-slider-response","47","681438","0.0-7.0-4.6","6","1","2025-07-30 08:38:10","36c45c0696341be0efffe67d72a12abb","165.165.127.92","Mozilla/5.0 (Windows NT 10.0; Win64; x64) AppleWebKit/537.36 (KHTML, like Gecko) Chrome/138.0.0.0 Safari/537.36","WebKit","Chrome","138.0.0.0","Windows","10.0","https://app.prolific.com/","en-AU,en-ZA;q=0.9,en-GB;q=0.8,en-US;q=0.7,en;q=0.6,fr;q=0.5","66b61da8697a1059a78e7008","687a19d2168e237449fb8af4","6889d9d5d679758a90a275ef","0","66b61da8697a1059a78e7008","0","2025-07-30T08:49:34.572Z","","","","MotivationQ","","","","","","","","","","","50","","","","","","","","","","","","","","","","","","","","","","","","","","",""
"","","","","ctl-task-cpt","48","745721","0.0-7.0-0.7","6","1","2025-07-30 08:38:10","36c45c0696341be0efffe67d72a12abb","165.165.127.92","Mozilla/5.0 (Windows NT 10.0; Win64; x64) AppleWebKit/537.36 (KHTML, like Gecko) Chrome/138.0.0.0 Safari/537.36","WebKit","Chrome","138.0.0.0","Windows","10.0","https://app.prolific.com/","en-AU,en-ZA;q=0.9,en-GB;q=0.8,en-US;q=0.7,en;q=0.6,fr;q=0.5","66b61da8697a1059a78e7008","687a19d2168e237449fb8af4","6889d9d5d679758a90a275ef","0","66b61da8697a1059a78e7008","0","2025-07-30T08:50:38.855Z","","","","","","","","","","","","","","","","win-only","1","g1:NE,g2:SW","0.3","8","0","684939.8","2741.3","7752.6","61257","1","4","4","6","2","4","4","23","19","0.17424242424242425","1635.6","3000","600","[""down"",""left""]","{""num_key_presses"":12,""num_perfect"":4,""num_errors"":0,""num_randdir"":8,""num_randdir_good_moves"":5,""num_whilered"":0,""num_whileblue"":0,""num_blue"":5,""num_good_moves"":9}","[295.22232142857143,295.12857142857143,0.7,295.22232142857143,295.12857142857143,108.9,295.22232142857143,295.12857142857143,226.9,295.22232142857143,295.12857142857143,327,298.22232142857143,289.12857142857143,445.8,107.22232142857143,421.12857142857143,576.9,15.222321428571426,524.1285714285714,684.9,-5.777678571428574,556.1285714285714,787.2,-8.777678571428574,559.1285714285714,902.7,-8.777678571428574,559.1285714285714,1013.5,-8.777678571428574,559.1285714285714,1118,-6.777678571428574,560.1285714285714,1227.9,-6.777678571428574,560.1285714285714,1331.9,-4.777678571428574,556.1285714285714,1435.7,14.222321428571426,552.1285714285714,1541.3,23.222321428571426,553.1285714285714,1646.3,23.222321428571426,553.1285714285714,1760.1,23.222321428571426,553.1285714285714,1870.7,5.222321428571426,536.1285714285714,1986.1,-219.77767857142857,487.12857142857143,2086.9,-234.77767857142857,485.12857142857143,2190.8,-238.77767857142857,484.12857142857143,2292.4,-240.77767857142857,484.12857142857143,2410.3,-240.77767857142857,484.12857142857143,2534.9,-240.77767857142857,484.12857142857143,2651.3,-240.77767857142857,484.12857142857143,2776,-240.77767857142857,484.12857142857143,2886.3,-240.77767857142857,484.12857142857143,2988.3,-240.77767857142857,484.12857142857143,3099,-240.77767857142857,484.12857142857143,3200.2,-240.77767857142857,484.12857142857143,3321.6,-240.77767857142857,484.12857142857143,3426.9,-240.77767857142857,484.12857142857143,3556.9,-240.77767857142857,484.12857142857143,3665.9,-240.77767857142857,484.12857142857143,3775,-240.77767857142857,484.12857142857143,3880.8,-240.77767857142857,484.12857142857143,3985.4,-240.77767857142857,484.12857142857143,4096.4,-240.77767857142857,484.12857142857143,4198.5,-240.77767857142857,484.12857142857143,4300.1,-240.77767857142857,484.12857142857143,4401.3,-240.77767857142857,484.12857142857143,4513.5,-240.77767857142857,484.12857142857143,4639.4,-240.77767857142857,484.12857142857143,4741.5,-240.77767857142857,484.12857142857143,4844.3,-240.77767857142857,484.12857142857143,4947.6]","[4586.3,4586.3,2171.9,2007.4,407,""oops"",""left"",""down"",""good_move"",7976.6,3388.1,2953,4588.5,435.1,""oops"",""left"",""up"",""bad_move"",10798.7,2821,2414.9,7977.8,406,""oops"",""down"",""up"",""bad_move"",17834.8,7035,2903.2,14498.8,432.8,""smooth"",""left"",""left"",""good_move"",20934.3,3098.4,2718.9,17835.9,379.5,""oops"",""down"",""right"",""bad_move"",23934.8,2999.5,2572.8,20935.3,426.8,""oops"",""up"",""left"",""good_move"",27074.9,3139.7,2748.2,23935.2,391.5,""oops"",""down"",""down"",""good_move"",40589.2,13512.3,2503.9,37665.5,419.8,""oops"",""down"",""left"",""good_move"",44395.8,3805.3,3429.1,40590.6,376.2,""smooth"",""down"",""down"",""good_move"",47271.9,2874.8,2468.2,44397.1,406.6,""smooth"",""down"",""down"",""good_move"",50275.4,3002.8,2593.8,47272.6,409,""oops"",""left"",""down"",""good_move"",53326,3049.1,2698.4,50276.9,350.7,""smooth"",""left"",""left"",""good_move""]"
"4729","","<div style=""width:500px;"">
  <p>What determined the result of this run?</p>
  </div>","84","html-slider-response","49","750453","0.0-7.0-1.7","6","1","2025-07-30 08:38:10","36c45c0696341be0efffe67d72a12abb","165.165.127.92","Mozilla/5.0 (Windows NT 10.0; Win64; x64) AppleWebKit/537.36 (KHTML, like Gecko) Chrome/138.0.0.0 Safari/537.36","WebKit","Chrome","138.0.0.0","Windows","10.0","https://app.prolific.com/","en-AU,en-ZA;q=0.9,en-GB;q=0.8,en-US;q=0.7,en;q=0.6,fr;q=0.5","66b61da8697a1059a78e7008","687a19d2168e237449fb8af4","6889d9d5d679758a90a275ef","0","66b61da8697a1059a78e7008","0","2025-07-30T08:50:43.587Z","","","","AttribQ","","","","","","","","","","","50","","","","","","","","","","","","","","","","","","","","","","","","","","",""
"3822","","<div style=""width:500px;"">
  <p>How much control did you have over the ball?</p>
  </div>","55","html-slider-response","50","754277","0.0-7.0-2.7","6","1","2025-07-30 08:38:10","36c45c0696341be0efffe67d72a12abb","165.165.127.92","Mozilla/5.0 (Windows NT 10.0; Win64; x64) AppleWebKit/537.36 (KHTML, like Gecko) Chrome/138.0.0.0 Safari/537.36","WebKit","Chrome","138.0.0.0","Windows","10.0","https://app.prolific.com/","en-AU,en-ZA;q=0.9,en-GB;q=0.8,en-US;q=0.7,en;q=0.6,fr;q=0.5","66b61da8697a1059a78e7008","687a19d2168e237449fb8af4","6889d9d5d679758a90a275ef","0","66b61da8697a1059a78e7008","0","2025-07-30T08:50:47.411Z","","","","ControlQ","","","","","","","","","","","50","","","","","","","","","","","","","","","","","","","","","","","","","","",""
"3340","","<div style=""width:500px;"">
  <p>How would you describe your current emotional state?</p>
  </div>","55","html-slider-response","51","757619","0.0-7.0-3.7","6","1","2025-07-30 08:38:10","36c45c0696341be0efffe67d72a12abb","165.165.127.92","Mozilla/5.0 (Windows NT 10.0; Win64; x64) AppleWebKit/537.36 (KHTML, like Gecko) Chrome/138.0.0.0 Safari/537.36","WebKit","Chrome","138.0.0.0","Windows","10.0","https://app.prolific.com/","en-AU,en-ZA;q=0.9,en-GB;q=0.8,en-US;q=0.7,en;q=0.6,fr;q=0.5","66b61da8697a1059a78e7008","687a19d2168e237449fb8af4","6889d9d5d679758a90a275ef","0","66b61da8697a1059a78e7008","0","2025-07-30T08:50:50.753Z","","","","StressQ","","","","","","","","","","","50","","","","","","","","","","","","","","","","","","","","","","","","","","",""
"2649","","<div style=""width:500px;"">
  <p>What best describes how you currently feel?</p>
  </div>","80","html-slider-response","52","760271","0.0-7.0-4.7","6","1","2025-07-30 08:38:10","36c45c0696341be0efffe67d72a12abb","165.165.127.92","Mozilla/5.0 (Windows NT 10.0; Win64; x64) AppleWebKit/537.36 (KHTML, like Gecko) Chrome/138.0.0.0 Safari/537.36","WebKit","Chrome","138.0.0.0","Windows","10.0","https://app.prolific.com/","en-AU,en-ZA;q=0.9,en-GB;q=0.8,en-US;q=0.7,en;q=0.6,fr;q=0.5","66b61da8697a1059a78e7008","687a19d2168e237449fb8af4","6889d9d5d679758a90a275ef","0","66b61da8697a1059a78e7008","0","2025-07-30T08:50:53.406Z","","","","MotivationQ","","","","","","","","","","","50","","","","","","","","","","","","","","","","","","","","","","","","","","",""
"","","","","ctl-task-cpt","53","798133","0.0-7.0-0.8","6","1","2025-07-30 08:38:10","36c45c0696341be0efffe67d72a12abb","165.165.127.92","Mozilla/5.0 (Windows NT 10.0; Win64; x64) AppleWebKit/537.36 (KHTML, like Gecko) Chrome/138.0.0.0 Safari/537.36","WebKit","Chrome","138.0.0.0","Windows","10.0","https://app.prolific.com/","en-AU,en-ZA;q=0.9,en-GB;q=0.8,en-US;q=0.7,en;q=0.6,fr;q=0.5","66b61da8697a1059a78e7008","687a19d2168e237449fb8af4","6889d9d5d679758a90a275ef","0","66b61da8697a1059a78e7008","0","2025-07-30T08:51:31.267Z","","","","","","","","","","","","","","","","win-only","0","g1:NW,g2:SE","0.4","9","0","763772.2","9104.4","14115.5","34834.3","1","4","4","6","1","1","1","24","23","0.18181818181818182","1803.5","3000","2115","[""left"",""up""]","{""num_key_presses"":6,""num_perfect"":4,""num_errors"":0,""num_randdir"":2,""num_randdir_good_moves"":1,""num_whilered"":0,""num_whileblue"":0,""num_blue"":1,""num_good_moves"":5}","[295.22232142857143,298.12857142857143,1.1,295.22232142857143,298.12857142857143,103.9,295.22232142857143,298.12857142857143,206.9,295.22232142857143,298.12857142857143,310.1,295.22232142857143,298.12857142857143,416.4,295.22232142857143,298.12857142857143,519.2,295.22232142857143,298.12857142857143,623.3,295.22232142857143,298.12857142857143,725,295.22232142857143,298.12857142857143,859.2,248.22232142857143,268.12857142857143,960.8,156.22232142857143,221.12857142857143,1067.9,156.22232142857143,221.12857142857143,1181.5,156.22232142857143,221.12857142857143,1289,117.22232142857143,146.12857142857143,1389.4,104.22232142857143,105.12857142857143,1525.3,86.22232142857143,92.12857142857143,1628.1,58.222321428571426,75.12857142857143,1730.5,52.222321428571426,68.12857142857143,1838,52.222321428571426,68.12857142857143,1940.1,52.222321428571426,68.12857142857143,2046,19.222321428571426,93.12857142857143,2148.9,-59.777678571428574,148.12857142857143,2249.3,-72.77767857142857,153.12857142857143,2355,-72.77767857142857,153.12857142857143,2461.6,-72.77767857142857,153.12857142857143,2562.2,-72.77767857142857,153.12857142857143,2663.3,-72.77767857142857,153.12857142857143,2772,-72.77767857142857,153.12857142857143,2881.1,-72.77767857142857,153.12857142857143,2981.3,-72.77767857142857,153.12857142857143,3084.4,-72.77767857142857,153.12857142857143,3194.1,-72.77767857142857,153.12857142857143,3306.6,-72.77767857142857,153.12857142857143,3416.5,-72.77767857142857,153.12857142857143,3522.3,-72.77767857142857,153.12857142857143,3632.6,-72.77767857142857,153.12857142857143,3742.4,-72.77767857142857,153.12857142857143,3847.6,-72.77767857142857,153.12857142857143,3957,-72.77767857142857,153.12857142857143,4058.3,-72.77767857142857,153.12857142857143,4158.9,-72.77767857142857,153.12857142857143,4271.1,-72.77767857142857,153.12857142857143,4371.5,-72.77767857142857,153.12857142857143,4481.6,-72.77767857142857,153.12857142857143,4593.3,-72.77767857142857,153.12857142857143,4693.4,-72.77767857142857,153.12857142857143,4802,-72.77767857142857,153.12857142857143,4909.2]","[5870.3,5870.3,3337.5,2032.9,499.9,""smooth"",""left"",""left"",""good_move"",8376.8,2505.9,2076.5,5871,429.4,""smooth"",""up"",""up"",""good_move"",11778.6,3400.4,3000.1,8378.2,400.3,""oops"",""up"",""left"",""good_move"",14360.4,2580.4,1984.8,11780,595.6,""oops"",""up"",""right"",""bad_move"",17233.8,2872.8,2498.6,14361,374.2,""smooth"",""up"",""up"",""good_move"",20413.2,3178.9,2634.7,17234.3,544.2,""smooth"",""left"",""left"",""good_move""]"
"3007","","<div style=""width:500px;"">
  <p>What determined the result of this run?</p>
  </div>","93","html-slider-response","54","801143","0.0-7.0-1.8","6","1","2025-07-30 08:38:10","36c45c0696341be0efffe67d72a12abb","165.165.127.92","Mozilla/5.0 (Windows NT 10.0; Win64; x64) AppleWebKit/537.36 (KHTML, like Gecko) Chrome/138.0.0.0 Safari/537.36","WebKit","Chrome","138.0.0.0","Windows","10.0","https://app.prolific.com/","en-AU,en-ZA;q=0.9,en-GB;q=0.8,en-US;q=0.7,en;q=0.6,fr;q=0.5","66b61da8697a1059a78e7008","687a19d2168e237449fb8af4","6889d9d5d679758a90a275ef","0","66b61da8697a1059a78e7008","0","2025-07-30T08:51:34.278Z","","","","AttribQ","","","","","","","","","","","50","","","","","","","","","","","","","","","","","","","","","","","","","","",""
"3503","","<div style=""width:500px;"">
  <p>How much control did you have over the ball?</p>
  </div>","38","html-slider-response","55","804649","0.0-7.0-2.8","6","1","2025-07-30 08:38:10","36c45c0696341be0efffe67d72a12abb","165.165.127.92","Mozilla/5.0 (Windows NT 10.0; Win64; x64) AppleWebKit/537.36 (KHTML, like Gecko) Chrome/138.0.0.0 Safari/537.36","WebKit","Chrome","138.0.0.0","Windows","10.0","https://app.prolific.com/","en-AU,en-ZA;q=0.9,en-GB;q=0.8,en-US;q=0.7,en;q=0.6,fr;q=0.5","66b61da8697a1059a78e7008","687a19d2168e237449fb8af4","6889d9d5d679758a90a275ef","0","66b61da8697a1059a78e7008","0","2025-07-30T08:51:37.783Z","","","","ControlQ","","","","","","","","","","","50","","","","","","","","","","","","","","","","","","","","","","","","","","",""
"2611","","<div style=""width:500px;"">
  <p>How would you describe your current emotional state?</p>
  </div>","26","html-slider-response","56","807262","0.0-7.0-3.8","6","1","2025-07-30 08:38:10","36c45c0696341be0efffe67d72a12abb","165.165.127.92","Mozilla/5.0 (Windows NT 10.0; Win64; x64) AppleWebKit/537.36 (KHTML, like Gecko) Chrome/138.0.0.0 Safari/537.36","WebKit","Chrome","138.0.0.0","Windows","10.0","https://app.prolific.com/","en-AU,en-ZA;q=0.9,en-GB;q=0.8,en-US;q=0.7,en;q=0.6,fr;q=0.5","66b61da8697a1059a78e7008","687a19d2168e237449fb8af4","6889d9d5d679758a90a275ef","0","66b61da8697a1059a78e7008","0","2025-07-30T08:51:40.396Z","","","","StressQ","","","","","","","","","","","50","","","","","","","","","","","","","","","","","","","","","","","","","","",""
"2497","","<div style=""width:500px;"">
  <p>What best describes how you currently feel?</p>
  </div>","88","html-slider-response","57","809762","0.0-7.0-4.8","6","1","2025-07-30 08:38:10","36c45c0696341be0efffe67d72a12abb","165.165.127.92","Mozilla/5.0 (Windows NT 10.0; Win64; x64) AppleWebKit/537.36 (KHTML, like Gecko) Chrome/138.0.0.0 Safari/537.36","WebKit","Chrome","138.0.0.0","Windows","10.0","https://app.prolific.com/","en-AU,en-ZA;q=0.9,en-GB;q=0.8,en-US;q=0.7,en;q=0.6,fr;q=0.5","66b61da8697a1059a78e7008","687a19d2168e237449fb8af4","6889d9d5d679758a90a275ef","0","66b61da8697a1059a78e7008","0","2025-07-30T08:51:42.896Z","","","","MotivationQ","","","","","","","","","","","50","","","","","","","","","","","","","","","","","","","","","","","","","","",""
"","","","","ctl-task-cpt","58","857169","0.0-7.0-0.9","6","1","2025-07-30 08:38:10","36c45c0696341be0efffe67d72a12abb","165.165.127.92","Mozilla/5.0 (Windows NT 10.0; Win64; x64) AppleWebKit/537.36 (KHTML, like Gecko) Chrome/138.0.0.0 Safari/537.36","WebKit","Chrome","138.0.0.0","Windows","10.0","https://app.prolific.com/","en-AU,en-ZA;q=0.9,en-GB;q=0.8,en-US;q=0.7,en;q=0.6,fr;q=0.5","66b61da8697a1059a78e7008","687a19d2168e237449fb8af4","6889d9d5d679758a90a275ef","0","66b61da8697a1059a78e7008","0","2025-07-30T08:52:30.303Z","","","","","","","","","","","","","","","","win-only","3","g1:SW,g2:NE","0.5","10","0","813262.8","12425.7","17428.1","44369.6","1","4","8","6","2","8","8","32","24","0.24242424242424243","1129.6","3000","2055","[""up"",""right""]","{""num_key_presses"":6,""num_perfect"":3,""num_errors"":0,""num_randdir"":3,""num_randdir_good_moves"":3,""num_whilered"":0,""num_whileblue"":0,""num_blue"":3,""num_good_moves"":6}","[304.22232142857143,295.12857142857143,0.8,304.22232142857143,295.12857142857143,109.2,304.22232142857143,295.12857142857143,220.2,304.22232142857143,295.12857142857143,322.3,304.22232142857143,295.12857142857143,432.3,304.22232142857143,295.12857142857143,533.3,301.22232142857143,298.12857142857143,639,515.2223214285714,138.12857142857143,749.4,544.2223214285714,107.12857142857143,859.9,547.2223214285714,97.12857142857143,960.4,547.2223214285714,86.12857142857143,1065.3,547.2223214285714,84.12857142857143,1171.4,547.2223214285714,84.12857142857143,1273.5,547.2223214285714,84.12857142857143,1380.1,548.2223214285714,84.12857142857143,1480.2,559.2223214285714,87.12857142857143,1589.1,681.2223214285714,98.12857142857143,1698.7,781.2223214285714,136.12857142857143,1811,787.2223214285714,142.12857142857143,1915.6,788.2223214285714,143.12857142857143,2018.9,788.2223214285714,143.12857142857143,2130.5,788.2223214285714,143.12857142857143,2231.5,788.2223214285714,143.12857142857143,2333.6,788.2223214285714,143.12857142857143,2438.6,788.2223214285714,143.12857142857143,2589,788.2223214285714,143.12857142857143,2691.6,788.2223214285714,143.12857142857143,2794.2,788.2223214285714,143.12857142857143,2898.2,788.2223214285714,143.12857142857143,3033,788.2223214285714,143.12857142857143,3140.6,788.2223214285714,143.12857142857143,3242.9,788.2223214285714,143.12857142857143,3373.1,788.2223214285714,143.12857142857143,3497.3,788.2223214285714,143.12857142857143,3598.2,788.2223214285714,143.12857142857143,3701.3,788.2223214285714,143.12857142857143,3805.8,788.2223214285714,143.12857142857143,3910.6,788.2223214285714,143.12857142857143,4034.6,788.2223214285714,143.12857142857143,4134.7,788.2223214285714,143.12857142857143,4234.8,788.2223214285714,143.12857142857143,4343.4,788.2223214285714,143.12857142857143,4453.6,788.2223214285714,143.12857142857143,4558.8,788.2223214285714,143.12857142857143,4663.7,788.2223214285714,143.12857142857143,4770.9,788.2223214285714,143.12857142857143,4895.7,788.2223214285714,143.12857142857143,4997.1]","[1455.9,1455.9,1000,0,455.9,""oops"",""right"",""up"",""good_move"",8164,6706.2,3050.9,4740.1,373.1,""smooth"",""up"",""up"",""good_move"",17844.8,9679.8,1811,15597.8,436,""oops"",""right"",""up"",""good_move"",20358,2512.5,1258.4,17845.5,1254.1,""oops"",""right"",""right"",""good_move"",23732.4,3372.9,2972.9,20359.5,400,""smooth"",""right"",""right"",""good_move"",26627.5,2894.2,2430.8,23733.3,463.4,""smooth"",""right"",""right"",""good_move""]"
"2776","","<div style=""width:500px;"">
  <p>What determined the result of this run?</p>
  </div>","92","html-slider-response","59","859949","0.0-7.0-1.9","6","1","2025-07-30 08:38:10","36c45c0696341be0efffe67d72a12abb","165.165.127.92","Mozilla/5.0 (Windows NT 10.0; Win64; x64) AppleWebKit/537.36 (KHTML, like Gecko) Chrome/138.0.0.0 Safari/537.36","WebKit","Chrome","138.0.0.0","Windows","10.0","https://app.prolific.com/","en-AU,en-ZA;q=0.9,en-GB;q=0.8,en-US;q=0.7,en;q=0.6,fr;q=0.5","66b61da8697a1059a78e7008","687a19d2168e237449fb8af4","6889d9d5d679758a90a275ef","0","66b61da8697a1059a78e7008","0","2025-07-30T08:52:33.083Z","","","","AttribQ","","","","","","","","","","","50","","","","","","","","","","","","","","","","","","","","","","","","","","",""
"2332","","<div style=""width:500px;"">
  <p>How much control did you have over the ball?</p>
  </div>","43","html-slider-response","60","862284","0.0-7.0-2.9","6","1","2025-07-30 08:38:10","36c45c0696341be0efffe67d72a12abb","165.165.127.92","Mozilla/5.0 (Windows NT 10.0; Win64; x64) AppleWebKit/537.36 (KHTML, like Gecko) Chrome/138.0.0.0 Safari/537.36","WebKit","Chrome","138.0.0.0","Windows","10.0","https://app.prolific.com/","en-AU,en-ZA;q=0.9,en-GB;q=0.8,en-US;q=0.7,en;q=0.6,fr;q=0.5","66b61da8697a1059a78e7008","687a19d2168e237449fb8af4","6889d9d5d679758a90a275ef","0","66b61da8697a1059a78e7008","0","2025-07-30T08:52:35.418Z","","","","ControlQ","","","","","","","","","","","50","","","","","","","","","","","","","","","","","","","","","","","","","","",""
"2394","","<div style=""width:500px;"">
  <p>How would you describe your current emotional state?</p>
  </div>","21","html-slider-response","61","864681","0.0-7.0-3.9","6","1","2025-07-30 08:38:10","36c45c0696341be0efffe67d72a12abb","165.165.127.92","Mozilla/5.0 (Windows NT 10.0; Win64; x64) AppleWebKit/537.36 (KHTML, like Gecko) Chrome/138.0.0.0 Safari/537.36","WebKit","Chrome","138.0.0.0","Windows","10.0","https://app.prolific.com/","en-AU,en-ZA;q=0.9,en-GB;q=0.8,en-US;q=0.7,en;q=0.6,fr;q=0.5","66b61da8697a1059a78e7008","687a19d2168e237449fb8af4","6889d9d5d679758a90a275ef","0","66b61da8697a1059a78e7008","0","2025-07-30T08:52:37.815Z","","","","StressQ","","","","","","","","","","","50","","","","","","","","","","","","","","","","","","","","","","","","","","",""
"2701","","<div style=""width:500px;"">
  <p>What best describes how you currently feel?</p>
  </div>","91","html-slider-response","62","867384","0.0-7.0-4.9","6","1","2025-07-30 08:38:10","36c45c0696341be0efffe67d72a12abb","165.165.127.92","Mozilla/5.0 (Windows NT 10.0; Win64; x64) AppleWebKit/537.36 (KHTML, like Gecko) Chrome/138.0.0.0 Safari/537.36","WebKit","Chrome","138.0.0.0","Windows","10.0","https://app.prolific.com/","en-AU,en-ZA;q=0.9,en-GB;q=0.8,en-US;q=0.7,en;q=0.6,fr;q=0.5","66b61da8697a1059a78e7008","687a19d2168e237449fb8af4","6889d9d5d679758a90a275ef","0","66b61da8697a1059a78e7008","0","2025-07-30T08:52:40.519Z","","","","MotivationQ","","","","","","","","","","","50","","","","","","","","","","","","","","","","","","","","","","","","","","",""
"","","","","ctl-task-cpt","63","904275","0.0-7.0-0.10","6","1","2025-07-30 08:38:10","36c45c0696341be0efffe67d72a12abb","165.165.127.92","Mozilla/5.0 (Windows NT 10.0; Win64; x64) AppleWebKit/537.36 (KHTML, like Gecko) Chrome/138.0.0.0 Safari/537.36","WebKit","Chrome","138.0.0.0","Windows","10.0","https://app.prolific.com/","en-AU,en-ZA;q=0.9,en-GB;q=0.8,en-US;q=0.7,en;q=0.6,fr;q=0.5","66b61da8697a1059a78e7008","687a19d2168e237449fb8af4","6889d9d5d679758a90a275ef","0","66b61da8697a1059a78e7008","0","2025-07-30T08:53:17.409Z","","","","","","","","","","","","","","","","win-only","0","g1:NW,g2:SE","0.6","11","0","870885.6","1776","6794.9","33852.3","1","4","4","6","1","1","1","33","32","0.25","1572.5","3000","2705","[""left"",""up""]","{""num_key_presses"":4,""num_perfect"":3,""num_errors"":0,""num_randdir"":1,""num_randdir_good_moves"":1,""num_whilered"":0,""num_whileblue"":0,""num_blue"":3,""num_good_moves"":4}","[293.22232142857143,299.12857142857143,0.9,293.22232142857143,299.12857142857143,104.8,293.22232142857143,299.12857142857143,209.5,293.22232142857143,299.12857142857143,334.3,293.22232142857143,299.12857142857143,450.6,297.22232142857143,307.12857142857143,555.2,208.22232142857143,256.12857142857143,657.1,186.22232142857143,228.12857142857143,765.3,180.22232142857143,206.12857142857143,871.1,175.22232142857143,189.12857142857143,976.1,170.22232142857143,187.12857142857143,1096,170.22232142857143,187.12857142857143,1214,85.22232142857143,77.12857142857143,1322.7,74.22232142857143,67.12857142857143,1426.4,72.22232142857143,65.12857142857143,1533.2,71.22232142857143,65.12857142857143,1651.3,71.22232142857143,65.12857142857143,1753.9,71.22232142857143,65.12857142857143,1855.5,61.222321428571426,69.12857142857143,1966.4,-2.7776785714285737,108.12857142857143,2074.9,-71.77767857142857,144.12857142857143,2184.6,-72.77767857142857,146.12857142857143,2287,-72.77767857142857,146.12857142857143,2387.2,-72.77767857142857,146.12857142857143,2507.1,-72.77767857142857,146.12857142857143,2626.4,-72.77767857142857,146.12857142857143,2726.8,-72.77767857142857,146.12857142857143,2827.9,-72.77767857142857,146.12857142857143,2945.7,-72.77767857142857,146.12857142857143,3049.7,-72.77767857142857,146.12857142857143,3158.2,-72.77767857142857,146.12857142857143,3267.5,-72.77767857142857,146.12857142857143,3386.1,-72.77767857142857,146.12857142857143,3486.9,-72.77767857142857,146.12857142857143,3605.1,-72.77767857142857,146.12857142857143,3706.5,-72.77767857142857,146.12857142857143,3809.6,-72.77767857142857,146.12857142857143,3912.1,-72.77767857142857,146.12857142857143,4022.7,-72.77767857142857,146.12857142857143,4127.4,-72.77767857142857,146.12857142857143,4247.1,-72.77767857142857,146.12857142857143,4368.5,-72.77767857142857,146.12857142857143,4473.7,-72.77767857142857,146.12857142857143,4574.1,-72.77767857142857,146.12857142857143,4674.6,-72.77767857142857,146.12857142857143,4774.9,-72.77767857142857,146.12857142857143,4891.8,-72.77767857142857,146.12857142857143,4995.4]","[7764.9,7764.9,2135.4,5260.4,369.1,""smooth"",""left"",""left"",""good_move"",12188.9,4422,2385.1,7766.9,2036.9,""smooth"",""up"",""up"",""good_move"",21035,8844.5,2405.5,18173.4,456.1,""oops"",""up"",""up"",""good_move"",26469.9,5434.6,2602.4,21035.3,2832.2,""smooth"",""left"",""left"",""good_move""]"
"2527","","<div style=""width:500px;"">
  <p>What determined the result of this run?</p>
  </div>","85","html-slider-response","64","906805","0.0-7.0-1.10","6","1","2025-07-30 08:38:10","36c45c0696341be0efffe67d72a12abb","165.165.127.92","Mozilla/5.0 (Windows NT 10.0; Win64; x64) AppleWebKit/537.36 (KHTML, like Gecko) Chrome/138.0.0.0 Safari/537.36","WebKit","Chrome","138.0.0.0","Windows","10.0","https://app.prolific.com/","en-AU,en-ZA;q=0.9,en-GB;q=0.8,en-US;q=0.7,en;q=0.6,fr;q=0.5","66b61da8697a1059a78e7008","687a19d2168e237449fb8af4","6889d9d5d679758a90a275ef","0","66b61da8697a1059a78e7008","0","2025-07-30T08:53:19.939Z","","","","AttribQ","","","","","","","","","","","50","","","","","","","","","","","","","","","","","","","","","","","","","","",""
"2584","","<div style=""width:500px;"">
  <p>How much control did you have over the ball?</p>
  </div>","57","html-slider-response","65","909392","0.0-7.0-2.10","6","1","2025-07-30 08:38:10","36c45c0696341be0efffe67d72a12abb","165.165.127.92","Mozilla/5.0 (Windows NT 10.0; Win64; x64) AppleWebKit/537.36 (KHTML, like Gecko) Chrome/138.0.0.0 Safari/537.36","WebKit","Chrome","138.0.0.0","Windows","10.0","https://app.prolific.com/","en-AU,en-ZA;q=0.9,en-GB;q=0.8,en-US;q=0.7,en;q=0.6,fr;q=0.5","66b61da8697a1059a78e7008","687a19d2168e237449fb8af4","6889d9d5d679758a90a275ef","0","66b61da8697a1059a78e7008","0","2025-07-30T08:53:22.526Z","","","","ControlQ","","","","","","","","","","","50","","","","","","","","","","","","","","","","","","","","","","","","","","",""
"2104","","<div style=""width:500px;"">
  <p>How would you describe your current emotional state?</p>
  </div>","21","html-slider-response","66","911500","0.0-7.0-3.10","6","1","2025-07-30 08:38:10","36c45c0696341be0efffe67d72a12abb","165.165.127.92","Mozilla/5.0 (Windows NT 10.0; Win64; x64) AppleWebKit/537.36 (KHTML, like Gecko) Chrome/138.0.0.0 Safari/537.36","WebKit","Chrome","138.0.0.0","Windows","10.0","https://app.prolific.com/","en-AU,en-ZA;q=0.9,en-GB;q=0.8,en-US;q=0.7,en;q=0.6,fr;q=0.5","66b61da8697a1059a78e7008","687a19d2168e237449fb8af4","6889d9d5d679758a90a275ef","0","66b61da8697a1059a78e7008","0","2025-07-30T08:53:24.634Z","","","","StressQ","","","","","","","","","","","50","","","","","","","","","","","","","","","","","","","","","","","","","","",""
"2186","","<div style=""width:500px;"">
  <p>What best describes how you currently feel?</p>
  </div>","90","html-slider-response","67","913691","0.0-7.0-4.10","6","1","2025-07-30 08:38:10","36c45c0696341be0efffe67d72a12abb","165.165.127.92","Mozilla/5.0 (Windows NT 10.0; Win64; x64) AppleWebKit/537.36 (KHTML, like Gecko) Chrome/138.0.0.0 Safari/537.36","WebKit","Chrome","138.0.0.0","Windows","10.0","https://app.prolific.com/","en-AU,en-ZA;q=0.9,en-GB;q=0.8,en-US;q=0.7,en;q=0.6,fr;q=0.5","66b61da8697a1059a78e7008","687a19d2168e237449fb8af4","6889d9d5d679758a90a275ef","0","66b61da8697a1059a78e7008","0","2025-07-30T08:53:26.825Z","","","","MotivationQ","","","","","","","","","","","50","","","","","","","","","","","","","","","","","","","","","","","","","","",""
"","","","","ctl-task-cpt","68","987579","0.0-7.0-0.11","6","1","2025-07-30 08:38:10","36c45c0696341be0efffe67d72a12abb","165.165.127.92","Mozilla/5.0 (Windows NT 10.0; Win64; x64) AppleWebKit/537.36 (KHTML, like Gecko) Chrome/138.0.0.0 Safari/537.36","WebKit","Chrome","138.0.0.0","Windows","10.0","https://app.prolific.com/","en-AU,en-ZA;q=0.9,en-GB;q=0.8,en-US;q=0.7,en;q=0.6,fr;q=0.5","66b61da8697a1059a78e7008","687a19d2168e237449fb8af4","6889d9d5d679758a90a275ef","0","66b61da8697a1059a78e7008","0","2025-07-30T08:54:40.713Z","","","","","","","","","","","","","","","","win-only","2","g1:SE,g2:NW","0.7","12","0","917192.1","1579.8","6600.8","70822.1","1","4","8","6","2","8","8","41","33","0.3106060606060606","1289.8","3000","2625","[""left"",""up""]","{""num_key_presses"":8,""num_perfect"":6,""num_errors"":0,""num_randdir"":2,""num_randdir_good_moves"":1,""num_whilered"":0,""num_whileblue"":0,""num_blue"":2,""num_good_moves"":7}","[299.22232142857143,294.12857142857143,0.2,299.22232142857143,294.12857142857143,110.3,299.22232142857143,294.12857142857143,216,299.22232142857143,294.12857142857143,318.9,299.22232142857143,294.12857142857143,425.9,295.22232142857143,294.12857142857143,528.8,174.22232142857143,233.12857142857143,637.4,117.22232142857143,157.12857142857143,750.7,103.22232142857143,136.12857142857143,858,84.22232142857143,106.12857142857143,968.8,73.22232142857143,78.12857142857143,1080,62.222321428571426,59.128571428571426,1190.1,58.222321428571426,54.128571428571426,1311.6,58.222321428571426,54.128571428571426,1421.7,58.222321428571426,54.128571428571426,1531.4,58.222321428571426,54.128571428571426,1637.7,35.222321428571426,56.128571428571426,1744,-103.77767857142857,114.12857142857143,1854.6,-133.77767857142857,145.12857142857143,1968.8,-161.77767857142857,171.12857142857143,2080.1,-161.77767857142857,171.12857142857143,2192,-161.77767857142857,171.12857142857143,2293.7,-161.77767857142857,171.12857142857143,2401.1,-161.77767857142857,171.12857142857143,2504.3,-161.77767857142857,171.12857142857143,2612.4,-161.77767857142857,171.12857142857143,2715.3,-161.77767857142857,171.12857142857143,2818.3,-161.77767857142857,171.12857142857143,2919.9,-161.77767857142857,171.12857142857143,3022.8,-161.77767857142857,171.12857142857143,3132,-161.77767857142857,171.12857142857143,3234.8,-161.77767857142857,171.12857142857143,3338.4,-161.77767857142857,171.12857142857143,3442.9,-161.77767857142857,171.12857142857143,3543,-161.77767857142857,171.12857142857143,3680.2,-161.77767857142857,171.12857142857143,3782.3,-161.77767857142857,171.12857142857143,3886.2,-161.77767857142857,171.12857142857143,3989.1,-161.77767857142857,171.12857142857143,4125.4,-161.77767857142857,171.12857142857143,4237.5,-161.77767857142857,171.12857142857143,4374,-161.77767857142857,171.12857142857143,4475.8,-161.77767857142857,171.12857142857143,4579,-161.77767857142857,171.12857142857143,4710.4,-161.77767857142857,171.12857142857143,4812.9,-161.77767857142857,171.12857142857143,4919.3]","[1491.1,1491.1,1000,0,491.1,""smooth"",""left"",""left"",""good_move"",7785.6,6294.1,2538.9,1491.5,3755.2,""smooth"",""left"",""left"",""good_move"",14311.9,6525.9,2758.1,7786,3767.8,""oops"",""up"",""left"",""good_move"",23492.9,9180.4,1820.7,14312.5,7359.7,""smooth"",""up"",""up"",""good_move"",40706.1,17212.5,2796.8,37402.9,506.4,""oops"",""up"",""down"",""bad_move"",43998.2,3291.5,2625.9,40706.7,665.6,""smooth"",""up"",""up"",""good_move"",53528.3,9529.8,3168.5,43998.5,6361.3,""smooth"",""up"",""up"",""good_move"",63389.2,9860.4,2199.8,53528.9,7660.5,""smooth"",""up"",""up"",""good_move""]"
"3009","","<div style=""width:500px;"">
  <p>What determined the result of this run?</p>
  </div>","96","html-slider-response","69","990594","0.0-7.0-1.11","6","1","2025-07-30 08:38:10","36c45c0696341be0efffe67d72a12abb","165.165.127.92","Mozilla/5.0 (Windows NT 10.0; Win64; x64) AppleWebKit/537.36 (KHTML, like Gecko) Chrome/138.0.0.0 Safari/537.36","WebKit","Chrome","138.0.0.0","Windows","10.0","https://app.prolific.com/","en-AU,en-ZA;q=0.9,en-GB;q=0.8,en-US;q=0.7,en;q=0.6,fr;q=0.5","66b61da8697a1059a78e7008","687a19d2168e237449fb8af4","6889d9d5d679758a90a275ef","0","66b61da8697a1059a78e7008","0","2025-07-30T08:54:43.728Z","","","","AttribQ","","","","","","","","","","","50","","","","","","","","","","","","","","","","","","","","","","","","","","",""
"2133","","<div style=""width:500px;"">
  <p>How much control did you have over the ball?</p>
  </div>","38","html-slider-response","70","992732","0.0-7.0-2.11","6","1","2025-07-30 08:38:10","36c45c0696341be0efffe67d72a12abb","165.165.127.92","Mozilla/5.0 (Windows NT 10.0; Win64; x64) AppleWebKit/537.36 (KHTML, like Gecko) Chrome/138.0.0.0 Safari/537.36","WebKit","Chrome","138.0.0.0","Windows","10.0","https://app.prolific.com/","en-AU,en-ZA;q=0.9,en-GB;q=0.8,en-US;q=0.7,en;q=0.6,fr;q=0.5","66b61da8697a1059a78e7008","687a19d2168e237449fb8af4","6889d9d5d679758a90a275ef","0","66b61da8697a1059a78e7008","0","2025-07-30T08:54:45.866Z","","","","ControlQ","","","","","","","","","","","50","","","","","","","","","","","","","","","","","","","","","","","","","","",""
"2749","","<div style=""width:500px;"">
  <p>How would you describe your current emotional state?</p>
  </div>","11","html-slider-response","71","995486","0.0-7.0-3.11","6","1","2025-07-30 08:38:10","36c45c0696341be0efffe67d72a12abb","165.165.127.92","Mozilla/5.0 (Windows NT 10.0; Win64; x64) AppleWebKit/537.36 (KHTML, like Gecko) Chrome/138.0.0.0 Safari/537.36","WebKit","Chrome","138.0.0.0","Windows","10.0","https://app.prolific.com/","en-AU,en-ZA;q=0.9,en-GB;q=0.8,en-US;q=0.7,en;q=0.6,fr;q=0.5","66b61da8697a1059a78e7008","687a19d2168e237449fb8af4","6889d9d5d679758a90a275ef","0","66b61da8697a1059a78e7008","0","2025-07-30T08:54:48.620Z","","","","StressQ","","","","","","","","","","","50","","","","","","","","","","","","","","","","","","","","","","","","","","",""
"2584","","<div style=""width:500px;"">
  <p>What best describes how you currently feel?</p>
  </div>","85","html-slider-response","72","998077","0.0-7.0-4.11","6","1","2025-07-30 08:38:10","36c45c0696341be0efffe67d72a12abb","165.165.127.92","Mozilla/5.0 (Windows NT 10.0; Win64; x64) AppleWebKit/537.36 (KHTML, like Gecko) Chrome/138.0.0.0 Safari/537.36","WebKit","Chrome","138.0.0.0","Windows","10.0","https://app.prolific.com/","en-AU,en-ZA;q=0.9,en-GB;q=0.8,en-US;q=0.7,en;q=0.6,fr;q=0.5","66b61da8697a1059a78e7008","687a19d2168e237449fb8af4","6889d9d5d679758a90a275ef","0","66b61da8697a1059a78e7008","0","2025-07-30T08:54:51.211Z","","","","MotivationQ","","","","","","","","","","","50","","","","","","","","","","","","","","","","","","","","","","","","","","",""
"","","","","ctl-task-cpt","73","1023846","0.0-7.0-0.12","6","1","2025-07-30 08:38:10","36c45c0696341be0efffe67d72a12abb","165.165.127.92","Mozilla/5.0 (Windows NT 10.0; Win64; x64) AppleWebKit/537.36 (KHTML, like Gecko) Chrome/138.0.0.0 Safari/537.36","WebKit","Chrome","138.0.0.0","Windows","10.0","https://app.prolific.com/","en-AU,en-ZA;q=0.9,en-GB;q=0.8,en-US;q=0.7,en;q=0.6,fr;q=0.5","66b61da8697a1059a78e7008","687a19d2168e237449fb8af4","6889d9d5d679758a90a275ef","0","66b61da8697a1059a78e7008","0","2025-07-30T08:55:16.980Z","","","","","","","","","","","","","","","","win-only","0","g1:NW,g2:SE","0.8","13","0","1001580","1542.4","6595.2","22740.4","1","4","4","6","1","1","1","42","41","0.3181818181818182","1503.2","3000","2545","[""left"",""up""]","{""num_key_presses"":4,""num_perfect"":3,""num_errors"":0,""num_randdir"":1,""num_randdir_good_moves"":1,""num_whilered"":0,""num_whileblue"":0,""num_blue"":0,""num_good_moves"":4}","[292.22232142857143,294.12857142857143,0.3,292.22232142857143,294.12857142857143,144.3,292.22232142857143,294.12857142857143,267.5,292.22232142857143,294.12857142857143,389.3,292.22232142857143,294.12857142857143,510.3,420.22232142857143,419.12857142857143,644,485.22232142857143,536.1285714285714,771,338.22232142857143,374.12857142857143,896.6,144.22232142857143,130.12857142857143,1018.9,135.22232142857143,102.12857142857143,1145.5,129.22232142857143,79.12857142857143,1272.1,85.22232142857143,57.128571428571426,1399.5,64.22232142857143,51.128571428571426,1535.1,64.22232142857143,51.128571428571426,1658.4,64.22232142857143,51.128571428571426,1777.3,-96.77767857142857,104.12857142857143,1909.8,-219.77767857142857,131.12857142857143,2030.3,-229.77767857142857,134.12857142857143,2165.9,-229.77767857142857,134.12857142857143,2284.9,-229.77767857142857,134.12857142857143,2416.9,-229.77767857142857,134.12857142857143,2542.1,-229.77767857142857,134.12857142857143,2663.5,-229.77767857142857,134.12857142857143,2786.6,-229.77767857142857,134.12857142857143,2904.2,-229.77767857142857,134.12857142857143,3031.5,-229.77767857142857,134.12857142857143,3154.6,-229.77767857142857,134.12857142857143,3277,-229.77767857142857,134.12857142857143,3423.9,-229.77767857142857,134.12857142857143,3553,-229.77767857142857,134.12857142857143,3682.1,-229.77767857142857,134.12857142857143,3801,-229.77767857142857,134.12857142857143,3920.8,-229.77767857142857,134.12857142857143,4039.1,-229.77767857142857,134.12857142857143,4164.3,-229.77767857142857,134.12857142857143,4280.6,-229.77767857142857,134.12857142857143,4401.2,-229.77767857142857,134.12857142857143,4519.3,-229.77767857142857,134.12857142857143,4641.5,-229.77767857142857,134.12857142857143,4760.1,-229.77767857142857,134.12857142857143,4878.5,-229.77767857142857,134.12857142857143,4999.4]","[1591.4,1591.4,1000,0,591.4,""oops"",""up"",""left"",""good_move"",9311.4,7719,2963.8,1592.5,4755.2,""smooth"",""up"",""up"",""good_move"",12676.8,3365,2741,9311.9,623.9,""smooth"",""up"",""up"",""good_move"",15817.2,3139.6,2751.3,12677.6,388.3,""smooth"",""left"",""left"",""good_move""]"
"112909","","<div style=""width:500px;"">
  <p>What determined the result of this run?</p>
  </div>","89","html-slider-response","74","1136758","0.0-7.0-1.12","6","1","2025-07-30 08:38:10","36c45c0696341be0efffe67d72a12abb","165.165.127.92","Mozilla/5.0 (Windows NT 10.0; Win64; x64) AppleWebKit/537.36 (KHTML, like Gecko) Chrome/138.0.0.0 Safari/537.36","WebKit","Chrome","138.0.0.0","Windows","10.0","https://app.prolific.com/","en-AU,en-ZA;q=0.9,en-GB;q=0.8,en-US;q=0.7,en;q=0.6,fr;q=0.5","66b61da8697a1059a78e7008","687a19d2168e237449fb8af4","6889d9d5d679758a90a275ef","0","66b61da8697a1059a78e7008","0","2025-07-30T08:57:09.892Z","","","","AttribQ","","","","","","","","","","","50","","","","","","","","","","","","","","","","","","","","","","","","","","",""
"4537","","<div style=""width:500px;"">
  <p>How much control did you have over the ball?</p>
  </div>","55","html-slider-response","75","1141298","0.0-7.0-2.12","6","1","2025-07-30 08:38:10","36c45c0696341be0efffe67d72a12abb","165.165.127.92","Mozilla/5.0 (Windows NT 10.0; Win64; x64) AppleWebKit/537.36 (KHTML, like Gecko) Chrome/138.0.0.0 Safari/537.36","WebKit","Chrome","138.0.0.0","Windows","10.0","https://app.prolific.com/","en-AU,en-ZA;q=0.9,en-GB;q=0.8,en-US;q=0.7,en;q=0.6,fr;q=0.5","66b61da8697a1059a78e7008","687a19d2168e237449fb8af4","6889d9d5d679758a90a275ef","0","66b61da8697a1059a78e7008","0","2025-07-30T08:57:14.432Z","","","","ControlQ","","","","","","","","","","","50","","","","","","","","","","","","","","","","","","","","","","","","","","",""
"3475","","<div style=""width:500px;"">
  <p>How would you describe your current emotional state?</p>
