"rt","response_timestamp","stimulus","response","trial_type","trial_index","time_elapsed","internal_node_id","run_id","condition","recorded_at","source_code_version","ip","user_agent","device","browser","browser_version","platform","platform_version","referer","accept_language","PROLIFIC_PID","STUDY_ID","SESSION_ID","BATCH","prolific_id","batch","realtime","success","question_order","question_id","eventType","responses","item_order","radio_event_ids","radio_event_times","key_event_times","mouse_event_times","straightlining","zigzagging","honeypot","view_history","slider_start","which_type","canvas_config","goals_layout","control_level","trial_number","tutorial_trial_number","trial_start_time","phase1_start_time","phase2_start_time","phase3_start_time","goal_1_value","goal_1_distance","goal_2_value","goal_2_distance","goal_selected","outcome","outcome_total","participant_final_score","participant_initial_score","participant_final_score_prop","goal_choice_rt","allocated_time","allocated_time_remaining","goal_direction","counts","mouse_movements","key_presses"
"1791","1754476869633","<p style='font-size:40px;line-height:1.25'><strong>Welcome to the experiment!</strong></p><p style='font-size:1.1em;line-height:1.25'>Thank you for participanting in our experiment again! You will be asked to play the Dysfunctional Ball Game again. We will briefly recap the rules before we start.</p><p style='font-size:1.1em;line-height:1.25'>Press <strong>Next</strong> to continue.</p>","0","custom-html-button-response","0","1822","0.0-0.0","179","1","2025-08-06 10:39:02","36c45c0696341be0efffe67d72a12abb","41.13.13.183","Mozilla/5.0 (Android 13; Mobile; rv:141.0) Gecko/141.0 Firefox/141.0","","Firefox","141.0","AndroidOS","13","https://app.prolific.com/","en-ZA,en-US;q=0.5","66bb2110c5672f09961feed2","687a1a965b9f5b85a264363e","68932f7b9dd286cd0e578751","1","66bb2110c5672f09961feed2","1","2025-08-06T10:41:09.636Z","","","","","","","","","","","","","","","","","","","","","","","","","","","","","","","","","","","","","","","","","",""
"37569","","","","fullscreen","1","40457","0.0-1.0","179","1","2025-08-06 10:39:02","36c45c0696341be0efffe67d72a12abb","41.13.13.183","Mozilla/5.0 (Android 13; Mobile; rv:141.0) Gecko/141.0 Firefox/141.0","","Firefox","141.0","AndroidOS","13","https://app.prolific.com/","en-ZA,en-US;q=0.5","66bb2110c5672f09961feed2","687a1a965b9f5b85a264363e","68932f7b9dd286cd0e578751","1","66bb2110c5672f09961feed2","1","","true","","","","","","","","","","","","","","","","","","","","","","","","","","","","","","","","","","","","","","","","",""
"19850","1754476928134"," <p style='font-size:1.1em;line-height:1.25'>Thank you for closing all other tabs.</p><p style='font-size:1.1em;line-height:1.25'>We will now invite you to fill in some questionnaires, before starting the game.<br>This will take about 5 minutes.<br></p><p style='font-size:1.1em;line-height:1.25'>Press the <strong>Next</strong> button to continue.</p>","0","custom-html-button-response","2","60321","0.0-2.0","179","1","2025-08-06 10:39:02","36c45c0696341be0efffe67d72a12abb","41.13.13.183","Mozilla/5.0 (Android 13; Mobile; rv:141.0) Gecko/141.0 Firefox/141.0","","Firefox","141.0","AndroidOS","13","https://app.prolific.com/","en-ZA,en-US;q=0.5","66bb2110c5672f09961feed2","687a1a965b9f5b85a264363e","68932f7b9dd286cd0e578751","1","66bb2110c5672f09961feed2","1","2025-08-06T10:42:08.135Z","","","","","","","","","","","","","","","","","","","","","","","","","","","","","","","","","","","","","","","","","",""
"5021","","","{""assigned_sex"":""female""}","survey-multi-choice","3","65352","0.0-3.0-0.0","179","1","2025-08-06 10:39:02","36c45c0696341be0efffe67d72a12abb","41.13.13.183","Mozilla/5.0 (Android 13; Mobile; rv:141.0) Gecko/141.0 Firefox/141.0","","Firefox","141.0","AndroidOS","13","https://app.prolific.com/","en-ZA,en-US;q=0.5","66bb2110c5672f09961feed2","687a1a965b9f5b85a264363e","68932f7b9dd286cd0e578751","1","66bb2110c5672f09961feed2","1","","","[0]","0","demographics","","","","","","","","","","","","","","","","","","","","","","","","","","","","","","","","","","","","","",""
"3110","1754476936280","<p style='font-size:1.1em;line-height:1.25'>In the following, we will perform a baseline assessment. This means that we will ask you a few questions relating to your experiences over the past month.<br></p><p style='font-size:1.1em;line-height:1.25'>Press the <strong>Next</strong> button to continue.</p>","0","custom-html-button-response","4","68466","0.0-4.0-0.0","179","1","2025-08-06 10:39:02","36c45c0696341be0efffe67d72a12abb","41.13.13.183","Mozilla/5.0 (Android 13; Mobile; rv:141.0) Gecko/141.0 Firefox/141.0","","Firefox","141.0","AndroidOS","13","https://app.prolific.com/","en-ZA,en-US;q=0.5","66bb2110c5672f09961feed2","687a1a965b9f5b85a264363e","68932f7b9dd286cd0e578751","1","66bb2110c5672f09961feed2","1","2025-08-06T10:42:16.280Z","","","","","","","","","","","","","","","","","","","","","","","","","","","","","","","","","","","","","","","","","",""
"87956","","","","survey-template","5","156454","0.0-4.0-1.0","179","1","2025-08-06 10:39:02","36c45c0696341be0efffe67d72a12abb","41.13.13.183","Mozilla/5.0 (Android 13; Mobile; rv:141.0) Gecko/141.0 Firefox/141.0","","Firefox","141.0","AndroidOS","13","https://app.prolific.com/","en-ZA,en-US;q=0.5","66bb2110c5672f09961feed2","687a1a965b9f5b85a264363e","68932f7b9dd286cd0e578751","1","66bb2110c5672f09961feed2","1","2025-08-06T10:43:44.268Z","","","","pss","{""Q01"":""3"",""Q02"":""2"",""Q03"":""2"",""Q04"":""1"",""Q05"":""1"",""Q06"":""1"",""Q07"":""2"",""Q08"":""1"",""Q09"":""3"",""Q10"":""3""}","[0,1,2,3,4,5,6,7,8,9]","[""Q02"",""Q03"",""Q04"",""Q05"",""Q06"",""Q07"",""Q07"",""Q08"",""Q08"",""Q09"",""Q10"",""Q01""]","[24855,29291,33837,45073,54140,59708,61074,67276,67907,73843,79125,87013]","[]","[0,22687,24855,29291,33837,45073,54140,59708,61074,67276,67907,73843,79125,80230,81634,87013,87954]","0.6","0.4444444444444444","0","","","","","","","","","","","","","","","","","","","","","","","","","","","","",""
"5085","1754477029366","<p style='font-size:1.1em;line-height:1.25'>Thank you for your answers! Now we will ask you a few more questions relating to your feelings in the last 24 hours.<br></p><p style='font-size:1.1em;line-height:1.25'>Press the <strong>Next</strong> button to continue.</p>","0","custom-html-button-response","6","161553","0.0-4.0-2.0","179","1","2025-08-06 10:39:02","36c45c0696341be0efffe67d72a12abb","41.13.13.183","Mozilla/5.0 (Android 13; Mobile; rv:141.0) Gecko/141.0 Firefox/141.0","","Firefox","141.0","AndroidOS","13","https://app.prolific.com/","en-ZA,en-US;q=0.5","66bb2110c5672f09961feed2","687a1a965b9f5b85a264363e","68932f7b9dd286cd0e578751","1","66bb2110c5672f09961feed2","1","2025-08-06T10:43:49.367Z","","","","","","","","","","","","","","","","","","","","","","","","","","","","","","","","","","","","","","","","","",""
"113031","","","","survey-template","7","274601","0.0-4.0-3.0","179","1","2025-08-06 10:39:02","36c45c0696341be0efffe67d72a12abb","41.13.13.183","Mozilla/5.0 (Android 13; Mobile; rv:141.0) Gecko/141.0 Firefox/141.0","","Firefox","141.0","AndroidOS","13","https://app.prolific.com/","en-ZA,en-US;q=0.5","66bb2110c5672f09961feed2","687a1a965b9f5b85a264363e","68932f7b9dd286cd0e578751","1","66bb2110c5672f09961feed2","1","2025-08-06T10:45:42.415Z","","","","drsp","{""Q01"":""1"",""Q02"":""1"",""Q03"":""1"",""Q04"":""1"",""Q05"":""2"",""Q06"":""1"",""Q07"":""1"",""Q08"":""2"",""Q09"":""1"",""Q10"":""2"",""Q11"":""1"",""Q12"":""1"",""Q13"":""5"",""Q14"":""4"",""Q15"":""4"",""Q16"":""1"",""Q17"":""1"",""Q18"":""1"",""Q19"":""2"",""Q20"":""1"",""Q21"":""1"",""Q22"":""1""}","[0,1,2,3,4,5,6,7,8,9,10,11,12,13,14,15,16,17,18,19,20,21]","[""Q01"",""Q02"",""Q03"",""Q04"",""Q05"",""Q05"",""Q06"",""Q07"",""Q07"",""Q07"",""Q08"",""Q09"",""Q10"",""Q10"",""Q11"",""Q12"",""Q13"",""Q14"",""Q15"",""Q16"",""Q17"",""Q18"",""Q19"",""Q20"",""Q21"",""Q22""]","[6037,7066,8828,9937,10986,13152,16111,17469,19938,20885,21413,24390,27581,28082,32834,35783,39917,45628,47944,54737,56267,97739,103087,106767,109509,111559]","[]","[0,6037,7066,8828,9937,10986,13152,16111,17469,19938,20885,21413,24390,27581,28082,32834,35783,39917,45628,47944,54737,56267,97739,103087,106767,109509,111559,113028]","0.6818181818181818","0.42857142857142855","0","","","","","","","","","","","","","","","","","","","","","","","","","","","","",""
"68344","","","","survey-template","8","342953","0.0-4.0-4.0","179","1","2025-08-06 10:39:02","36c45c0696341be0efffe67d72a12abb","41.13.13.183","Mozilla/5.0 (Android 13; Mobile; rv:141.0) Gecko/141.0 Firefox/141.0","","Firefox","141.0","AndroidOS","13","https://app.prolific.com/","en-ZA,en-US;q=0.5","66bb2110c5672f09961feed2","687a1a965b9f5b85a264363e","68932f7b9dd286cd0e578751","1","66bb2110c5672f09961feed2","1","2025-08-06T10:46:50.767Z","","","","stress","{""Q01"":""1"",""Q02"":""4"",""Q03"":""1""}","[0,1,2]","[""Q01"",""Q02"",""Q03""]","[25635,52673,66937]","[]","[25635,51908,52673,66937,68343]","1","0","0","","","","","","","","","","","","","","","","","","","","","","","","","","","","",""
"124374","","","","instructions","9","467333","0.0-5.0-0.0","179","1","2025-08-06 10:39:02","36c45c0696341be0efffe67d72a12abb","41.13.13.183","Mozilla/5.0 (Android 13; Mobile; rv:141.0) Gecko/141.0 Firefox/141.0","","Firefox","141.0","AndroidOS","13","https://app.prolific.com/","en-ZA,en-US;q=0.5","66bb2110c5672f09961feed2","687a1a965b9f5b85a264363e","68932f7b9dd286cd0e578751","1","66bb2110c5672f09961feed2","1","","","","","","","","","","","","","","","[{""page_index"":0,""viewing_time"":124373}]","","","","","","","","","","","","","","","","","","","","","","","","","","","",""
"106506","","<p>Before you start with this game please answer the following three questions yourself. </p>
  <p>Through this game, we measure several aspects of your cognitive performance, such as reaction times, multi-tasking capabilities </p>
  <p>and the ability to assess the situation you are in.</p>
  <p></p>
  <p><b>How good do you usually are in such tasks?</b></p>","85","html-slider-response","10","573863","0.0-6.0-0.0","179","1","2025-08-06 10:39:02","36c45c0696341be0efffe67d72a12abb","41.13.13.183","Mozilla/5.0 (Android 13; Mobile; rv:141.0) Gecko/141.0 Firefox/141.0","","Firefox","141.0","AndroidOS","13","https://app.prolific.com/","en-ZA,en-US;q=0.5","66bb2110c5672f09961feed2","687a1a965b9f5b85a264363e","68932f7b9dd286cd0e578751","1","66bb2110c5672f09961feed2","1","2025-08-06T10:50:41.677Z","","","","PreSkillQ","","","","","","","","","","","50","","","","","","","","","","","","","","","","","","","","","","","","","","",""
"23627","","<div style=""width:500px;"">
  <p>How well do you think you will perform in this task compared to other participants?</p>
  </div>","84","html-slider-response","11","597499","0.0-6.0-1.0","179","1","2025-08-06 10:39:02","36c45c0696341be0efffe67d72a12abb","41.13.13.183","Mozilla/5.0 (Android 13; Mobile; rv:141.0) Gecko/141.0 Firefox/141.0","","Firefox","141.0","AndroidOS","13","https://app.prolific.com/","en-ZA,en-US;q=0.5","66bb2110c5672f09961feed2","687a1a965b9f5b85a264363e","68932f7b9dd286cd0e578751","1","66bb2110c5672f09961feed2","1","2025-08-06T10:51:05.313Z","","","","PrePerfQ","","","","","","","","","","","50","","","","","","","","","","","","","","","","","","","","","","","","","","",""
"59902","","<div style=""width:500px;"">
  <p>What best describes how you currently feel?</p>
  </div>","83","html-slider-response","12","657407","0.0-6.0-2.0","179","1","2025-08-06 10:39:02","36c45c0696341be0efffe67d72a12abb","41.13.13.183","Mozilla/5.0 (Android 13; Mobile; rv:141.0) Gecko/141.0 Firefox/141.0","","Firefox","141.0","AndroidOS","13","https://app.prolific.com/","en-ZA,en-US;q=0.5","66bb2110c5672f09961feed2","687a1a965b9f5b85a264363e","68932f7b9dd286cd0e578751","1","66bb2110c5672f09961feed2","1","2025-08-06T10:52:05.221Z","","","","PreMotivationQ","","","","","","","","","","","50","","","","","","","","","","","","","","","","","","","","","","","","","","",""
"","","","","ctl-task-cpt","13","703242","0.0-7.0-0.0","179","1","2025-08-06 10:39:02","36c45c0696341be0efffe67d72a12abb","41.13.13.183","Mozilla/5.0 (Android 13; Mobile; rv:141.0) Gecko/141.0 Firefox/141.0","","Firefox","141.0","AndroidOS","13","https://app.prolific.com/","en-ZA,en-US;q=0.5","66bb2110c5672f09961feed2","687a1a965b9f5b85a264363e","68932f7b9dd286cd0e578751","1","66bb2110c5672f09961feed2","1","2025-08-06T10:52:51.056Z","","","","","","","","","","","","","","","","win-only","3","g1:SW,g2:NE","1","1","0","658817","22235","27239","42785","1","4","4","6","2","-4","-5","0","0","0","5003","3000","-2760","[""up"",""right""]","{""num_key_presses"":6,""num_perfect"":4,""num_errors"":1,""num_randdir"":0,""num_randdir_good_moves"":0,""num_whilered"":1,""num_whileblue"":0,""num_blue"":0,""num_good_moves"":4}","[387.9891999031334,395.8194116145131,0,387.9891999031334,395.8194116145131,101,387.9891999031334,395.8194116145131,208,387.9891999031334,395.8194116145131,312,387.9891999031334,395.8194116145131,412,387.9891999031334,395.8194116145131,512,387.9891999031334,395.8194116145131,614,387.9891999031334,395.8194116145131,715,387.9891999031334,395.8194116145131,815,387.9891999031334,395.8194116145131,920,387.9891999031334,395.8194116145131,1024,387.9891999031334,395.8194116145131,1127,387.9891999031334,395.8194116145131,1231,387.9891999031334,395.8194116145131,1334,387.9891999031334,395.8194116145131,1435,387.9891999031334,395.8194116145131,1535,387.9891999031334,395.8194116145131,1635,387.9891999031334,395.8194116145131,1740,387.9891999031334,395.8194116145131,1841,387.9891999031334,395.8194116145131,1946,387.9891999031334,395.8194116145131,2049,387.9891999031334,395.8194116145131,2149,387.9891999031334,395.8194116145131,2254,387.9891999031334,395.8194116145131,2357,387.9891999031334,395.8194116145131,2457,387.9891999031334,395.8194116145131,2561,387.9891999031334,395.8194116145131,2661,387.9891999031334,395.8194116145131,2761,387.9891999031334,395.8194116145131,2861,387.9891999031334,395.8194116145131,2962,387.9891999031334,395.8194116145131,3064,387.9891999031334,395.8194116145131,3165,387.9891999031334,395.8194116145131,3265,387.9891999031334,395.8194116145131,3370,387.9891999031334,395.8194116145131,3474,387.9891999031334,395.8194116145131,3574,387.9891999031334,395.8194116145131,3675,387.9891999031334,395.8194116145131,3780,387.9891999031334,395.8194116145131,3880,387.9891999031334,395.8194116145131,3980,387.9891999031334,395.8194116145131,4081,387.9891999031334,395.8194116145131,4183,387.9891999031334,395.8194116145131,4286,387.9891999031334,395.8194116145131,4388,387.9891999031334,395.8194116145131,4490,387.9891999031334,395.8194116145131,4592,387.9891999031334,395.8194116145131,4693,387.9891999031334,395.8194116145131,4795,387.9891999031334,395.8194116145131,4897,387.9891999031334,395.8194116145131,4997]","[1077,1077,1000,0,77,""smooth"",""up"",""up"",""good_move"",1410,332,2157.5,1078,-1825.5,""error"",""-"",""-"",""no_move"",1961,551,2157.5,1078,-1274.5,""while_red"",""-"",""-"",""no_move"",5711,4301,2591.9,2415,704.1,""smooth"",""up"",""up"",""good_move"",8361,2649,2002.6,5712,646.4,""smooth"",""up"",""up"",""good_move"",11237,2876,2306.6,8361,569.4,""smooth"",""right"",""right"",""good_move""]"
"4747","","<div style=""width:500px;"">
  <p>What determined the result of this run?</p>
  </div>","89","html-slider-response","14","707992","0.0-7.0-1.0","179","1","2025-08-06 10:39:02","36c45c0696341be0efffe67d72a12abb","41.13.13.183","Mozilla/5.0 (Android 13; Mobile; rv:141.0) Gecko/141.0 Firefox/141.0","","Firefox","141.0","AndroidOS","13","https://app.prolific.com/","en-ZA,en-US;q=0.5","66bb2110c5672f09961feed2","687a1a965b9f5b85a264363e","68932f7b9dd286cd0e578751","1","66bb2110c5672f09961feed2","1","2025-08-06T10:52:55.806Z","","","","AttribQ","","","","","","","","","","","50","","","","","","","","","","","","","","","","","","","","","","","","","","",""
"8533","","<div style=""width:500px;"">
  <p>How much control did you have over the ball?</p>
  </div>","90","html-slider-response","15","716530","0.0-7.0-2.0","179","1","2025-08-06 10:39:02","36c45c0696341be0efffe67d72a12abb","41.13.13.183","Mozilla/5.0 (Android 13; Mobile; rv:141.0) Gecko/141.0 Firefox/141.0","","Firefox","141.0","AndroidOS","13","https://app.prolific.com/","en-ZA,en-US;q=0.5","66bb2110c5672f09961feed2","687a1a965b9f5b85a264363e","68932f7b9dd286cd0e578751","1","66bb2110c5672f09961feed2","1","2025-08-06T10:53:04.344Z","","","","ControlQ","","","","","","","","","","","50","","","","","","","","","","","","","","","","","","","","","","","","","","",""
"10613","","<div style=""width:500px;"">
  <p>How would you describe your current emotional state?</p>
  </div>","85","html-slider-response","16","727146","0.0-7.0-3.0","179","1","2025-08-06 10:39:02","36c45c0696341be0efffe67d72a12abb","41.13.13.183","Mozilla/5.0 (Android 13; Mobile; rv:141.0) Gecko/141.0 Firefox/141.0","","Firefox","141.0","AndroidOS","13","https://app.prolific.com/","en-ZA,en-US;q=0.5","66bb2110c5672f09961feed2","687a1a965b9f5b85a264363e","68932f7b9dd286cd0e578751","1","66bb2110c5672f09961feed2","1","2025-08-06T10:53:14.960Z","","","","StressQ","","","","","","","","","","","50","","","","","","","","","","","","","","","","","","","","","","","","","","",""
"28091","","<div style=""width:500px;"">
  <p>What best describes how you currently feel?</p>
  </div>","88","html-slider-response","17","755242","0.0-7.0-4.0","179","1","2025-08-06 10:39:02","36c45c0696341be0efffe67d72a12abb","41.13.13.183","Mozilla/5.0 (Android 13; Mobile; rv:141.0) Gecko/141.0 Firefox/141.0","","Firefox","141.0","AndroidOS","13","https://app.prolific.com/","en-ZA,en-US;q=0.5","66bb2110c5672f09961feed2","687a1a965b9f5b85a264363e","68932f7b9dd286cd0e578751","1","66bb2110c5672f09961feed2","1","2025-08-06T10:53:43.056Z","","","","MotivationQ","","","","","","","","","","","50","","","","","","","","","","","","","","","","","","","","","","","","","","",""
"","","","","ctl-task-cpt","18","764951","0.0-7.0-0.1","179","1","2025-08-06 10:39:02","36c45c0696341be0efffe67d72a12abb","41.13.13.183","Mozilla/5.0 (Android 13; Mobile; rv:141.0) Gecko/141.0 Firefox/141.0","","Firefox","141.0","AndroidOS","13","https://app.prolific.com/","en-ZA,en-US;q=0.5","66bb2110c5672f09961feed2","687a1a965b9f5b85a264363e","68932f7b9dd286cd0e578751","1","66bb2110c5672f09961feed2","1","2025-08-06T10:53:52.765Z","","","","","","","","","","","","","","","","win-only","3","g1:SW,g2:NE","0.9","2","0","756609","1698","-9999","6704","1","4","8","6","-9999","-4","-4","0","0","0","-9999","3000","3000","[]","{""num_key_presses"":0,""num_perfect"":0,""num_errors"":0,""num_randdir"":0,""num_randdir_good_moves"":0,""num_whilered"":0,""num_whileblue"":0,""num_blue"":0,""num_good_moves"":0}","[387.9891999031334,385.6307323692301,1,387.9891999031334,385.6307323692301,104,387.9891999031334,385.6307323692301,209,387.9891999031334,385.6307323692301,309,387.9891999031334,385.6307323692301,412,387.9891999031334,385.6307323692301,516,387.9891999031334,385.6307323692301,616,387.9891999031334,385.6307323692301,721,387.9891999031334,385.6307323692301,825,387.9891999031334,385.6307323692301,925,387.9891999031334,385.6307323692301,1028,387.9891999031334,385.6307323692301,1132,387.9891999031334,385.6307323692301,1236,387.9891999031334,385.6307323692301,1340,387.9891999031334,385.6307323692301,1445,387.9891999031334,385.6307323692301,1545,387.9891999031334,385.6307323692301,1646,387.9891999031334,385.6307323692301,1750,387.9891999031334,385.6307323692301,1851,387.9891999031334,385.6307323692301,1955,387.9891999031334,385.6307323692301,2055,387.9891999031334,385.6307323692301,2156,387.9891999031334,385.6307323692301,2258,387.9891999031334,385.6307323692301,2358,387.9891999031334,385.6307323692301,2462,387.9891999031334,385.6307323692301,2563,387.9891999031334,385.6307323692301,2664,387.9891999031334,385.6307323692301,2765,387.9891999031334,385.6307323692301,2866,387.9891999031334,385.6307323692301,2970,387.9891999031334,385.6307323692301,3075,387.9891999031334,385.6307323692301,3175,387.9891999031334,385.6307323692301,3278,387.9891999031334,385.6307323692301,3378,387.9891999031334,385.6307323692301,3479,387.9891999031334,385.6307323692301,3579,387.9891999031334,385.6307323692301,3680,387.9891999031334,385.6307323692301,3781,387.9891999031334,385.6307323692301,3884,387.9891999031334,385.6307323692301,3988,387.9891999031334,385.6307323692301,4088,387.9891999031334,385.6307323692301,4190,387.9891999031334,385.6307323692301,4290,387.9891999031334,385.6307323692301,4395,387.9891999031334,385.6307323692301,4497,387.9891999031334,385.6307323692301,4601,387.9891999031334,385.6307323692301,4702,387.9891999031334,385.6307323692301,4803,387.9891999031334,385.6307323692301,4904]","[]"
"4757","","<div style=""width:500px;"">
  <p>What determined the result of this run?</p>
  </div>","88","html-slider-response","19","769713","0.0-7.0-1.1","179","1","2025-08-06 10:39:02","36c45c0696341be0efffe67d72a12abb","41.13.13.183","Mozilla/5.0 (Android 13; Mobile; rv:141.0) Gecko/141.0 Firefox/141.0","","Firefox","141.0","AndroidOS","13","https://app.prolific.com/","en-ZA,en-US;q=0.5","66bb2110c5672f09961feed2","687a1a965b9f5b85a264363e","68932f7b9dd286cd0e578751","1","66bb2110c5672f09961feed2","1","2025-08-06T10:53:57.527Z","","","","AttribQ","","","","","","","","","","","50","","","","","","","","","","","","","","","","","","","","","","","","","","",""
"3614","","<div style=""width:500px;"">
  <p>How much control did you have over the ball?</p>
  </div>","87","html-slider-response","20","773330","0.0-7.0-2.1","179","1","2025-08-06 10:39:02","36c45c0696341be0efffe67d72a12abb","41.13.13.183","Mozilla/5.0 (Android 13; Mobile; rv:141.0) Gecko/141.0 Firefox/141.0","","Firefox","141.0","AndroidOS","13","https://app.prolific.com/","en-ZA,en-US;q=0.5","66bb2110c5672f09961feed2","687a1a965b9f5b85a264363e","68932f7b9dd286cd0e578751","1","66bb2110c5672f09961feed2","1","2025-08-06T10:54:01.145Z","","","","ControlQ","","","","","","","","","","","50","","","","","","","","","","","","","","","","","","","","","","","","","","",""
"2783","","<div style=""width:500px;"">
  <p>How would you describe your current emotional state?</p>
  </div>","87","html-slider-response","21","776117","0.0-7.0-3.1","179","1","2025-08-06 10:39:02","36c45c0696341be0efffe67d72a12abb","41.13.13.183","Mozilla/5.0 (Android 13; Mobile; rv:141.0) Gecko/141.0 Firefox/141.0","","Firefox","141.0","AndroidOS","13","https://app.prolific.com/","en-ZA,en-US;q=0.5","66bb2110c5672f09961feed2","687a1a965b9f5b85a264363e","68932f7b9dd286cd0e578751","1","66bb2110c5672f09961feed2","1","2025-08-06T10:54:03.932Z","","","","StressQ","","","","","","","","","","","50","","","","","","","","","","","","","","","","","","","","","","","","","","",""
"4400","","<div style=""width:500px;"">
  <p>What best describes how you currently feel?</p>
  </div>","90","html-slider-response","22","780520","0.0-7.0-4.1","179","1","2025-08-06 10:39:02","36c45c0696341be0efffe67d72a12abb","41.13.13.183","Mozilla/5.0 (Android 13; Mobile; rv:141.0) Gecko/141.0 Firefox/141.0","","Firefox","141.0","AndroidOS","13","https://app.prolific.com/","en-ZA,en-US;q=0.5","66bb2110c5672f09961feed2","687a1a965b9f5b85a264363e","68932f7b9dd286cd0e578751","1","66bb2110c5672f09961feed2","1","2025-08-06T10:54:08.335Z","","","","MotivationQ","","","","","","","","","","","50","","","","","","","","","","","","","","","","","","","","","","","","","","",""
"","","","","ctl-task-cpt","23","789746","0.0-7.0-0.2","179","1","2025-08-06 10:39:02","36c45c0696341be0efffe67d72a12abb","41.13.13.183","Mozilla/5.0 (Android 13; Mobile; rv:141.0) Gecko/141.0 Firefox/141.0","","Firefox","141.0","AndroidOS","13","https://app.prolific.com/","en-ZA,en-US;q=0.5","66bb2110c5672f09961feed2","687a1a965b9f5b85a264363e","68932f7b9dd286cd0e578751","1","66bb2110c5672f09961feed2","1","2025-08-06T10:54:17.560Z","","","","","","","","","","","","","","","","win-only","2","g1:SE,g2:NW","0.8","3","0","781887","1215","-9999","6220","1","4","4","6","-9999","-4","-4","0","0","0","-9999","3000","3000","[]","{""num_key_presses"":0,""num_perfect"":0,""num_errors"":0,""num_randdir"":0,""num_randdir_good_moves"":0,""num_whilered"":0,""num_whileblue"":0,""num_blue"":0,""num_good_moves"":0}","[384.5929734880391,391.29110972772065,0,384.5929734880391,391.29110972772065,104,384.5929734880391,391.29110972772065,205,384.5929734880391,391.29110972772065,309,384.5929734880391,391.29110972772065,409,384.5929734880391,391.29110972772065,509,384.5929734880391,391.29110972772065,613,384.5929734880391,391.29110972772065,713,384.5929734880391,391.29110972772065,814,384.5929734880391,391.29110972772065,913,384.5929734880391,391.29110972772065,1014,384.5929734880391,391.29110972772065,1115,384.5929734880391,391.29110972772065,1215,384.5929734880391,391.29110972772065,1320,384.5929734880391,391.29110972772065,1423,384.5929734880391,391.29110972772065,1526,384.5929734880391,391.29110972772065,1631,384.5929734880391,391.29110972772065,1731,384.5929734880391,391.29110972772065,1834,384.5929734880391,391.29110972772065,1934,384.5929734880391,391.29110972772065,2037,384.5929734880391,391.29110972772065,2137,384.5929734880391,391.29110972772065,2239,384.5929734880391,391.29110972772065,2340,384.5929734880391,391.29110972772065,2442,384.5929734880391,391.29110972772065,2544,384.5929734880391,391.29110972772065,2644,384.5929734880391,391.29110972772065,2749,384.5929734880391,391.29110972772065,2852,384.5929734880391,391.29110972772065,2955,384.5929734880391,391.29110972772065,3056,384.5929734880391,391.29110972772065,3160,384.5929734880391,391.29110972772065,3261,384.5929734880391,391.29110972772065,3364,384.5929734880391,391.29110972772065,3468,384.5929734880391,391.29110972772065,3569,384.5929734880391,391.29110972772065,3669,384.5929734880391,391.29110972772065,3773,384.5929734880391,391.29110972772065,3876,384.5929734880391,391.29110972772065,3976,384.5929734880391,391.29110972772065,4081,384.5929734880391,391.29110972772065,4182,384.5929734880391,391.29110972772065,4283,384.5929734880391,391.29110972772065,4387,384.5929734880391,391.29110972772065,4491,384.5929734880391,391.29110972772065,4596,384.5929734880391,391.29110972772065,4696,384.5929734880391,391.29110972772065,4800,384.5929734880391,391.29110972772065,4902]","[]"
"5926","","<div style=""width:500px;"">
  <p>What determined the result of this run?</p>
  </div>","88","html-slider-response","24","795673","0.0-7.0-1.2","179","1","2025-08-06 10:39:02","36c45c0696341be0efffe67d72a12abb","41.13.13.183","Mozilla/5.0 (Android 13; Mobile; rv:141.0) Gecko/141.0 Firefox/141.0","","Firefox","141.0","AndroidOS","13","https://app.prolific.com/","en-ZA,en-US;q=0.5","66bb2110c5672f09961feed2","687a1a965b9f5b85a264363e","68932f7b9dd286cd0e578751","1","66bb2110c5672f09961feed2","1","2025-08-06T10:54:23.487Z","","","","AttribQ","","","","","","","","","","","50","","","","","","","","","","","","","","","","","","","","","","","","","","",""
"2220","","<div style=""width:500px;"">
  <p>How much control did you have over the ball?</p>
  </div>","87","html-slider-response","25","797898","0.0-7.0-2.2","179","1","2025-08-06 10:39:02","36c45c0696341be0efffe67d72a12abb","41.13.13.183","Mozilla/5.0 (Android 13; Mobile; rv:141.0) Gecko/141.0 Firefox/141.0","","Firefox","141.0","AndroidOS","13","https://app.prolific.com/","en-ZA,en-US;q=0.5","66bb2110c5672f09961feed2","687a1a965b9f5b85a264363e","68932f7b9dd286cd0e578751","1","66bb2110c5672f09961feed2","1","2025-08-06T10:54:25.712Z","","","","ControlQ","","","","","","","","","","","50","","","","","","","","","","","","","","","","","","","","","","","","","","",""
"2679","","<div style=""width:500px;"">
  <p>How would you describe your current emotional state?</p>
  </div>","89","html-slider-response","26","800580","0.0-7.0-3.2","179","1","2025-08-06 10:39:02","36c45c0696341be0efffe67d72a12abb","41.13.13.183","Mozilla/5.0 (Android 13; Mobile; rv:141.0) Gecko/141.0 Firefox/141.0","","Firefox","141.0","AndroidOS","13","https://app.prolific.com/","en-ZA,en-US;q=0.5","66bb2110c5672f09961feed2","687a1a965b9f5b85a264363e","68932f7b9dd286cd0e578751","1","66bb2110c5672f09961feed2","1","2025-08-06T10:54:28.394Z","","","","StressQ","","","","","","","","","","","50","","","","","","","","","","","","","","","","","","","","","","","","","","",""
"2308","","<div style=""width:500px;"">
  <p>What best describes how you currently feel?</p>
  </div>","88","html-slider-response","27","802892","0.0-7.0-4.2","179","1","2025-08-06 10:39:02","36c45c0696341be0efffe67d72a12abb","41.13.13.183","Mozilla/5.0 (Android 13; Mobile; rv:141.0) Gecko/141.0 Firefox/141.0","","Firefox","141.0","AndroidOS","13","https://app.prolific.com/","en-ZA,en-US;q=0.5","66bb2110c5672f09961feed2","687a1a965b9f5b85a264363e","68932f7b9dd286cd0e578751","1","66bb2110c5672f09961feed2","1","2025-08-06T10:54:30.706Z","","","","MotivationQ","","","","","","","","","","","50","","","","","","","","","","","","","","","","","","","","","","","","","","",""
"","","","","ctl-task-cpt","28","814053","0.0-7.0-0.3","179","1","2025-08-06 10:39:02","36c45c0696341be0efffe67d72a12abb","41.13.13.183","Mozilla/5.0 (Android 13; Mobile; rv:141.0) Gecko/141.0 Firefox/141.0","","Firefox","141.0","AndroidOS","13","https://app.prolific.com/","en-ZA,en-US;q=0.5","66bb2110c5672f09961feed2","687a1a965b9f5b85a264363e","68932f7b9dd286cd0e578751","1","66bb2110c5672f09961feed2","1","2025-08-06T10:54:41.867Z","","","","","","","","","","","","","","","","win-only","3","g1:SW,g2:NE","0.7","4","0","804258","3152","-9999","8157","1","4","8","6","-9999","-4","-4","0","0","0","-9999","3000","3000","[]","{""num_key_presses"":0,""num_perfect"":0,""num_errors"":0,""num_randdir"":0,""num_randdir_good_moves"":0,""num_whilered"":0,""num_whileblue"":0,""num_blue"":0,""num_good_moves"":0}","[394.78165273332206,384.498656897532,0,394.78165273332206,384.498656897532,101,394.78165273332206,384.498656897532,205,394.78165273332206,384.498656897532,309,394.78165273332206,384.498656897532,413,394.78165273332206,384.498656897532,519,394.78165273332206,384.498656897532,622,394.78165273332206,384.498656897532,722,394.78165273332206,384.498656897532,825,394.78165273332206,384.498656897532,928,394.78165273332206,384.498656897532,1028,394.78165273332206,384.498656897532,1130,394.78165273332206,384.498656897532,1232,394.78165273332206,384.498656897532,1334,394.78165273332206,384.498656897532,1435,394.78165273332206,384.498656897532,1537,394.78165273332206,384.498656897532,1641,394.78165273332206,384.498656897532,1744,394.78165273332206,384.498656897532,1847,394.78165273332206,384.498656897532,1947,394.78165273332206,384.498656897532,2051,394.78165273332206,384.498656897532,2151,394.78165273332206,384.498656897532,2255,394.78165273332206,384.498656897532,2355,394.78165273332206,384.498656897532,2459,394.78165273332206,384.498656897532,2563,394.78165273332206,384.498656897532,2668,394.78165273332206,384.498656897532,2768,394.78165273332206,384.498656897532,2871,394.78165273332206,384.498656897532,2974,394.78165273332206,384.498656897532,3074,394.78165273332206,384.498656897532,3175,394.78165273332206,384.498656897532,3277,394.78165273332206,384.498656897532,3380,394.78165273332206,384.498656897532,3483,394.78165273332206,384.498656897532,3588,394.78165273332206,384.498656897532,3688,394.78165273332206,384.498656897532,3792,394.78165273332206,384.498656897532,3895,394.78165273332206,384.498656897532,3999,394.78165273332206,384.498656897532,4104,394.78165273332206,384.498656897532,4206,394.78165273332206,384.498656897532,4306,394.78165273332206,384.498656897532,4406,394.78165273332206,384.498656897532,4508,394.78165273332206,384.498656897532,4611,394.78165273332206,384.498656897532,4712,394.78165273332206,384.498656897532,4812,394.78165273332206,384.498656897532,4915]","[]"
"12284","","<div style=""width:500px;"">
  <p>What determined the result of this run?</p>
  </div>","89","html-slider-response","29","826339","0.0-7.0-1.3","179","1","2025-08-06 10:39:02","36c45c0696341be0efffe67d72a12abb","41.13.13.183","Mozilla/5.0 (Android 13; Mobile; rv:141.0) Gecko/141.0 Firefox/141.0","","Firefox","141.0","AndroidOS","13","https://app.prolific.com/","en-ZA,en-US;q=0.5","66bb2110c5672f09961feed2","687a1a965b9f5b85a264363e","68932f7b9dd286cd0e578751","1","66bb2110c5672f09961feed2","1","2025-08-06T10:54:54.153Z","","","","AttribQ","","","","","","","","","","","50","","","","","","","","","","","","","","","","","","","","","","","","","","",""
"4264","","<div style=""width:500px;"">
  <p>How much control did you have over the ball?</p>
  </div>","95","html-slider-response","30","830607","0.0-7.0-2.3","179","1","2025-08-06 10:39:02","36c45c0696341be0efffe67d72a12abb","41.13.13.183","Mozilla/5.0 (Android 13; Mobile; rv:141.0) Gecko/141.0 Firefox/141.0","","Firefox","141.0","AndroidOS","13","https://app.prolific.com/","en-ZA,en-US;q=0.5","66bb2110c5672f09961feed2","687a1a965b9f5b85a264363e","68932f7b9dd286cd0e578751","1","66bb2110c5672f09961feed2","1","2025-08-06T10:54:58.421Z","","","","ControlQ","","","","","","","","","","","50","","","","","","","","","","","","","","","","","","","","","","","","","","",""
"1786","","<div style=""width:500px;"">
  <p>How would you describe your current emotional state?</p>
  </div>","89","html-slider-response","31","832397","0.0-7.0-3.3","179","1","2025-08-06 10:39:02","36c45c0696341be0efffe67d72a12abb","41.13.13.183","Mozilla/5.0 (Android 13; Mobile; rv:141.0) Gecko/141.0 Firefox/141.0","","Firefox","141.0","AndroidOS","13","https://app.prolific.com/","en-ZA,en-US;q=0.5","66bb2110c5672f09961feed2","687a1a965b9f5b85a264363e","68932f7b9dd286cd0e578751","1","66bb2110c5672f09961feed2","1","2025-08-06T10:55:00.212Z","","","","StressQ","","","","","","","","","","","50","","","","","","","","","","","","","","","","","","","","","","","","","","",""
"3673","","<div style=""width:500px;"">
  <p>What best describes how you currently feel?</p>
  </div>","92","html-slider-response","32","836072","0.0-7.0-4.3","179","1","2025-08-06 10:39:02","36c45c0696341be0efffe67d72a12abb","41.13.13.183","Mozilla/5.0 (Android 13; Mobile; rv:141.0) Gecko/141.0 Firefox/141.0","","Firefox","141.0","AndroidOS","13","https://app.prolific.com/","en-ZA,en-US;q=0.5","66bb2110c5672f09961feed2","687a1a965b9f5b85a264363e","68932f7b9dd286cd0e578751","1","66bb2110c5672f09961feed2","1","2025-08-06T10:55:03.887Z","","","","MotivationQ","","","","","","","","","","","50","","","","","","","","","","","","","","","","","","","","","","","","","","",""
"","","","","ctl-task-cpt","33","865280","0.0-7.0-0.4","179","1","2025-08-06 10:39:02","36c45c0696341be0efffe67d72a12abb","41.13.13.183","Mozilla/5.0 (Android 13; Mobile; rv:141.0) Gecko/141.0 Firefox/141.0","","Firefox","141.0","AndroidOS","13","https://app.prolific.com/","en-ZA,en-US;q=0.5","66bb2110c5672f09961feed2","687a1a965b9f5b85a264363e","68932f7b9dd286cd0e578751","1","66bb2110c5672f09961feed2","1","2025-08-06T10:55:33.094Z","","","","","","","","","","","","","","","","win-only","3","g1:SW,g2:NE","0.6","5","0","837439","988","5989","26202","1","4","4","6","2","-4","-4","0","0","0","5001","3000","-2865","[""up"",""right""]","{""num_key_presses"":4,""num_perfect"":4,""num_errors"":0,""num_randdir"":0,""num_randdir_good_moves"":0,""num_whilered"":0,""num_whileblue"":0,""num_blue"":2,""num_good_moves"":4}","[382.32882254464283,389.02695878432445,1,382.32882254464283,389.02695878432445,103,382.32882254464283,389.02695878432445,206,382.32882254464283,389.02695878432445,309,382.32882254464283,389.02695878432445,409,382.32882254464283,389.02695878432445,509,382.32882254464283,389.02695878432445,609,382.32882254464283,389.02695878432445,713,382.32882254464283,389.02695878432445,817,382.32882254464283,389.02695878432445,919,382.32882254464283,389.02695878432445,1022,382.32882254464283,389.02695878432445,1125,382.32882254464283,389.02695878432445,1226,382.32882254464283,389.02695878432445,1330,382.32882254464283,389.02695878432445,1434,382.32882254464283,389.02695878432445,1538,382.32882254464283,389.02695878432445,1641,382.32882254464283,389.02695878432445,1746,382.32882254464283,389.02695878432445,1846,382.32882254464283,389.02695878432445,1950,382.32882254464283,389.02695878432445,2056,382.32882254464283,389.02695878432445,2156,382.32882254464283,389.02695878432445,2258,382.32882254464283,389.02695878432445,2359,382.32882254464283,389.02695878432445,2463,382.32882254464283,389.02695878432445,2565,382.32882254464283,389.02695878432445,2665,382.32882254464283,389.02695878432445,2765,382.32882254464283,389.02695878432445,2870,382.32882254464283,389.02695878432445,2973,382.32882254464283,389.02695878432445,3073,382.32882254464283,389.02695878432445,3176,382.32882254464283,389.02695878432445,3278,382.32882254464283,389.02695878432445,3379,382.32882254464283,389.02695878432445,3484,382.32882254464283,389.02695878432445,3589,382.32882254464283,389.02695878432445,3691,382.32882254464283,389.02695878432445,3795,382.32882254464283,389.02695878432445,3898,382.32882254464283,389.02695878432445,4001,382.32882254464283,389.02695878432445,4104,382.32882254464283,389.02695878432445,4207,382.32882254464283,389.02695878432445,4309,382.32882254464283,389.02695878432445,4412,382.32882254464283,389.02695878432445,4515,382.32882254464283,389.02695878432445,4615,382.32882254464283,389.02695878432445,4717,382.32882254464283,389.02695878432445,4821,382.32882254464283,389.02695878432445,4922]","[1758,1758,1000,0,758,""smooth"",""up"",""up"",""good_move"",11785,10027,2354.7,8905,525.3,""smooth"",""up"",""up"",""good_move"",14512,2727,2040.4,11785,686.6,""smooth"",""up"",""up"",""good_move"",17570,3058,2450,14512,608,""smooth"",""up"",""right"",""good_move""]"
"8246","","<div style=""width:500px;"">
  <p>What determined the result of this run?</p>
  </div>","93","html-slider-response","34","873528","0.0-7.0-1.4","179","1","2025-08-06 10:39:02","36c45c0696341be0efffe67d72a12abb","41.13.13.183","Mozilla/5.0 (Android 13; Mobile; rv:141.0) Gecko/141.0 Firefox/141.0","","Firefox","141.0","AndroidOS","13","https://app.prolific.com/","en-ZA,en-US;q=0.5","66bb2110c5672f09961feed2","687a1a965b9f5b85a264363e","68932f7b9dd286cd0e578751","1","66bb2110c5672f09961feed2","1","2025-08-06T10:55:41.342Z","","","","AttribQ","","","","","","","","","","","50","","","","","","","","","","","","","","","","","","","","","","","","","","",""
"3306","","<div style=""width:500px;"">
  <p>How much control did you have over the ball?</p>
  </div>","93","html-slider-response","35","876836","0.0-7.0-2.4","179","1","2025-08-06 10:39:02","36c45c0696341be0efffe67d72a12abb","41.13.13.183","Mozilla/5.0 (Android 13; Mobile; rv:141.0) Gecko/141.0 Firefox/141.0","","Firefox","141.0","AndroidOS","13","https://app.prolific.com/","en-ZA,en-US;q=0.5","66bb2110c5672f09961feed2","687a1a965b9f5b85a264363e","68932f7b9dd286cd0e578751","1","66bb2110c5672f09961feed2","1","2025-08-06T10:55:44.650Z","","","","ControlQ","","","","","","","","","","","50","","","","","","","","","","","","","","","","","","","","","","","","","","",""
"2225","","<div style=""width:500px;"">
  <p>How would you describe your current emotional state?</p>
  </div>","89","html-slider-response","36","879065","0.0-7.0-3.4","179","1","2025-08-06 10:39:02","36c45c0696341be0efffe67d72a12abb","41.13.13.183","Mozilla/5.0 (Android 13; Mobile; rv:141.0) Gecko/141.0 Firefox/141.0","","Firefox","141.0","AndroidOS","13","https://app.prolific.com/","en-ZA,en-US;q=0.5","66bb2110c5672f09961feed2","687a1a965b9f5b85a264363e","68932f7b9dd286cd0e578751","1","66bb2110c5672f09961feed2","1","2025-08-06T10:55:46.879Z","","","","StressQ","","","","","","","","","","","50","","","","","","","","","","","","","","","","","","","","","","","","","","",""
"3490","","<div style=""width:500px;"">
  <p>What best describes how you currently feel?</p>
  </div>","95","html-slider-response","37","882556","0.0-7.0-4.4","179","1","2025-08-06 10:39:02","36c45c0696341be0efffe67d72a12abb","41.13.13.183","Mozilla/5.0 (Android 13; Mobile; rv:141.0) Gecko/141.0 Firefox/141.0","","Firefox","141.0","AndroidOS","13","https://app.prolific.com/","en-ZA,en-US;q=0.5","66bb2110c5672f09961feed2","687a1a965b9f5b85a264363e","68932f7b9dd286cd0e578751","1","66bb2110c5672f09961feed2","1","2025-08-06T10:55:50.371Z","","","","MotivationQ","","","","","","","","","","","50","","","","","","","","","","","","","","","","","","","","","","","","","","",""
"","","","","ctl-task-cpt","38","912016","0.0-7.0-0.5","179","1","2025-08-06 10:39:02","36c45c0696341be0efffe67d72a12abb","41.13.13.183","Mozilla/5.0 (Android 13; Mobile; rv:141.0) Gecko/141.0 Firefox/141.0","","Firefox","141.0","AndroidOS","13","https://app.prolific.com/","en-ZA,en-US;q=0.5","66bb2110c5672f09961feed2","687a1a965b9f5b85a264363e","68932f7b9dd286cd0e578751","1","66bb2110c5672f09961feed2","1","2025-08-06T10:56:19.830Z","","","","","","","","","","","","","","","","win-only","1","g1:NE,g2:SW","0.5","6","0","883922","1166","6173","26454","1","4","8","6","1","-1","-2","0","0","0","5007","3000","-2860","[""up"",""right""]","{""num_key_presses"":6,""num_perfect"":4,""num_errors"":1,""num_randdir"":1,""num_randdir_good_moves"":0,""num_whilered"":0,""num_whileblue"":0,""num_blue"":0,""num_good_moves"":4}","[390.25335084652966,399.2156380296075,0,390.25335084652966,399.2156380296075,102,390.25335084652966,399.2156380296075,204,390.25335084652966,399.2156380296075,305,390.25335084652966,399.2156380296075,408,390.25335084652966,399.2156380296075,508,390.25335084652966,399.2156380296075,609,390.25335084652966,399.2156380296075,714,390.25335084652966,399.2156380296075,819,390.25335084652966,399.2156380296075,920,390.25335084652966,399.2156380296075,1022,390.25335084652966,399.2156380296075,1122,390.25335084652966,399.2156380296075,1225,390.25335084652966,399.2156380296075,1329,390.25335084652966,399.2156380296075,1429,390.25335084652966,399.2156380296075,1533,390.25335084652966,399.2156380296075,1634,390.25335084652966,399.2156380296075,1735,390.25335084652966,399.2156380296075,1836,390.25335084652966,399.2156380296075,1941,390.25335084652966,399.2156380296075,2044,390.25335084652966,399.2156380296075,2144,390.25335084652966,399.2156380296075,2247,390.25335084652966,399.2156380296075,2350,390.25335084652966,399.2156380296075,2454,390.25335084652966,399.2156380296075,2556,390.25335084652966,399.2156380296075,2656,390.25335084652966,399.2156380296075,2758,390.25335084652966,399.2156380296075,2861,390.25335084652966,399.2156380296075,2962,390.25335084652966,399.2156380296075,3064,390.25335084652966,399.2156380296075,3166,390.25335084652966,399.2156380296075,3270,390.25335084652966,399.2156380296075,3374,390.25335084652966,399.2156380296075,3475,390.25335084652966,399.2156380296075,3577,390.25335084652966,399.2156380296075,3681,390.25335084652966,399.2156380296075,3785,390.25335084652966,399.2156380296075,3889,390.25335084652966,399.2156380296075,3993,390.25335084652966,399.2156380296075,4097,390.25335084652966,399.2156380296075,4201,390.25335084652966,399.2156380296075,4301,390.25335084652966,399.2156380296075,4405,390.25335084652966,399.2156380296075,4509,390.25335084652966,399.2156380296075,4611,390.25335084652966,399.2156380296075,4716,390.25335084652966,399.2156380296075,4821,390.25335084652966,399.2156380296075,4923]","[31,31,1000,0,-969,""error"",""-"",""-"",""no_move"",4677,4646,2935.8,1035,706.2,""smooth"",""up"",""up"",""good_move"",8278,3601,2810.9,4677,790.1,""oops"",""up"",""left"",""bad_move"",11564,3286,2659.4,8278,626.6,""smooth"",""up"",""up"",""good_move"",14688,3124,2570,11564,554,""smooth"",""right"",""right"",""good_move"",17813,3124,2627.8,14689,496.2,""smooth"",""right"",""right"",""good_move""]"
"2856","","<div style=""width:500px;"">
  <p>What determined the result of this run?</p>
  </div>","92","html-slider-response","39","914875","0.0-7.0-1.5","179","1","2025-08-06 10:39:02","36c45c0696341be0efffe67d72a12abb","41.13.13.183","Mozilla/5.0 (Android 13; Mobile; rv:141.0) Gecko/141.0 Firefox/141.0","","Firefox","141.0","AndroidOS","13","https://app.prolific.com/","en-ZA,en-US;q=0.5","66bb2110c5672f09961feed2","687a1a965b9f5b85a264363e","68932f7b9dd286cd0e578751","1","66bb2110c5672f09961feed2","1","2025-08-06T10:56:22.689Z","","","","AttribQ","","","","","","","","","","","50","","","","","","","","","","","","","","","","","","","","","","","","","","",""
"1942","","<div style=""width:500px;"">
  <p>How much control did you have over the ball?</p>
  </div>","89","html-slider-response","40","916821","0.0-7.0-2.5","179","1","2025-08-06 10:39:02","36c45c0696341be0efffe67d72a12abb","41.13.13.183","Mozilla/5.0 (Android 13; Mobile; rv:141.0) Gecko/141.0 Firefox/141.0","","Firefox","141.0","AndroidOS","13","https://app.prolific.com/","en-ZA,en-US;q=0.5","66bb2110c5672f09961feed2","687a1a965b9f5b85a264363e","68932f7b9dd286cd0e578751","1","66bb2110c5672f09961feed2","1","2025-08-06T10:56:24.635Z","","","","ControlQ","","","","","","","","","","","50","","","","","","","","","","","","","","","","","","","","","","","","","","",""
"3963","","<div style=""width:500px;"">
  <p>How would you describe your current emotional state?</p>
  </div>","92","html-slider-response","41","920787","0.0-7.0-3.5","179","1","2025-08-06 10:39:02","36c45c0696341be0efffe67d72a12abb","41.13.13.183","Mozilla/5.0 (Android 13; Mobile; rv:141.0) Gecko/141.0 Firefox/141.0","","Firefox","141.0","AndroidOS","13","https://app.prolific.com/","en-ZA,en-US;q=0.5","66bb2110c5672f09961feed2","687a1a965b9f5b85a264363e","68932f7b9dd286cd0e578751","1","66bb2110c5672f09961feed2","1","2025-08-06T10:56:28.601Z","","","","StressQ","","","","","","","","","","","50","","","","","","","","","","","","","","","","","","","","","","","","","","",""
"2444","","<div style=""width:500px;"">
  <p>What best describes how you currently feel?</p>
  </div>","91","html-slider-response","42","923233","0.0-7.0-4.5","179","1","2025-08-06 10:39:02","36c45c0696341be0efffe67d72a12abb","41.13.13.183","Mozilla/5.0 (Android 13; Mobile; rv:141.0) Gecko/141.0 Firefox/141.0","","Firefox","141.0","AndroidOS","13","https://app.prolific.com/","en-ZA,en-US;q=0.5","66bb2110c5672f09961feed2","687a1a965b9f5b85a264363e","68932f7b9dd286cd0e578751","1","66bb2110c5672f09961feed2","1","2025-08-06T10:56:31.048Z","","","","MotivationQ","","","","","","","","","","","50","","","","","","","","","","","","","","","","","","","","","","","","","","",""
"","","","","ctl-task-cpt","43","953208","0.0-7.0-0.6","179","1","2025-08-06 10:39:02","36c45c0696341be0efffe67d72a12abb","41.13.13.183","Mozilla/5.0 (Android 13; Mobile; rv:141.0) Gecko/141.0 Firefox/141.0","","Firefox","141.0","AndroidOS","13","https://app.prolific.com/","en-ZA,en-US;q=0.5","66bb2110c5672f09961feed2","687a1a965b9f5b85a264363e","68932f7b9dd286cd0e578751","1","66bb2110c5672f09961feed2","1","2025-08-06T10:57:01.022Z","","","","","","","","","","","","","","","","win-only","1","g1:NE,g2:SW","0.4","7","0","924599","971","5972","26971","1","4","4","6","1","-1","-5","0","0","0","5001","3000","-2875","[""up"",""right""]","{""num_key_presses"":8,""num_perfect"":0,""num_errors"":4,""num_randdir"":4,""num_randdir_good_moves"":3,""num_whilered"":0,""num_whileblue"":0,""num_blue"":0,""num_good_moves"":3}","[393.64957726162396,395.8194116145131,0,393.64957726162396,395.8194116145131,102,393.64957726162396,395.8194116145131,205,393.64957726162396,395.8194116145131,307,393.64957726162396,395.8194116145131,409,393.64957726162396,395.8194116145131,512,393.64957726162396,395.8194116145131,616,393.64957726162396,395.8194116145131,718,393.64957726162396,395.8194116145131,820,393.64957726162396,395.8194116145131,924,393.64957726162396,395.8194116145131,1028,393.64957726162396,395.8194116145131,1130,393.64957726162396,395.8194116145131,1234,393.64957726162396,395.8194116145131,1335,393.64957726162396,395.8194116145131,1435,393.64957726162396,395.8194116145131,1539,393.64957726162396,395.8194116145131,1642,393.64957726162396,395.8194116145131,1744,393.64957726162396,395.8194116145131,1844,393.64957726162396,395.8194116145131,1945,393.64957726162396,395.8194116145131,2050,393.64957726162396,395.8194116145131,2152,393.64957726162396,395.8194116145131,2253,393.64957726162396,395.8194116145131,2355,393.64957726162396,395.8194116145131,2456,393.64957726162396,395.8194116145131,2556,393.64957726162396,395.8194116145131,2659,393.64957726162396,395.8194116145131,2759,393.64957726162396,395.8194116145131,2860,393.64957726162396,395.8194116145131,2961,393.64957726162396,395.8194116145131,3062,393.64957726162396,395.8194116145131,3163,393.64957726162396,395.8194116145131,3265,393.64957726162396,395.8194116145131,3369,393.64957726162396,395.8194116145131,3470,393.64957726162396,395.8194116145131,3573,393.64957726162396,395.8194116145131,3676,393.64957726162396,395.8194116145131,3776,393.64957726162396,395.8194116145131,3877,393.64957726162396,395.8194116145131,3978,393.64957726162396,395.8194116145131,4078,393.64957726162396,395.8194116145131,4181,393.64957726162396,395.8194116145131,4284,393.64957726162396,395.8194116145131,4388,393.64957726162396,395.8194116145131,4491,393.64957726162396,395.8194116145131,4595,393.64957726162396,395.8194116145131,4701,393.64957726162396,395.8194116145131,4805,393.64957726162396,395.8194116145131,4906]","[340,340,1000,0,-660,""error"",""-"",""-"",""no_move"",1808,1468,1351.1,1345,-888.1,""error"",""-"",""-"",""no_move"",3688,1880,2225.4,2810,-1347.4,""error"",""-"",""-"",""no_move"",7788,4100,2522.1,4690,575.9,""oops"",""up"",""up"",""good_move"",11012,3222,2710.8,7790,511.2,""oops"",""up"",""up"",""good_move"",13349,2338,1834,11012,504,""oops"",""right"",""down"",""bad_move"",14174,824,2408.8,13350,-1584.8,""error"",""-"",""-"",""no_move"",17737,3563,2113.4,15176,447.6,""oops"",""up"",""right"",""good_move""]"
"2807","","<div style=""width:500px;"">
  <p>What determined the result of this run?</p>
  </div>","89","html-slider-response","44","956018","0.0-7.0-1.6","179","1","2025-08-06 10:39:02","36c45c0696341be0efffe67d72a12abb","41.13.13.183","Mozilla/5.0 (Android 13; Mobile; rv:141.0) Gecko/141.0 Firefox/141.0","","Firefox","141.0","AndroidOS","13","https://app.prolific.com/","en-ZA,en-US;q=0.5","66bb2110c5672f09961feed2","687a1a965b9f5b85a264363e","68932f7b9dd286cd0e578751","1","66bb2110c5672f09961feed2","1","2025-08-06T10:57:03.832Z","","","","AttribQ","","","","","","","","","","","50","","","","","","","","","","","","","","","","","","","","","","","","","","",""
"10412","","<div style=""width:500px;"">
  <p>How much control did you have over the ball?</p>
  </div>","92","html-slider-response","45","966433","0.0-7.0-2.6","179","1","2025-08-06 10:39:02","36c45c0696341be0efffe67d72a12abb","41.13.13.183","Mozilla/5.0 (Android 13; Mobile; rv:141.0) Gecko/141.0 Firefox/141.0","","Firefox","141.0","AndroidOS","13","https://app.prolific.com/","en-ZA,en-US;q=0.5","66bb2110c5672f09961feed2","687a1a965b9f5b85a264363e","68932f7b9dd286cd0e578751","1","66bb2110c5672f09961feed2","1","2025-08-06T10:57:14.247Z","","","","ControlQ","","","","","","","","","","","50","","","","","","","","","","","","","","","","","","","","","","","","","","",""
"2789","","<div style=""width:500px;"">
  <p>How would you describe your current emotional state?</p>
  </div>","95","html-slider-response","46","969233","0.0-7.0-3.6","179","1","2025-08-06 10:39:02","36c45c0696341be0efffe67d72a12abb","41.13.13.183","Mozilla/5.0 (Android 13; Mobile; rv:141.0) Gecko/141.0 Firefox/141.0","","Firefox","141.0","AndroidOS","13","https://app.prolific.com/","en-ZA,en-US;q=0.5","66bb2110c5672f09961feed2","687a1a965b9f5b85a264363e","68932f7b9dd286cd0e578751","1","66bb2110c5672f09961feed2","1","2025-08-06T10:57:17.047Z","","","","StressQ","","","","","","","","","","","50","","","","","","","","","","","","","","","","","","","","","","","","","","",""
"3337","","<div style=""width:500px;"">
  <p>What best describes how you currently feel?</p>
  </div>","96","html-slider-response","47","972574","0.0-7.0-4.6","179","1","2025-08-06 10:39:02","36c45c0696341be0efffe67d72a12abb","41.13.13.183","Mozilla/5.0 (Android 13; Mobile; rv:141.0) Gecko/141.0 Firefox/141.0","","Firefox","141.0","AndroidOS","13","https://app.prolific.com/","en-ZA,en-US;q=0.5","66bb2110c5672f09961feed2","687a1a965b9f5b85a264363e","68932f7b9dd286cd0e578751","1","66bb2110c5672f09961feed2","1","2025-08-06T10:57:20.388Z","","","","MotivationQ","","","","","","","","","","","50","","","","","","","","","","","","","","","","","","","","","","","","","","",""
"","","","","ctl-task-cpt","48","1007779","0.0-7.0-0.7","179","1","2025-08-06 10:39:02","36c45c0696341be0efffe67d72a12abb","41.13.13.183","Mozilla/5.0 (Android 13; Mobile; rv:141.0) Gecko/141.0 Firefox/141.0","","Firefox","141.0","AndroidOS","13","https://app.prolific.com/","en-ZA,en-US;q=0.5","66bb2110c5672f09961feed2","687a1a965b9f5b85a264363e","68932f7b9dd286cd0e578751","1","66bb2110c5672f09961feed2","1","2025-08-06T10:57:55.594Z","","","","","","","","","","","","","","","","win-only","2","g1:SE,g2:NW","0.3","8","0","973945","1524","6529","32195","1","4","8","6","2","-8","-9","0","0","0","5005","3000","-2800","[""left"",""up""]","{""num_key_presses"":6,""num_perfect"":1,""num_errors"":1,""num_randdir"":4,""num_randdir_good_moves"":3,""num_whilered"":0,""num_whileblue"":0,""num_blue"":1,""num_good_moves"":4}","[394.78165273332206,390.15903425602255,0,394.78165273332206,390.15903425602255,105,394.78165273332206,390.15903425602255,210,394.78165273332206,390.15903425602255,310,394.78165273332206,390.15903425602255,411,394.78165273332206,390.15903425602255,514,394.78165273332206,390.15903425602255,616,394.78165273332206,390.15903425602255,722,394.78165273332206,390.15903425602255,823,394.78165273332206,390.15903425602255,923,394.78165273332206,390.15903425602255,1026,394.78165273332206,390.15903425602255,1129,394.78165273332206,390.15903425602255,1229,394.78165273332206,390.15903425602255,1329,394.78165273332206,390.15903425602255,1431,394.78165273332206,390.15903425602255,1535,394.78165273332206,390.15903425602255,1636,394.78165273332206,390.15903425602255,1737,394.78165273332206,390.15903425602255,1839,394.78165273332206,390.15903425602255,1940,394.78165273332206,390.15903425602255,2042,394.78165273332206,390.15903425602255,2146,394.78165273332206,390.15903425602255,2250,394.78165273332206,390.15903425602255,2353,394.78165273332206,390.15903425602255,2455,394.78165273332206,390.15903425602255,2555,394.78165273332206,390.15903425602255,2656,394.78165273332206,390.15903425602255,2761,394.78165273332206,390.15903425602255,2865,394.78165273332206,390.15903425602255,2968,394.78165273332206,390.15903425602255,3068,394.78165273332206,390.15903425602255,3171,394.78165273332206,390.15903425602255,3272,394.78165273332206,390.15903425602255,3373,394.78165273332206,390.15903425602255,3475,394.78165273332206,390.15903425602255,3577,394.78165273332206,390.15903425602255,3677,394.78165273332206,390.15903425602255,3778,394.78165273332206,390.15903425602255,3881,394.78165273332206,390.15903425602255,3982,394.78165273332206,390.15903425602255,4083,394.78165273332206,390.15903425602255,4186,394.78165273332206,390.15903425602255,4291,394.78165273332206,390.15903425602255,4393,394.78165273332206,390.15903425602255,4493,394.78165273332206,390.15903425602255,4595,394.78165273332206,390.15903425602255,4697,394.78165273332206,390.15903425602255,4798,394.78165273332206,390.15903425602255,4899,394.78165273332206,390.15903425602255,4999]","[395,395,1000,0,-605,""error"",""-"",""-"",""no_move"",4910,4514,3040.9,1401,468.1,""oops"",""up"",""right"",""bad_move"",8259,3349,2024.1,4910,1324.9,""oops"",""up"",""left"",""good_move"",11374,3115,2615.2,8259,499.8,""smooth"",""up"",""up"",""good_move"",14970,3595,3108.5,11375,486.5,""oops"",""up"",""left"",""good_move"",22846,7875,3013.6,19362,470.4,""oops"",""up"",""left"",""good_move""]"
"3288","","<div style=""width:500px;"">
  <p>What determined the result of this run?</p>
  </div>","93","html-slider-response","49","1011071","0.0-7.0-1.7","179","1","2025-08-06 10:39:02","36c45c0696341be0efffe67d72a12abb","41.13.13.183","Mozilla/5.0 (Android 13; Mobile; rv:141.0) Gecko/141.0 Firefox/141.0","","Firefox","141.0","AndroidOS","13","https://app.prolific.com/","en-ZA,en-US;q=0.5","66bb2110c5672f09961feed2","687a1a965b9f5b85a264363e","68932f7b9dd286cd0e578751","1","66bb2110c5672f09961feed2","1","2025-08-06T10:57:58.885Z","","","","AttribQ","","","","","","","","","","","50","","","","","","","","","","","","","","","","","","","","","","","","","","",""
"2003","","<div style=""width:500px;"">
  <p>How much control did you have over the ball?</p>
  </div>","92","html-slider-response","50","1013077","0.0-7.0-2.7","179","1","2025-08-06 10:39:02","36c45c0696341be0efffe67d72a12abb","41.13.13.183","Mozilla/5.0 (Android 13; Mobile; rv:141.0) Gecko/141.0 Firefox/141.0","","Firefox","141.0","AndroidOS","13","https://app.prolific.com/","en-ZA,en-US;q=0.5","66bb2110c5672f09961feed2","687a1a965b9f5b85a264363e","68932f7b9dd286cd0e578751","1","66bb2110c5672f09961feed2","1","2025-08-06T10:58:00.891Z","","","","ControlQ","","","","","","","","","","","50","","","","","","","","","","","","","","","","","","","","","","","","","","",""
"2387","","<div style=""width:500px;"">
  <p>How would you describe your current emotional state?</p>
  </div>","91","html-slider-response","51","1015467","0.0-7.0-3.7","179","1","2025-08-06 10:39:02","36c45c0696341be0efffe67d72a12abb","41.13.13.183","Mozilla/5.0 (Android 13; Mobile; rv:141.0) Gecko/141.0 Firefox/141.0","","Firefox","141.0","AndroidOS","13","https://app.prolific.com/","en-ZA,en-US;q=0.5","66bb2110c5672f09961feed2","687a1a965b9f5b85a264363e","68932f7b9dd286cd0e578751","1","66bb2110c5672f09961feed2","1","2025-08-06T10:58:03.281Z","","","","StressQ","","","","","","","","","","","50","","","","","","","","","","","","","","","","","","","","","","","","","","",""
"2443","","<div style=""width:500px;"">
  <p>What best describes how you currently feel?</p>
  </div>","93","html-slider-response","52","1017913","0.0-7.0-4.7","179","1","2025-08-06 10:39:02","36c45c0696341be0efffe67d72a12abb","41.13.13.183","Mozilla/5.0 (Android 13; Mobile; rv:141.0) Gecko/141.0 Firefox/141.0","","Firefox","141.0","AndroidOS","13","https://app.prolific.com/","en-ZA,en-US;q=0.5","66bb2110c5672f09961feed2","687a1a965b9f5b85a264363e","68932f7b9dd286cd0e578751","1","66bb2110c5672f09961feed2","1","2025-08-06T10:58:05.727Z","","","","MotivationQ","","","","","","","","","","","50","","","","","","","","","","","","","","","","","","","","","","","","","","",""
"","","","","ctl-task-cpt","53","1046095","0.0-7.0-0.8","179","1","2025-08-06 10:39:02","36c45c0696341be0efffe67d72a12abb","41.13.13.183","Mozilla/5.0 (Android 13; Mobile; rv:141.0) Gecko/141.0 Firefox/141.0","","Firefox","141.0","AndroidOS","13","https://app.prolific.com/","en-ZA,en-US;q=0.5","66bb2110c5672f09961feed2","687a1a965b9f5b85a264363e","68932f7b9dd286cd0e578751","1","66bb2110c5672f09961feed2","1","2025-08-06T10:58:33.909Z","","","","","","","","","","","","","","","","win-only","1","g1:NE,g2:SW","0.4","9","0","1019278","2180","7183","25177","1","4","8","6","1","-1","-2","0","0","0","5003","3000","-2755","[""up"",""right""]","{""num_key_presses"":5,""num_perfect"":1,""num_errors"":1,""num_randdir"":2,""num_randdir_good_moves"":1,""num_whilered"":1,""num_whileblue"":0,""num_blue"":1,""num_good_moves"":2}","[393.64957726162396,390.15903425602255,0,393.64957726162396,390.15903425602255,101,393.64957726162396,390.15903425602255,201,393.64957726162396,390.15903425602255,302,393.64957726162396,390.15903425602255,406,393.64957726162396,390.15903425602255,507,393.64957726162396,390.15903425602255,610,393.64957726162396,390.15903425602255,714,393.64957726162396,390.15903425602255,817,393.64957726162396,390.15903425602255,922,393.64957726162396,390.15903425602255,1023,393.64957726162396,390.15903425602255,1123,393.64957726162396,390.15903425602255,1224,393.64957726162396,390.15903425602255,1328,393.64957726162396,390.15903425602255,1432,393.64957726162396,390.15903425602255,1536,393.64957726162396,390.15903425602255,1636,393.64957726162396,390.15903425602255,1740,393.64957726162396,390.15903425602255,1840,393.64957726162396,390.15903425602255,1943,393.64957726162396,390.15903425602255,2045,393.64957726162396,390.15903425602255,2147,393.64957726162396,390.15903425602255,2250,393.64957726162396,390.15903425602255,2355,393.64957726162396,390.15903425602255,2459,393.64957726162396,390.15903425602255,2561,393.64957726162396,390.15903425602255,2664,393.64957726162396,390.15903425602255,2767,393.64957726162396,390.15903425602255,2870,393.64957726162396,390.15903425602255,2975,393.64957726162396,390.15903425602255,3075,393.64957726162396,390.15903425602255,3180,393.64957726162396,390.15903425602255,3281,393.64957726162396,390.15903425602255,3383,393.64957726162396,390.15903425602255,3486,393.64957726162396,390.15903425602255,3588,393.64957726162396,390.15903425602255,3692,393.64957726162396,390.15903425602255,3796,393.64957726162396,390.15903425602255,3897,393.64957726162396,390.15903425602255,4002,393.64957726162396,390.15903425602255,4102,393.64957726162396,390.15903425602255,4202,393.64957726162396,390.15903425602255,4303,393.64957726162396,390.15903425602255,4405,393.64957726162396,390.15903425602255,4506,393.64957726162396,390.15903425602255,4609,393.64957726162396,390.15903425602255,4713,393.64957726162396,390.15903425602255,4817,393.64957726162396,390.15903425602255,4918]","[1775,1775,1000,0,775,""oops"",""up"",""right"",""good_move"",3395,1620,2242.2,1775,-622.2,""error"",""-"",""-"",""no_move"",3631,236,2242.2,1775,-386.2,""while_red"",""-"",""-"",""no_move"",7631,4236,2705.1,4396,529.9,""oops"",""up"",""left"",""bad_move"",14209,6578,2792,10796,621,""smooth"",""up"",""up"",""good_move""]"
"3361","","<div style=""width:500px;"">
  <p>What determined the result of this run?</p>
  </div>","95","html-slider-response","54","1049494","0.0-7.0-1.8","179","1","2025-08-06 10:39:02","36c45c0696341be0efffe67d72a12abb","41.13.13.183","Mozilla/5.0 (Android 13; Mobile; rv:141.0) Gecko/141.0 Firefox/141.0","","Firefox","141.0","AndroidOS","13","https://app.prolific.com/","en-ZA,en-US;q=0.5","66bb2110c5672f09961feed2","687a1a965b9f5b85a264363e","68932f7b9dd286cd0e578751","1","66bb2110c5672f09961feed2","1","2025-08-06T10:58:37.308Z","","","","AttribQ","","","","","","","","","","","50","","","","","","","","","","","","","","","","","","","","","","","","","","",""
"2155","","<div style=""width:500px;"">
  <p>How much control did you have over the ball?</p>
  </div>","96","html-slider-response","55","1051654","0.0-7.0-2.8","179","1","2025-08-06 10:39:02","36c45c0696341be0efffe67d72a12abb","41.13.13.183","Mozilla/5.0 (Android 13; Mobile; rv:141.0) Gecko/141.0 Firefox/141.0","","Firefox","141.0","AndroidOS","13","https://app.prolific.com/","en-ZA,en-US;q=0.5","66bb2110c5672f09961feed2","687a1a965b9f5b85a264363e","68932f7b9dd286cd0e578751","1","66bb2110c5672f09961feed2","1","2025-08-06T10:58:39.468Z","","","","ControlQ","","","","","","","","","","","50","","","","","","","","","","","","","","","","","","","","","","","","","","",""
"3222","","<div style=""width:500px;"">
  <p>How would you describe your current emotional state?</p>
  </div>","94","html-slider-response","56","1054879","0.0-7.0-3.8","179","1","2025-08-06 10:39:02","36c45c0696341be0efffe67d72a12abb","41.13.13.183","Mozilla/5.0 (Android 13; Mobile; rv:141.0) Gecko/141.0 Firefox/141.0","","Firefox","141.0","AndroidOS","13","https://app.prolific.com/","en-ZA,en-US;q=0.5","66bb2110c5672f09961feed2","687a1a965b9f5b85a264363e","68932f7b9dd286cd0e578751","1","66bb2110c5672f09961feed2","1","2025-08-06T10:58:42.693Z","","","","StressQ","","","","","","","","","","","50","","","","","","","","","","","","","","","","","","","","","","","","","","",""
"2467","","<div style=""width:500px;"">
  <p>What best describes how you currently feel?</p>
  </div>","95","html-slider-response","57","1057350","0.0-7.0-4.8","179","1","2025-08-06 10:39:02","36c45c0696341be0efffe67d72a12abb","41.13.13.183","Mozilla/5.0 (Android 13; Mobile; rv:141.0) Gecko/141.0 Firefox/141.0","","Firefox","141.0","AndroidOS","13","https://app.prolific.com/","en-ZA,en-US;q=0.5","66bb2110c5672f09961feed2","687a1a965b9f5b85a264363e","68932f7b9dd286cd0e578751","1","66bb2110c5672f09961feed2","1","2025-08-06T10:58:45.164Z","","","","MotivationQ","","","","","","","","","","","50","","","","","","","","","","","","","","","","","","","","","","","","","","",""
"","","","","ctl-task-cpt","58","1086326","0.0-7.0-0.9","179","1","2025-08-06 10:39:02","36c45c0696341be0efffe67d72a12abb","41.13.13.183","Mozilla/5.0 (Android 13; Mobile; rv:141.0) Gecko/141.0 Firefox/141.0","","Firefox","141.0","AndroidOS","13","https://app.prolific.com/","en-ZA,en-US;q=0.5","66bb2110c5672f09961feed2","687a1a965b9f5b85a264363e","68932f7b9dd286cd0e578751","1","66bb2110c5672f09961feed2","1","2025-08-06T10:59:14.140Z","","","","","","","","","","","","","","","","win-only","1","g1:NE,g2:SW","0.5","10","0","1058716","1772","6777","25970","1","4","4","6","2","-4","-6","0","0","0","5005","3000","-2755","[""down"",""left""]","{""num_key_presses"":5,""num_perfect"":2,""num_errors"":2,""num_randdir"":1,""num_randdir_good_moves"":1,""num_whilered"":0,""num_whileblue"":0,""num_blue"":0,""num_good_moves"":2}","[387.9891999031334,396.9514870862112,0,387.9891999031334,396.9514870862112,105,387.9891999031334,396.9514870862112,205,387.9891999031334,396.9514870862112,308,387.9891999031334,396.9514870862112,414,387.9891999031334,396.9514870862112,515,387.9891999031334,396.9514870862112,619,387.9891999031334,396.9514870862112,722,387.9891999031334,396.9514870862112,822,387.9891999031334,396.9514870862112,922,387.9891999031334,396.9514870862112,1026,387.9891999031334,396.9514870862112,1129,387.9891999031334,396.9514870862112,1229,387.9891999031334,396.9514870862112,1331,387.9891999031334,396.9514870862112,1434,387.9891999031334,396.9514870862112,1538,387.9891999031334,396.9514870862112,1639,387.9891999031334,396.9514870862112,1739,387.9891999031334,396.9514870862112,1842,387.9891999031334,396.9514870862112,1946,387.9891999031334,396.9514870862112,2049,387.9891999031334,396.9514870862112,2150,387.9891999031334,396.9514870862112,2254,387.9891999031334,396.9514870862112,2354,387.9891999031334,396.9514870862112,2457,387.9891999031334,396.9514870862112,2559,387.9891999031334,396.9514870862112,2663,387.9891999031334,396.9514870862112,2764,387.9891999031334,396.9514870862112,2864,387.9891999031334,396.9514870862112,2968,387.9891999031334,396.9514870862112,3071,387.9891999031334,396.9514870862112,3176,387.9891999031334,396.9514870862112,3280,387.9891999031334,396.9514870862112,3384,387.9891999031334,396.9514870862112,3484,387.9891999031334,396.9514870862112,3589,387.9891999031334,396.9514870862112,3690,387.9891999031334,396.9514870862112,3793,387.9891999031334,396.9514870862112,3896,387.9891999031334,396.9514870862112,4000,387.9891999031334,396.9514870862112,4101,387.9891999031334,396.9514870862112,4203,387.9891999031334,396.9514870862112,4304,387.9891999031334,396.9514870862112,4406,387.9891999031334,396.9514870862112,4509,387.9891999031334,396.9514870862112,4609,387.9891999031334,396.9514870862112,4709,387.9891999031334,396.9514870862112,4813,387.9891999031334,396.9514870862112,4913]","[888,888,1000,0,-112,""error"",""-"",""-"",""no_move"",5098,4210,2357.7,1893,847.3,""smooth"",""up"",""up"",""bad_move"",7485,2387,2516.9,5098,-129.9,""error"",""-"",""-"",""no_move"",11585,4100,2297.5,8487,800.5,""smooth"",""down"",""down"",""good_move"",15423,3838,3298.8,11585,539.2,""oops"",""down"",""down"",""good_move""]"
"4570","","<div style=""width:500px;"">
  <p>What determined the result of this run?</p>
  </div>","96","html-slider-response","59","1090898","0.0-7.0-1.9","179","1","2025-08-06 10:39:02","36c45c0696341be0efffe67d72a12abb","41.13.13.183","Mozilla/5.0 (Android 13; Mobile; rv:141.0) Gecko/141.0 Firefox/141.0","","Firefox","141.0","AndroidOS","13","https://app.prolific.com/","en-ZA,en-US;q=0.5","66bb2110c5672f09961feed2","687a1a965b9f5b85a264363e","68932f7b9dd286cd0e578751","1","66bb2110c5672f09961feed2","1","2025-08-06T10:59:18.712Z","","","","AttribQ","","","","","","","","","","","50","","","","","","","","","","","","","","","","","","","","","","","","","","",""
"2538","","<div style=""width:500px;"">
  <p>How much control did you have over the ball?</p>
  </div>","94","html-slider-response","60","1093440","0.0-7.0-2.9","179","1","2025-08-06 10:39:02","36c45c0696341be0efffe67d72a12abb","41.13.13.183","Mozilla/5.0 (Android 13; Mobile; rv:141.0) Gecko/141.0 Firefox/141.0","","Firefox","141.0","AndroidOS","13","https://app.prolific.com/","en-ZA,en-US;q=0.5","66bb2110c5672f09961feed2","687a1a965b9f5b85a264363e","68932f7b9dd286cd0e578751","1","66bb2110c5672f09961feed2","1","2025-08-06T10:59:21.254Z","","","","ControlQ","","","","","","","","","","","50","","","","","","","","","","","","","","","","","","","","","","","","","","",""
"2913","","<div style=""width:500px;"">
  <p>How would you describe your current emotional state?</p>
  </div>","95","html-slider-response","61","1096362","0.0-7.0-3.9","179","1","2025-08-06 10:39:02","36c45c0696341be0efffe67d72a12abb","41.13.13.183","Mozilla/5.0 (Android 13; Mobile; rv:141.0) Gecko/141.0 Firefox/141.0","","Firefox","141.0","AndroidOS","13","https://app.prolific.com/","en-ZA,en-US;q=0.5","66bb2110c5672f09961feed2","687a1a965b9f5b85a264363e","68932f7b9dd286cd0e578751","1","66bb2110c5672f09961feed2","1","2025-08-06T10:59:24.176Z","","","","StressQ","","","","","","","","","","","50","","","","","","","","","","","","","","","","","","","","","","","","","","",""
"2180","","<div style=""width:500px;"">
  <p>What best describes how you currently feel?</p>
  </div>","96","html-slider-response","62","1098544","0.0-7.0-4.9","179","1","2025-08-06 10:39:02","36c45c0696341be0efffe67d72a12abb","41.13.13.183","Mozilla/5.0 (Android 13; Mobile; rv:141.0) Gecko/141.0 Firefox/141.0","","Firefox","141.0","AndroidOS","13","https://app.prolific.com/","en-ZA,en-US;q=0.5","66bb2110c5672f09961feed2","687a1a965b9f5b85a264363e","68932f7b9dd286cd0e578751","1","66bb2110c5672f09961feed2","1","2025-08-06T10:59:26.358Z","","","","MotivationQ","","","","","","","","","","","50","","","","","","","","","","","","","","","","","","","","","","","","","","",""
"","","","","ctl-task-cpt","63","1140269","0.0-7.0-0.10","179","1","2025-08-06 10:39:02","36c45c0696341be0efffe67d72a12abb","41.13.13.183","Mozilla/5.0 (Android 13; Mobile; rv:141.0) Gecko/141.0 Firefox/141.0","","Firefox","141.0","AndroidOS","13","https://app.prolific.com/","en-ZA,en-US;q=0.5","66bb2110c5672f09961feed2","687a1a965b9f5b85a264363e","68932f7b9dd286cd0e578751","1","66bb2110c5672f09961feed2","1","2025-08-06T11:00:08.084Z","","","","","","","","","","","","","","","","win-only","2","g1:SE,g2:NW","0.6","11","0","1099911","7180","12181","38720","1","4","8","6","2","-8","-9","0","0","0","5001","3000","-2750","[""left"",""up""]","{""num_key_presses"":6,""num_perfect"":3,""num_errors"":1,""num_randdir"":2,""num_randdir_good_moves"":1,""num_whilered"":0,""num_whileblue"":0,""num_blue"":2,""num_good_moves"":4}","[397.0458036767183,385.6307323692301,1,397.0458036767183,385.6307323692301,103,397.0458036767183,385.6307323692301,205,397.0458036767183,385.6307323692301,308,397.0458036767183,385.6307323692301,410,397.0458036767183,385.6307323692301,511,397.0458036767183,385.6307323692301,615,397.0458036767183,385.6307323692301,716,397.0458036767183,385.6307323692301,817,397.0458036767183,385.6307323692301,916,397.0458036767183,385.6307323692301,1017,397.0458036767183,385.6307323692301,1119,397.0458036767183,385.6307323692301,1220,397.0458036767183,385.6307323692301,1321,397.0458036767183,385.6307323692301,1422,397.0458036767183,385.6307323692301,1523,397.0458036767183,385.6307323692301,1627,397.0458036767183,385.6307323692301,1729,397.0458036767183,385.6307323692301,1829,397.0458036767183,385.6307323692301,1932,397.0458036767183,385.6307323692301,2032,397.0458036767183,385.6307323692301,2134,397.0458036767183,385.6307323692301,2234,397.0458036767183,385.6307323692301,2337,397.0458036767183,385.6307323692301,2437,397.0458036767183,385.6307323692301,2537,397.0458036767183,385.6307323692301,2641,397.0458036767183,385.6307323692301,2741,397.0458036767183,385.6307323692301,2841,397.0458036767183,385.6307323692301,2941,397.0458036767183,385.6307323692301,3042,397.0458036767183,385.6307323692301,3145,397.0458036767183,385.6307323692301,3247,397.0458036767183,385.6307323692301,3347,397.0458036767183,385.6307323692301,3450,397.0458036767183,385.6307323692301,3551,397.0458036767183,385.6307323692301,3653,397.0458036767183,385.6307323692301,3757,397.0458036767183,385.6307323692301,3860,397.0458036767183,385.6307323692301,3963,397.0458036767183,385.6307323692301,4067,397.0458036767183,385.6307323692301,4168,397.0458036767183,385.6307323692301,4272,397.0458036767183,385.6307323692301,4372,397.0458036767183,385.6307323692301,4474,397.0458036767183,385.6307323692301,4574,397.0458036767183,385.6307323692301,4674,397.0458036767183,385.6307323692301,4777,397.0458036767183,385.6307323692301,4881,397.0458036767183,385.6307323692301,4985]","[1434,1434,1000,0,434,""oops"",""up"",""up"",""good_move"",4552,3118,2438.9,1434,679.1,""oops"",""up"",""right"",""bad_move"",8186,3634,3008.9,4552,625.1,""smooth"",""up"",""up"",""good_move"",11800,3614,2859.2,8186,754.8,""smooth"",""up"",""up"",""good_move"",19273,7473,2605,19001,-2333,""error"",""-"",""-"",""no_move"",23486,4213,2697.1,20277,511.9,""smooth"",""left"",""left"",""good_move""]"
"3508","","<div style=""width:500px;"">
  <p>What determined the result of this run?</p>
  </div>","94","html-slider-response","64","1143780","0.0-7.0-1.10","179","1","2025-08-06 10:39:02","36c45c0696341be0efffe67d72a12abb","41.13.13.183","Mozilla/5.0 (Android 13; Mobile; rv:141.0) Gecko/141.0 Firefox/141.0","","Firefox","141.0","AndroidOS","13","https://app.prolific.com/","en-ZA,en-US;q=0.5","66bb2110c5672f09961feed2","687a1a965b9f5b85a264363e","68932f7b9dd286cd0e578751","1","66bb2110c5672f09961feed2","1","2025-08-06T11:00:11.594Z","","","","AttribQ","","","","","","","","","","","50","","","","","","","","","","","","","","","","","","","","","","","","","","",""
"1745","","<div style=""width:500px;"">
  <p>How much control did you have over the ball?</p>
  </div>","94","html-slider-response","65","1145527","0.0-7.0-2.10","179","1","2025-08-06 10:39:02","36c45c0696341be0efffe67d72a12abb","41.13.13.183","Mozilla/5.0 (Android 13; Mobile; rv:141.0) Gecko/141.0 Firefox/141.0","","Firefox","141.0","AndroidOS","13","https://app.prolific.com/","en-ZA,en-US;q=0.5","66bb2110c5672f09961feed2","687a1a965b9f5b85a264363e","68932f7b9dd286cd0e578751","1","66bb2110c5672f09961feed2","1","2025-08-06T11:00:13.341Z","","","","ControlQ","","","","","","","","","","","50","","","","","","","","","","","","","","","","","","","","","","","","","","",""
"3381","","<div style=""width:500px;"">
  <p>How would you describe your current emotional state?</p>
  </div>","95","html-slider-response","66","1148913","0.0-7.0-3.10","179","1","2025-08-06 10:39:02","36c45c0696341be0efffe67d72a12abb","41.13.13.183","Mozilla/5.0 (Android 13; Mobile; rv:141.0) Gecko/141.0 Firefox/141.0","","Firefox","141.0","AndroidOS","13","https://app.prolific.com/","en-ZA,en-US;q=0.5","66bb2110c5672f09961feed2","687a1a965b9f5b85a264363e","68932f7b9dd286cd0e578751","1","66bb2110c5672f09961feed2","1","2025-08-06T11:00:16.727Z","","","","StressQ","","","","","","","","","","","50","","","","","","","","","","","","","","","","","","","","","","","","","","",""
"1649","","<div style=""width:500px;"">
  <p>What best describes how you currently feel?</p>
  </div>","92","html-slider-response","67","1150564","0.0-7.0-4.10","179","1","2025-08-06 10:39:02","36c45c0696341be0efffe67d72a12abb","41.13.13.183","Mozilla/5.0 (Android 13; Mobile; rv:141.0) Gecko/141.0 Firefox/141.0","","Firefox","141.0","AndroidOS","13","https://app.prolific.com/","en-ZA,en-US;q=0.5","66bb2110c5672f09961feed2","687a1a965b9f5b85a264363e","68932f7b9dd286cd0e578751","1","66bb2110c5672f09961feed2","1","2025-08-06T11:00:18.378Z","","","","MotivationQ","","","","","","","","","","","50","","","","","","","","","","","","","","","","","","","","","","","","","","",""
"","","","","ctl-task-cpt","68","1159613","0.0-7.0-0.11","179","1","2025-08-06 10:39:02","36c45c0696341be0efffe67d72a12abb","41.13.13.183","Mozilla/5.0 (Android 13; Mobile; rv:141.0) Gecko/141.0 Firefox/141.0","","Firefox","141.0","AndroidOS","13","https://app.prolific.com/","en-ZA,en-US;q=0.5","66bb2110c5672f09961feed2","687a1a965b9f5b85a264363e","68932f7b9dd286cd0e578751","1","66bb2110c5672f09961feed2","1","2025-08-06T11:00:27.427Z","","","","","","","","","","","","","","","","win-only","2","g1:SE,g2:NW","0.7","12","0","1151931","1038","-9999","6043","1","4","4","6","-9999","-4","-4","0","0","0","-9999","3000","3000","[]","{""num_key_presses"":0,""num_perfect"":0,""num_errors"":0,""num_randdir"":0,""num_randdir_good_moves"":0,""num_whilered"":0,""num_whileblue"":0,""num_blue"":0,""num_good_moves"":0}","[382.32882254464283,384.498656897532,0,382.32882254464283,384.498656897532,103,382.32882254464283,384.498656897532,203,382.32882254464283,384.498656897532,303,382.32882254464283,384.498656897532,407,382.32882254464283,384.498656897532,508,382.32882254464283,384.498656897532,608,382.32882254464283,384.498656897532,708,382.32882254464283,384.498656897532,811,382.32882254464283,384.498656897532,915,382.32882254464283,384.498656897532,1018,382.32882254464283,384.498656897532,1123,382.32882254464283,384.498656897532,1226,382.32882254464283,384.498656897532,1331,382.32882254464283,384.498656897532,1432,382.32882254464283,384.498656897532,1537,382.32882254464283,384.498656897532,1638,382.32882254464283,384.498656897532,1739,382.32882254464283,384.498656897532,1843,382.32882254464283,384.498656897532,1946,382.32882254464283,384.498656897532,2049,382.32882254464283,384.498656897532,2150,382.32882254464283,384.498656897532,2250,382.32882254464283,384.498656897532,2350,382.32882254464283,384.498656897532,2455,382.32882254464283,384.498656897532,2558,382.32882254464283,384.498656897532,2659,382.32882254464283,384.498656897532,2761,382.32882254464283,384.498656897532,2862,382.32882254464283,384.498656897532,2962,382.32882254464283,384.498656897532,3062,382.32882254464283,384.498656897532,3165,382.32882254464283,384.498656897532,3268,382.32882254464283,384.498656897532,3371,382.32882254464283,384.498656897532,3475,382.32882254464283,384.498656897532,3576,382.32882254464283,384.498656897532,3677,382.32882254464283,384.498656897532,3780,382.32882254464283,384.498656897532,3883,382.32882254464283,384.498656897532,3983,382.32882254464283,384.498656897532,4084,382.32882254464283,384.498656897532,4187,382.32882254464283,384.498656897532,4291,382.32882254464283,384.498656897532,4394,382.32882254464283,384.498656897532,4498,382.32882254464283,384.498656897532,4600,382.32882254464283,384.498656897532,4705,382.32882254464283,384.498656897532,4807,382.32882254464283,384.498656897532,4910]","[]"
"2874","","<div style=""width:500px;"">
  <p>What determined the result of this run?</p>
  </div>","92","html-slider-response","69","1162489","0.0-7.0-1.11","179","1","2025-08-06 10:39:02","36c45c0696341be0efffe67d72a12abb","41.13.13.183","Mozilla/5.0 (Android 13; Mobile; rv:141.0) Gecko/141.0 Firefox/141.0","","Firefox","141.0","AndroidOS","13","https://app.prolific.com/","en-ZA,en-US;q=0.5","66bb2110c5672f09961feed2","687a1a965b9f5b85a264363e","68932f7b9dd286cd0e578751","1","66bb2110c5672f09961feed2","1","2025-08-06T11:00:30.303Z","","","","AttribQ","","","","","","","","","","","50","","","","","","","","","","","","","","","","","","","","","","","","","","",""
"1601","","<div style=""width:500px;"">
  <p>How much control did you have over the ball?</p>
  </div>","92","html-slider-response","70","1164095","0.0-7.0-2.11","179","1","2025-08-06 10:39:02","36c45c0696341be0efffe67d72a12abb","41.13.13.183","Mozilla/5.0 (Android 13; Mobile; rv:141.0) Gecko/141.0 Firefox/141.0","","Firefox","141.0","AndroidOS","13","https://app.prolific.com/","en-ZA,en-US;q=0.5","66bb2110c5672f09961feed2","687a1a965b9f5b85a264363e","68932f7b9dd286cd0e578751","1","66bb2110c5672f09961feed2","1","2025-08-06T11:00:31.909Z","","","","ControlQ","","","","","","","","","","","50","","","","","","","","","","","","","","","","","","","","","","","","","","",""
"1973","","<div style=""width:500px;"">
  <p>How would you describe your current emotional state?</p>
  </div>","92","html-slider-response","71","1166072","0.0-7.0-3.11","179","1","2025-08-06 10:39:02","36c45c0696341be0efffe67d72a12abb","41.13.13.183","Mozilla/5.0 (Android 13; Mobile; rv:141.0) Gecko/141.0 Firefox/141.0","","Firefox","141.0","AndroidOS","13","https://app.prolific.com/","en-ZA,en-US;q=0.5","66bb2110c5672f09961feed2","687a1a965b9f5b85a264363e","68932f7b9dd286cd0e578751","1","66bb2110c5672f09961feed2","1","2025-08-06T11:00:33.887Z","","","","StressQ","","","","","","","","","","","50","","","","","","","","","","","","","","","","","","","","","","","","","","",""
"3452","","<div style=""width:500px;"">
  <p>What best describes how you currently feel?</p>
  </div>","94","html-slider-response","72","1169532","0.0-7.0-4.11","179","1","2025-08-06 10:39:02","36c45c0696341be0efffe67d72a12abb","41.13.13.183","Mozilla/5.0 (Android 13; Mobile; rv:141.0) Gecko/141.0 Firefox/141.0","","Firefox","141.0","AndroidOS","13","https://app.prolific.com/","en-ZA,en-US;q=0.5","66bb2110c5672f09961feed2","687a1a965b9f5b85a264363e","68932f7b9dd286cd0e578751","1","66bb2110c5672f09961feed2","1","2025-08-06T11:00:37.346Z","","","","MotivationQ","","","","","","","","","","","50","","","","","","","","","","","","","","","","","","","","","","","","","","",""
"","","","","ctl-task-cpt","73","1207560","0.0-7.0-0.12","179","1","2025-08-06 10:39:02","36c45c0696341be0efffe67d72a12abb","41.13.13.183","Mozilla/5.0 (Android 13; Mobile; rv:141.0) Gecko/141.0 Firefox/141.0","","Firefox","141.0","AndroidOS","13","https://app.prolific.com/","en-ZA,en-US;q=0.5","66bb2110c5672f09961feed2","687a1a965b9f5b85a264363e","68932f7b9dd286cd0e578751","1","66bb2110c5672f09961feed2","1","2025-08-06T11:01:15.374Z","","","","","","","","","","","","","","","","win-only","0","g1:NW,g2:SE","0.8","13","0","1170899","4712","9715","35022","1","4","8","6","2","-8","-13","0","0","0","5003","3000","-2780","[""down"",""right""]","{""num_key_presses"":6,""num_perfect"":0,""num_errors"":5,""num_randdir"":1,""num_randdir_good_moves"":0,""num_whilered"":0,""num_whileblue"":0,""num_blue"":2,""num_good_moves"":0}","[391.38542631822776,390.15903425602255,0,391.38542631822776,390.15903425602255,104,391.38542631822776,390.15903425602255,207,391.38542631822776,390.15903425602255,311,391.38542631822776,390.15903425602255,415,391.38542631822776,390.15903425602255,516,391.38542631822776,390.15903425602255,617,391.38542631822776,390.15903425602255,717,391.38542631822776,390.15903425602255,819,391.38542631822776,390.15903425602255,920,391.38542631822776,390.15903425602255,1023,391.38542631822776,390.15903425602255,1125,391.38542631822776,390.15903425602255,1225,391.38542631822776,390.15903425602255,1327,391.38542631822776,390.15903425602255,1430,391.38542631822776,390.15903425602255,1534,391.38542631822776,390.15903425602255,1639,391.38542631822776,390.15903425602255,1742,391.38542631822776,390.15903425602255,1843,391.38542631822776,390.15903425602255,1947,391.38542631822776,390.15903425602255,2049,391.38542631822776,390.15903425602255,2149,391.38542631822776,390.15903425602255,2250,391.38542631822776,390.15903425602255,2352,391.38542631822776,390.15903425602255,2454,391.38542631822776,390.15903425602255,2557,391.38542631822776,390.15903425602255,2658,391.38542631822776,390.15903425602255,2761,391.38542631822776,390.15903425602255,2862,391.38542631822776,390.15903425602255,2963,391.38542631822776,390.15903425602255,3065,391.38542631822776,390.15903425602255,3165,391.38542631822776,390.15903425602255,3268,391.38542631822776,390.15903425602255,3368,391.38542631822776,390.15903425602255,3473,391.38542631822776,390.15903425602255,3574,391.38542631822776,390.15903425602255,3679,391.38542631822776,390.15903425602255,3779,391.38542631822776,390.15903425602255,3881,391.38542631822776,390.15903425602255,3984,391.38542631822776,390.15903425602255,4089,391.38542631822776,390.15903425602255,4191,391.38542631822776,390.15903425602255,4295,391.38542631822776,390.15903425602255,4395,391.38542631822776,390.15903425602255,4495,391.38542631822776,390.15903425602255,4595,391.38542631822776,390.15903425602255,4700,391.38542631822776,390.15903425602255,4800,391.38542631822776,390.15903425602255,4905]","[146,146,1000,0,-854,""error"",""-"",""-"",""no_move"",1935,1789,1873.8,1152,-1090.8,""error"",""-"",""-"",""no_move"",7546,5612,2690.8,2938,1918.2,""oops"",""down"",""up"",""bad_move"",9610,2063,2375.5,7547,-312.5,""error"",""-"",""-"",""no_move"",15299,5689,2386.8,14651,-1738.8,""error"",""-"",""-"",""no_move"",20134,4834,2304.2,19915,-2085.2,""error"",""-"",""-"",""no_move""]"
"8545","","<div style=""width:500px;"">
  <p>What determined the result of this run?</p>
  </div>","95","html-slider-response","74","1216108","0.0-7.0-1.12","179","1","2025-08-06 10:39:02","36c45c0696341be0efffe67d72a12abb","41.13.13.183","Mozilla/5.0 (Android 13; Mobile; rv:141.0) Gecko/141.0 Firefox/141.0","","Firefox","141.0","AndroidOS","13","https://app.prolific.com/","en-ZA,en-US;q=0.5","66bb2110c5672f09961feed2","687a1a965b9f5b85a264363e","68932f7b9dd286cd0e578751","1","66bb2110c5672f09961feed2","1","2025-08-06T11:01:23.922Z","","","","AttribQ","","","","","","","","","","","50","","","","","","","","","","","","","","","","","","","","","","","","","","",""
"2158","","<div style=""width:500px;"">
  <p>How much control did you have over the ball?</p>
  </div>","90","html-slider-response","75","1218269","0.0-7.0-2.12","179","1","2025-08-06 10:39:02","36c45c0696341be0efffe67d72a12abb","41.13.13.183","Mozilla/5.0 (Android 13; Mobile; rv:141.0) Gecko/141.0 Firefox/141.0","","Firefox","141.0","AndroidOS","13","https://app.prolific.com/","en-ZA,en-US;q=0.5","66bb2110c5672f09961feed2","687a1a965b9f5b85a264363e","68932f7b9dd286cd0e578751","1","66bb2110c5672f09961feed2","1","2025-08-06T11:01:26.083Z","","","","ControlQ","","","","","","","","","","","50","","","","","","","","","","","","","","","","","","","","","","","","","","",""
"4030","","<div style=""width:500px;"">
  <p>How would you describe your current emotional state?</p>
  </div>","89","html-slider-response","76","1222302","0.0-7.0-3.12","179","1","2025-08-06 10:39:02","36c45c0696341be0efffe67d72a12abb","41.13.13.183","Mozilla/5.0 (Android 13; Mobile; rv:141.0) Gecko/141.0 Firefox/141.0","","Firefox","141.0","AndroidOS","13","https://app.prolific.com/","en-ZA,en-US;q=0.5","66bb2110c5672f09961feed2","687a1a965b9f5b85a264363e","68932f7b9dd286cd0e578751","1","66bb2110c5672f09961feed2","1","2025-08-06T11:01:30.117Z","","","","StressQ","","","","","","","","","","","50","","","","","","","","","","","","","","","","","","","","","","","","","","",""
"2821","","<div style=""width:500px;"">
  <p>What best describes how you currently feel?</p>
  </div>","92","html-slider-response","77","1225127","0.0-7.0-4.12","179","1","2025-08-06 10:39:02","36c45c0696341be0efffe67d72a12abb","41.13.13.183","Mozilla/5.0 (Android 13; Mobile; rv:141.0) Gecko/141.0 Firefox/141.0","","Firefox","141.0","AndroidOS","13","https://app.prolific.com/","en-ZA,en-US;q=0.5","66bb2110c5672f09961feed2","687a1a965b9f5b85a264363e","68932f7b9dd286cd0e578751","1","66bb2110c5672f09961feed2","1","2025-08-06T11:01:32.941Z","","","","MotivationQ","","","","","","","","","","","50","","","","","","","","","","","","","","","","","","","","","","","","","","",""
"","","","","ctl-task-cpt","78","1256892","0.0-7.0-0.13","179","1","2025-08-06 10:39:02","36c45c0696341be0efffe67d72a12abb","41.13.13.183","Mozilla/5.0 (Android 13; Mobile; rv:141.0) Gecko/141.0 Firefox/141.0","","Firefox","141.0","AndroidOS","13","https://app.prolific.com/","en-ZA,en-US;q=0.5","66bb2110c5672f09961feed2","687a1a965b9f5b85a264363e","68932f7b9dd286cd0e578751","1","66bb2110c5672f09961feed2","1","2025-08-06T11:02:04.707Z","","","","","","","","","","","","","","","","win-only","3","g1:SW,g2:NE","0.9","14","0","1226492","8267","13272","28762","1","4","4","6","2","-4","-4","0","0","0","5005","3000","-2770","[""up"",""right""]","{""num_key_presses"":3,""num_perfect"":3,""num_errors"":0,""num_randdir"":0,""num_randdir_good_moves"":0,""num_whilered"":0,""num_whileblue"":0,""num_blue"":1,""num_good_moves"":3}","[384.5929734880391,387.89488331262635,0,384.5929734880391,387.89488331262635,104,384.5929734880391,387.89488331262635,205,384.5929734880391,387.89488331262635,309,384.5929734880391,387.89488331262635,412,384.5929734880391,387.89488331262635,516,384.5929734880391,387.89488331262635,617,384.5929734880391,387.89488331262635,719,384.5929734880391,387.89488331262635,820,384.5929734880391,387.89488331262635,920,384.5929734880391,387.89488331262635,1025,384.5929734880391,387.89488331262635,1125,384.5929734880391,387.89488331262635,1225,384.5929734880391,387.89488331262635,1328,384.5929734880391,387.89488331262635,1430,384.5929734880391,387.89488331262635,1533,384.5929734880391,387.89488331262635,1634,384.5929734880391,387.89488331262635,1736,384.5929734880391,387.89488331262635,1841,384.5929734880391,387.89488331262635,1943,384.5929734880391,387.89488331262635,2043,384.5929734880391,387.89488331262635,2143,384.5929734880391,387.89488331262635,2247,384.5929734880391,387.89488331262635,2348,384.5929734880391,387.89488331262635,2449,384.5929734880391,387.89488331262635,2553,384.5929734880391,387.89488331262635,2653,384.5929734880391,387.89488331262635,2755,384.5929734880391,387.89488331262635,2857,384.5929734880391,387.89488331262635,2962,384.5929734880391,387.89488331262635,3064,384.5929734880391,387.89488331262635,3169,384.5929734880391,387.89488331262635,3273,384.5929734880391,387.89488331262635,3373,384.5929734880391,387.89488331262635,3477,384.5929734880391,387.89488331262635,3579,384.5929734880391,387.89488331262635,3680,384.5929734880391,387.89488331262635,3781,384.5929734880391,387.89488331262635,3886,384.5929734880391,387.89488331262635,3987,384.5929734880391,387.89488331262635,4087,384.5929734880391,387.89488331262635,4191,384.5929734880391,387.89488331262635,4291,384.5929734880391,387.89488331262635,4393,384.5929734880391,387.89488331262635,4494,384.5929734880391,387.89488331262635,4599,384.5929734880391,387.89488331262635,4701,384.5929734880391,387.89488331262635,4805,384.5929734880391,387.89488331262635,4910]","[5135,5135,2404.1,2011,719.9,""smooth"",""up"",""up"",""good_move"",8872,3736,3012.5,5136,723.5,""smooth"",""up"",""up"",""good_move"",12908,4036,2875.3,8872,1160.7,""smooth"",""up"",""up"",""good_move""]"
"3043","","<div style=""width:500px;"">
  <p>What determined the result of this run?</p>
  </div>","96","html-slider-response","79","1259941","0.0-7.0-1.13","179","1","2025-08-06 10:39:02","36c45c0696341be0efffe67d72a12abb","41.13.13.183","Mozilla/5.0 (Android 13; Mobile; rv:141.0) Gecko/141.0 Firefox/141.0","","Firefox","141.0","AndroidOS","13","https://app.prolific.com/","en-ZA,en-US;q=0.5","66bb2110c5672f09961feed2","687a1a965b9f5b85a264363e","68932f7b9dd286cd0e578751","1","66bb2110c5672f09961feed2","1","2025-08-06T11:02:07.755Z","","","","AttribQ","","","","","","","","","","","50","","","","","","","","","","","","","","","","","","","","","","","","","","",""
"29448","","<div style=""width:500px;"">
  <p>How much control did you have over the ball?</p>
  </div>","96","html-slider-response","80","1289392","0.0-7.0-2.13","179","1","2025-08-06 10:39:02","36c45c0696341be0efffe67d72a12abb","41.13.13.183","Mozilla/5.0 (Android 13; Mobile; rv:141.0) Gecko/141.0 Firefox/141.0","","Firefox","141.0","AndroidOS","13","https://app.prolific.com/","en-ZA,en-US;q=0.5","66bb2110c5672f09961feed2","687a1a965b9f5b85a264363e","68932f7b9dd286cd0e578751","1","66bb2110c5672f09961feed2","1","2025-08-06T11:02:37.206Z","","","","ControlQ","","","","","","","","","","","50","","","","","","","","","","","","","","","","","","","","","","","","","","",""
"3387","","<div style=""width:500px;"">
  <p>How would you describe your current emotional state?</p>
  </div>","99","html-slider-response","81","1292780","0.0-7.0-3.13","179","1","2025-08-06 10:39:02","36c45c0696341be0efffe67d72a12abb","41.13.13.183","Mozilla/5.0 (Android 13; Mobile; rv:141.0) Gecko/141.0 Firefox/141.0","","Firefox","141.0","AndroidOS","13","https://app.prolific.com/","en-ZA,en-US;q=0.5","66bb2110c5672f09961feed2","687a1a965b9f5b85a264363e","68932f7b9dd286cd0e578751","1","66bb2110c5672f09961feed2","1","2025-08-06T11:02:40.595Z","","","","StressQ","","","","","","","","","","","50","","","","","","","","","","","","","","","","","","","","","","","","","","",""
"5661","","<div style=""width:500px;"">
  <p>What best describes how you currently feel?</p>
  </div>","93","html-slider-response","82","1298446","0.0-7.0-4.13","179","1","2025-08-06 10:39:02","36c45c0696341be0efffe67d72a12abb","41.13.13.183","Mozilla/5.0 (Android 13; Mobile; rv:141.0) Gecko/141.0 Firefox/141.0","","Firefox","141.0","AndroidOS","13","https://app.prolific.com/","en-ZA,en-US;q=0.5","66bb2110c5672f09961feed2","687a1a965b9f5b85a264363e","68932f7b9dd286cd0e578751","1","66bb2110c5672f09961feed2","1","2025-08-06T11:02:46.260Z","","","","MotivationQ","","","","","","","","","","","50","","","","","","","","","","","","","","","","","","","","","","","","","","",""
"","","","","ctl-task-cpt","83","1328769","0.0-7.0-0.14","179","1","2025-08-06 10:39:02","36c45c0696341be0efffe67d72a12abb","41.13.13.183","Mozilla/5.0 (Android 13; Mobile; rv:141.0) Gecko/141.0 Firefox/141.0","","Firefox","141.0","AndroidOS","13","https://app.prolific.com/","en-ZA,en-US;q=0.5","66bb2110c5672f09961feed2","687a1a965b9f5b85a264363e","68932f7b9dd286cd0e578751","1","66bb2110c5672f09961feed2","1","2025-08-06T11:03:16.583Z","","","","","","","","","","","","","","","","win-only","0","g1:NW,g2:SE","1","15","0","1299813","1788","6790","27317","1","4","8","6","1","-1","-2","0","0","0","5002","3000","-2730","[""left"",""up""]","{""num_key_presses"":4,""num_perfect"":3,""num_errors"":1,""num_randdir"":0,""num_randdir_good_moves"":0,""num_whilered"":0,""num_whileblue"":0,""num_blue"":2,""num_good_moves"":2}","[395.9137282050202,389.02695878432445,1,395.9137282050202,389.02695878432445,103,395.9137282050202,389.02695878432445,206,395.9137282050202,389.02695878432445,306,395.9137282050202,389.02695878432445,407,395.9137282050202,389.02695878432445,511,395.9137282050202,389.02695878432445,613,395.9137282050202,389.02695878432445,717,395.9137282050202,389.02695878432445,819,395.9137282050202,389.02695878432445,922,395.9137282050202,389.02695878432445,1025,395.9137282050202,389.02695878432445,1126,395.9137282050202,389.02695878432445,1227,395.9137282050202,389.02695878432445,1328,395.9137282050202,389.02695878432445,1429,395.9137282050202,389.02695878432445,1532,395.9137282050202,389.02695878432445,1636,395.9137282050202,389.02695878432445,1738,395.9137282050202,389.02695878432445,1838,395.9137282050202,389.02695878432445,1939,395.9137282050202,389.02695878432445,2039,395.9137282050202,389.02695878432445,2139,395.9137282050202,389.02695878432445,2241,395.9137282050202,389.02695878432445,2345,395.9137282050202,389.02695878432445,2446,395.9137282050202,389.02695878432445,2546,395.9137282050202,389.02695878432445,2651,395.9137282050202,389.02695878432445,2752,395.9137282050202,389.02695878432445,2857,395.9137282050202,389.02695878432445,2957,395.9137282050202,389.02695878432445,3061,395.9137282050202,389.02695878432445,3161,395.9137282050202,389.02695878432445,3262,395.9137282050202,389.02695878432445,3363,395.9137282050202,389.02695878432445,3467,395.9137282050202,389.02695878432445,3570,395.9137282050202,389.02695878432445,3671,395.9137282050202,389.02695878432445,3772,395.9137282050202,389.02695878432445,3874,395.9137282050202,389.02695878432445,3975,395.9137282050202,389.02695878432445,4075,395.9137282050202,389.02695878432445,4177,395.9137282050202,389.02695878432445,4279,395.9137282050202,389.02695878432445,4382,395.9137282050202,389.02695878432445,4483,395.9137282050202,389.02695878432445,4587,395.9137282050202,389.02695878432445,4687,395.9137282050202,389.02695878432445,4791,395.9137282050202,389.02695878432445,4895,395.9137282050202,389.02695878432445,4997]","[2384,2384,1000,0,1384,""smooth"",""up"",""up"",""good_move"",6170,3786,2469.1,2385,1315.9,""smooth"",""up"",""up"",""good_move"",12934,6764,2413.4,9755,765.6,""smooth"",""up"",""right"",""bad_move"",16741,3807,2460.3,16070,-1789.3,""error"",""-"",""-"",""no_move""]"
"5686","","<div style=""width:500px;"">
  <p>What determined the result of this run?</p>
  </div>","96","html-slider-response","84","1334460","0.0-7.0-1.14","179","1","2025-08-06 10:39:02","36c45c0696341be0efffe67d72a12abb","41.13.13.183","Mozilla/5.0 (Android 13; Mobile; rv:141.0) Gecko/141.0 Firefox/141.0","","Firefox","141.0","AndroidOS","13","https://app.prolific.com/","en-ZA,en-US;q=0.5","66bb2110c5672f09961feed2","687a1a965b9f5b85a264363e","68932f7b9dd286cd0e578751","1","66bb2110c5672f09961feed2","1","2025-08-06T11:03:22.274Z","","","","AttribQ","","","","","","","","","","","50","","","","","","","","","","","","","","","","","","","","","","","","","","",""
"2837","","<div style=""width:500px;"">
  <p>How much control did you have over the ball?</p>
  </div>","94","html-slider-response","85","1337300","0.0-7.0-2.14","179","1","2025-08-06 10:39:02","36c45c0696341be0efffe67d72a12abb","41.13.13.183","Mozilla/5.0 (Android 13; Mobile; rv:141.0) Gecko/141.0 Firefox/141.0","","Firefox","141.0","AndroidOS","13","https://app.prolific.com/","en-ZA,en-US;q=0.5","66bb2110c5672f09961feed2","687a1a965b9f5b85a264363e","68932f7b9dd286cd0e578751","1","66bb2110c5672f09961feed2","1","2025-08-06T11:03:25.114Z","","","","ControlQ","","","","","","","","","","","50","","","","","","","","","","","","","","","","","","","","","","","","","","",""
"2689","","<div style=""width:500px;"">
  <p>How would you describe your current emotional state?</p>
  </div>","95","html-slider-response","86","1339992","0.0-7.0-3.14","179","1","2025-08-06 10:39:02","36c45c0696341be0efffe67d72a12abb","41.13.13.183","Mozilla/5.0 (Android 13; Mobile; rv:141.0) Gecko/141.0 Firefox/141.0","","Firefox","141.0","AndroidOS","13","https://app.prolific.com/","en-ZA,en-US;q=0.5","66bb2110c5672f09961feed2","687a1a965b9f5b85a264363e","68932f7b9dd286cd0e578751","1","66bb2110c5672f09961feed2","1","2025-08-06T11:03:27.806Z","","","","StressQ","","","","","","","","","","","50","","","","","","","","","","","","","","","","","","","","","","","","","","",""
"2761","","<div style=""width:500px;"">
  <p>What best describes how you currently feel?</p>
  </div>","91","html-slider-response","87","1342756","0.0-7.0-4.14","179","1","2025-08-06 10:39:02","36c45c0696341be0efffe67d72a12abb","41.13.13.183","Mozilla/5.0 (Android 13; Mobile; rv:141.0) Gecko/141.0 Firefox/141.0","","Firefox","141.0","AndroidOS","13","https://app.prolific.com/","en-ZA,en-US;q=0.5","66bb2110c5672f09961feed2","687a1a965b9f5b85a264363e","68932f7b9dd286cd0e578751","1","66bb2110c5672f09961feed2","1","2025-08-06T11:03:30.570Z","","","","MotivationQ","","","","","","","","","","","50","","","","","","","","","","","","","","","","","","","","","","","","","","",""
