"rt","response_timestamp","stimulus","response","trial_type","trial_index","time_elapsed","internal_node_id","run_id","condition","recorded_at","source_code_version","ip","user_agent","device","browser","browser_version","platform","platform_version","referer","accept_language","PROLIFIC_PID","STUDY_ID","SESSION_ID","BATCH","prolific_id","batch","realtime","success","question_order","question_id","eventType","responses","item_order","radio_event_ids","radio_event_times","key_event_times","mouse_event_times","straightlining","zigzagging","honeypot","view_history","slider_start","which_type","canvas_config","goals_layout","control_level","trial_number","tutorial_trial_number","trial_start_time","phase1_start_time","phase2_start_time","phase3_start_time","goal_1_value","goal_1_distance","goal_2_value","goal_2_distance","goal_selected","outcome","outcome_total","participant_final_score","participant_initial_score","participant_final_score_prop","goal_choice_rt","allocated_time","allocated_time_remaining","goal_direction","counts","mouse_movements","key_presses"
"2714","1754478013072","<p style='font-size:40px;line-height:1.25'><strong>Welcome to the experiment!</strong></p><p style='font-size:1.1em;line-height:1.25'>Thank you for participanting in our experiment again! You will be asked to play the Dysfunctional Ball Game again. We will briefly recap the rules before we start.</p><p style='font-size:1.1em;line-height:1.25'>Press <strong>Next</strong> to continue.</p>","0","custom-html-button-response","0","2722","0.0-0.0","182","1","2025-08-06 11:00:07","36c45c0696341be0efffe67d72a12abb","41.116.54.249","Mozilla/5.0 (Windows NT 10.0; Win64; x64) AppleWebKit/537.36 (KHTML, like Gecko) Chrome/138.0.0.0 Safari/537.36","WebKit","Chrome","138.0.0.0","Windows","10.0","https://app.prolific.com/","en-US,en;q=0.8","66bee53cfe67b3e6342cb2ba","687a1a965b9f5b85a264363e","689334d9991a2c19c6cccf26","1","66bee53cfe67b3e6342cb2ba","1","2025-08-06T11:00:13.078Z","","","","","","","","","","","","","","","","","","","","","","","","","","","","","","","","","","","","","","","","","",""
"2075","","","","fullscreen","1","5813","0.0-1.0","182","1","2025-08-06 11:00:07","36c45c0696341be0efffe67d72a12abb","41.116.54.249","Mozilla/5.0 (Windows NT 10.0; Win64; x64) AppleWebKit/537.36 (KHTML, like Gecko) Chrome/138.0.0.0 Safari/537.36","WebKit","Chrome","138.0.0.0","Windows","10.0","https://app.prolific.com/","en-US,en;q=0.8","66bee53cfe67b3e6342cb2ba","687a1a965b9f5b85a264363e","689334d9991a2c19c6cccf26","1","66bee53cfe67b3e6342cb2ba","1","","true","","","","","","","","","","","","","","","","","","","","","","","","","","","","","","","","","","","","","","","","",""
"7292","1754478023461"," <p style='font-size:1.1em;line-height:1.25'>Thank you for closing all other tabs.</p><p style='font-size:1.1em;line-height:1.25'>We will now invite you to fill in some questionnaires, before starting the game.<br>This will take about 5 minutes.<br></p><p style='font-size:1.1em;line-height:1.25'>Press the <strong>Next</strong> button to continue.</p>","0","custom-html-button-response","2","13107","0.0-2.0","182","1","2025-08-06 11:00:07","36c45c0696341be0efffe67d72a12abb","41.116.54.249","Mozilla/5.0 (Windows NT 10.0; Win64; x64) AppleWebKit/537.36 (KHTML, like Gecko) Chrome/138.0.0.0 Safari/537.36","WebKit","Chrome","138.0.0.0","Windows","10.0","https://app.prolific.com/","en-US,en;q=0.8","66bee53cfe67b3e6342cb2ba","687a1a965b9f5b85a264363e","689334d9991a2c19c6cccf26","1","66bee53cfe67b3e6342cb2ba","1","2025-08-06T11:00:23.463Z","","","","","","","","","","","","","","","","","","","","","","","","","","","","","","","","","","","","","","","","","",""
"4006","","","{""assigned_sex"":""female""}","survey-multi-choice","3","17124","0.0-3.0-0.0","182","1","2025-08-06 11:00:07","36c45c0696341be0efffe67d72a12abb","41.116.54.249","Mozilla/5.0 (Windows NT 10.0; Win64; x64) AppleWebKit/537.36 (KHTML, like Gecko) Chrome/138.0.0.0 Safari/537.36","WebKit","Chrome","138.0.0.0","Windows","10.0","https://app.prolific.com/","en-US,en;q=0.8","66bee53cfe67b3e6342cb2ba","687a1a965b9f5b85a264363e","689334d9991a2c19c6cccf26","1","66bee53cfe67b3e6342cb2ba","1","","","[0]","0","demographics","","","","","","","","","","","","","","","","","","","","","","","","","","","","","","","","","","","","","",""
"2733","1754478030220","<p style='font-size:1.1em;line-height:1.25'>In the following, we will perform a baseline assessment. This means that we will ask you a few questions relating to your experiences over the past month.<br></p><p style='font-size:1.1em;line-height:1.25'>Press the <strong>Next</strong> button to continue.</p>","0","custom-html-button-response","4","19866","0.0-4.0-0.0","182","1","2025-08-06 11:00:07","36c45c0696341be0efffe67d72a12abb","41.116.54.249","Mozilla/5.0 (Windows NT 10.0; Win64; x64) AppleWebKit/537.36 (KHTML, like Gecko) Chrome/138.0.0.0 Safari/537.36","WebKit","Chrome","138.0.0.0","Windows","10.0","https://app.prolific.com/","en-US,en;q=0.8","66bee53cfe67b3e6342cb2ba","687a1a965b9f5b85a264363e","689334d9991a2c19c6cccf26","1","66bee53cfe67b3e6342cb2ba","1","2025-08-06T11:00:30.222Z","","","","","","","","","","","","","","","","","","","","","","","","","","","","","","","","","","","","","","","","","",""
"58468.90000009537","","","","survey-template","5","78410","0.0-4.0-1.0","182","1","2025-08-06 11:00:07","36c45c0696341be0efffe67d72a12abb","41.116.54.249","Mozilla/5.0 (Windows NT 10.0; Win64; x64) AppleWebKit/537.36 (KHTML, like Gecko) Chrome/138.0.0.0 Safari/537.36","WebKit","Chrome","138.0.0.0","Windows","10.0","https://app.prolific.com/","en-US,en;q=0.8","66bee53cfe67b3e6342cb2ba","687a1a965b9f5b85a264363e","689334d9991a2c19c6cccf26","1","66bee53cfe67b3e6342cb2ba","1","2025-08-06T11:01:28.765Z","","","","pss","{""Q01"":""2"",""Q02"":""1"",""Q03"":""1"",""Q04"":""1"",""Q05"":""1"",""Q06"":""1"",""Q07"":""1"",""Q08"":""1"",""Q09"":""2"",""Q10"":""1""}","[0,1,2,3,4,5,6,7,8,9]","[""Q01"",""Q02"",""Q03"",""Q04"",""Q05"",""Q06"",""Q07"",""Q08"",""Q09"",""Q10""]","[12802.600000143051,14628.600000143051,17845.700000047684,29104.60000014305,30928.700000047684,35906,40503.60000014305,44669.800000190735,50068.800000190735,57270.300000190735]","[]","[2.9000000953674316,6536.400000095367,8471.900000095367,10128.800000190735,10744.900000095367,11113.300000190735,12802.600000143051,14628.600000143051,17845.700000047684,22289.300000190735,23481.400000095367,28362.800000190735,29104.60000014305,30928.700000047684,35906,40503.60000014305,44669.800000190735,50068.800000190735,56271.200000047684,57270.300000190735,58463.5]","0.4","0.3333333333333333","0","","","","","","","","","","","","","","","","","","","","","","","","","","","","",""
"2767","1754478091540","<p style='font-size:1.1em;line-height:1.25'>Thank you for your answers! Now we will ask you a few more questions relating to your feelings in the last 24 hours.<br></p><p style='font-size:1.1em;line-height:1.25'>Press the <strong>Next</strong> button to continue.</p>","0","custom-html-button-response","6","81187","0.0-4.0-2.0","182","1","2025-08-06 11:00:07","36c45c0696341be0efffe67d72a12abb","41.116.54.249","Mozilla/5.0 (Windows NT 10.0; Win64; x64) AppleWebKit/537.36 (KHTML, like Gecko) Chrome/138.0.0.0 Safari/537.36","WebKit","Chrome","138.0.0.0","Windows","10.0","https://app.prolific.com/","en-US,en;q=0.8","66bee53cfe67b3e6342cb2ba","687a1a965b9f5b85a264363e","689334d9991a2c19c6cccf26","1","66bee53cfe67b3e6342cb2ba","1","2025-08-06T11:01:31.542Z","","","","","","","","","","","","","","","","","","","","","","","","","","","","","","","","","","","","","","","","","",""
"130014.40000009537","","","","survey-template","7","211214","0.0-4.0-3.0","182","1","2025-08-06 11:00:07","36c45c0696341be0efffe67d72a12abb","41.116.54.249","Mozilla/5.0 (Windows NT 10.0; Win64; x64) AppleWebKit/537.36 (KHTML, like Gecko) Chrome/138.0.0.0 Safari/537.36","WebKit","Chrome","138.0.0.0","Windows","10.0","https://app.prolific.com/","en-US,en;q=0.8","66bee53cfe67b3e6342cb2ba","687a1a965b9f5b85a264363e","689334d9991a2c19c6cccf26","1","66bee53cfe67b3e6342cb2ba","1","2025-08-06T11:03:41.570Z","","","","drsp","{""Q01"":""1"",""Q02"":""0"",""Q03"":""1"",""Q04"":""1"",""Q05"":""2"",""Q06"":""1"",""Q07"":""1"",""Q08"":""3"",""Q09"":""0"",""Q10"":""0"",""Q11"":""1"",""Q12"":""0"",""Q13"":""5"",""Q14"":""2"",""Q15"":""3"",""Q16"":""0"",""Q17"":""1"",""Q18"":""0"",""Q19"":""1"",""Q20"":""0"",""Q21"":""1"",""Q22"":""0""}","[0,1,2,3,4,5,6,7,8,9,10,11,12,13,14,15,16,17,18,19,20,21]","[""Q01"",""Q02"",""Q03"",""Q05"",""Q04"",""Q06"",""Q07"",""Q07"",""Q08"",""Q09"",""Q10"",""Q11"",""Q12"",""Q13"",""Q14"",""Q14"",""Q15"",""Q16"",""Q17"",""Q18"",""Q19"",""Q20"",""Q21"",""Q21"",""Q21"",""Q22""]","[10560.400000095367,12166.900000095367,46126,56112.5,58969.300000190735,63503.40000009537,69918.40000009537,70329.5,73014.60000014305,77394.70000004768,78747.80000019073,82187.20000004768,85793.70000004768,88260.20000004768,92545,96783,100252.30000019073,103252,106430.60000014305,110104.20000004768,113629.80000019073,118356.30000019073,120664.80000019073,125764,126065.20000004768,128613.10000014305]","[]","[9.700000047683716,9306.5,10560.400000095367,12166.900000095367,46126,50749.300000190735,52694.300000190735,54093.300000190735,55530.40000009537,56112.5,57561.60000014305,58969.300000190735,63503.40000009537,67863.60000014305,68961,69918.40000009537,70329.5,73014.60000014305,76302.20000004768,77394.70000004768,78747.80000019073,82187.20000004768,84312.70000004768,85793.70000004768,87645.90000009537,88260.20000004768,92545,94334.80000019073,95296.5,96783,98795.60000014305,100252.30000019073,103252,105762.60000014305,106430.60000014305,108785.90000009537,109580.5,110104.20000004768,113629.80000019073,118356.30000019073,119523.40000009537,120664.80000019073,123199.40000009537,125172.10000014305,125764,126065.20000004768,126918.10000014305,128613.10000014305,129997.20000004768]","0.4090909090909091","0.6666666666666666","0","","","","","","","","","","","","","","","","","","","","","","","","","","","","",""
"185354.29999995232","","","","survey-template","8","396575","0.0-4.0-4.0","182","1","2025-08-06 11:00:07","36c45c0696341be0efffe67d72a12abb","41.116.54.249","Mozilla/5.0 (Windows NT 10.0; Win64; x64) AppleWebKit/537.36 (KHTML, like Gecko) Chrome/138.0.0.0 Safari/537.36","WebKit","Chrome","138.0.0.0","Windows","10.0","https://app.prolific.com/","en-US,en;q=0.8","66bee53cfe67b3e6342cb2ba","687a1a965b9f5b85a264363e","689334d9991a2c19c6cccf26","1","66bee53cfe67b3e6342cb2ba","1","2025-08-06T11:06:46.932Z","","","","stress","{""Q01"":""1"",""Q02"":""1"",""Q03"":""0""}","[0,1,2]","[""Q01"",""Q02"",""Q03""]","[178855.70000004768,180158.20000004768,184526.70000004768]","[]","[175417.29999995232,176731.09999990463,177937.09999990463,178855.70000004768,180158.20000004768,183239.40000009537,184526.70000004768,185352.09999990463]","0.3333333333333333","0","0","","","","","","","","","","","","","","","","","","","","","","","","","","","","",""
"34323","","","","instructions","9","430908","0.0-5.0-0.0","182","1","2025-08-06 11:00:07","36c45c0696341be0efffe67d72a12abb","41.116.54.249","Mozilla/5.0 (Windows NT 10.0; Win64; x64) AppleWebKit/537.36 (KHTML, like Gecko) Chrome/138.0.0.0 Safari/537.36","WebKit","Chrome","138.0.0.0","Windows","10.0","https://app.prolific.com/","en-US,en;q=0.8","66bee53cfe67b3e6342cb2ba","687a1a965b9f5b85a264363e","689334d9991a2c19c6cccf26","1","66bee53cfe67b3e6342cb2ba","1","","","","","","","","","","","","","","","[{""page_index"":0,""viewing_time"":34322}]","","","","","","","","","","","","","","","","","","","","","","","","","","","",""
"4510","","<p>Before you start with this game please answer the following three questions yourself. </p>
  <p>Through this game, we measure several aspects of your cognitive performance, such as reaction times, multi-tasking capabilities </p>
  <p>and the ability to assess the situation you are in.</p>
  <p></p>
  <p><b>How good do you usually are in such tasks?</b></p>","100","html-slider-response","10","435424","0.0-6.0-0.0","182","1","2025-08-06 11:00:07","36c45c0696341be0efffe67d72a12abb","41.116.54.249","Mozilla/5.0 (Windows NT 10.0; Win64; x64) AppleWebKit/537.36 (KHTML, like Gecko) Chrome/138.0.0.0 Safari/537.36","WebKit","Chrome","138.0.0.0","Windows","10.0","https://app.prolific.com/","en-US,en;q=0.8","66bee53cfe67b3e6342cb2ba","687a1a965b9f5b85a264363e","689334d9991a2c19c6cccf26","1","66bee53cfe67b3e6342cb2ba","1","2025-08-06T11:07:25.779Z","","","","PreSkillQ","","","","","","","","","","","50","","","","","","","","","","","","","","","","","","","","","","","","","","",""
"4430","","<div style=""width:500px;"">
  <p>How well do you think you will perform in this task compared to other participants?</p>
  </div>","100","html-slider-response","11","439858","0.0-6.0-1.0","182","1","2025-08-06 11:00:07","36c45c0696341be0efffe67d72a12abb","41.116.54.249","Mozilla/5.0 (Windows NT 10.0; Win64; x64) AppleWebKit/537.36 (KHTML, like Gecko) Chrome/138.0.0.0 Safari/537.36","WebKit","Chrome","138.0.0.0","Windows","10.0","https://app.prolific.com/","en-US,en;q=0.8","66bee53cfe67b3e6342cb2ba","687a1a965b9f5b85a264363e","689334d9991a2c19c6cccf26","1","66bee53cfe67b3e6342cb2ba","1","2025-08-06T11:07:30.213Z","","","","PrePerfQ","","","","","","","","","","","50","","","","","","","","","","","","","","","","","","","","","","","","","","",""
"3829","","<div style=""width:500px;"">
  <p>What best describes how you currently feel?</p>
  </div>","100","html-slider-response","12","443691","0.0-6.0-2.0","182","1","2025-08-06 11:00:07","36c45c0696341be0efffe67d72a12abb","41.116.54.249","Mozilla/5.0 (Windows NT 10.0; Win64; x64) AppleWebKit/537.36 (KHTML, like Gecko) Chrome/138.0.0.0 Safari/537.36","WebKit","Chrome","138.0.0.0","Windows","10.0","https://app.prolific.com/","en-US,en;q=0.8","66bee53cfe67b3e6342cb2ba","687a1a965b9f5b85a264363e","689334d9991a2c19c6cccf26","1","66bee53cfe67b3e6342cb2ba","1","2025-08-06T11:07:34.046Z","","","","PreMotivationQ","","","","","","","","","","","50","","","","","","","","","","","","","","","","","","","","","","","","","","",""
"","","","","ctl-task-cpt","13","477705","0.0-7.0-0.0","182","1","2025-08-06 11:00:07","36c45c0696341be0efffe67d72a12abb","41.116.54.249","Mozilla/5.0 (Windows NT 10.0; Win64; x64) AppleWebKit/537.36 (KHTML, like Gecko) Chrome/138.0.0.0 Safari/537.36","WebKit","Chrome","138.0.0.0","Windows","10.0","https://app.prolific.com/","en-US,en;q=0.8","66bee53cfe67b3e6342cb2ba","687a1a965b9f5b85a264363e","689334d9991a2c19c6cccf26","1","66bee53cfe67b3e6342cb2ba","1","2025-08-06T11:08:08.060Z","","","","","","","","","","","","","","","","win-only","2","g1:SE,g2:NW","1","1","0","447981.5","2014.5","7019","30987.6","1","4","4","6","1","1","-1","0","0","0","2594.9","3000","1325","[""down"",""right""]","{""num_key_presses"":6,""num_perfect"":4,""num_errors"":2,""num_randdir"":0,""num_randdir_good_moves"":0,""num_whilered"":0,""num_whileblue"":0,""num_blue"":2,""num_good_moves"":4}","[354.375,358.62499713897705,0.7,354.375,358.62499713897705,105,354.375,358.62499713897705,205,354.375,358.62499713897705,316.9,354.375,358.62499713897705,425.1,354.375,358.62499713897705,534,354.375,358.62499713897705,634.5,354.375,358.62499713897705,737.1,361.875,363.62499713897705,842.7,370.625,376.12499713897705,950.4,395.625,419.87499713897705,1051.5,406.875,442.37499713897705,1151.5,411.875,458.62499713897705,1251.9,411.875,458.62499713897705,1353.5,424.375,473.62499713897705,1455.5,438.125,503.62499713897705,1560.5,446.875,518.624997138977,1667.9,446.875,519.874997138977,1775,446.875,519.874997138977,1884.3,479.375,559.874997138977,1986.9,569.375,608.624997138977,2087.2,600.625,624.874997138977,2189.7,646.875,629.874997138977,2292.4,649.375,632.374997138977,2401.3,649.375,633.624997138977,2502.3,649.375,633.624997138977,2619.7,649.375,633.624997138977,2736.6,649.375,633.624997138977,2842.8,649.375,633.624997138977,2953.6,649.375,633.624997138977,3055.7,649.375,633.624997138977,3158.3,649.375,633.624997138977,3259.7,649.375,633.624997138977,3368,649.375,633.624997138977,3476.3,649.375,633.624997138977,3577.3,649.375,633.624997138977,3685.8,649.375,633.624997138977,3792.2,609.375,589.874997138977,3903.3,593.125,578.624997138977,4005.2,588.125,583.624997138977,4107.2,588.125,583.624997138977,4218.9,588.125,583.624997138977,4326.5,588.125,583.624997138977,4427.2,588.125,583.624997138977,4535.2,588.125,583.624997138977,4641.9,588.125,583.624997138977,4744.1,588.125,583.624997138977,4851.1,588.125,583.624997138977,4951.1]","[28.8,28.8,1000,0.1,-971.3,""error"",""-"",""-"",""no_move"",5016.2,4985.5,3081.5,1032.7,902,""smooth"",""down"",""down"",""good_move"",6366.9,1346.8,1680.6,5020.1,-333.8,""error"",""-"",""-"",""no_move"",10919.3,4547.7,2962.7,7372.4,584.2,""smooth"",""right"",""right"",""good_move"",20807.4,9886.1,2479.1,17693.1,635.2,""smooth"",""down"",""down"",""good_move"",23834.3,3025.5,2422.7,20808.9,602.7,""smooth"",""right"",""right"",""good_move""]"
"7108","","<div style=""width:500px;"">
  <p>What determined the result of this run?</p>
  </div>","100","html-slider-response","14","484816","0.0-7.0-1.0","182","1","2025-08-06 11:00:07","36c45c0696341be0efffe67d72a12abb","41.116.54.249","Mozilla/5.0 (Windows NT 10.0; Win64; x64) AppleWebKit/537.36 (KHTML, like Gecko) Chrome/138.0.0.0 Safari/537.36","WebKit","Chrome","138.0.0.0","Windows","10.0","https://app.prolific.com/","en-US,en;q=0.8","66bee53cfe67b3e6342cb2ba","687a1a965b9f5b85a264363e","689334d9991a2c19c6cccf26","1","66bee53cfe67b3e6342cb2ba","1","2025-08-06T11:08:15.172Z","","","","AttribQ","","","","","","","","","","","50","","","","","","","","","","","","","","","","","","","","","","","","","","",""
"5101","","<div style=""width:500px;"">
  <p>How much control did you have over the ball?</p>
  </div>","80","html-slider-response","15","489926","0.0-7.0-2.0","182","1","2025-08-06 11:00:07","36c45c0696341be0efffe67d72a12abb","41.116.54.249","Mozilla/5.0 (Windows NT 10.0; Win64; x64) AppleWebKit/537.36 (KHTML, like Gecko) Chrome/138.0.0.0 Safari/537.36","WebKit","Chrome","138.0.0.0","Windows","10.0","https://app.prolific.com/","en-US,en;q=0.8","66bee53cfe67b3e6342cb2ba","687a1a965b9f5b85a264363e","689334d9991a2c19c6cccf26","1","66bee53cfe67b3e6342cb2ba","1","2025-08-06T11:08:20.281Z","","","","ControlQ","","","","","","","","","","","50","","","","","","","","","","","","","","","","","","","","","","","","","","",""
"10713","","<div style=""width:500px;"">
  <p>How would you describe your current emotional state?</p>
  </div>","17","html-slider-response","16","500643","0.0-7.0-3.0","182","1","2025-08-06 11:00:07","36c45c0696341be0efffe67d72a12abb","41.116.54.249","Mozilla/5.0 (Windows NT 10.0; Win64; x64) AppleWebKit/537.36 (KHTML, like Gecko) Chrome/138.0.0.0 Safari/537.36","WebKit","Chrome","138.0.0.0","Windows","10.0","https://app.prolific.com/","en-US,en;q=0.8","66bee53cfe67b3e6342cb2ba","687a1a965b9f5b85a264363e","689334d9991a2c19c6cccf26","1","66bee53cfe67b3e6342cb2ba","1","2025-08-06T11:08:30.998Z","","","","StressQ","","","","","","","","","","","50","","","","","","","","","","","","","","","","","","","","","","","","","","",""
"5104","","<div style=""width:500px;"">
  <p>What best describes how you currently feel?</p>
  </div>","100","html-slider-response","17","505752","0.0-7.0-4.0","182","1","2025-08-06 11:00:07","36c45c0696341be0efffe67d72a12abb","41.116.54.249","Mozilla/5.0 (Windows NT 10.0; Win64; x64) AppleWebKit/537.36 (KHTML, like Gecko) Chrome/138.0.0.0 Safari/537.36","WebKit","Chrome","138.0.0.0","Windows","10.0","https://app.prolific.com/","en-US,en;q=0.8","66bee53cfe67b3e6342cb2ba","687a1a965b9f5b85a264363e","689334d9991a2c19c6cccf26","1","66bee53cfe67b3e6342cb2ba","1","2025-08-06T11:08:36.107Z","","","","MotivationQ","","","","","","","","","","","50","","","","","","","","","","","","","","","","","","","","","","","","","","",""
"","","","","ctl-task-cpt","18","563017","0.0-7.0-0.1","182","1","2025-08-06 11:00:07","36c45c0696341be0efffe67d72a12abb","41.116.54.249","Mozilla/5.0 (Windows NT 10.0; Win64; x64) AppleWebKit/537.36 (KHTML, like Gecko) Chrome/138.0.0.0 Safari/537.36","WebKit","Chrome","138.0.0.0","Windows","10.0","https://app.prolific.com/","en-US,en;q=0.8","66bee53cfe67b3e6342cb2ba","687a1a965b9f5b85a264363e","689334d9991a2c19c6cccf26","1","66bee53cfe67b3e6342cb2ba","1","2025-08-06T11:09:33.372Z","","","","","","","","","","","","","","","","win-only","0","g1:NW,g2:SE","0.9","2","0","510037.5","5654.6","10665.4","54243.7","1","4","8","6","2","-8","-9","0","0","0","1544.2","3000","-1955","[""down"",""right""]","{""num_key_presses"":8,""num_perfect"":6,""num_errors"":1,""num_randdir"":1,""num_randdir_good_moves"":0,""num_whilered"":0,""num_whileblue"":0,""num_blue"":5,""num_good_moves"":6}","[349.375,353.62499713897705,1,349.375,353.62499713897705,107.1,349.375,353.62499713897705,208.5,349.375,353.62499713897705,310.8,349.375,353.62499713897705,411.5,349.375,353.62499713897705,530.6,349.375,353.62499713897705,632.6,349.375,353.62499713897705,733.4,349.375,353.62499713897705,841.1,355.625,354.87499713897705,942.8,355.625,354.87499713897705,1044,463.125,488.62499713897705,1146.7,565.625,591.124997138977,1249.9,619.375,668.624997138977,1353,624.375,671.124997138977,1458.9,626.875,677.374997138977,1563.3,626.875,677.374997138977,1668.2,626.875,677.374997138977,1768.8,626.875,677.374997138977,1877.5,626.875,677.374997138977,1980.2,624.375,677.374997138977,2084.2,621.875,674.874997138977,2186.3,619.375,673.624997138977,2293.8,616.875,672.374997138977,2396.3,616.875,672.374997138977,2511,616.875,672.374997138977,2619.9,616.875,672.374997138977,2725.8,616.875,672.374997138977,2827.6,616.875,672.374997138977,2929.2,616.875,672.374997138977,3029.4,616.875,672.374997138977,3144,645.625,633.624997138977,3246.8,633.125,441.12499713897705,3348.1,628.125,404.87499713897705,3451.4,634.375,388.62499713897705,3553.3,628.125,414.87499713897705,3660.7,628.125,414.87499713897705,3761.9,628.125,414.87499713897705,3862.4,628.125,414.87499713897705,3980.1,628.125,414.87499713897705,4082.6,628.125,414.87499713897705,4194.7,628.125,414.87499713897705,4297,628.125,414.87499713897705,4414.4,628.125,414.87499713897705,4519.9,628.125,414.87499713897705,4627.9,628.125,414.87499713897705,4729.1,628.125,414.87499713897705,4830.1,628.125,414.87499713897705,4931.4]","[5608.8,5608.8,3051.1,2009,548.7,""smooth"",""down"",""down"",""good_move"",12434.9,6822.2,2513,9306.8,615.1,""smooth"",""right"",""right"",""good_move"",15243.5,2805.1,2137.1,12438.4,668,""oops"",""right"",""up"",""bad_move"",16707.2,1458.2,3220,15249,-1761.8,""error"",""-"",""-"",""no_move"",27768,11058.5,2350.4,24871.5,546.1,""smooth"",""down"",""down"",""good_move"",32628.2,4858.1,2011.4,30085.9,530.9,""smooth"",""down"",""down"",""good_move"",36624.4,3991.5,3477.7,32633,513.7,""smooth"",""down"",""down"",""good_move"",40378.2,3751.9,3222,36626.3,529.9,""smooth"",""right"",""right"",""good_move""]"
"6928","","<div style=""width:500px;"">
  <p>What determined the result of this run?</p>
  </div>","85","html-slider-response","19","569947","0.0-7.0-1.1","182","1","2025-08-06 11:00:07","36c45c0696341be0efffe67d72a12abb","41.116.54.249","Mozilla/5.0 (Windows NT 10.0; Win64; x64) AppleWebKit/537.36 (KHTML, like Gecko) Chrome/138.0.0.0 Safari/537.36","WebKit","Chrome","138.0.0.0","Windows","10.0","https://app.prolific.com/","en-US,en;q=0.8","66bee53cfe67b3e6342cb2ba","687a1a965b9f5b85a264363e","689334d9991a2c19c6cccf26","1","66bee53cfe67b3e6342cb2ba","1","2025-08-06T11:09:40.303Z","","","","AttribQ","","","","","","","","","","","50","","","","","","","","","","","","","","","","","","","","","","","","","","",""
"3599","","<div style=""width:500px;"">
  <p>How much control did you have over the ball?</p>
  </div>","88","html-slider-response","20","573550","0.0-7.0-2.1","182","1","2025-08-06 11:00:07","36c45c0696341be0efffe67d72a12abb","41.116.54.249","Mozilla/5.0 (Windows NT 10.0; Win64; x64) AppleWebKit/537.36 (KHTML, like Gecko) Chrome/138.0.0.0 Safari/537.36","WebKit","Chrome","138.0.0.0","Windows","10.0","https://app.prolific.com/","en-US,en;q=0.8","66bee53cfe67b3e6342cb2ba","687a1a965b9f5b85a264363e","689334d9991a2c19c6cccf26","1","66bee53cfe67b3e6342cb2ba","1","2025-08-06T11:09:43.906Z","","","","ControlQ","","","","","","","","","","","50","","","","","","","","","","","","","","","","","","","","","","","","","","",""
"4784","","<div style=""width:500px;"">
  <p>How would you describe your current emotional state?</p>
  </div>","9","html-slider-response","21","578338","0.0-7.0-3.1","182","1","2025-08-06 11:00:07","36c45c0696341be0efffe67d72a12abb","41.116.54.249","Mozilla/5.0 (Windows NT 10.0; Win64; x64) AppleWebKit/537.36 (KHTML, like Gecko) Chrome/138.0.0.0 Safari/537.36","WebKit","Chrome","138.0.0.0","Windows","10.0","https://app.prolific.com/","en-US,en;q=0.8","66bee53cfe67b3e6342cb2ba","687a1a965b9f5b85a264363e","689334d9991a2c19c6cccf26","1","66bee53cfe67b3e6342cb2ba","1","2025-08-06T11:09:48.693Z","","","","StressQ","","","","","","","","","","","50","","","","","","","","","","","","","","","","","","","","","","","","","","",""
"3710","","<div style=""width:500px;"">
  <p>What best describes how you currently feel?</p>
  </div>","87","html-slider-response","22","582056","0.0-7.0-4.1","182","1","2025-08-06 11:00:07","36c45c0696341be0efffe67d72a12abb","41.116.54.249","Mozilla/5.0 (Windows NT 10.0; Win64; x64) AppleWebKit/537.36 (KHTML, like Gecko) Chrome/138.0.0.0 Safari/537.36","WebKit","Chrome","138.0.0.0","Windows","10.0","https://app.prolific.com/","en-US,en;q=0.8","66bee53cfe67b3e6342cb2ba","687a1a965b9f5b85a264363e","689334d9991a2c19c6cccf26","1","66bee53cfe67b3e6342cb2ba","1","2025-08-06T11:09:52.411Z","","","","MotivationQ","","","","","","","","","","","50","","","","","","","","","","","","","","","","","","","","","","","","","","",""
"","","","","ctl-task-cpt","23","610432","0.0-7.0-0.2","182","1","2025-08-06 11:00:07","36c45c0696341be0efffe67d72a12abb","41.116.54.249","Mozilla/5.0 (Windows NT 10.0; Win64; x64) AppleWebKit/537.36 (KHTML, like Gecko) Chrome/138.0.0.0 Safari/537.36","WebKit","Chrome","138.0.0.0","Windows","10.0","https://app.prolific.com/","en-US,en;q=0.8","66bee53cfe67b3e6342cb2ba","687a1a965b9f5b85a264363e","689334d9991a2c19c6cccf26","1","66bee53cfe67b3e6342cb2ba","1","2025-08-06T11:10:20.787Z","","","","","","","","","","","","","","","","win-only","0","g1:NW,g2:SE","0.8","3","0","586338.4","2559.2","7566.2","25355.8","1","4","8","6","2","-8","-8","0","0","0","5006.9","3000","-2040","[""down"",""right""]","{""num_key_presses"":5,""num_perfect"":4,""num_errors"":0,""num_randdir"":1,""num_randdir_good_moves"":1,""num_whilered"":0,""num_whileblue"":0,""num_blue"":0,""num_good_moves"":5}","[350.625,358.62499713897705,0.9,350.625,358.62499713897705,101.3,350.625,358.62499713897705,206.9,350.625,358.62499713897705,308.7,350.625,358.62499713897705,414.1,350.625,358.62499713897705,518,350.625,358.62499713897705,623.1,351.875,374.87499713897705,723.8,356.875,403.62499713897705,823.9,396.875,543.624997138977,927.6,414.375,612.374997138977,1038.9,419.375,618.624997138977,1141.7,419.375,618.624997138977,1249.7,419.375,618.624997138977,1355.9,419.375,621.124997138977,1460.7,419.375,626.124997138977,1565.2,419.375,626.124997138977,1675.6,419.375,626.124997138977,1776.3,419.375,626.124997138977,1876.4,419.375,626.124997138977,1976.8,419.375,626.124997138977,2081.5,419.375,624.874997138977,2189.8,419.375,624.874997138977,2291.4,419.375,622.374997138977,2392.4,419.375,622.374997138977,2492.4,429.375,633.624997138977,2592.5,435.625,637.374997138977,2706.7,435.625,646.124997138977,2807.3,388.125,659.874997138977,2909.8,388.125,659.874997138977,3031.4,388.125,659.874997138977,3142.2,388.125,659.874997138977,3244,388.125,659.874997138977,3358.2,385.625,648.624997138977,3459.1,389.375,559.874997138977,3564.1,384.375,497.37499713897705,3666.5,383.125,494.87499713897705,3766.9,383.125,497.37499713897705,3869,379.375,506.12499713897705,3976.3,379.375,507.37499713897705,4077.3,379.375,511.12499713897705,4184.2,379.375,537.374997138977,4295.2,369.375,578.624997138977,4406.7,369.375,578.624997138977,4507.9,370.625,583.624997138977,4609,370.625,583.624997138977,4709.1,370.625,583.624997138977,4811.3,370.625,583.624997138977,4915.7]","[1551.8,1551.8,1000,0,551.8,""smooth"",""down"",""down"",""good_move"",5273.2,3720,2337.7,1553.3,1382.3,""smooth"",""right"",""right"",""good_move"",9624.8,4350.5,3169.1,5274.3,1181.4,""smooth"",""down"",""down"",""good_move"",12927.4,3300.7,2719.6,9626.7,581.1,""oops"",""right"",""down"",""good_move"",15709.3,2780.6,2242.2,12928.7,538.4,""smooth"",""right"",""right"",""good_move""]"
"5733","","<div style=""width:500px;"">
  <p>What determined the result of this run?</p>
  </div>","64","html-slider-response","24","616168","0.0-7.0-1.2","182","1","2025-08-06 11:00:07","36c45c0696341be0efffe67d72a12abb","41.116.54.249","Mozilla/5.0 (Windows NT 10.0; Win64; x64) AppleWebKit/537.36 (KHTML, like Gecko) Chrome/138.0.0.0 Safari/537.36","WebKit","Chrome","138.0.0.0","Windows","10.0","https://app.prolific.com/","en-US,en;q=0.8","66bee53cfe67b3e6342cb2ba","687a1a965b9f5b85a264363e","689334d9991a2c19c6cccf26","1","66bee53cfe67b3e6342cb2ba","1","2025-08-06T11:10:26.523Z","","","","AttribQ","","","","","","","","","","","50","","","","","","","","","","","","","","","","","","","","","","","","","","",""
"6533","","<div style=""width:500px;"">
  <p>How much control did you have over the ball?</p>
  </div>","32","html-slider-response","25","622705","0.0-7.0-2.2","182","1","2025-08-06 11:00:07","36c45c0696341be0efffe67d72a12abb","41.116.54.249","Mozilla/5.0 (Windows NT 10.0; Win64; x64) AppleWebKit/537.36 (KHTML, like Gecko) Chrome/138.0.0.0 Safari/537.36","WebKit","Chrome","138.0.0.0","Windows","10.0","https://app.prolific.com/","en-US,en;q=0.8","66bee53cfe67b3e6342cb2ba","687a1a965b9f5b85a264363e","689334d9991a2c19c6cccf26","1","66bee53cfe67b3e6342cb2ba","1","2025-08-06T11:10:33.061Z","","","","ControlQ","","","","","","","","","","","50","","","","","","","","","","","","","","","","","","","","","","","","","","",""
"3971","","<div style=""width:500px;"">
  <p>How would you describe your current emotional state?</p>
  </div>","41","html-slider-response","26","626680","0.0-7.0-3.2","182","1","2025-08-06 11:00:07","36c45c0696341be0efffe67d72a12abb","41.116.54.249","Mozilla/5.0 (Windows NT 10.0; Win64; x64) AppleWebKit/537.36 (KHTML, like Gecko) Chrome/138.0.0.0 Safari/537.36","WebKit","Chrome","138.0.0.0","Windows","10.0","https://app.prolific.com/","en-US,en;q=0.8","66bee53cfe67b3e6342cb2ba","687a1a965b9f5b85a264363e","689334d9991a2c19c6cccf26","1","66bee53cfe67b3e6342cb2ba","1","2025-08-06T11:10:37.035Z","","","","StressQ","","","","","","","","","","","50","","","","","","","","","","","","","","","","","","","","","","","","","","",""
"4937","","<div style=""width:500px;"">
  <p>What best describes how you currently feel?</p>
  </div>","72","html-slider-response","27","631620","0.0-7.0-4.2","182","1","2025-08-06 11:00:07","36c45c0696341be0efffe67d72a12abb","41.116.54.249","Mozilla/5.0 (Windows NT 10.0; Win64; x64) AppleWebKit/537.36 (KHTML, like Gecko) Chrome/138.0.0.0 Safari/537.36","WebKit","Chrome","138.0.0.0","Windows","10.0","https://app.prolific.com/","en-US,en;q=0.8","66bee53cfe67b3e6342cb2ba","687a1a965b9f5b85a264363e","689334d9991a2c19c6cccf26","1","66bee53cfe67b3e6342cb2ba","1","2025-08-06T11:10:41.975Z","","","","MotivationQ","","","","","","","","","","","50","","","","","","","","","","","","","","","","","","","","","","","","","","",""
"","","","","ctl-task-cpt","28","656420","0.0-7.0-0.3","182","1","2025-08-06 11:00:07","36c45c0696341be0efffe67d72a12abb","41.116.54.249","Mozilla/5.0 (Windows NT 10.0; Win64; x64) AppleWebKit/537.36 (KHTML, like Gecko) Chrome/138.0.0.0 Safari/537.36","WebKit","Chrome","138.0.0.0","Windows","10.0","https://app.prolific.com/","en-US,en;q=0.8","66bee53cfe67b3e6342cb2ba","687a1a965b9f5b85a264363e","689334d9991a2c19c6cccf26","1","66bee53cfe67b3e6342cb2ba","1","2025-08-06T11:11:06.775Z","","","","","","","","","","","","","","","","win-only","2","g1:SE,g2:NW","0.7","4","0","635909.2","1297.8","6299","21768","1","4","4","6","1","1","1","1","0","0.007575757575757576","5001","3000","1585","[""down"",""right""]","{""num_key_presses"":4,""num_perfect"":3,""num_errors"":0,""num_randdir"":1,""num_randdir_good_moves"":1,""num_whilered"":0,""num_whileblue"":0,""num_blue"":1,""num_good_moves"":4}","[344.375,357.37499713897705,1.2,344.375,357.37499713897705,101.5,344.375,357.37499713897705,211.8,344.375,357.37499713897705,318.7,344.375,357.37499713897705,418.7,344.375,357.37499713897705,523,348.125,379.87499713897705,628.8,364.375,413.62499713897705,734,369.375,427.37499713897705,842.1,369.375,427.37499713897705,943.8,369.375,427.37499713897705,1051.1,369.375,427.37499713897705,1152.3,369.375,427.37499713897705,1261.1,369.375,427.37499713897705,1371.8,369.375,427.37499713897705,1473.9,369.375,427.37499713897705,1578.2,369.375,427.37499713897705,1682.8,369.375,427.37499713897705,1783.6,369.375,427.37499713897705,1890.4,369.375,427.37499713897705,2000.1,369.375,427.37499713897705,2108.6,369.375,427.37499713897705,2208.9,369.375,427.37499713897705,2310.1,369.375,427.37499713897705,2415.4,369.375,427.37499713897705,2523.1,369.375,427.37499713897705,2624.7,369.375,427.37499713897705,2733.8,369.375,427.37499713897705,2838.1,369.375,427.37499713897705,2940.4,369.375,427.37499713897705,3040.9,369.375,427.37499713897705,3149.7,369.375,427.37499713897705,3253.7,369.375,427.37499713897705,3353.9,369.375,427.37499713897705,3460.9,369.375,427.37499713897705,3567,369.375,427.37499713897705,3668.3,409.375,426.12499713897705,3777.6,524.375,418.62499713897705,3883.6,536.875,418.62499713897705,3990.1,539.375,418.62499713897705,4093.5,539.375,418.62499713897705,4207.9,539.375,418.62499713897705,4310.1,539.375,418.62499713897705,4421.6,539.375,418.62499713897705,4528.3,539.375,418.62499713897705,4636.5,536.875,422.37499713897705,4739.2,539.375,434.87499713897705,4845.5,539.375,434.87499713897705,4950]","[5187,5187,2593.1,2004.9,589,""oops"",""down"",""right"",""good_move"",8891.1,3699.2,3186.1,5191.9,513.1,""smooth"",""down"",""down"",""good_move"",12406,3513.4,2888.3,8892.6,625.1,""smooth"",""down"",""down"",""good_move"",15298.5,2891.2,2424.8,12407.3,466.4,""smooth"",""right"",""right"",""good_move""]"
"5884","","<div style=""width:500px;"">
  <p>What determined the result of this run?</p>
  </div>","60","html-slider-response","29","662309","0.0-7.0-1.3","182","1","2025-08-06 11:00:07","36c45c0696341be0efffe67d72a12abb","41.116.54.249","Mozilla/5.0 (Windows NT 10.0; Win64; x64) AppleWebKit/537.36 (KHTML, like Gecko) Chrome/138.0.0.0 Safari/537.36","WebKit","Chrome","138.0.0.0","Windows","10.0","https://app.prolific.com/","en-US,en;q=0.8","66bee53cfe67b3e6342cb2ba","687a1a965b9f5b85a264363e","689334d9991a2c19c6cccf26","1","66bee53cfe67b3e6342cb2ba","1","2025-08-06T11:11:12.664Z","","","","AttribQ","","","","","","","","","","","50","","","","","","","","","","","","","","","","","","","","","","","","","","",""
"8541","","<div style=""width:500px;"">
  <p>How much control did you have over the ball?</p>
  </div>","41","html-slider-response","30","670856","0.0-7.0-2.3","182","1","2025-08-06 11:00:07","36c45c0696341be0efffe67d72a12abb","41.116.54.249","Mozilla/5.0 (Windows NT 10.0; Win64; x64) AppleWebKit/537.36 (KHTML, like Gecko) Chrome/138.0.0.0 Safari/537.36","WebKit","Chrome","138.0.0.0","Windows","10.0","https://app.prolific.com/","en-US,en;q=0.8","66bee53cfe67b3e6342cb2ba","687a1a965b9f5b85a264363e","689334d9991a2c19c6cccf26","1","66bee53cfe67b3e6342cb2ba","1","2025-08-06T11:11:21.212Z","","","","ControlQ","","","","","","","","","","","50","","","","","","","","","","","","","","","","","","","","","","","","","","",""
"3334","","<div style=""width:500px;"">
  <p>How would you describe your current emotional state?</p>
  </div>","38","html-slider-response","31","674194","0.0-7.0-3.3","182","1","2025-08-06 11:00:07","36c45c0696341be0efffe67d72a12abb","41.116.54.249","Mozilla/5.0 (Windows NT 10.0; Win64; x64) AppleWebKit/537.36 (KHTML, like Gecko) Chrome/138.0.0.0 Safari/537.36","WebKit","Chrome","138.0.0.0","Windows","10.0","https://app.prolific.com/","en-US,en;q=0.8","66bee53cfe67b3e6342cb2ba","687a1a965b9f5b85a264363e","689334d9991a2c19c6cccf26","1","66bee53cfe67b3e6342cb2ba","1","2025-08-06T11:11:24.549Z","","","","StressQ","","","","","","","","","","","50","","","","","","","","","","","","","","","","","","","","","","","","","","",""
"3770","","<div style=""width:500px;"">
  <p>What best describes how you currently feel?</p>
  </div>","69","html-slider-response","32","677970","0.0-7.0-4.3","182","1","2025-08-06 11:00:07","36c45c0696341be0efffe67d72a12abb","41.116.54.249","Mozilla/5.0 (Windows NT 10.0; Win64; x64) AppleWebKit/537.36 (KHTML, like Gecko) Chrome/138.0.0.0 Safari/537.36","WebKit","Chrome","138.0.0.0","Windows","10.0","https://app.prolific.com/","en-US,en;q=0.8","66bee53cfe67b3e6342cb2ba","687a1a965b9f5b85a264363e","689334d9991a2c19c6cccf26","1","66bee53cfe67b3e6342cb2ba","1","2025-08-06T11:11:28.325Z","","","","MotivationQ","","","","","","","","","","","50","","","","","","","","","","","","","","","","","","","","","","","","","","",""
"","","","","ctl-task-cpt","33","722827","0.0-7.0-0.4","182","1","2025-08-06 11:00:07","36c45c0696341be0efffe67d72a12abb","41.116.54.249","Mozilla/5.0 (Windows NT 10.0; Win64; x64) AppleWebKit/537.36 (KHTML, like Gecko) Chrome/138.0.0.0 Safari/537.36","WebKit","Chrome","138.0.0.0","Windows","10.0","https://app.prolific.com/","en-US,en;q=0.8","66bee53cfe67b3e6342cb2ba","687a1a965b9f5b85a264363e","689334d9991a2c19c6cccf26","1","66bee53cfe67b3e6342cb2ba","1","2025-08-06T11:12:13.182Z","","","","","","","","","","","","","","","","win-only","1","g1:NE,g2:SW","0.6","5","0","682251.8","1428.5","6432.3","41835.5","1","4","4","6","2","4","3","4","1","0.030303030303030304","2815.2","3000","490","[""down"",""left""]","{""num_key_presses"":9,""num_perfect"":6,""num_errors"":1,""num_randdir"":2,""num_randdir_good_moves"":1,""num_whilered"":0,""num_whileblue"":0,""num_blue"":3,""num_good_moves"":7}","[350.625,352.37499713897705,3.9,350.625,352.37499713897705,102.7,350.625,352.37499713897705,203.1,350.625,352.37499713897705,304.1,350.625,352.37499713897705,404.3,350.625,352.37499713897705,512.3,350.625,352.37499713897705,613.9,350.625,352.37499713897705,724.1,350.625,352.37499713897705,830.5,350.625,352.37499713897705,932.4,350.625,352.37499713897705,1035.3,350.625,352.37499713897705,1145.4,350.625,352.37499713897705,1249.1,350.625,352.37499713897705,1350.9,350.625,352.37499713897705,1452.3,350.625,352.37499713897705,1554.9,350.625,352.37499713897705,1662.3,350.625,352.37499713897705,1764.2,350.625,352.37499713897705,1866.5,350.625,352.37499713897705,1968.3,350.625,352.37499713897705,2078.6,326.875,388.62499713897705,2181.1,140.625,568.624997138977,2283.1,43.125,622.374997138977,2387.8,-1.875,648.624997138977,2488.7,-1.875,648.624997138977,2604.4,19.375,658.624997138977,2714,26.875,658.624997138977,2829.5,26.875,658.624997138977,2930.5,26.875,658.624997138977,3035.6,26.875,658.624997138977,3138.4,26.875,658.624997138977,3240.9,26.875,658.624997138977,3347.7,26.875,658.624997138977,3458,34.375,656.124997138977,3561.7,95.625,641.124997138977,3668.3,136.875,626.124997138977,3774.6,143.125,623.624997138977,3879.2,143.125,621.124997138977,3979.3,144.375,619.874997138977,4085.8,144.375,619.874997138977,4188.7,144.375,619.874997138977,4301.1,144.375,619.874997138977,4401.8,236.875,621.124997138977,4504.7,429.375,628.624997138977,4619.4,470.625,628.624997138977,4720.4,484.375,629.874997138977,4823.4,499.375,629.874997138977,4937.1]","[453.4,453.4,1000,0,-546.6,""error"",""-"",""-"",""no_move"",8431.7,7977.4,2606.1,5337.7,487.9,""smooth"",""down"",""down"",""good_move"",11181.3,2748,2173.6,8433.4,574.3,""smooth"",""down"",""down"",""good_move"",13601.6,2418.4,1947.4,11183.4,470.8,""oops"",""left"",""right"",""bad_move"",19117,5513.7,1672.7,16912.9,531.4,""oops"",""left"",""left"",""good_move"",22694.9,3576.8,3159.6,19118.1,417.2,""smooth"",""down"",""down"",""good_move"",26019,3322,2858.8,22697,463.2,""smooth"",""left"",""left"",""good_move"",32872.4,6851.8,2783.5,29603.1,485.8,""smooth"",""left"",""left"",""good_move"",35253.2,2375.5,1856.1,32877.7,519.4,""smooth"",""left"",""left"",""good_move""]"
"4082","","<div style=""width:500px;"">
  <p>What determined the result of this run?</p>
  </div>","66","html-slider-response","34","726911","0.0-7.0-1.4","182","1","2025-08-06 11:00:07","36c45c0696341be0efffe67d72a12abb","41.116.54.249","Mozilla/5.0 (Windows NT 10.0; Win64; x64) AppleWebKit/537.36 (KHTML, like Gecko) Chrome/138.0.0.0 Safari/537.36","WebKit","Chrome","138.0.0.0","Windows","10.0","https://app.prolific.com/","en-US,en;q=0.8","66bee53cfe67b3e6342cb2ba","687a1a965b9f5b85a264363e","689334d9991a2c19c6cccf26","1","66bee53cfe67b3e6342cb2ba","1","2025-08-06T11:12:17.266Z","","","","AttribQ","","","","","","","","","","","50","","","","","","","","","","","","","","","","","","","","","","","","","","",""
"6640","","<div style=""width:500px;"">
  <p>How much control did you have over the ball?</p>
  </div>","60","html-slider-response","35","733552","0.0-7.0-2.4","182","1","2025-08-06 11:00:07","36c45c0696341be0efffe67d72a12abb","41.116.54.249","Mozilla/5.0 (Windows NT 10.0; Win64; x64) AppleWebKit/537.36 (KHTML, like Gecko) Chrome/138.0.0.0 Safari/537.36","WebKit","Chrome","138.0.0.0","Windows","10.0","https://app.prolific.com/","en-US,en;q=0.8","66bee53cfe67b3e6342cb2ba","687a1a965b9f5b85a264363e","689334d9991a2c19c6cccf26","1","66bee53cfe67b3e6342cb2ba","1","2025-08-06T11:12:23.907Z","","","","ControlQ","","","","","","","","","","","50","","","","","","","","","","","","","","","","","","","","","","","","","","",""
"3699","","<div style=""width:500px;"">
  <p>How would you describe your current emotional state?</p>
  </div>","56","html-slider-response","36","737253","0.0-7.0-3.4","182","1","2025-08-06 11:00:07","36c45c0696341be0efffe67d72a12abb","41.116.54.249","Mozilla/5.0 (Windows NT 10.0; Win64; x64) AppleWebKit/537.36 (KHTML, like Gecko) Chrome/138.0.0.0 Safari/537.36","WebKit","Chrome","138.0.0.0","Windows","10.0","https://app.prolific.com/","en-US,en;q=0.8","66bee53cfe67b3e6342cb2ba","687a1a965b9f5b85a264363e","689334d9991a2c19c6cccf26","1","66bee53cfe67b3e6342cb2ba","1","2025-08-06T11:12:27.608Z","","","","StressQ","","","","","","","","","","","50","","","","","","","","","","","","","","","","","","","","","","","","","","",""
"3326","","<div style=""width:500px;"">
  <p>What best describes how you currently feel?</p>
  </div>","60","html-slider-response","37","740581","0.0-7.0-4.4","182","1","2025-08-06 11:00:07","36c45c0696341be0efffe67d72a12abb","41.116.54.249","Mozilla/5.0 (Windows NT 10.0; Win64; x64) AppleWebKit/537.36 (KHTML, like Gecko) Chrome/138.0.0.0 Safari/537.36","WebKit","Chrome","138.0.0.0","Windows","10.0","https://app.prolific.com/","en-US,en;q=0.8","66bee53cfe67b3e6342cb2ba","687a1a965b9f5b85a264363e","689334d9991a2c19c6cccf26","1","66bee53cfe67b3e6342cb2ba","1","2025-08-06T11:12:30.936Z","","","","MotivationQ","","","","","","","","","","","50","","","","","","","","","","","","","","","","","","","","","","","","","","",""
"","","","","ctl-task-cpt","38","767082","0.0-7.0-0.5","182","1","2025-08-06 11:00:07","36c45c0696341be0efffe67d72a12abb","41.116.54.249","Mozilla/5.0 (Windows NT 10.0; Win64; x64) AppleWebKit/537.36 (KHTML, like Gecko) Chrome/138.0.0.0 Safari/537.36","WebKit","Chrome","138.0.0.0","Windows","10.0","https://app.prolific.com/","en-US,en;q=0.8","66bee53cfe67b3e6342cb2ba","687a1a965b9f5b85a264363e","689334d9991a2c19c6cccf26","1","66bee53cfe67b3e6342cb2ba","1","2025-08-06T11:12:57.437Z","","","","","","","","","","","","","","","","win-only","2","g1:SE,g2:NW","0.5","6","0","744865.1","2346.2","7360","23487.2","1","4","8","6","1","1","0","4","4","0.030303030303030304","2396.2","3000","1180","[""down"",""right""]","{""num_key_presses"":5,""num_perfect"":2,""num_errors"":1,""num_randdir"":2,""num_randdir_good_moves"":2,""num_whilered"":0,""num_whileblue"":0,""num_blue"":0,""num_good_moves"":4}","[344.375,352.37499713897705,0.7,344.375,352.37499713897705,101.2,344.375,352.37499713897705,206.6,344.375,352.37499713897705,310.5,346.875,352.37499713897705,412.4,359.375,359.87499713897705,519.1,364.375,374.87499713897705,620.9,368.125,408.62499713897705,721.1,369.375,409.87499713897705,824.4,369.375,409.87499713897705,926.5,369.375,409.87499713897705,1027.5,389.375,437.37499713897705,1136,430.625,487.37499713897705,1236.5,430.625,487.37499713897705,1351.4,430.625,487.37499713897705,1451.7,423.125,509.87499713897705,1559.2,423.125,509.87499713897705,1659.6,446.875,521.124997138977,1761.7,594.375,576.124997138977,1867.5,658.125,598.624997138977,1973.6,674.375,618.624997138977,2084,674.375,622.374997138977,2190.5,675.625,623.624997138977,2302.4,675.625,633.624997138977,2412.7,675.625,633.624997138977,2512.8,675.625,633.624997138977,2622.4,675.625,633.624997138977,2725.2,675.625,633.624997138977,2825.9,675.625,633.624997138977,2926.8,675.625,633.624997138977,3028.2,675.625,637.374997138977,3129.4,675.625,637.374997138977,3236.5,675.625,637.374997138977,3346.4,675.625,637.374997138977,3453.8,675.625,637.374997138977,3560.1,675.625,637.374997138977,3671.6,675.625,637.374997138977,3771.8,675.625,637.374997138977,3875,675.625,637.374997138977,3977.7,675.625,637.374997138977,4096.2,675.625,637.374997138977,4205.9,675.625,637.374997138977,4307.4,675.625,637.374997138977,4409.4,675.625,637.374997138977,4510.4,675.625,637.374997138977,4621.3,675.625,637.374997138977,4726.9,675.625,637.374997138977,4834.6,675.625,637.374997138977,4935.4]","[637.2,637.2,1000,0,-362.8,""error"",""-"",""-"",""no_move"",5424.2,4786.2,3314.6,1640.1,469.5,""smooth"",""down"",""down"",""good_move"",9636.8,4208.8,2621.8,5428,1587,""oops"",""down"",""right"",""good_move"",12872.8,3234.4,2722.3,9638.4,512.1,""oops"",""down"",""right"",""good_move"",15960.5,3085.7,2552.4,12874.8,533.3,""smooth"",""down"",""down"",""good_move""]"
"12354","","<div style=""width:500px;"">
  <p>What determined the result of this run?</p>
  </div>","58","html-slider-response","39","779443","0.0-7.0-1.5","182","1","2025-08-06 11:00:07","36c45c0696341be0efffe67d72a12abb","41.116.54.249","Mozilla/5.0 (Windows NT 10.0; Win64; x64) AppleWebKit/537.36 (KHTML, like Gecko) Chrome/138.0.0.0 Safari/537.36","WebKit","Chrome","138.0.0.0","Windows","10.0","https://app.prolific.com/","en-US,en;q=0.8","66bee53cfe67b3e6342cb2ba","687a1a965b9f5b85a264363e","689334d9991a2c19c6cccf26","1","66bee53cfe67b3e6342cb2ba","1","2025-08-06T11:13:09.798Z","","","","AttribQ","","","","","","","","","","","50","","","","","","","","","","","","","","","","","","","","","","","","","","",""
"11720","","<div style=""width:500px;"">
  <p>How much control did you have over the ball?</p>
  </div>","57","html-slider-response","40","791166","0.0-7.0-2.5","182","1","2025-08-06 11:00:07","36c45c0696341be0efffe67d72a12abb","41.116.54.249","Mozilla/5.0 (Windows NT 10.0; Win64; x64) AppleWebKit/537.36 (KHTML, like Gecko) Chrome/138.0.0.0 Safari/537.36","WebKit","Chrome","138.0.0.0","Windows","10.0","https://app.prolific.com/","en-US,en;q=0.8","66bee53cfe67b3e6342cb2ba","687a1a965b9f5b85a264363e","689334d9991a2c19c6cccf26","1","66bee53cfe67b3e6342cb2ba","1","2025-08-06T11:13:21.521Z","","","","ControlQ","","","","","","","","","","","50","","","","","","","","","","","","","","","","","","","","","","","","","","",""
"11663","","<div style=""width:500px;"">
  <p>How would you describe your current emotional state?</p>
  </div>","63","html-slider-response","41","802832","0.0-7.0-3.5","182","1","2025-08-06 11:00:07","36c45c0696341be0efffe67d72a12abb","41.116.54.249","Mozilla/5.0 (Windows NT 10.0; Win64; x64) AppleWebKit/537.36 (KHTML, like Gecko) Chrome/138.0.0.0 Safari/537.36","WebKit","Chrome","138.0.0.0","Windows","10.0","https://app.prolific.com/","en-US,en;q=0.8","66bee53cfe67b3e6342cb2ba","687a1a965b9f5b85a264363e","689334d9991a2c19c6cccf26","1","66bee53cfe67b3e6342cb2ba","1","2025-08-06T11:13:33.187Z","","","","StressQ","","","","","","","","","","","50","","","","","","","","","","","","","","","","","","","","","","","","","","",""
"3594","","<div style=""width:500px;"">
  <p>What best describes how you currently feel?</p>
  </div>","65","html-slider-response","42","806432","0.0-7.0-4.5","182","1","2025-08-06 11:00:07","36c45c0696341be0efffe67d72a12abb","41.116.54.249","Mozilla/5.0 (Windows NT 10.0; Win64; x64) AppleWebKit/537.36 (KHTML, like Gecko) Chrome/138.0.0.0 Safari/537.36","WebKit","Chrome","138.0.0.0","Windows","10.0","https://app.prolific.com/","en-US,en;q=0.8","66bee53cfe67b3e6342cb2ba","687a1a965b9f5b85a264363e","689334d9991a2c19c6cccf26","1","66bee53cfe67b3e6342cb2ba","1","2025-08-06T11:13:36.787Z","","","","MotivationQ","","","","","","","","","","","50","","","","","","","","","","","","","","","","","","","","","","","","","","",""
"","","","","ctl-task-cpt","43","859211","0.0-7.0-0.6","182","1","2025-08-06 11:00:07","36c45c0696341be0efffe67d72a12abb","41.116.54.249","Mozilla/5.0 (Windows NT 10.0; Win64; x64) AppleWebKit/537.36 (KHTML, like Gecko) Chrome/138.0.0.0 Safari/537.36","WebKit","Chrome","138.0.0.0","Windows","10.0","https://app.prolific.com/","en-US,en;q=0.8","66bee53cfe67b3e6342cb2ba","687a1a965b9f5b85a264363e","689334d9991a2c19c6cccf26","1","66bee53cfe67b3e6342cb2ba","1","2025-08-06T11:14:29.566Z","","","","","","","","","","","","","","","","win-only","3","g1:SW,g2:NE","0.4","7","0","810715","6686.5","11696.8","49745.3","1","4","4","6","2","-4","-7","0","4","0","1374","3000","-1380","[""up"",""right""]","{""num_key_presses"":11,""num_perfect"":3,""num_errors"":3,""num_randdir"":5,""num_randdir_good_moves"":3,""num_whilered"":0,""num_whileblue"":0,""num_blue"":1,""num_good_moves"":6}","[354.375,361.12499713897705,2.3,354.375,361.12499713897705,105.1,354.375,361.12499713897705,205.9,354.375,361.12499713897705,307.7,354.375,361.12499713897705,418.4,354.375,361.12499713897705,520.3,354.375,361.12499713897705,620.4,354.375,361.12499713897705,723.5,354.375,361.12499713897705,823.9,399.375,346.12499713897705,935.3,514.375,253.62499713897705,1040.7,628.125,108.62499713897705,1151,654.375,82.37499713897705,1252.8,654.375,82.37499713897705,1353.2,654.375,82.37499713897705,1455.4,654.375,82.37499713897705,1560.4,659.375,97.37499713897705,1672.6,688.125,343.62499713897705,1774.6,728.125,613.624997138977,1876.3,728.125,623.624997138977,1982.3,728.125,623.624997138977,2086.4,728.125,623.624997138977,2188,728.125,623.624997138977,2290.3,728.125,623.624997138977,2392.7,728.125,623.624997138977,2492.8,728.125,623.624997138977,2605,728.125,623.624997138977,2717.4,728.125,623.624997138977,2817.5,728.125,623.624997138977,2920.7,728.125,623.624997138977,3021.4,728.125,623.624997138977,3123.1,728.125,623.624997138977,3234.5,728.125,623.624997138977,3336.3,728.125,623.624997138977,3436.7,728.125,623.624997138977,3542.6,728.125,623.624997138977,3654.7,728.125,623.624997138977,3760.9,728.125,623.624997138977,3874.3,728.125,623.624997138977,3974.5,728.125,623.624997138977,4076.1,728.125,623.624997138977,4190.2,728.125,623.624997138977,4300,728.125,623.624997138977,4404.1,728.125,623.624997138977,4510.8,728.125,623.624997138977,4615.9,728.125,623.624997138977,4716.6,728.125,623.624997138977,4832.6,728.125,623.624997138977,4936.2]","[1610.1,1610.1,1000,0,610.1,""smooth"",""right"",""right"",""good_move"",4727.7,3116.2,2629.8,1611.5,486.4,""smooth"",""right"",""right"",""good_move"",7678.3,2948.5,2398.9,4729.8,549.6,""oops"",""up"",""right"",""good_move"",11630,3948.8,2788.9,7681.2,1159.9,""oops"",""up"",""down"",""bad_move"",13393.5,1756.5,2262.9,11637,-506.4,""error"",""-"",""-"",""no_move"",17500.8,4105.9,2585.7,14396.9,518.2,""oops"",""up"",""down"",""bad_move"",18533,1025.7,2518,17507.3,-1492.3,""error"",""-"",""-"",""no_move"",23588.1,5048.3,3040.1,19555.8,992.2,""oops"",""up"",""up"",""good_move"",25797.4,2207.7,2353.3,23589.7,-145.6,""error"",""-"",""-"",""no_move"",32497.9,6699.5,2082.9,29863.9,551.2,""smooth"",""up"",""up"",""good_move"",35694.1,3194.3,2700,32499.8,494.3,""oops"",""up"",""up"",""good_move""]"
"4037","","<div style=""width:500px;"">
  <p>What determined the result of this run?</p>
  </div>","63","html-slider-response","44","863250","0.0-7.0-1.6","182","1","2025-08-06 11:00:07","36c45c0696341be0efffe67d72a12abb","41.116.54.249","Mozilla/5.0 (Windows NT 10.0; Win64; x64) AppleWebKit/537.36 (KHTML, like Gecko) Chrome/138.0.0.0 Safari/537.36","WebKit","Chrome","138.0.0.0","Windows","10.0","https://app.prolific.com/","en-US,en;q=0.8","66bee53cfe67b3e6342cb2ba","687a1a965b9f5b85a264363e","689334d9991a2c19c6cccf26","1","66bee53cfe67b3e6342cb2ba","1","2025-08-06T11:14:33.605Z","","","","AttribQ","","","","","","","","","","","50","","","","","","","","","","","","","","","","","","","","","","","","","","",""
"4717","","<div style=""width:500px;"">
  <p>How much control did you have over the ball?</p>
  </div>","69","html-slider-response","45","867970","0.0-7.0-2.6","182","1","2025-08-06 11:00:07","36c45c0696341be0efffe67d72a12abb","41.116.54.249","Mozilla/5.0 (Windows NT 10.0; Win64; x64) AppleWebKit/537.36 (KHTML, like Gecko) Chrome/138.0.0.0 Safari/537.36","WebKit","Chrome","138.0.0.0","Windows","10.0","https://app.prolific.com/","en-US,en;q=0.8","66bee53cfe67b3e6342cb2ba","687a1a965b9f5b85a264363e","689334d9991a2c19c6cccf26","1","66bee53cfe67b3e6342cb2ba","1","2025-08-06T11:14:38.325Z","","","","ControlQ","","","","","","","","","","","50","","","","","","","","","","","","","","","","","","","","","","","","","","",""
"4014","","<div style=""width:500px;"">
  <p>How would you describe your current emotional state?</p>
  </div>","37","html-slider-response","46","871987","0.0-7.0-3.6","182","1","2025-08-06 11:00:07","36c45c0696341be0efffe67d72a12abb","41.116.54.249","Mozilla/5.0 (Windows NT 10.0; Win64; x64) AppleWebKit/537.36 (KHTML, like Gecko) Chrome/138.0.0.0 Safari/537.36","WebKit","Chrome","138.0.0.0","Windows","10.0","https://app.prolific.com/","en-US,en;q=0.8","66bee53cfe67b3e6342cb2ba","687a1a965b9f5b85a264363e","689334d9991a2c19c6cccf26","1","66bee53cfe67b3e6342cb2ba","1","2025-08-06T11:14:42.342Z","","","","StressQ","","","","","","","","","","","50","","","","","","","","","","","","","","","","","","","","","","","","","","",""
"3606","","<div style=""width:500px;"">
  <p>What best describes how you currently feel?</p>
  </div>","63","html-slider-response","47","875595","0.0-7.0-4.6","182","1","2025-08-06 11:00:07","36c45c0696341be0efffe67d72a12abb","41.116.54.249","Mozilla/5.0 (Windows NT 10.0; Win64; x64) AppleWebKit/537.36 (KHTML, like Gecko) Chrome/138.0.0.0 Safari/537.36","WebKit","Chrome","138.0.0.0","Windows","10.0","https://app.prolific.com/","en-US,en;q=0.8","66bee53cfe67b3e6342cb2ba","687a1a965b9f5b85a264363e","689334d9991a2c19c6cccf26","1","66bee53cfe67b3e6342cb2ba","1","2025-08-06T11:14:45.950Z","","","","MotivationQ","","","","","","","","","","","50","","","","","","","","","","","","","","","","","","","","","","","","","","",""
"","","","","ctl-task-cpt","48","939891","0.0-7.0-0.7","182","1","2025-08-06 11:00:07","36c45c0696341be0efffe67d72a12abb","41.116.54.249","Mozilla/5.0 (Windows NT 10.0; Win64; x64) AppleWebKit/537.36 (KHTML, like Gecko) Chrome/138.0.0.0 Safari/537.36","WebKit","Chrome","138.0.0.0","Windows","10.0","https://app.prolific.com/","en-US,en;q=0.8","66bee53cfe67b3e6342cb2ba","687a1a965b9f5b85a264363e","689334d9991a2c19c6cccf26","1","66bee53cfe67b3e6342cb2ba","1","2025-08-06T11:15:50.246Z","","","","","","","","","","","","","","","","win-only","3","g1:SW,g2:NE","0.3","8","0","879874.7","1835.9","6845.2","61277","1","4","8","6","2","8","8","8","0","0.06060606060606061","1777.7","3000","285","[""up"",""right""]","{""num_key_presses"":14,""num_perfect"":5,""num_errors"":0,""num_randdir"":9,""num_randdir_good_moves"":5,""num_whilered"":0,""num_whileblue"":0,""num_blue"":4,""num_good_moves"":10}","[358.125,358.62499713897705,1.5,358.125,358.62499713897705,104.7,358.125,358.62499713897705,211.3,358.125,358.62499713897705,312.4,358.125,358.62499713897705,432,358.125,358.62499713897705,533.6,358.125,358.62499713897705,649.6,358.125,358.62499713897705,753.3,358.125,358.62499713897705,854.5,358.125,358.62499713897705,958.7,371.875,353.62499713897705,1067,543.125,127.37499713897705,1179.6,559.375,108.62499713897705,1280.9,565.625,102.37499713897705,1387.6,598.125,66.12499713897705,1509.5,615.625,51.12499713897705,1614.7,615.625,51.12499713897705,1719.1,619.375,51.12499713897705,1821.3,619.375,51.12499713897705,1929.8,619.375,51.12499713897705,2033.6,619.375,51.12499713897705,2145.4,619.375,68.62499713897705,2249.2,616.875,208.62499713897705,2350.6,648.125,428.62499713897705,2453.9,648.125,441.12499713897705,2559.3,641.875,457.37499713897705,2664.1,641.875,457.37499713897705,2768,641.875,457.37499713897705,2868,641.875,457.37499713897705,2970,641.875,457.37499713897705,3070.4,641.875,457.37499713897705,3171.9,641.875,457.37499713897705,3280.4,641.875,457.37499713897705,3387.3,641.875,457.37499713897705,3491,641.875,457.37499713897705,3604,641.875,457.37499713897705,3712.6,641.875,457.37499713897705,3820.6,641.875,457.37499713897705,3925.5,641.875,457.37499713897705,4028.6,641.875,457.37499713897705,4137.9,641.875,457.37499713897705,4243.6,641.875,457.37499713897705,4349.9,641.875,457.37499713897705,4452,641.875,457.37499713897705,4552.7,641.875,457.37499713897705,4667.8,641.875,457.37499713897705,4770.5,641.875,457.37499713897705,4879.9,641.875,457.37499713897705,4982.4]","[5418.7,5418.7,2872.1,2009.3,537.3,""oops"",""up"",""right"",""good_move"",15620.1,10199.1,2182.2,12901.6,536.3,""oops"",""up"",""right"",""good_move"",21853.4,6231.8,2577.2,18642.4,633.8,""smooth"",""up"",""up"",""good_move"",24892.2,3035,2282.4,21857.3,752.5,""smooth"",""up"",""up"",""good_move"",27761.1,2857,2368.5,24904.1,488.5,""oops"",""up"",""left"",""bad_move"",30151.8,2388.9,1916.8,27762.9,472.1,""oops"",""up"",""down"",""bad_move"",33141.1,2987.3,2519.7,30153.8,467.6,""oops"",""right"",""right"",""good_move"",36152.7,3008.9,2560.7,33143.8,448.2,""oops"",""up"",""left"",""bad_move"",39208.7,3051.5,2602.8,36157.2,448.7,""oops"",""right"",""up"",""good_move"",42438.8,3228.9,2697.7,39209.9,531.2,""smooth"",""up"",""up"",""good_move"",45329,2887.8,2298.9,42441.2,588.9,""oops"",""right"",""right"",""good_move"",48259.9,2929.7,2564.9,45330.3,364.7,""oops"",""right"",""down"",""bad_move"",50954.2,2692.9,1967,48261.5,725.7,""smooth"",""up"",""up"",""good_move"",54247,3291.5,2284.1,50955.5,1007.4,""smooth"",""right"",""right"",""good_move""]"
"5460","","<div style=""width:500px;"">
  <p>What determined the result of this run?</p>
  </div>","59","html-slider-response","49","945354","0.0-7.0-1.7","182","1","2025-08-06 11:00:07","36c45c0696341be0efffe67d72a12abb","41.116.54.249","Mozilla/5.0 (Windows NT 10.0; Win64; x64) AppleWebKit/537.36 (KHTML, like Gecko) Chrome/138.0.0.0 Safari/537.36","WebKit","Chrome","138.0.0.0","Windows","10.0","https://app.prolific.com/","en-US,en;q=0.8","66bee53cfe67b3e6342cb2ba","687a1a965b9f5b85a264363e","689334d9991a2c19c6cccf26","1","66bee53cfe67b3e6342cb2ba","1","2025-08-06T11:15:55.709Z","","","","AttribQ","","","","","","","","","","","50","","","","","","","","","","","","","","","","","","","","","","","","","","",""
"9008","","<div style=""width:500px;"">
  <p>How much control did you have over the ball?</p>
  </div>","83","html-slider-response","50","954364","0.0-7.0-2.7","182","1","2025-08-06 11:00:07","36c45c0696341be0efffe67d72a12abb","41.116.54.249","Mozilla/5.0 (Windows NT 10.0; Win64; x64) AppleWebKit/537.36 (KHTML, like Gecko) Chrome/138.0.0.0 Safari/537.36","WebKit","Chrome","138.0.0.0","Windows","10.0","https://app.prolific.com/","en-US,en;q=0.8","66bee53cfe67b3e6342cb2ba","687a1a965b9f5b85a264363e","689334d9991a2c19c6cccf26","1","66bee53cfe67b3e6342cb2ba","1","2025-08-06T11:16:04.720Z","","","","ControlQ","","","","","","","","","","","50","","","","","","","","","","","","","","","","","","","","","","","","","","",""
"6099","","<div style=""width:500px;"">
  <p>How would you describe your current emotional state?</p>
  </div>","34","html-slider-response","51","960465","0.0-7.0-3.7","182","1","2025-08-06 11:00:07","36c45c0696341be0efffe67d72a12abb","41.116.54.249","Mozilla/5.0 (Windows NT 10.0; Win64; x64) AppleWebKit/537.36 (KHTML, like Gecko) Chrome/138.0.0.0 Safari/537.36","WebKit","Chrome","138.0.0.0","Windows","10.0","https://app.prolific.com/","en-US,en;q=0.8","66bee53cfe67b3e6342cb2ba","687a1a965b9f5b85a264363e","689334d9991a2c19c6cccf26","1","66bee53cfe67b3e6342cb2ba","1","2025-08-06T11:16:10.820Z","","","","StressQ","","","","","","","","","","","50","","","","","","","","","","","","","","","","","","","","","","","","","","",""
"3374","","<div style=""width:500px;"">
  <p>What best describes how you currently feel?</p>
  </div>","76","html-slider-response","52","963841","0.0-7.0-4.7","182","1","2025-08-06 11:00:07","36c45c0696341be0efffe67d72a12abb","41.116.54.249","Mozilla/5.0 (Windows NT 10.0; Win64; x64) AppleWebKit/537.36 (KHTML, like Gecko) Chrome/138.0.0.0 Safari/537.36","WebKit","Chrome","138.0.0.0","Windows","10.0","https://app.prolific.com/","en-US,en;q=0.8","66bee53cfe67b3e6342cb2ba","687a1a965b9f5b85a264363e","689334d9991a2c19c6cccf26","1","66bee53cfe67b3e6342cb2ba","1","2025-08-06T11:16:14.196Z","","","","MotivationQ","","","","","","","","","","","50","","","","","","","","","","","","","","","","","","","","","","","","","","",""
"","","","","ctl-task-cpt","53","1026893","0.0-7.0-0.8","182","1","2025-08-06 11:00:07","36c45c0696341be0efffe67d72a12abb","41.116.54.249","Mozilla/5.0 (Windows NT 10.0; Win64; x64) AppleWebKit/537.36 (KHTML, like Gecko) Chrome/138.0.0.0 Safari/537.36","WebKit","Chrome","138.0.0.0","Windows","10.0","https://app.prolific.com/","en-US,en;q=0.8","66bee53cfe67b3e6342cb2ba","687a1a965b9f5b85a264363e","689334d9991a2c19c6cccf26","1","66bee53cfe67b3e6342cb2ba","1","2025-08-06T11:17:17.249Z","","","","","","","","","","","","","","","","win-only","2","g1:SE,g2:NW","0.4","9","0","968128.9","2397.8","7402.4","60018","1","4","4","6","2","-4","-4","4","8","0.030303030303030304","2551.9","3000","-1395","[""left"",""up""]","{""num_key_presses"":15,""num_perfect"":6,""num_errors"":0,""num_randdir"":9,""num_randdir_good_moves"":2,""num_whilered"":0,""num_whileblue"":0,""num_blue"":1,""num_good_moves"":8}","[354.375,343.62499713897705,2.1,354.375,346.12499713897705,103.7,354.375,346.12499713897705,209.6,354.375,346.12499713897705,331.9,354.375,346.12499713897705,434.9,354.375,346.12499713897705,538.5,354.375,346.12499713897705,648.8,354.375,346.12499713897705,758.2,356.875,352.37499713897705,870.7,361.875,362.37499713897705,981.1,365.625,363.62499713897705,1082.5,365.625,363.62499713897705,1191.8,365.625,363.62499713897705,1301.3,365.625,363.62499713897705,1410.3,365.625,363.62499713897705,1518.1,370.625,381.12499713897705,1619.4,403.125,409.87499713897705,1726.8,435.625,438.62499713897705,1838.5,435.625,438.62499713897705,1942.6,383.125,428.62499713897705,2050.4,258.125,248.62499713897705,2157.8,164.375,103.62499713897705,2272,74.375,51.12499713897705,2383.2,71.875,51.12499713897705,2486.5,71.875,51.12499713897705,2593.1,89.375,59.87499713897705,2706.6,228.125,343.62499713897705,2814.8,380.625,638.624997138977,2926.1,381.875,639.874997138977,3054.4,381.875,641.124997138977,3157.8,381.875,641.124997138977,3259.4,381.875,641.124997138977,3367.1,381.875,641.124997138977,3473.8,381.875,641.124997138977,3575.5,381.875,641.124997138977,3687.8,381.875,641.124997138977,3790.3,381.875,641.124997138977,3902.5,381.875,641.124997138977,4008.5,381.875,641.124997138977,4117.1,381.875,641.124997138977,4218.3,381.875,641.124997138977,4323.8,381.875,641.124997138977,4434.8,381.875,641.124997138977,4536,381.875,641.124997138977,4643.3,381.875,641.124997138977,4757.2,381.875,641.124997138977,4858,381.875,641.124997138977,4958]","[1512.6,1512.6,1000,0,512.6,""smooth"",""up"",""up"",""good_move"",4763.5,3249.3,2388.8,1514.3,860.5,""smooth"",""up"",""up"",""good_move"",8300,3535.3,3064,4764.7,471.3,""oops"",""up"",""down"",""bad_move"",11513.6,3211.7,2196.1,8301.9,1015.6,""smooth"",""left"",""left"",""good_move"",14261.1,2746.1,1996.6,11515.1,749.4,""smooth"",""up"",""up"",""good_move"",20965.5,6703.1,2972.1,17522.9,470.5,""oops"",""left"",""up"",""good_move"",24355.7,3388.5,2763.8,20967.2,624.7,""oops"",""left"",""right"",""bad_move"",27978.8,3615.7,3143.8,24363.1,471.9,""oops"",""left"",""left"",""good_move"",31989.8,4009.9,2739.4,27979.9,1270.5,""oops"",""left"",""right"",""bad_move"",34637.8,2644.1,2086.6,31993.7,557.5,""oops"",""left"",""right"",""bad_move"",37737.6,3096.9,2637.1,34640.7,459.8,""oops"",""left"",""right"",""bad_move"",40620.4,2880.3,2385.4,37740.1,494.9,""smooth"",""left"",""left"",""good_move"",43844.9,3222.5,2665.8,40622.5,556.7,""smooth"",""left"",""left"",""good_move"",46871.3,3024,2638.8,43847.3,385.2,""oops"",""left"",""right"",""bad_move"",49951.2,3078.5,2694.1,46872.7,384.4,""oops"",""left"",""right"",""bad_move""]"
"3014","","<div style=""width:500px;"">
  <p>What determined the result of this run?</p>
  </div>","71","html-slider-response","54","1029910","0.0-7.0-1.8","182","1","2025-08-06 11:00:07","36c45c0696341be0efffe67d72a12abb","41.116.54.249","Mozilla/5.0 (Windows NT 10.0; Win64; x64) AppleWebKit/537.36 (KHTML, like Gecko) Chrome/138.0.0.0 Safari/537.36","WebKit","Chrome","138.0.0.0","Windows","10.0","https://app.prolific.com/","en-US,en;q=0.8","66bee53cfe67b3e6342cb2ba","687a1a965b9f5b85a264363e","689334d9991a2c19c6cccf26","1","66bee53cfe67b3e6342cb2ba","1","2025-08-06T11:17:20.265Z","","","","AttribQ","","","","","","","","","","","50","","","","","","","","","","","","","","","","","","","","","","","","","","",""
"3409","","<div style=""width:500px;"">
  <p>How much control did you have over the ball?</p>
  </div>","0","html-slider-response","55","1033322","0.0-7.0-2.8","182","1","2025-08-06 11:00:07","36c45c0696341be0efffe67d72a12abb","41.116.54.249","Mozilla/5.0 (Windows NT 10.0; Win64; x64) AppleWebKit/537.36 (KHTML, like Gecko) Chrome/138.0.0.0 Safari/537.36","WebKit","Chrome","138.0.0.0","Windows","10.0","https://app.prolific.com/","en-US,en;q=0.8","66bee53cfe67b3e6342cb2ba","687a1a965b9f5b85a264363e","689334d9991a2c19c6cccf26","1","66bee53cfe67b3e6342cb2ba","1","2025-08-06T11:17:23.677Z","","","","ControlQ","","","","","","","","","","","50","","","","","","","","","","","","","","","","","","","","","","","","","","",""
"2504","","<div style=""width:500px;"">
  <p>How would you describe your current emotional state?</p>
  </div>","23","html-slider-response","56","1035828","0.0-7.0-3.8","182","1","2025-08-06 11:00:07","36c45c0696341be0efffe67d72a12abb","41.116.54.249","Mozilla/5.0 (Windows NT 10.0; Win64; x64) AppleWebKit/537.36 (KHTML, like Gecko) Chrome/138.0.0.0 Safari/537.36","WebKit","Chrome","138.0.0.0","Windows","10.0","https://app.prolific.com/","en-US,en;q=0.8","66bee53cfe67b3e6342cb2ba","687a1a965b9f5b85a264363e","689334d9991a2c19c6cccf26","1","66bee53cfe67b3e6342cb2ba","1","2025-08-06T11:17:26.183Z","","","","StressQ","","","","","","","","","","","50","","","","","","","","","","","","","","","","","","","","","","","","","","",""
"2575","","<div style=""width:500px;"">
  <p>What best describes how you currently feel?</p>
  </div>","74","html-slider-response","57","1038406","0.0-7.0-4.8","182","1","2025-08-06 11:00:07","36c45c0696341be0efffe67d72a12abb","41.116.54.249","Mozilla/5.0 (Windows NT 10.0; Win64; x64) AppleWebKit/537.36 (KHTML, like Gecko) Chrome/138.0.0.0 Safari/537.36","WebKit","Chrome","138.0.0.0","Windows","10.0","https://app.prolific.com/","en-US,en;q=0.8","66bee53cfe67b3e6342cb2ba","687a1a965b9f5b85a264363e","689334d9991a2c19c6cccf26","1","66bee53cfe67b3e6342cb2ba","1","2025-08-06T11:17:28.761Z","","","","MotivationQ","","","","","","","","","","","50","","","","","","","","","","","","","","","","","","","","","","","","","","",""
"","","","","ctl-task-cpt","58","1067976","0.0-7.0-0.9","182","1","2025-08-06 11:00:07","36c45c0696341be0efffe67d72a12abb","41.116.54.249","Mozilla/5.0 (Windows NT 10.0; Win64; x64) AppleWebKit/537.36 (KHTML, like Gecko) Chrome/138.0.0.0 Safari/537.36","WebKit","Chrome","138.0.0.0","Windows","10.0","https://app.prolific.com/","en-US,en;q=0.8","66bee53cfe67b3e6342cb2ba","687a1a965b9f5b85a264363e","689334d9991a2c19c6cccf26","1","66bee53cfe67b3e6342cb2ba","1","2025-08-06T11:17:58.331Z","","","","","","","","","","","","","","","","win-only","3","g1:SW,g2:NE","0.5","10","0","1042687.5","2115.4","7124.8","26550.3","1","4","8","6","2","8","8","12","4","0.09090909090909091","2562.2","3000","1595","[""up"",""right""]","{""num_key_presses"":6,""num_perfect"":4,""num_errors"":0,""num_randdir"":2,""num_randdir_good_moves"":2,""num_whilered"":0,""num_whileblue"":0,""num_blue"":0,""num_good_moves"":6}","[355.625,348.62499713897705,0.9,355.625,348.62499713897705,100.2,359.375,347.37499713897705,203.3,359.375,347.37499713897705,314.7,359.375,347.37499713897705,416.6,359.375,348.62499713897705,529,353.125,353.62499713897705,635,350.625,357.37499713897705,743,350.625,357.37499713897705,844.7,350.625,357.37499713897705,950.8,350.625,357.37499713897705,1059.5,350.625,357.37499713897705,1165.1,350.625,354.87499713897705,1273.7,350.625,354.87499713897705,1375.5,350.625,349.87499713897705,1476.4,338.125,364.87499713897705,1576.5,335.625,367.37499713897705,1677,383.125,352.37499713897705,1787.7,493.125,244.87499713897705,1896.5,520.625,194.87499713897705,2008.4,536.875,156.12499713897705,2114.1,575.625,118.62499713897705,2216.6,579.375,118.62499713897705,2318.1,594.375,112.37499713897705,2428.1,623.125,102.37499713897705,2528.3,623.125,102.37499713897705,2638.1,623.125,102.37499713897705,2746.8,623.125,102.37499713897705,2847.7,616.875,116.12499713897705,2948.8,596.875,141.12499713897705,3062.5,596.875,158.62499713897705,3171.2,596.875,159.87499713897705,3287.4,596.875,159.87499713897705,3399.4,596.875,159.87499713897705,3517.2,596.875,159.87499713897705,3631.8,596.875,159.87499713897705,3736.5,596.875,159.87499713897705,3845.5,596.875,159.87499713897705,3959.3,596.875,159.87499713897705,4060,596.875,159.87499713897705,4165.7,596.875,159.87499713897705,4270.4,596.875,159.87499713897705,4370.9,596.875,159.87499713897705,4471.1,596.875,159.87499713897705,4574.9,596.875,159.87499713897705,4679.8,596.875,159.87499713897705,4793.9,596.875,159.87499713897705,4902.9]","[1725.1,1725.2,1000,0,725.2,""smooth"",""up"",""up"",""good_move"",4608.8,2882.1,1878.3,1726.7,1003.8,""smooth"",""right"",""right"",""good_move"",7823.2,3212.8,2743.6,4610.4,469.2,""oops"",""up"",""right"",""good_move"",10817.8,2991.6,2517.3,7826.2,474.3,""smooth"",""up"",""up"",""good_move"",15177.8,4357.4,2528.9,10820.4,1828.5,""oops"",""up"",""right"",""good_move"",19138.7,3959.3,3558,15179.4,401.3,""smooth"",""up"",""up"",""good_move""]"
"3026","","<div style=""width:500px;"">
  <p>What determined the result of this run?</p>
  </div>","77","html-slider-response","59","1071004","0.0-7.0-1.9","182","1","2025-08-06 11:00:07","36c45c0696341be0efffe67d72a12abb","41.116.54.249","Mozilla/5.0 (Windows NT 10.0; Win64; x64) AppleWebKit/537.36 (KHTML, like Gecko) Chrome/138.0.0.0 Safari/537.36","WebKit","Chrome","138.0.0.0","Windows","10.0","https://app.prolific.com/","en-US,en;q=0.8","66bee53cfe67b3e6342cb2ba","687a1a965b9f5b85a264363e","689334d9991a2c19c6cccf26","1","66bee53cfe67b3e6342cb2ba","1","2025-08-06T11:18:01.360Z","","","","AttribQ","","","","","","","","","","","50","","","","","","","","","","","","","","","","","","","","","","","","","","",""
"2966","","<div style=""width:500px;"">
  <p>How much control did you have over the ball?</p>
  </div>","93","html-slider-response","60","1073973","0.0-7.0-2.9","182","1","2025-08-06 11:00:07","36c45c0696341be0efffe67d72a12abb","41.116.54.249","Mozilla/5.0 (Windows NT 10.0; Win64; x64) AppleWebKit/537.36 (KHTML, like Gecko) Chrome/138.0.0.0 Safari/537.36","WebKit","Chrome","138.0.0.0","Windows","10.0","https://app.prolific.com/","en-US,en;q=0.8","66bee53cfe67b3e6342cb2ba","687a1a965b9f5b85a264363e","689334d9991a2c19c6cccf26","1","66bee53cfe67b3e6342cb2ba","1","2025-08-06T11:18:04.328Z","","","","ControlQ","","","","","","","","","","","50","","","","","","","","","","","","","","","","","","","","","","","","","","",""
"2619","","<div style=""width:500px;"">
  <p>How would you describe your current emotional state?</p>
  </div>","14","html-slider-response","61","1076595","0.0-7.0-3.9","182","1","2025-08-06 11:00:07","36c45c0696341be0efffe67d72a12abb","41.116.54.249","Mozilla/5.0 (Windows NT 10.0; Win64; x64) AppleWebKit/537.36 (KHTML, like Gecko) Chrome/138.0.0.0 Safari/537.36","WebKit","Chrome","138.0.0.0","Windows","10.0","https://app.prolific.com/","en-US,en;q=0.8","66bee53cfe67b3e6342cb2ba","687a1a965b9f5b85a264363e","689334d9991a2c19c6cccf26","1","66bee53cfe67b3e6342cb2ba","1","2025-08-06T11:18:06.950Z","","","","StressQ","","","","","","","","","","","50","","","","","","","","","","","","","","","","","","","","","","","","","","",""
"2930","","<div style=""width:500px;"">
  <p>What best describes how you currently feel?</p>
  </div>","80","html-slider-response","62","1079527","0.0-7.0-4.9","182","1","2025-08-06 11:00:07","36c45c0696341be0efffe67d72a12abb","41.116.54.249","Mozilla/5.0 (Windows NT 10.0; Win64; x64) AppleWebKit/537.36 (KHTML, like Gecko) Chrome/138.0.0.0 Safari/537.36","WebKit","Chrome","138.0.0.0","Windows","10.0","https://app.prolific.com/","en-US,en;q=0.8","66bee53cfe67b3e6342cb2ba","687a1a965b9f5b85a264363e","689334d9991a2c19c6cccf26","1","66bee53cfe67b3e6342cb2ba","1","2025-08-06T11:18:09.882Z","","","","MotivationQ","","","","","","","","","","","50","","","","","","","","","","","","","","","","","","","","","","","","","","",""
"","","","","ctl-task-cpt","63","1159462","0.0-7.0-0.10","182","1","2025-08-06 11:00:07","36c45c0696341be0efffe67d72a12abb","41.116.54.249","Mozilla/5.0 (Windows NT 10.0; Win64; x64) AppleWebKit/537.36 (KHTML, like Gecko) Chrome/138.0.0.0 Safari/537.36","WebKit","Chrome","138.0.0.0","Windows","10.0","https://app.prolific.com/","en-US,en;q=0.8","66bee53cfe67b3e6342cb2ba","687a1a965b9f5b85a264363e","689334d9991a2c19c6cccf26","1","66bee53cfe67b3e6342cb2ba","1","2025-08-06T11:19:29.817Z","","","","","","","","","","","","","","","","win-only","0","g1:NW,g2:SE","0.6","11","0","1083807.2","31724.8","36736.7","76903","1","4","4","6","2","4","4","16","12","0.12121212121212122","1534.1","3000","890","[""down"",""right""]","{""num_key_presses"":12,""num_perfect"":8,""num_errors"":0,""num_randdir"":4,""num_randdir_good_moves"":1,""num_whilered"":0,""num_whileblue"":0,""num_blue"":1,""num_good_moves"":9}","[358.125,361.12499713897705,1,359.375,363.62499713897705,120.5,359.375,363.62499713897705,223.2,358.125,363.62499713897705,339.1,356.875,363.62499713897705,451.7,355.625,363.62499713897705,562.3,318.125,362.37499713897705,669.5,330.625,353.62499713897705,778.4,368.125,343.62499713897705,887.6,406.875,343.62499713897705,993.6,581.875,459.87499713897705,1094.1,684.375,616.124997138977,1209.2,701.875,638.624997138977,1319.6,701.875,638.624997138977,1429.5,704.375,639.874997138977,1554.6,704.375,639.874997138977,1659.4,704.375,639.874997138977,1767.4,708.125,639.874997138977,1870,709.375,639.874997138977,1977.1,709.375,639.874997138977,2083.1,719.375,633.624997138977,2189.4,721.875,629.874997138977,2292.8,721.875,629.874997138977,2402.6,721.875,629.874997138977,2504.5,721.875,629.874997138977,2608.2,721.875,629.874997138977,2716.7,721.875,629.874997138977,2820.8,721.875,629.874997138977,2933.3,729.375,623.624997138977,3052.3,729.375,623.624997138977,3156.6,734.375,621.124997138977,3258.8,734.375,621.124997138977,3359.7,734.375,621.124997138977,3471.7,734.375,621.124997138977,3575.7,734.375,621.124997138977,3686.3,734.375,621.124997138977,3794,734.375,621.124997138977,3904.9,734.375,621.124997138977,4010.9,734.375,621.124997138977,4124.6,734.375,621.124997138977,4236.2,734.375,621.124997138977,4344.8,734.375,621.124997138977,4445.1,734.375,621.124997138977,4546.3,734.375,621.124997138977,4651.9,734.375,621.124997138977,4769.1,734.375,621.124997138977,4872.9,734.375,621.124997138977,4976.7]","[1556,1556,1000,0,556,""smooth"",""down"",""down"",""good_move"",5110.6,3552.3,3031.6,1558.3,520.7,""smooth"",""down"",""down"",""good_move"",8210.1,3097.8,2497.3,5112.3,600.5,""smooth"",""down"",""down"",""good_move"",11617.7,3406.3,2890.6,8211.4,515.7,""smooth"",""right"",""right"",""good_move"",14510.8,2888.4,2326.1,11622.4,562.3,""oops"",""right"",""left"",""bad_move"",22325.7,7813,3006.9,18526.6,792.2,""oops"",""right"",""up"",""bad_move"",25500.2,3173.5,2599.6,22326.8,573.9,""smooth"",""right"",""right"",""good_move"",28692.7,3190.3,2390.7,25502.4,799.6,""oops"",""right"",""right"",""good_move"",31497.1,2802.3,1841.2,28694.9,961,""smooth"",""right"",""right"",""good_move"",34078.7,2580.1,2103.8,31498.6,476.3,""oops"",""down"",""left"",""bad_move"",36947.5,2866.7,2398.8,34080.8,467.9,""smooth"",""down"",""down"",""good_move"",39841.9,2892.6,2452,36949.4,440.6,""smooth"",""right"",""right"",""good_move""]"
"4474","","<div style=""width:500px;"">
  <p>What determined the result of this run?</p>
  </div>","75","html-slider-response","64","1163942","0.0-7.0-1.10","182","1","2025-08-06 11:00:07","36c45c0696341be0efffe67d72a12abb","41.116.54.249","Mozilla/5.0 (Windows NT 10.0; Win64; x64) AppleWebKit/537.36 (KHTML, like Gecko) Chrome/138.0.0.0 Safari/537.36","WebKit","Chrome","138.0.0.0","Windows","10.0","https://app.prolific.com/","en-US,en;q=0.8","66bee53cfe67b3e6342cb2ba","687a1a965b9f5b85a264363e","689334d9991a2c19c6cccf26","1","66bee53cfe67b3e6342cb2ba","1","2025-08-06T11:19:34.297Z","","","","AttribQ","","","","","","","","","","","50","","","","","","","","","","","","","","","","","","","","","","","","","","",""
"4164","","<div style=""width:500px;"">
  <p>How much control did you have over the ball?</p>
  </div>","82","html-slider-response","65","1168108","0.0-7.0-2.10","182","1","2025-08-06 11:00:07","36c45c0696341be0efffe67d72a12abb","41.116.54.249","Mozilla/5.0 (Windows NT 10.0; Win64; x64) AppleWebKit/537.36 (KHTML, like Gecko) Chrome/138.0.0.0 Safari/537.36","WebKit","Chrome","138.0.0.0","Windows","10.0","https://app.prolific.com/","en-US,en;q=0.8","66bee53cfe67b3e6342cb2ba","687a1a965b9f5b85a264363e","689334d9991a2c19c6cccf26","1","66bee53cfe67b3e6342cb2ba","1","2025-08-06T11:19:38.463Z","","","","ControlQ","","","","","","","","","","","50","","","","","","","","","","","","","","","","","","","","","","","","","","",""
"3457","","<div style=""width:500px;"">
  <p>How would you describe your current emotional state?</p>
  </div>","24","html-slider-response","66","1171568","0.0-7.0-3.10","182","1","2025-08-06 11:00:07","36c45c0696341be0efffe67d72a12abb","41.116.54.249","Mozilla/5.0 (Windows NT 10.0; Win64; x64) AppleWebKit/537.36 (KHTML, like Gecko) Chrome/138.0.0.0 Safari/537.36","WebKit","Chrome","138.0.0.0","Windows","10.0","https://app.prolific.com/","en-US,en;q=0.8","66bee53cfe67b3e6342cb2ba","687a1a965b9f5b85a264363e","689334d9991a2c19c6cccf26","1","66bee53cfe67b3e6342cb2ba","1","2025-08-06T11:19:41.923Z","","","","StressQ","","","","","","","","","","","50","","","","","","","","","","","","","","","","","","","","","","","","","","",""
"2560","","<div style=""width:500px;"">
  <p>What best describes how you currently feel?</p>
  </div>","76","html-slider-response","67","1174131","0.0-7.0-4.10","182","1","2025-08-06 11:00:07","36c45c0696341be0efffe67d72a12abb","41.116.54.249","Mozilla/5.0 (Windows NT 10.0; Win64; x64) AppleWebKit/537.36 (KHTML, like Gecko) Chrome/138.0.0.0 Safari/537.36","WebKit","Chrome","138.0.0.0","Windows","10.0","https://app.prolific.com/","en-US,en;q=0.8","66bee53cfe67b3e6342cb2ba","687a1a965b9f5b85a264363e","689334d9991a2c19c6cccf26","1","66bee53cfe67b3e6342cb2ba","1","2025-08-06T11:19:44.486Z","","","","MotivationQ","","","","","","","","","","","50","","","","","","","","","","","","","","","","","","","","","","","","","","",""
"","","","","ctl-task-cpt","68","1212230","0.0-7.0-0.11","182","1","2025-08-06 11:00:07","36c45c0696341be0efffe67d72a12abb","41.116.54.249","Mozilla/5.0 (Windows NT 10.0; Win64; x64) AppleWebKit/537.36 (KHTML, like Gecko) Chrome/138.0.0.0 Safari/537.36","WebKit","Chrome","138.0.0.0","Windows","10.0","https://app.prolific.com/","en-US,en;q=0.8","66bee53cfe67b3e6342cb2ba","687a1a965b9f5b85a264363e","689334d9991a2c19c6cccf26","1","66bee53cfe67b3e6342cb2ba","1","2025-08-06T11:20:22.585Z","","","","","","","","","","","","","","","","win-only","3","g1:SW,g2:NE","0.7","12","0","1178410.3","4617.2","9624.7","35070.7","1","4","8","6","1","1","0","16","16","0.12121212121212122","2261.7","3000","2035","[""down"",""left""]","{""num_key_presses"":7,""num_perfect"":5,""num_errors"":1,""num_randdir"":1,""num_randdir_good_moves"":0,""num_whilered"":0,""num_whileblue"":0,""num_blue"":1,""num_good_moves"":5}","[353.125,358.62499713897705,1.2,353.125,358.62499713897705,100.3,353.125,358.62499713897705,201.7,353.125,358.62499713897705,314.9,353.125,358.62499713897705,417.3,353.125,359.87499713897705,519,349.375,363.62499713897705,630.9,339.375,372.37499713897705,731.8,340.625,373.62499713897705,836.1,380.625,373.62499713897705,937,390.625,371.12499713897705,1054.2,390.625,369.87499713897705,1160.1,379.375,369.87499713897705,1267.5,339.375,388.62499713897705,1368.7,309.375,401.12499713897705,1481.8,299.375,413.62499713897705,1593.6,244.375,463.62499713897705,1703.2,119.375,571.124997138977,1816.5,114.375,587.374997138977,1931.4,104.375,599.874997138977,2045.1,73.125,653.624997138977,2146.6,59.375,676.124997138977,2266.2,59.375,676.124997138977,2375.8,59.375,678.624997138977,2480.7,76.875,681.124997138977,2584.1,114.375,682.374997138977,2695.9,226.875,682.374997138977,2809.8,435.625,682.374997138977,2912.6,425.625,682.374997138977,3018.7,424.375,682.374997138977,3125.5,441.875,724.874997138977,3232.7,423.125,748.624997138977,3344.3,423.125,748.624997138977,3448.7,423.125,748.624997138977,3549.8,423.125,748.624997138977,3660.5,423.125,748.624997138977,3762,423.125,748.624997138977,3875.8,423.125,748.624997138977,3981.1,423.125,748.624997138977,4091.6,423.125,748.624997138977,4199.3,423.125,748.624997138977,4300.1,423.125,748.624997138977,4400.8,423.125,748.624997138977,4504.1,423.125,748.624997138977,4615.6,423.125,748.624997138977,4726,423.125,748.624997138977,4832.7,423.125,748.624997138977,4942.7]","[1560.9,1560.9,1000,0,560.9,""smooth"",""down"",""down"",""good_move"",4872.6,3304.1,2634.9,1568.6,669.1,""smooth"",""down"",""down"",""good_move"",8392.6,3518.3,2891.6,4874.3,626.7,""oops"",""left"",""right"",""bad_move"",9841.4,1445.5,2589.1,8395.9,-1143.6,""error"",""-"",""-"",""no_move"",17535.8,7693.2,2465.4,14445.2,625.3,""smooth"",""left"",""left"",""good_move"",21183.9,3646.4,2394.6,17537.5,1251.8,""smooth"",""left"",""left"",""good_move"",25067.5,3882,2841.5,21185.5,1040.5,""smooth"",""left"",""left"",""good_move""]"
"3653","","<div style=""width:500px;"">
  <p>What determined the result of this run?</p>
  </div>","72","html-slider-response","69","1215885","0.0-7.0-1.11","182","1","2025-08-06 11:00:07","36c45c0696341be0efffe67d72a12abb","41.116.54.249","Mozilla/5.0 (Windows NT 10.0; Win64; x64) AppleWebKit/537.36 (KHTML, like Gecko) Chrome/138.0.0.0 Safari/537.36","WebKit","Chrome","138.0.0.0","Windows","10.0","https://app.prolific.com/","en-US,en;q=0.8","66bee53cfe67b3e6342cb2ba","687a1a965b9f5b85a264363e","689334d9991a2c19c6cccf26","1","66bee53cfe67b3e6342cb2ba","1","2025-08-06T11:20:26.240Z","","","","AttribQ","","","","","","","","","","","50","","","","","","","","","","","","","","","","","","","","","","","","","","",""
"9229","","<div style=""width:500px;"">
  <p>How much control did you have over the ball?</p>
  </div>","73","html-slider-response","70","1225117","0.0-7.0-2.11","182","1","2025-08-06 11:00:07","36c45c0696341be0efffe67d72a12abb","41.116.54.249","Mozilla/5.0 (Windows NT 10.0; Win64; x64) AppleWebKit/537.36 (KHTML, like Gecko) Chrome/138.0.0.0 Safari/537.36","WebKit","Chrome","138.0.0.0","Windows","10.0","https://app.prolific.com/","en-US,en;q=0.8","66bee53cfe67b3e6342cb2ba","687a1a965b9f5b85a264363e","689334d9991a2c19c6cccf26","1","66bee53cfe67b3e6342cb2ba","1","2025-08-06T11:20:35.472Z","","","","ControlQ","","","","","","","","","","","50","","","","","","","","","","","","","","","","","","","","","","","","","","",""
"6198","","<div style=""width:500px;"">
  <p>How would you describe your current emotional state?</p>
  </div>","19","html-slider-response","71","1231318","0.0-7.0-3.11","182","1","2025-08-06 11:00:07","36c45c0696341be0efffe67d72a12abb","41.116.54.249","Mozilla/5.0 (Windows NT 10.0; Win64; x64) AppleWebKit/537.36 (KHTML, like Gecko) Chrome/138.0.0.0 Safari/537.36","WebKit","Chrome","138.0.0.0","Windows","10.0","https://app.prolific.com/","en-US,en;q=0.8","66bee53cfe67b3e6342cb2ba","687a1a965b9f5b85a264363e","689334d9991a2c19c6cccf26","1","66bee53cfe67b3e6342cb2ba","1","2025-08-06T11:20:41.673Z","","","","StressQ","","","","","","","","","","","50","","","","","","","","","","","","","","","","","","","","","","","","","","",""
"8818","","<div style=""width:500px;"">
  <p>What best describes how you currently feel?</p>
  </div>","66","html-slider-response","72","1240140","0.0-7.0-4.11","182","1","2025-08-06 11:00:07","36c45c0696341be0efffe67d72a12abb","41.116.54.249","Mozilla/5.0 (Windows NT 10.0; Win64; x64) AppleWebKit/537.36 (KHTML, like Gecko) Chrome/138.0.0.0 Safari/537.36","WebKit","Chrome","138.0.0.0","Windows","10.0","https://app.prolific.com/","en-US,en;q=0.8","66bee53cfe67b3e6342cb2ba","687a1a965b9f5b85a264363e","689334d9991a2c19c6cccf26","1","66bee53cfe67b3e6342cb2ba","1","2025-08-06T11:20:50.495Z","","","","MotivationQ","","","","","","","","","","","50","","","","","","","","","","","","","","","","","","","","","","","","","","",""
"","","","","ctl-task-cpt","73","1296983","0.0-7.0-0.12","182","1","2025-08-06 11:00:07","36c45c0696341be0efffe67d72a12abb","41.116.54.249","Mozilla/5.0 (Windows NT 10.0; Win64; x64) AppleWebKit/537.36 (KHTML, like Gecko) Chrome/138.0.0.0 Safari/537.36","WebKit","Chrome","138.0.0.0","Windows","10.0","https://app.prolific.com/","en-US,en;q=0.8","66bee53cfe67b3e6342cb2ba","687a1a965b9f5b85a264363e","689334d9991a2c19c6cccf26","1","66bee53cfe67b3e6342cb2ba","1","2025-08-06T11:21:47.338Z","","","","","","","","","","","","","","","","win-only","0","g1:NW,g2:SE","0.8","13","0","1244421.9","936.1","5950.1","53816.1","1","4","4","6","2","4","3","19","16","0.14393939393939395","1448","3000","1145","[""down"",""right""]","{""num_key_presses"":11,""num_perfect"":8,""num_errors"":1,""num_randdir"":2,""num_randdir_good_moves"":0,""num_whilered"":0,""num_whileblue"":0,""num_blue"":4,""num_good_moves"":8}","[359.375,346.12499713897705,0.9,359.375,346.12499713897705,118.5,359.375,346.12499713897705,220.7,359.375,346.12499713897705,324.5,359.375,346.12499713897705,435.7,334.375,361.12499713897705,543.6,281.875,408.62499713897705,655.2,439.375,531.124997138977,757.8,444.375,533.624997138977,860.3,481.875,566.124997138977,976.2,529.375,612.374997138977,1089.9,569.375,652.374997138977,1200.8,579.375,657.374997138977,1305.8,608.125,674.874997138977,1420.1,629.375,683.624997138977,1531.3,629.375,683.624997138977,1640.2,629.375,683.624997138977,1750.4,630.625,683.624997138977,1855.1,784.375,679.874997138977,1969.8,934.375,681.124997138977,2083.1,929.375,698.624997138977,2190.4,929.375,698.624997138977,2299.9,926.875,701.124997138977,2409.6,926.875,701.124997138977,2510.3,926.875,701.124997138977,2624.4,926.875,701.124997138977,2734.6,926.875,701.124997138977,2843.1,926.875,701.124997138977,2951.5,926.875,701.124997138977,3064.5,926.875,701.124997138977,3175.6,926.875,701.124997138977,3284.3,926.875,701.124997138977,3384.8,926.875,701.124997138977,3500.6,926.875,701.124997138977,3603.7,926.875,701.124997138977,3713.6,926.875,701.124997138977,3822.9,926.875,701.124997138977,3935.5,926.875,701.124997138977,4038.2,926.875,701.124997138977,4149.8,926.875,701.124997138977,4252.2,926.875,701.124997138977,4371.9,926.875,701.124997138977,4488.1,926.875,701.124997138977,4603.8,926.875,701.124997138977,4710.8,926.875,701.124997138977,4818.3,926.875,701.124997138977,4924.8]","[1953,1953.1,1000,0,953.1,""smooth"",""down"",""down"",""good_move"",9030.5,7076.1,2452.2,6025.9,552.4,""smooth"",""down"",""down"",""good_move"",16575.1,7540.7,3084.7,12894,596.4,""smooth"",""down"",""down"",""good_move"",19686.6,3108.4,2602.1,16578.2,506.3,""smooth"",""right"",""right"",""good_move"",22691.1,3002.6,1526.5,19688.5,1476.1,""smooth"",""right"",""right"",""good_move"",28519.5,5827.1,2422,25592.2,505.3,""oops"",""right"",""up"",""bad_move"",29943.5,1419.3,2965.7,28524.2,-1546.4,""error"",""-"",""-"",""no_move"",34255.5,4310.8,2762.6,30958.3,534.6,""smooth"",""right"",""right"",""good_move"",37593.9,3336.8,2733.2,34257.9,602.9,""oops"",""down"",""up"",""bad_move"",41556.2,3960.8,2226.5,37595.4,1734.4,""smooth"",""down"",""down"",""good_move"",47602.4,6043.9,2550.1,44502.7,549.6,""smooth"",""down"",""down"",""good_move""]"
"4535","","<div style=""width:500px;"">
  <p>What determined the result of this run?</p>
  </div>","78","html-slider-response","74","1301520","0.0-7.0-1.12","182","1","2025-08-06 11:00:07","36c45c0696341be0efffe67d72a12abb","41.116.54.249","Mozilla/5.0 (Windows NT 10.0; Win64; x64) AppleWebKit/537.36 (KHTML, like Gecko) Chrome/138.0.0.0 Safari/537.36","WebKit","Chrome","138.0.0.0","Windows","10.0","https://app.prolific.com/","en-US,en;q=0.8","66bee53cfe67b3e6342cb2ba","687a1a965b9f5b85a264363e","689334d9991a2c19c6cccf26","1","66bee53cfe67b3e6342cb2ba","1","2025-08-06T11:21:51.875Z","","","","AttribQ","","","","","","","","","","","50","","","","","","","","","","","","","","","","","","","","","","","","","","",""
"5545","","<div style=""width:500px;"">
  <p>How much control did you have over the ball?</p>
  </div>","33","html-slider-response","75","1307067","0.0-7.0-2.12","182","1","2025-08-06 11:00:07","36c45c0696341be0efffe67d72a12abb","41.116.54.249","Mozilla/5.0 (Windows NT 10.0; Win64; x64) AppleWebKit/537.36 (KHTML, like Gecko) Chrome/138.0.0.0 Safari/537.36","WebKit","Chrome","138.0.0.0","Windows","10.0","https://app.prolific.com/","en-US,en;q=0.8","66bee53cfe67b3e6342cb2ba","687a1a965b9f5b85a264363e","689334d9991a2c19c6cccf26","1","66bee53cfe67b3e6342cb2ba","1","2025-08-06T11:21:57.423Z","","","","ControlQ","","","","","","","","","","","50","","","","","","","","","","","","","","","","","","","","","","","","","","",""
"4299","","<div style=""width:500px;"">
  <p>How would you describe your current emotional state?</p>
  </div>","16","html-slider-response","76","1311371","0.0-7.0-3.12","182","1","2025-08-06 11:00:07","36c45c0696341be0efffe67d72a12abb","41.116.54.249","Mozilla/5.0 (Windows NT 10.0; Win64; x64) AppleWebKit/537.36 (KHTML, like Gecko) Chrome/138.0.0.0 Safari/537.36","WebKit","Chrome","138.0.0.0","Windows","10.0","https://app.prolific.com/","en-US,en;q=0.8","66bee53cfe67b3e6342cb2ba","687a1a965b9f5b85a264363e","689334d9991a2c19c6cccf26","1","66bee53cfe67b3e6342cb2ba","1","2025-08-06T11:22:01.726Z","","","","StressQ","","","","","","","","","","","50","","","","","","","","","","","","","","","","","","","","","","","","","","",""
"2729","","<div style=""width:500px;"">
  <p>What best describes how you currently feel?</p>
  </div>","80","html-slider-response","77","1314101","0.0-7.0-4.12","182","1","2025-08-06 11:00:07","36c45c0696341be0efffe67d72a12abb","41.116.54.249","Mozilla/5.0 (Windows NT 10.0; Win64; x64) AppleWebKit/537.36 (KHTML, like Gecko) Chrome/138.0.0.0 Safari/537.36","WebKit","Chrome","138.0.0.0","Windows","10.0","https://app.prolific.com/","en-US,en;q=0.8","66bee53cfe67b3e6342cb2ba","687a1a965b9f5b85a264363e","689334d9991a2c19c6cccf26","1","66bee53cfe67b3e6342cb2ba","1","2025-08-06T11:22:04.457Z","","","","MotivationQ","","","","","","","","","","","50","","","","","","","","","","","","","","","","","","","","","","","","","","",""
"","","","","ctl-task-cpt","78","1347912","0.0-7.0-0.13","182","1","2025-08-06 11:00:07","36c45c0696341be0efffe67d72a12abb","41.116.54.249","Mozilla/5.0 (Windows NT 10.0; Win64; x64) AppleWebKit/537.36 (KHTML, like Gecko) Chrome/138.0.0.0 Safari/537.36","WebKit","Chrome","138.0.0.0","Windows","10.0","https://app.prolific.com/","en-US,en;q=0.8","66bee53cfe67b3e6342cb2ba","687a1a965b9f5b85a264363e","689334d9991a2c19c6cccf26","1","66bee53cfe67b3e6342cb2ba","1","2025-08-06T11:22:38.267Z","","","","","","","","","","","","","","","","win-only","1","g1:NE,g2:SW","0.9","14","0","1318381.3","2548.5","7550.7","30774.5","1","4","8","6","2","8","8","27","19","0.20454545454545456","1291.6","3000","2170","[""down"",""left""]","{""num_key_presses"":6,""num_perfect"":6,""num_errors"":0,""num_randdir"":0,""num_randdir_good_moves"":0,""num_whilered"":0,""num_whileblue"":0,""num_blue"":1,""num_good_moves"":6}","[356.875,356.12499713897705,1.3,361.875,364.87499713897705,116.8,361.875,364.87499713897705,220,361.875,364.87499713897705,339.4,361.875,364.87499713897705,465.8,361.875,364.87499713897705,570.1,364.375,368.62499713897705,681.6,246.875,448.62499713897705,788.2,173.125,549.874997138977,909.1,155.625,602.374997138977,1031,74.375,656.124997138977,1138.6,74.375,656.124997138977,1251.8,74.375,656.124997138977,1368.4,74.375,653.624997138977,1486.1,119.375,646.124997138977,1589.7,238.125,646.124997138977,1702.9,238.125,646.124997138977,1813.4,233.125,651.124997138977,1931.3,233.125,651.124997138977,2050.2,233.125,651.124997138977,2170.6,233.125,651.124997138977,2288.7,233.125,651.124997138977,2399,233.125,651.124997138977,2500.4,233.125,651.124997138977,2612.3,233.125,651.124997138977,2719.6,233.125,651.124997138977,2821.7,233.125,651.124997138977,2923.5,233.125,651.124997138977,3029.1,233.125,651.124997138977,3132.4,233.125,651.124997138977,3239.2,233.125,651.124997138977,3339.9,233.125,651.124997138977,3451.3,233.125,651.124997138977,3568.1,233.125,651.124997138977,3682.6,233.125,651.124997138977,3790.3,233.125,651.124997138977,3898.8,233.125,651.124997138977,3999.4,233.125,651.124997138977,4104.1,233.125,651.124997138977,4217.1,233.125,651.124997138977,4319.8,233.125,651.124997138977,4433.4,233.125,651.124997138977,4536.2,233.125,651.124997138977,4642.8,233.125,651.124997138977,4750.9,233.125,651.124997138977,4864.4,233.125,651.124997138977,4975.9]","[1505.6,1505.6,1000,0,505.6,""smooth"",""down"",""down"",""good_move"",5123.7,3612.9,3011.3,1510.8,601.6,""smooth"",""down"",""down"",""good_move"",8836,3707.5,3087.5,5128.5,620,""smooth"",""down"",""down"",""good_move"",12056.6,3219.2,2691.7,8837.5,527.5,""smooth"",""left"",""left"",""good_move"",15734,3670,2881.3,12064,788.7,""smooth"",""left"",""left"",""good_move"",22815.3,7077.9,2705.8,19565.4,544.1,""smooth"",""left"",""left"",""good_move""]"
"3289","","<div style=""width:500px;"">
  <p>What determined the result of this run?</p>
  </div>","77","html-slider-response","79","1351203","0.0-7.0-1.13","182","1","2025-08-06 11:00:07","36c45c0696341be0efffe67d72a12abb","41.116.54.249","Mozilla/5.0 (Windows NT 10.0; Win64; x64) AppleWebKit/537.36 (KHTML, like Gecko) Chrome/138.0.0.0 Safari/537.36","WebKit","Chrome","138.0.0.0","Windows","10.0","https://app.prolific.com/","en-US,en;q=0.8","66bee53cfe67b3e6342cb2ba","687a1a965b9f5b85a264363e","689334d9991a2c19c6cccf26","1","66bee53cfe67b3e6342cb2ba","1","2025-08-06T11:22:41.558Z","","","","AttribQ","","","","","","","","","","","50","","","","","","","","","","","","","","","","","","","","","","","","","","",""
"3485","","<div style=""width:500px;"">
  <p>How much control did you have over the ball?</p>
  </div>","60","html-slider-response","80","1354691","0.0-7.0-2.13","182","1","2025-08-06 11:00:07","36c45c0696341be0efffe67d72a12abb","41.116.54.249","Mozilla/5.0 (Windows NT 10.0; Win64; x64) AppleWebKit/537.36 (KHTML, like Gecko) Chrome/138.0.0.0 Safari/537.36","WebKit","Chrome","138.0.0.0","Windows","10.0","https://app.prolific.com/","en-US,en;q=0.8","66bee53cfe67b3e6342cb2ba","687a1a965b9f5b85a264363e","689334d9991a2c19c6cccf26","1","66bee53cfe67b3e6342cb2ba","1","2025-08-06T11:22:45.047Z","","","","ControlQ","","","","","","","","","","","50","","","","","","","","","","","","","","","","","","","","","","","","","","",""
"3331","","<div style=""width:500px;"">
  <p>How would you describe your current emotional state?</p>
  </div>","16","html-slider-response","81","1358026","0.0-7.0-3.13","182","1","2025-08-06 11:00:07","36c45c0696341be0efffe67d72a12abb","41.116.54.249","Mozilla/5.0 (Windows NT 10.0; Win64; x64) AppleWebKit/537.36 (KHTML, like Gecko) Chrome/138.0.0.0 Safari/537.36","WebKit","Chrome","138.0.0.0","Windows","10.0","https://app.prolific.com/","en-US,en;q=0.8","66bee53cfe67b3e6342cb2ba","687a1a965b9f5b85a264363e","689334d9991a2c19c6cccf26","1","66bee53cfe67b3e6342cb2ba","1","2025-08-06T11:22:48.381Z","","","","StressQ","","","","","","","","","","","50","","","","","","","","","","","","","","","","","","","","","","","","","","",""
"2652","","<div style=""width:500px;"">
  <p>What best describes how you currently feel?</p>
  </div>","85","html-slider-response","82","1360681","0.0-7.0-4.13","182","1","2025-08-06 11:00:07","36c45c0696341be0efffe67d72a12abb","41.116.54.249","Mozilla/5.0 (Windows NT 10.0; Win64; x64) AppleWebKit/537.36 (KHTML, like Gecko) Chrome/138.0.0.0 Safari/537.36","WebKit","Chrome","138.0.0.0","Windows","10.0","https://app.prolific.com/","en-US,en;q=0.8","66bee53cfe67b3e6342cb2ba","687a1a965b9f5b85a264363e","689334d9991a2c19c6cccf26","1","66bee53cfe67b3e6342cb2ba","1","2025-08-06T11:22:51.036Z","","","","MotivationQ","","","","","","","","","","","50","","","","","","","","","","","","","","","","","","","","","","","","","","",""
