"rt","response_timestamp","stimulus","response","trial_type","trial_index","time_elapsed","internal_node_id","run_id","condition","recorded_at","source_code_version","ip","user_agent","device","browser","browser_version","platform","platform_version","referer","accept_language","PROLIFIC_PID","STUDY_ID","SESSION_ID","BATCH","prolific_id","batch","realtime","success","question_order","question_id","eventType","responses","item_order","radio_event_ids","radio_event_times","key_event_times","mouse_event_times","straightlining","zigzagging","honeypot","view_history","slider_start","which_type","canvas_config","goals_layout","control_level","trial_number","tutorial_trial_number","trial_start_time","phase1_start_time","phase2_start_time","phase3_start_time","goal_1_value","goal_1_distance","goal_2_value","goal_2_distance","goal_selected","outcome","outcome_total","participant_final_score","participant_initial_score","participant_final_score_prop","goal_choice_rt","allocated_time","allocated_time_remaining","goal_direction","counts","mouse_movements","key_presses"
"2194","1754471038898","<p style='font-size:40px;line-height:1.25'><strong>Welcome to the experiment!</strong></p><p style='font-size:1.1em;line-height:1.25'>Thank you for participanting in our experiment again! You will be asked to play the Dysfunctional Ball Game again. We will briefly recap the rules before we start.</p><p style='font-size:1.1em;line-height:1.25'>Press <strong>Next</strong> to continue.</p>","0","custom-html-button-response","0","2199","0.0-0.0","151","1","2025-08-06 09:01:59","36c45c0696341be0efffe67d72a12abb","49.206.11.110","Mozilla/5.0 (Windows NT 10.0; Win64; x64) AppleWebKit/537.36 (KHTML, like Gecko) Chrome/138.0.0.0 Safari/537.36","WebKit","Chrome","138.0.0.0","Windows","10.0","https://app.prolific.com/","en-GB,en-US;q=0.9,en;q=0.8,ta;q=0.7","66c5f76d9a214b469f6476c8","6877649eabb845cf142cd221","6893184efb8352de797df5f4","1","66c5f76d9a214b469f6476c8","1","2025-08-06T09:03:58.899Z","","","","","","","","","","","","","","","","","","","","","","","","","","","","","","","","","","","","","","","","","",""
"243533","","","","fullscreen","1","246744","0.0-1.0","151","1","2025-08-06 09:01:59","36c45c0696341be0efffe67d72a12abb","49.206.11.110","Mozilla/5.0 (Windows NT 10.0; Win64; x64) AppleWebKit/537.36 (KHTML, like Gecko) Chrome/138.0.0.0 Safari/537.36","WebKit","Chrome","138.0.0.0","Windows","10.0","https://app.prolific.com/","en-GB,en-US;q=0.9,en;q=0.8,ta;q=0.7","66c5f76d9a214b469f6476c8","6877649eabb845cf142cd221","6893184efb8352de797df5f4","1","66c5f76d9a214b469f6476c8","1","","true","","","","","","","","","","","","","","","","","","","","","","","","","","","","","","","","","","","","","","","","",""
"1574","1754471285025"," <p style='font-size:1.1em;line-height:1.25'>Thank you for closing all other tabs.</p><p style='font-size:1.1em;line-height:1.25'>We will now invite you to fill in some questionnaires, before starting the game.<br>This will take about 5 minutes.<br></p><p style='font-size:1.1em;line-height:1.25'>Press the <strong>Next</strong> button to continue.</p>","0","custom-html-button-response","2","248326","0.0-2.0","151","1","2025-08-06 09:01:59","36c45c0696341be0efffe67d72a12abb","49.206.11.110","Mozilla/5.0 (Windows NT 10.0; Win64; x64) AppleWebKit/537.36 (KHTML, like Gecko) Chrome/138.0.0.0 Safari/537.36","WebKit","Chrome","138.0.0.0","Windows","10.0","https://app.prolific.com/","en-GB,en-US;q=0.9,en;q=0.8,ta;q=0.7","66c5f76d9a214b469f6476c8","6877649eabb845cf142cd221","6893184efb8352de797df5f4","1","66c5f76d9a214b469f6476c8","1","2025-08-06T09:08:05.026Z","","","","","","","","","","","","","","","","","","","","","","","","","","","","","","","","","","","","","","","","","",""
"11135","","","{""assigned_sex"":""female""}","survey-multi-choice","3","259463","0.0-3.0-0.0","151","1","2025-08-06 09:01:59","36c45c0696341be0efffe67d72a12abb","49.206.11.110","Mozilla/5.0 (Windows NT 10.0; Win64; x64) AppleWebKit/537.36 (KHTML, like Gecko) Chrome/138.0.0.0 Safari/537.36","WebKit","Chrome","138.0.0.0","Windows","10.0","https://app.prolific.com/","en-GB,en-US;q=0.9,en;q=0.8,ta;q=0.7","66c5f76d9a214b469f6476c8","6877649eabb845cf142cd221","6893184efb8352de797df5f4","1","66c5f76d9a214b469f6476c8","1","","","[0]","0","demographics","","","","","","","","","","","","","","","","","","","","","","","","","","","","","","","","","","","","","",""
"2011","1754471298177","<p style='font-size:1.1em;line-height:1.25'>In the following, we will perform a baseline assessment. This means that we will ask you a few questions relating to your experiences over the past month.<br></p><p style='font-size:1.1em;line-height:1.25'>Press the <strong>Next</strong> button to continue.</p>","0","custom-html-button-response","4","261477","0.0-4.0-0.0","151","1","2025-08-06 09:01:59","36c45c0696341be0efffe67d72a12abb","49.206.11.110","Mozilla/5.0 (Windows NT 10.0; Win64; x64) AppleWebKit/537.36 (KHTML, like Gecko) Chrome/138.0.0.0 Safari/537.36","WebKit","Chrome","138.0.0.0","Windows","10.0","https://app.prolific.com/","en-GB,en-US;q=0.9,en;q=0.8,ta;q=0.7","66c5f76d9a214b469f6476c8","6877649eabb845cf142cd221","6893184efb8352de797df5f4","1","66c5f76d9a214b469f6476c8","1","2025-08-06T09:08:18.177Z","","","","","","","","","","","","","","","","","","","","","","","","","","","","","","","","","","","","","","","","","",""
"46752.59999999963","","","","survey-template","5","308234","0.0-4.0-1.0","151","1","2025-08-06 09:01:59","36c45c0696341be0efffe67d72a12abb","49.206.11.110","Mozilla/5.0 (Windows NT 10.0; Win64; x64) AppleWebKit/537.36 (KHTML, like Gecko) Chrome/138.0.0.0 Safari/537.36","WebKit","Chrome","138.0.0.0","Windows","10.0","https://app.prolific.com/","en-GB,en-US;q=0.9,en;q=0.8,ta;q=0.7","66c5f76d9a214b469f6476c8","6877649eabb845cf142cd221","6893184efb8352de797df5f4","1","66c5f76d9a214b469f6476c8","1","2025-08-06T09:09:04.934Z","","","","pss","{""Q01"":""2"",""Q02"":""3"",""Q03"":""2"",""Q04"":""1"",""Q05"":""2"",""Q06"":""2"",""Q07"":""2"",""Q08"":""2"",""Q09"":""3"",""Q10"":""2""}","[0,1,2,3,4,5,6,7,8,9]","[""Q01"",""Q02"",""Q04"",""Q03"",""Q03"",""Q04"",""Q05"",""Q06"",""Q07"",""Q08"",""Q09"",""Q09"",""Q10""]","[11070.699999999255,15310.5,17358.299999998882,18902.299999998882,20462.299999998882,25375.099999999627,26893.699999999255,32726.199999999255,33557.699999999255,39278.29999999888,42406,44158.199999999255,45886.09999999963]","[]","[0.19999999925494194,11070.699999999255,15310.5,15966.199999999255,16766.199999999255,17358.299999998882,18902.299999998882,20462.299999998882,25375.099999999627,26893.699999999255,30278,32726.199999999255,33557.699999999255,39278.29999999888,42406,44158.199999999255,45134.5,45886.09999999963,46750.29999999888]","0.7","0.6666666666666666","0","","","","","","","","","","","","","","","","","","","","","","","","","","","","",""
"1425","1754471346361","<p style='font-size:1.1em;line-height:1.25'>Thank you for your answers! Now we will ask you a few more questions relating to your feelings in the last 24 hours.<br></p><p style='font-size:1.1em;line-height:1.25'>Press the <strong>Next</strong> button to continue.</p>","0","custom-html-button-response","6","309661","0.0-4.0-2.0","151","1","2025-08-06 09:01:59","36c45c0696341be0efffe67d72a12abb","49.206.11.110","Mozilla/5.0 (Windows NT 10.0; Win64; x64) AppleWebKit/537.36 (KHTML, like Gecko) Chrome/138.0.0.0 Safari/537.36","WebKit","Chrome","138.0.0.0","Windows","10.0","https://app.prolific.com/","en-GB,en-US;q=0.9,en;q=0.8,ta;q=0.7","66c5f76d9a214b469f6476c8","6877649eabb845cf142cd221","6893184efb8352de797df5f4","1","66c5f76d9a214b469f6476c8","1","2025-08-06T09:09:06.362Z","","","","","","","","","","","","","","","","","","","","","","","","","","","","","","","","","","","","","","","","","",""
"43670.40000000037","","","","survey-template","7","353338","0.0-4.0-3.0","151","1","2025-08-06 09:01:59","36c45c0696341be0efffe67d72a12abb","49.206.11.110","Mozilla/5.0 (Windows NT 10.0; Win64; x64) AppleWebKit/537.36 (KHTML, like Gecko) Chrome/138.0.0.0 Safari/537.36","WebKit","Chrome","138.0.0.0","Windows","10.0","https://app.prolific.com/","en-GB,en-US;q=0.9,en;q=0.8,ta;q=0.7","66c5f76d9a214b469f6476c8","6877649eabb845cf142cd221","6893184efb8352de797df5f4","1","66c5f76d9a214b469f6476c8","1","2025-08-06T09:09:50.038Z","","","","drsp","{""Q01"":""3"",""Q02"":""2"",""Q03"":""3"",""Q04"":""3"",""Q05"":""2"",""Q06"":""4"",""Q07"":""3"",""Q08"":""3"",""Q09"":""2"",""Q10"":""2"",""Q11"":""2"",""Q12"":""1"",""Q13"":""5"",""Q14"":""1"",""Q15"":""2"",""Q16"":""2"",""Q17"":""2"",""Q18"":""3"",""Q19"":""1"",""Q20"":""2"",""Q21"":""2"",""Q22"":""2""}","[0,1,2,3,4,5,6,7,8,9,10,11,12,13,14,15,16,17,18,19,20,21]","[""Q01"",""Q02"",""Q03"",""Q04"",""Q05"",""Q06"",""Q06"",""Q06"",""Q07"",""Q08"",""Q09"",""Q10"",""Q11"",""Q12"",""Q13"",""Q14"",""Q15"",""Q16"",""Q17"",""Q18"",""Q19"",""Q20"",""Q21"",""Q22""]","[2371.7999999988824,3939.9000000003725,5275.9000000003725,6403.0999999996275,7779.199999999255,8635.099999999627,9723.400000000373,12411.400000000373,13699.699999999255,15524,17059.799999998882,17619.599999999627,18155.599999999627,21731.699999999255,23147.699999999255,28027.199999999255,29067.299999998882,30283.400000000373,31115.199999999255,33235.09999999963,34523.29999999888,37491,38827.09999999963,39963]","[]","[0.2999999988824129,2371.7999999988824,3939.9000000003725,5275.9000000003725,6403.0999999996275,7779.199999999255,8635.099999999627,9723.400000000373,12411.400000000373,13699.699999999255,15524,17059.799999998882,17619.599999999627,18155.599999999627,21731.699999999255,23147.699999999255,28027.199999999255,29067.299999998882,30283.400000000373,31115.199999999255,33235.09999999963,34523.29999999888,35139.40000000037,37491,38075.40000000037,38827.09999999963,39963,43667.29999999888]","0.5","0.42857142857142855","0","","","","","","","","","","","","","","","","","","","","","","","","","","","","",""
"5802.299999998882","","","","survey-template","8","359143","0.0-4.0-4.0","151","1","2025-08-06 09:01:59","36c45c0696341be0efffe67d72a12abb","49.206.11.110","Mozilla/5.0 (Windows NT 10.0; Win64; x64) AppleWebKit/537.36 (KHTML, like Gecko) Chrome/138.0.0.0 Safari/537.36","WebKit","Chrome","138.0.0.0","Windows","10.0","https://app.prolific.com/","en-GB,en-US;q=0.9,en;q=0.8,ta;q=0.7","66c5f76d9a214b469f6476c8","6877649eabb845cf142cd221","6893184efb8352de797df5f4","1","66c5f76d9a214b469f6476c8","1","2025-08-06T09:09:55.843Z","","","","stress","{""Q01"":""3"",""Q02"":""2"",""Q03"":""2""}","[0,1,2]","[""Q01"",""Q02"",""Q03""]","[2520.5999999996275,4001.0999999996275,4825.0999999996275]","[]","[2520.5999999996275,4001.0999999996275,4825.0999999996275,5801.0999999996275]","0.6666666666666666","0.5","0","","","","","","","","","","","","","","","","","","","","","","","","","","","","",""
"8219","","","","instructions","9","367366","0.0-5.0-0.0","151","1","2025-08-06 09:01:59","36c45c0696341be0efffe67d72a12abb","49.206.11.110","Mozilla/5.0 (Windows NT 10.0; Win64; x64) AppleWebKit/537.36 (KHTML, like Gecko) Chrome/138.0.0.0 Safari/537.36","WebKit","Chrome","138.0.0.0","Windows","10.0","https://app.prolific.com/","en-GB,en-US;q=0.9,en;q=0.8,ta;q=0.7","66c5f76d9a214b469f6476c8","6877649eabb845cf142cd221","6893184efb8352de797df5f4","1","66c5f76d9a214b469f6476c8","1","","","","","","","","","","","","","","","[{""page_index"":0,""viewing_time"":8219}]","","","","","","","","","","","","","","","","","","","","","","","","","","","",""
"2716","","<p>Before you start with this game please answer the following three questions yourself. </p>
  <p>Through this game, we measure several aspects of your cognitive performance, such as reaction times, multi-tasking capabilities </p>
  <p>and the ability to assess the situation you are in.</p>
  <p></p>
  <p><b>How good do you usually are in such tasks?</b></p>","82","html-slider-response","10","370085","0.0-6.0-0.0","151","1","2025-08-06 09:01:59","36c45c0696341be0efffe67d72a12abb","49.206.11.110","Mozilla/5.0 (Windows NT 10.0; Win64; x64) AppleWebKit/537.36 (KHTML, like Gecko) Chrome/138.0.0.0 Safari/537.36","WebKit","Chrome","138.0.0.0","Windows","10.0","https://app.prolific.com/","en-GB,en-US;q=0.9,en;q=0.8,ta;q=0.7","66c5f76d9a214b469f6476c8","6877649eabb845cf142cd221","6893184efb8352de797df5f4","1","66c5f76d9a214b469f6476c8","1","2025-08-06T09:10:06.786Z","","","","PreSkillQ","","","","","","","","","","","50","","","","","","","","","","","","","","","","","","","","","","","","","","",""
"2149","","<div style=""width:500px;"">
  <p>How well do you think you will perform in this task compared to other participants?</p>
  </div>","84","html-slider-response","11","372237","0.0-6.0-1.0","151","1","2025-08-06 09:01:59","36c45c0696341be0efffe67d72a12abb","49.206.11.110","Mozilla/5.0 (Windows NT 10.0; Win64; x64) AppleWebKit/537.36 (KHTML, like Gecko) Chrome/138.0.0.0 Safari/537.36","WebKit","Chrome","138.0.0.0","Windows","10.0","https://app.prolific.com/","en-GB,en-US;q=0.9,en;q=0.8,ta;q=0.7","66c5f76d9a214b469f6476c8","6877649eabb845cf142cd221","6893184efb8352de797df5f4","1","66c5f76d9a214b469f6476c8","1","2025-08-06T09:10:08.937Z","","","","PrePerfQ","","","","","","","","","","","50","","","","","","","","","","","","","","","","","","","","","","","","","","",""
"1910","","<div style=""width:500px;"">
  <p>What best describes how you currently feel?</p>
  </div>","80","html-slider-response","12","374150","0.0-6.0-2.0","151","1","2025-08-06 09:01:59","36c45c0696341be0efffe67d72a12abb","49.206.11.110","Mozilla/5.0 (Windows NT 10.0; Win64; x64) AppleWebKit/537.36 (KHTML, like Gecko) Chrome/138.0.0.0 Safari/537.36","WebKit","Chrome","138.0.0.0","Windows","10.0","https://app.prolific.com/","en-GB,en-US;q=0.9,en;q=0.8,ta;q=0.7","66c5f76d9a214b469f6476c8","6877649eabb845cf142cd221","6893184efb8352de797df5f4","1","66c5f76d9a214b469f6476c8","1","2025-08-06T09:10:10.850Z","","","","PreMotivationQ","","","","","","","","","","","50","","","","","","","","","","","","","","","","","","","","","","","","","","",""
"","","","","ctl-task-cpt","13","398097","0.0-7.0-0.0","151","1","2025-08-06 09:01:59","36c45c0696341be0efffe67d72a12abb","49.206.11.110","Mozilla/5.0 (Windows NT 10.0; Win64; x64) AppleWebKit/537.36 (KHTML, like Gecko) Chrome/138.0.0.0 Safari/537.36","WebKit","Chrome","138.0.0.0","Windows","10.0","https://app.prolific.com/","en-GB,en-US;q=0.9,en;q=0.8,ta;q=0.7","66c5f76d9a214b469f6476c8","6877649eabb845cf142cd221","6893184efb8352de797df5f4","1","66c5f76d9a214b469f6476c8","1","2025-08-06T09:10:34.797Z","","","","","","","","","","","","","","","","win-only","2","g1:SE,g2:NW","1","1","0","383925.2","1083.7","6091.8","20939.3","1","4","4","6","2","4","4","4","0","0.030303030303030304","1759.6","3000","710","[""left"",""up""]","{""num_key_presses"":6,""num_perfect"":6,""num_errors"":0,""num_randdir"":0,""num_randdir_good_moves"":0,""num_whilered"":0,""num_whileblue"":0,""num_blue"":0,""num_good_moves"":6}","[295.22232142857143,290.12857142857143,0.2,295.22232142857143,290.12857142857143,102.5,295.22232142857143,290.12857142857143,207.2,295.22232142857143,290.12857142857143,307.4,295.22232142857143,290.12857142857143,413,295.22232142857143,290.12857142857143,513.1,309.22232142857143,293.12857142857143,617.5,324.22232142857143,291.12857142857143,717.5,303.22232142857143,199.12857142857143,821.9,242.22232142857143,130.12857142857143,927.2,242.22232142857143,124.12857142857143,1027.6,245.22232142857143,131.12857142857143,1128.5,245.22232142857143,131.12857142857143,1232.9,235.22232142857143,132.12857142857143,1336.5,117.22232142857143,101.12857142857143,1437.4,116.22232142857143,93.12857142857143,1538.4,87.22232142857143,76.12857142857143,1643.7,71.22232142857143,71.12857142857143,1749.3,71.22232142857143,71.12857142857143,1851.8,71.22232142857143,71.12857142857143,1953.2,71.22232142857143,71.12857142857143,2057.3,71.22232142857143,71.12857142857143,2161.8,71.22232142857143,71.12857142857143,2262.2,71.22232142857143,71.12857142857143,2367.5,71.22232142857143,71.12857142857143,2467.5,70.22232142857143,71.12857142857143,2572.1,70.22232142857143,71.12857142857143,2677.3,70.22232142857143,71.12857142857143,2781.8,70.22232142857143,71.12857142857143,2886.6,70.22232142857143,71.12857142857143,2987.5,70.22232142857143,71.12857142857143,3089.3,70.22232142857143,71.12857142857143,3191.3,70.22232142857143,71.12857142857143,3292.6,70.22232142857143,71.12857142857143,3396.9,70.22232142857143,71.12857142857143,3502.1,70.22232142857143,71.12857142857143,3607.8,70.22232142857143,71.12857142857143,3713.1,70.22232142857143,71.12857142857143,3817.2,70.22232142857143,71.12857142857143,3917.8,70.22232142857143,71.12857142857143,4025.5,70.22232142857143,71.12857142857143,4126.8,70.22232142857143,71.12857142857143,4227.2,70.22232142857143,71.12857142857143,4327.9,70.22232142857143,71.12857142857143,4432.4,70.22232142857143,71.12857142857143,4541.2,70.22232142857143,71.12857142857143,4641.2,70.22232142857143,71.12857142857143,4742.4,70.22232142857143,71.12857142857143,4846.9,70.22232142857143,71.12857142857143,4947]","[1456.3,1456.3,1000,0,456.3,""smooth"",""left"",""left"",""good_move"",3608.1,2151.5,1746.7,1456.6,404.8,""smooth"",""left"",""left"",""good_move"",6386,2777.7,2348.7,3608.3,429,""smooth"",""left"",""left"",""good_move"",9566.3,3180.1,2760.3,6386.3,419.7,""smooth"",""up"",""up"",""good_move"",12021.5,2454.9,1996.5,9566.6,458.4,""smooth"",""up"",""up"",""good_move"",14750.1,2728.4,2280.1,12021.7,448.3,""smooth"",""up"",""up"",""good_move""]"
"1883","","<div style=""width:500px;"">
  <p>What determined the result of this run?</p>
  </div>","88","html-slider-response","14","399981","0.0-7.0-1.0","151","1","2025-08-06 09:01:59","36c45c0696341be0efffe67d72a12abb","49.206.11.110","Mozilla/5.0 (Windows NT 10.0; Win64; x64) AppleWebKit/537.36 (KHTML, like Gecko) Chrome/138.0.0.0 Safari/537.36","WebKit","Chrome","138.0.0.0","Windows","10.0","https://app.prolific.com/","en-GB,en-US;q=0.9,en;q=0.8,ta;q=0.7","66c5f76d9a214b469f6476c8","6877649eabb845cf142cd221","6893184efb8352de797df5f4","1","66c5f76d9a214b469f6476c8","1","2025-08-06T09:10:36.682Z","","","","AttribQ","","","","","","","","","","","50","","","","","","","","","","","","","","","","","","","","","","","","","","",""
"1446","","<div style=""width:500px;"">
  <p>How much control did you have over the ball?</p>
  </div>","94","html-slider-response","15","401430","0.0-7.0-2.0","151","1","2025-08-06 09:01:59","36c45c0696341be0efffe67d72a12abb","49.206.11.110","Mozilla/5.0 (Windows NT 10.0; Win64; x64) AppleWebKit/537.36 (KHTML, like Gecko) Chrome/138.0.0.0 Safari/537.36","WebKit","Chrome","138.0.0.0","Windows","10.0","https://app.prolific.com/","en-GB,en-US;q=0.9,en;q=0.8,ta;q=0.7","66c5f76d9a214b469f6476c8","6877649eabb845cf142cd221","6893184efb8352de797df5f4","1","66c5f76d9a214b469f6476c8","1","2025-08-06T09:10:38.130Z","","","","ControlQ","","","","","","","","","","","50","","","","","","","","","","","","","","","","","","","","","","","","","","",""
"2029","","<div style=""width:500px;"">
  <p>How would you describe your current emotional state?</p>
  </div>","7","html-slider-response","16","403462","0.0-7.0-3.0","151","1","2025-08-06 09:01:59","36c45c0696341be0efffe67d72a12abb","49.206.11.110","Mozilla/5.0 (Windows NT 10.0; Win64; x64) AppleWebKit/537.36 (KHTML, like Gecko) Chrome/138.0.0.0 Safari/537.36","WebKit","Chrome","138.0.0.0","Windows","10.0","https://app.prolific.com/","en-GB,en-US;q=0.9,en;q=0.8,ta;q=0.7","66c5f76d9a214b469f6476c8","6877649eabb845cf142cd221","6893184efb8352de797df5f4","1","66c5f76d9a214b469f6476c8","1","2025-08-06T09:10:40.162Z","","","","StressQ","","","","","","","","","","","50","","","","","","","","","","","","","","","","","","","","","","","","","","",""
"4110","","<div style=""width:500px;"">
  <p>What best describes how you currently feel?</p>
  </div>","89","html-slider-response","17","407573","0.0-7.0-4.0","151","1","2025-08-06 09:01:59","36c45c0696341be0efffe67d72a12abb","49.206.11.110","Mozilla/5.0 (Windows NT 10.0; Win64; x64) AppleWebKit/537.36 (KHTML, like Gecko) Chrome/138.0.0.0 Safari/537.36","WebKit","Chrome","138.0.0.0","Windows","10.0","https://app.prolific.com/","en-GB,en-US;q=0.9,en;q=0.8,ta;q=0.7","66c5f76d9a214b469f6476c8","6877649eabb845cf142cd221","6893184efb8352de797df5f4","1","66c5f76d9a214b469f6476c8","1","2025-08-06T09:10:44.274Z","","","","MotivationQ","","","","","","","","","","","50","","","","","","","","","","","","","","","","","","","","","","","","","","",""
"","","","","ctl-task-cpt","18","432533","0.0-7.0-0.1","151","1","2025-08-06 09:01:59","36c45c0696341be0efffe67d72a12abb","49.206.11.110","Mozilla/5.0 (Windows NT 10.0; Win64; x64) AppleWebKit/537.36 (KHTML, like Gecko) Chrome/138.0.0.0 Safari/537.36","WebKit","Chrome","138.0.0.0","Windows","10.0","https://app.prolific.com/","en-GB,en-US;q=0.9,en;q=0.8,ta;q=0.7","66c5f76d9a214b469f6476c8","6877649eabb845cf142cd221","6893184efb8352de797df5f4","1","66c5f76d9a214b469f6476c8","1","2025-08-06T09:11:09.233Z","","","","","","","","","","","","","","","","win-only","0","g1:NW,g2:SE","0.9","2","0","417346.7","839.6","5841.5","21941.4","1","4","8","6","2","8","8","12","4","0.09090909090909091","1095.7","3000","570","[""down"",""right""]","{""num_key_presses"":6,""num_perfect"":6,""num_errors"":0,""num_randdir"":0,""num_randdir_good_moves"":0,""num_whilered"":0,""num_whileblue"":0,""num_blue"":0,""num_good_moves"":6}","[294.22232142857143,302.12857142857143,0.1,294.22232142857143,302.12857142857143,113.1,294.22232142857143,302.12857142857143,216.7,294.22232142857143,302.12857142857143,316.7,294.22232142857143,302.12857142857143,416.8,287.22232142857143,314.12857142857143,521.2,500.22232142857143,492.12857142857143,621.5,600.2223214285714,570.1285714285714,727,595.2223214285714,573.1285714285714,830.9,556.2223214285714,553.1285714285714,932.1,537.2223214285714,542.1285714285714,1036.3,537.2223214285714,542.1285714285714,1136.4,556.2223214285714,527.1285714285714,1240.7,731.2223214285714,401.12857142857143,1342.2,915.2223214285714,259.12857142857143,1442.3,917.2223214285714,257.12857142857143,1546.3,917.2223214285714,257.12857142857143,1651,917.2223214285714,257.12857142857143,1751.5,917.2223214285714,257.12857142857143,1856.6,917.2223214285714,257.12857142857143,1961,917.2223214285714,257.12857142857143,2061.3,917.2223214285714,257.12857142857143,2162,917.2223214285714,257.12857142857143,2267.5,917.2223214285714,257.12857142857143,2371.1,917.2223214285714,257.12857142857143,2476.4,917.2223214285714,257.12857142857143,2576.5,917.2223214285714,257.12857142857143,2681.9,917.2223214285714,257.12857142857143,2786.4,917.2223214285714,257.12857142857143,2890.8,917.2223214285714,257.12857142857143,2991.8,917.2223214285714,257.12857142857143,3095.6,917.2223214285714,257.12857142857143,3196.2,917.2223214285714,257.12857142857143,3301.2,917.2223214285714,257.12857142857143,3407.2,917.2223214285714,257.12857142857143,3511.8,917.2223214285714,257.12857142857143,3616.9,917.2223214285714,257.12857142857143,3721.2,917.2223214285714,257.12857142857143,3822.3,917.2223214285714,257.12857142857143,3926.5,917.2223214285714,257.12857142857143,4027.4,917.2223214285714,257.12857142857143,4130.8,917.2223214285714,257.12857142857143,4232.6,917.2223214285714,257.12857142857143,4332.9,917.2223214285714,257.12857142857143,4436.6,917.2223214285714,257.12857142857143,4540.7,917.2223214285714,257.12857142857143,4641.1,917.2223214285714,257.12857142857143,4746,917.2223214285714,257.12857142857143,4846.1,917.2223214285714,257.12857142857143,4951.3]","[1479.5,1479.5,1000,0,479.5,""smooth"",""right"",""right"",""good_move"",4549.4,3069.5,2708.7,1479.9,360.8,""smooth"",""right"",""right"",""good_move"",7909.5,3360,3000.8,4549.5,359.2,""smooth"",""down"",""down"",""good_move"",10834.3,2924.3,2527.2,7910,397.1,""smooth"",""down"",""down"",""good_move"",13203.9,2369.4,1905.7,10834.5,463.7,""smooth"",""down"",""down"",""good_move"",16013.6,2809.5,2389.3,13204.1,420.2,""smooth"",""right"",""right"",""good_move""]"
"1958","","<div style=""width:500px;"">
  <p>What determined the result of this run?</p>
  </div>","92","html-slider-response","19","434493","0.0-7.0-1.1","151","1","2025-08-06 09:01:59","36c45c0696341be0efffe67d72a12abb","49.206.11.110","Mozilla/5.0 (Windows NT 10.0; Win64; x64) AppleWebKit/537.36 (KHTML, like Gecko) Chrome/138.0.0.0 Safari/537.36","WebKit","Chrome","138.0.0.0","Windows","10.0","https://app.prolific.com/","en-GB,en-US;q=0.9,en;q=0.8,ta;q=0.7","66c5f76d9a214b469f6476c8","6877649eabb845cf142cd221","6893184efb8352de797df5f4","1","66c5f76d9a214b469f6476c8","1","2025-08-06T09:11:11.193Z","","","","AttribQ","","","","","","","","","","","50","","","","","","","","","","","","","","","","","","","","","","","","","","",""
"1535","","<div style=""width:500px;"">
  <p>How much control did you have over the ball?</p>
  </div>","96","html-slider-response","20","436029","0.0-7.0-2.1","151","1","2025-08-06 09:01:59","36c45c0696341be0efffe67d72a12abb","49.206.11.110","Mozilla/5.0 (Windows NT 10.0; Win64; x64) AppleWebKit/537.36 (KHTML, like Gecko) Chrome/138.0.0.0 Safari/537.36","WebKit","Chrome","138.0.0.0","Windows","10.0","https://app.prolific.com/","en-GB,en-US;q=0.9,en;q=0.8,ta;q=0.7","66c5f76d9a214b469f6476c8","6877649eabb845cf142cd221","6893184efb8352de797df5f4","1","66c5f76d9a214b469f6476c8","1","2025-08-06T09:11:12.729Z","","","","ControlQ","","","","","","","","","","","50","","","","","","","","","","","","","","","","","","","","","","","","","","",""
"1845","","<div style=""width:500px;"">
  <p>How would you describe your current emotional state?</p>
  </div>","12","html-slider-response","21","437877","0.0-7.0-3.1","151","1","2025-08-06 09:01:59","36c45c0696341be0efffe67d72a12abb","49.206.11.110","Mozilla/5.0 (Windows NT 10.0; Win64; x64) AppleWebKit/537.36 (KHTML, like Gecko) Chrome/138.0.0.0 Safari/537.36","WebKit","Chrome","138.0.0.0","Windows","10.0","https://app.prolific.com/","en-GB,en-US;q=0.9,en;q=0.8,ta;q=0.7","66c5f76d9a214b469f6476c8","6877649eabb845cf142cd221","6893184efb8352de797df5f4","1","66c5f76d9a214b469f6476c8","1","2025-08-06T09:11:14.577Z","","","","StressQ","","","","","","","","","","","50","","","","","","","","","","","","","","","","","","","","","","","","","","",""
"2053","","<div style=""width:500px;"">
  <p>What best describes how you currently feel?</p>
  </div>","91","html-slider-response","22","439933","0.0-7.0-4.1","151","1","2025-08-06 09:01:59","36c45c0696341be0efffe67d72a12abb","49.206.11.110","Mozilla/5.0 (Windows NT 10.0; Win64; x64) AppleWebKit/537.36 (KHTML, like Gecko) Chrome/138.0.0.0 Safari/537.36","WebKit","Chrome","138.0.0.0","Windows","10.0","https://app.prolific.com/","en-GB,en-US;q=0.9,en;q=0.8,ta;q=0.7","66c5f76d9a214b469f6476c8","6877649eabb845cf142cd221","6893184efb8352de797df5f4","1","66c5f76d9a214b469f6476c8","1","2025-08-06T09:11:16.633Z","","","","MotivationQ","","","","","","","","","","","50","","","","","","","","","","","","","","","","","","","","","","","","","","",""
"","","","","ctl-task-cpt","23","475252","0.0-7.0-0.2","151","1","2025-08-06 09:01:59","36c45c0696341be0efffe67d72a12abb","49.206.11.110","Mozilla/5.0 (Windows NT 10.0; Win64; x64) AppleWebKit/537.36 (KHTML, like Gecko) Chrome/138.0.0.0 Safari/537.36","WebKit","Chrome","138.0.0.0","Windows","10.0","https://app.prolific.com/","en-GB,en-US;q=0.9,en;q=0.8,ta;q=0.7","66c5f76d9a214b469f6476c8","6877649eabb845cf142cd221","6893184efb8352de797df5f4","1","66c5f76d9a214b469f6476c8","1","2025-08-06T09:11:51.952Z","","","","","","","","","","","","","","","","win-only","1","g1:NE,g2:SW","0.8","3","0","449704.9","888.5","5890.5","32301.1","1","4","4","6","2","-4","-4","8","12","0.06060606060606061","1031.3","3000","-2690","[""down"",""left""]","{""num_key_presses"":8,""num_perfect"":6,""num_errors"":0,""num_randdir"":2,""num_randdir_good_moves"":0,""num_whilered"":0,""num_whileblue"":0,""num_blue"":0,""num_good_moves"":6}","[297.22232142857143,299.12857142857143,0.2,297.22232142857143,299.12857142857143,100.4,297.22232142857143,299.12857142857143,202.6,297.22232142857143,299.12857142857143,309.1,297.22232142857143,299.12857142857143,409.7,300.22232142857143,300.12857142857143,510,231.22232142857143,329.12857142857143,612.8,114.22232142857143,528.1285714285714,713.2,76.22232142857143,556.1285714285714,817,60.222321428571426,553.1285714285714,917.6,49.222321428571426,549.1285714285714,1017.7,49.222321428571426,549.1285714285714,1127.3,202.22232142857143,474.12857142857143,1232.8,795.2223214285714,272.12857142857143,1343,841.2223214285714,253.12857142857143,1446.9,841.2223214285714,253.12857142857143,1547.2,841.2223214285714,253.12857142857143,1648.6,841.2223214285714,253.12857142857143,1752.4,841.2223214285714,253.12857142857143,1853.5,841.2223214285714,253.12857142857143,1959.5,841.2223214285714,253.12857142857143,2059.5,841.2223214285714,253.12857142857143,2159.6,841.2223214285714,253.12857142857143,2259.8,841.2223214285714,253.12857142857143,2363.8,841.2223214285714,253.12857142857143,2467.5,841.2223214285714,253.12857142857143,2576.3,841.2223214285714,253.12857142857143,2676.5,841.2223214285714,253.12857142857143,2777,841.2223214285714,253.12857142857143,2877.3,841.2223214285714,253.12857142857143,2978.2,841.2223214285714,253.12857142857143,3082.2,841.2223214285714,253.12857142857143,3183.5,841.2223214285714,253.12857142857143,3287.4,841.2223214285714,253.12857142857143,3393.1,841.2223214285714,253.12857142857143,3493.8,841.2223214285714,253.12857142857143,3597.7,841.2223214285714,253.12857142857143,3700.4,841.2223214285714,253.12857142857143,3803.5,841.2223214285714,253.12857142857143,3910.4,841.2223214285714,253.12857142857143,4012.6,841.2223214285714,253.12857142857143,4113.8,841.2223214285714,253.12857142857143,4217.8,841.2223214285714,253.12857142857143,4317.8,841.2223214285714,253.12857142857143,4426.7,841.2223214285714,253.12857142857143,4527,841.2223214285714,253.12857142857143,4627.2,841.2223214285714,253.12857142857143,4727.3,841.2223214285714,253.12857142857143,4833.8,841.2223214285714,253.12857142857143,4942.8]","[1473.9,1473.9,1000,0,473.9,""smooth"",""down"",""down"",""good_move"",4680.6,3206.5,2749.4,1474.1,457.1,""smooth"",""down"",""down"",""good_move"",7440.7,2760,2343.7,4680.7,416.3,""smooth"",""left"",""left"",""good_move"",10307.7,2866.8,2469.5,7440.9,397.3,""oops"",""left"",""right"",""bad_move"",12573.6,2265.7,1858.6,10307.9,407.1,""smooth"",""down"",""down"",""good_move"",16828.9,4255.2,3774.7,12573.7,480.5,""smooth"",""left"",""left"",""good_move"",20435.5,3606.5,3224.3,16829,382.2,""smooth"",""left"",""left"",""good_move"",23757.9,3322.3,2980.1,20435.6,342.2,""oops"",""left"",""up"",""bad_move""]"
"2032","","<div style=""width:500px;"">
  <p>What determined the result of this run?</p>
  </div>","88","html-slider-response","24","477285","0.0-7.0-1.2","151","1","2025-08-06 09:01:59","36c45c0696341be0efffe67d72a12abb","49.206.11.110","Mozilla/5.0 (Windows NT 10.0; Win64; x64) AppleWebKit/537.36 (KHTML, like Gecko) Chrome/138.0.0.0 Safari/537.36","WebKit","Chrome","138.0.0.0","Windows","10.0","https://app.prolific.com/","en-GB,en-US;q=0.9,en;q=0.8,ta;q=0.7","66c5f76d9a214b469f6476c8","6877649eabb845cf142cd221","6893184efb8352de797df5f4","1","66c5f76d9a214b469f6476c8","1","2025-08-06T09:11:53.985Z","","","","AttribQ","","","","","","","","","","","50","","","","","","","","","","","","","","","","","","","","","","","","","","",""
"1647","","<div style=""width:500px;"">
  <p>How much control did you have over the ball?</p>
  </div>","87","html-slider-response","25","478933","0.0-7.0-2.2","151","1","2025-08-06 09:01:59","36c45c0696341be0efffe67d72a12abb","49.206.11.110","Mozilla/5.0 (Windows NT 10.0; Win64; x64) AppleWebKit/537.36 (KHTML, like Gecko) Chrome/138.0.0.0 Safari/537.36","WebKit","Chrome","138.0.0.0","Windows","10.0","https://app.prolific.com/","en-GB,en-US;q=0.9,en;q=0.8,ta;q=0.7","66c5f76d9a214b469f6476c8","6877649eabb845cf142cd221","6893184efb8352de797df5f4","1","66c5f76d9a214b469f6476c8","1","2025-08-06T09:11:55.633Z","","","","ControlQ","","","","","","","","","","","50","","","","","","","","","","","","","","","","","","","","","","","","","","",""
"2918","","<div style=""width:500px;"">
  <p>How would you describe your current emotional state?</p>
  </div>","15","html-slider-response","26","481853","0.0-7.0-3.2","151","1","2025-08-06 09:01:59","36c45c0696341be0efffe67d72a12abb","49.206.11.110","Mozilla/5.0 (Windows NT 10.0; Win64; x64) AppleWebKit/537.36 (KHTML, like Gecko) Chrome/138.0.0.0 Safari/537.36","WebKit","Chrome","138.0.0.0","Windows","10.0","https://app.prolific.com/","en-GB,en-US;q=0.9,en;q=0.8,ta;q=0.7","66c5f76d9a214b469f6476c8","6877649eabb845cf142cd221","6893184efb8352de797df5f4","1","66c5f76d9a214b469f6476c8","1","2025-08-06T09:11:58.553Z","","","","StressQ","","","","","","","","","","","50","","","","","","","","","","","","","","","","","","","","","","","","","","",""
"3263","","<div style=""width:500px;"">
  <p>What best describes how you currently feel?</p>
  </div>","91","html-slider-response","27","485118","0.0-7.0-4.2","151","1","2025-08-06 09:01:59","36c45c0696341be0efffe67d72a12abb","49.206.11.110","Mozilla/5.0 (Windows NT 10.0; Win64; x64) AppleWebKit/537.36 (KHTML, like Gecko) Chrome/138.0.0.0 Safari/537.36","WebKit","Chrome","138.0.0.0","Windows","10.0","https://app.prolific.com/","en-GB,en-US;q=0.9,en;q=0.8,ta;q=0.7","66c5f76d9a214b469f6476c8","6877649eabb845cf142cd221","6893184efb8352de797df5f4","1","66c5f76d9a214b469f6476c8","1","2025-08-06T09:12:01.818Z","","","","MotivationQ","","","","","","","","","","","50","","","","","","","","","","","","","","","","","","","","","","","","","","",""
"","","","","ctl-task-cpt","28","518653","0.0-7.0-0.3","151","1","2025-08-06 09:01:59","36c45c0696341be0efffe67d72a12abb","49.206.11.110","Mozilla/5.0 (Windows NT 10.0; Win64; x64) AppleWebKit/537.36 (KHTML, like Gecko) Chrome/138.0.0.0 Safari/537.36","WebKit","Chrome","138.0.0.0","Windows","10.0","https://app.prolific.com/","en-GB,en-US;q=0.9,en;q=0.8,ta;q=0.7","66c5f76d9a214b469f6476c8","6877649eabb845cf142cd221","6893184efb8352de797df5f4","1","66c5f76d9a214b469f6476c8","1","2025-08-06T09:12:35.353Z","","","","","","","","","","","","","","","","win-only","2","g1:SE,g2:NW","0.7","4","0","494892.7","996.7","6001.3","30514.1","1","4","8","6","2","-8","-9","0","8","0","1055.1","3000","-2675","[""left"",""up""]","{""num_key_presses"":8,""num_perfect"":4,""num_errors"":1,""num_randdir"":3,""num_randdir_good_moves"":2,""num_whilered"":0,""num_whileblue"":1,""num_blue"":1,""num_good_moves"":6}","[298.22232142857143,304.12857142857143,0.1,298.22232142857143,304.12857142857143,105.3,298.22232142857143,304.12857142857143,205.4,298.22232142857143,304.12857142857143,309.1,298.22232142857143,304.12857142857143,409.4,248.22232142857143,289.12857142857143,514.1,167.22232142857143,271.12857142857143,615,81.22232142857143,166.12857142857143,719.1,68.22232142857143,95.12857142857143,819.3,58.222321428571426,77.12857142857143,919.7,58.222321428571426,76.12857142857143,1024.7,58.222321428571426,76.12857142857143,1130.7,71.22232142857143,75.12857142857143,1231.5,512.2223214285714,1.1285714285714263,1334.6,855.2223214285714,-17.871428571428574,1439.2,956.2223214285714,-46.871428571428574,1539.6,956.2223214285714,-46.871428571428574,1644.4,956.2223214285714,-46.871428571428574,1744.6,956.2223214285714,-46.871428571428574,1849.7,956.2223214285714,-46.871428571428574,1950.3,956.2223214285714,-46.871428571428574,2055,956.2223214285714,-46.871428571428574,2155.2,956.2223214285714,-46.871428571428574,2259.4,956.2223214285714,-46.871428571428574,2359.6,956.2223214285714,-46.871428571428574,2464.1,956.2223214285714,-46.871428571428574,2564.8,956.2223214285714,-46.871428571428574,2668.8,956.2223214285714,-46.871428571428574,2770.2,956.2223214285714,-46.871428571428574,2874.3,956.2223214285714,-46.871428571428574,2978.9,956.2223214285714,-46.871428571428574,3079.5,956.2223214285714,-46.871428571428574,3180.1,956.2223214285714,-46.871428571428574,3280.5,956.2223214285714,-46.871428571428574,3384.2,956.2223214285714,-46.871428571428574,3489.5,956.2223214285714,-46.871428571428574,3594.5,956.2223214285714,-46.871428571428574,3699.4,956.2223214285714,-46.871428571428574,3804.4,956.2223214285714,-46.871428571428574,3904.4,956.2223214285714,-46.871428571428574,4009.8,956.2223214285714,-46.871428571428574,4114.5,956.2223214285714,-46.871428571428574,4215.4,956.2223214285714,-46.871428571428574,4318.9,956.2223214285714,-46.871428571428574,4424.3,956.2223214285714,-46.871428571428574,4530.5,956.2223214285714,-46.871428571428574,4635.3,956.2223214285714,-46.871428571428574,4739,956.2223214285714,-46.871428571428574,4839.8,956.2223214285714,-46.871428571428574,4944.2]","[1447.8,1447.8,1000,0,447.8,""oops"",""left"",""down"",""bad_move"",4118.9,2670.8,2223.1,1448.1,447.7,""smooth"",""left"",""left"",""good_move"",6804,2684.8,2301.6,4119.2,383.2,""smooth"",""left"",""left"",""good_move"",9967.8,3163.7,2726.9,6804.1,436.8,""oops"",""left"",""up"",""good_move"",12648,2679.8,2315.8,9968.2,364.1,""smooth"",""left"",""left"",""good_move"",15336.8,2688.6,2304.7,12648.2,383.9,""oops"",""up"",""up"",""good_move"",17644.2,2307.2,1806.8,15337,500.4,""smooth"",""up"",""up"",""good_move"",20784.8,3140.5,2840.4,17644.3,300.1,""while_blue"",""up"",""down"",""bad_move""]"
"2334","","<div style=""width:500px;"">
  <p>What determined the result of this run?</p>
  </div>","15","html-slider-response","29","520988","0.0-7.0-1.3","151","1","2025-08-06 09:01:59","36c45c0696341be0efffe67d72a12abb","49.206.11.110","Mozilla/5.0 (Windows NT 10.0; Win64; x64) AppleWebKit/537.36 (KHTML, like Gecko) Chrome/138.0.0.0 Safari/537.36","WebKit","Chrome","138.0.0.0","Windows","10.0","https://app.prolific.com/","en-GB,en-US;q=0.9,en;q=0.8,ta;q=0.7","66c5f76d9a214b469f6476c8","6877649eabb845cf142cd221","6893184efb8352de797df5f4","1","66c5f76d9a214b469f6476c8","1","2025-08-06T09:12:37.689Z","","","","AttribQ","","","","","","","","","","","50","","","","","","","","","","","","","","","","","","","","","","","","","","",""
"1583","","<div style=""width:500px;"">
  <p>How much control did you have over the ball?</p>
  </div>","16","html-slider-response","30","522573","0.0-7.0-2.3","151","1","2025-08-06 09:01:59","36c45c0696341be0efffe67d72a12abb","49.206.11.110","Mozilla/5.0 (Windows NT 10.0; Win64; x64) AppleWebKit/537.36 (KHTML, like Gecko) Chrome/138.0.0.0 Safari/537.36","WebKit","Chrome","138.0.0.0","Windows","10.0","https://app.prolific.com/","en-GB,en-US;q=0.9,en;q=0.8,ta;q=0.7","66c5f76d9a214b469f6476c8","6877649eabb845cf142cd221","6893184efb8352de797df5f4","1","66c5f76d9a214b469f6476c8","1","2025-08-06T09:12:39.273Z","","","","ControlQ","","","","","","","","","","","50","","","","","","","","","","","","","","","","","","","","","","","","","","",""
"1759","","<div style=""width:500px;"">
  <p>How would you describe your current emotional state?</p>
  </div>","86","html-slider-response","31","524333","0.0-7.0-3.3","151","1","2025-08-06 09:01:59","36c45c0696341be0efffe67d72a12abb","49.206.11.110","Mozilla/5.0 (Windows NT 10.0; Win64; x64) AppleWebKit/537.36 (KHTML, like Gecko) Chrome/138.0.0.0 Safari/537.36","WebKit","Chrome","138.0.0.0","Windows","10.0","https://app.prolific.com/","en-GB,en-US;q=0.9,en;q=0.8,ta;q=0.7","66c5f76d9a214b469f6476c8","6877649eabb845cf142cd221","6893184efb8352de797df5f4","1","66c5f76d9a214b469f6476c8","1","2025-08-06T09:12:41.033Z","","","","StressQ","","","","","","","","","","","50","","","","","","","","","","","","","","","","","","","","","","","","","","",""
"1886","","<div style=""width:500px;"">
  <p>What best describes how you currently feel?</p>
  </div>","15","html-slider-response","32","526221","0.0-7.0-4.3","151","1","2025-08-06 09:01:59","36c45c0696341be0efffe67d72a12abb","49.206.11.110","Mozilla/5.0 (Windows NT 10.0; Win64; x64) AppleWebKit/537.36 (KHTML, like Gecko) Chrome/138.0.0.0 Safari/537.36","WebKit","Chrome","138.0.0.0","Windows","10.0","https://app.prolific.com/","en-GB,en-US;q=0.9,en;q=0.8,ta;q=0.7","66c5f76d9a214b469f6476c8","6877649eabb845cf142cd221","6893184efb8352de797df5f4","1","66c5f76d9a214b469f6476c8","1","2025-08-06T09:12:42.921Z","","","","MotivationQ","","","","","","","","","","","50","","","","","","","","","","","","","","","","","","","","","","","","","","",""
"","","","","ctl-task-cpt","33","559420","0.0-7.0-0.4","151","1","2025-08-06 09:01:59","36c45c0696341be0efffe67d72a12abb","49.206.11.110","Mozilla/5.0 (Windows NT 10.0; Win64; x64) AppleWebKit/537.36 (KHTML, like Gecko) Chrome/138.0.0.0 Safari/537.36","WebKit","Chrome","138.0.0.0","Windows","10.0","https://app.prolific.com/","en-GB,en-US;q=0.9,en;q=0.8,ta;q=0.7","66c5f76d9a214b469f6476c8","6877649eabb845cf142cd221","6893184efb8352de797df5f4","1","66c5f76d9a214b469f6476c8","1","2025-08-06T09:13:16.120Z","","","","","","","","","","","","","","","","win-only","3","g1:SW,g2:NE","0.6","5","0","535993.7","903","5905.5","30170.3","1","4","8","6","2","8","8","8","0","0.06060606060606061","744.1","3000","170","[""up"",""right""]","{""num_key_presses"":8,""num_perfect"":6,""num_errors"":0,""num_randdir"":2,""num_randdir_good_moves"":1,""num_whilered"":0,""num_whileblue"":0,""num_blue"":1,""num_good_moves"":7}","[290.22232142857143,301.12857142857143,0.1,290.22232142857143,301.12857142857143,106.4,291.22232142857143,300.12857142857143,211.1,291.22232142857143,277.12857142857143,311.4,331.22232142857143,144.12857142857143,411.5,506.22232142857143,68.12857142857143,512.6,549.2223214285714,60.128571428571426,617.6,549.2223214285714,60.128571428571426,718.4,549.2223214285714,60.128571428571426,818.5,575.2223214285714,60.128571428571426,927.7,905.2223214285714,25.128571428571426,1028,978.2223214285714,-33.871428571428574,1132.5,978.2223214285714,-33.871428571428574,1233.9,978.2223214285714,-33.871428571428574,1338,978.2223214285714,-33.871428571428574,1444.5,978.2223214285714,-33.871428571428574,1545.4,978.2223214285714,-33.871428571428574,1648.3,978.2223214285714,-33.871428571428574,1752.4,978.2223214285714,-33.871428571428574,1861.4,978.2223214285714,-33.871428571428574,1962.7,978.2223214285714,-33.871428571428574,2063.7,978.2223214285714,-33.871428571428574,2167.7,978.2223214285714,-33.871428571428574,2267.9,978.2223214285714,-33.871428571428574,2377.1,978.2223214285714,-33.871428571428574,2478,978.2223214285714,-33.871428571428574,2582.5,978.2223214285714,-33.871428571428574,2683.1,978.2223214285714,-33.871428571428574,2788,978.2223214285714,-33.871428571428574,2895,978.2223214285714,-33.871428571428574,2997.4,978.2223214285714,-33.871428571428574,3097.9,978.2223214285714,-33.871428571428574,3198,978.2223214285714,-33.871428571428574,3298.8,978.2223214285714,-33.871428571428574,3402.5,978.2223214285714,-33.871428571428574,3512.1,978.2223214285714,-33.871428571428574,3617.3,978.2223214285714,-33.871428571428574,3718.1,978.2223214285714,-33.871428571428574,3822.7,978.2223214285714,-33.871428571428574,3922.8,978.2223214285714,-33.871428571428574,4028.3,978.2223214285714,-33.871428571428574,4132.7,978.2223214285714,-33.871428571428574,4233.4,978.2223214285714,-33.871428571428574,4333.5,978.2223214285714,-33.871428571428574,4437.3,978.2223214285714,-33.871428571428574,4544,978.2223214285714,-33.871428571428574,4645,978.2223214285714,-33.871428571428574,4747.9,978.2223214285714,-33.871428571428574,4849.1,978.2223214285714,-33.871428571428574,4952.6]","[1419.4,1419.4,1000,0,419.4,""oops"",""right"",""up"",""good_move"",4796.2,3376.2,2971.5,1420,404.7,""smooth"",""right"",""right"",""good_move"",7991,3194.6,2829.3,4796.4,365.3,""smooth"",""right"",""right"",""good_move"",10379.9,2388.7,2011.4,7991.2,377.3,""oops"",""right"",""down"",""bad_move"",16473.8,6093.5,2378.3,13686.2,409.3,""smooth"",""right"",""right"",""good_move"",18990.6,2516.6,2061.4,16474,455.2,""smooth"",""up"",""up"",""good_move"",21974.7,2984,2584.7,18990.7,399.3,""smooth"",""up"",""up"",""good_move"",24157.9,2182.9,1849.8,21975,333.1,""smooth"",""up"",""up"",""good_move""]"
"1759","","<div style=""width:500px;"">
  <p>What determined the result of this run?</p>
  </div>","83","html-slider-response","34","561180","0.0-7.0-1.4","151","1","2025-08-06 09:01:59","36c45c0696341be0efffe67d72a12abb","49.206.11.110","Mozilla/5.0 (Windows NT 10.0; Win64; x64) AppleWebKit/537.36 (KHTML, like Gecko) Chrome/138.0.0.0 Safari/537.36","WebKit","Chrome","138.0.0.0","Windows","10.0","https://app.prolific.com/","en-GB,en-US;q=0.9,en;q=0.8,ta;q=0.7","66c5f76d9a214b469f6476c8","6877649eabb845cf142cd221","6893184efb8352de797df5f4","1","66c5f76d9a214b469f6476c8","1","2025-08-06T09:13:17.881Z","","","","AttribQ","","","","","","","","","","","50","","","","","","","","","","","","","","","","","","","","","","","","","","",""
"1183","","<div style=""width:500px;"">
  <p>How much control did you have over the ball?</p>
  </div>","80","html-slider-response","35","562365","0.0-7.0-2.4","151","1","2025-08-06 09:01:59","36c45c0696341be0efffe67d72a12abb","49.206.11.110","Mozilla/5.0 (Windows NT 10.0; Win64; x64) AppleWebKit/537.36 (KHTML, like Gecko) Chrome/138.0.0.0 Safari/537.36","WebKit","Chrome","138.0.0.0","Windows","10.0","https://app.prolific.com/","en-GB,en-US;q=0.9,en;q=0.8,ta;q=0.7","66c5f76d9a214b469f6476c8","6877649eabb845cf142cd221","6893184efb8352de797df5f4","1","66c5f76d9a214b469f6476c8","1","2025-08-06T09:13:19.065Z","","","","ControlQ","","","","","","","","","","","50","","","","","","","","","","","","","","","","","","","","","","","","","","",""
"1711","","<div style=""width:500px;"">
  <p>How would you describe your current emotional state?</p>
  </div>","28","html-slider-response","36","564078","0.0-7.0-3.4","151","1","2025-08-06 09:01:59","36c45c0696341be0efffe67d72a12abb","49.206.11.110","Mozilla/5.0 (Windows NT 10.0; Win64; x64) AppleWebKit/537.36 (KHTML, like Gecko) Chrome/138.0.0.0 Safari/537.36","WebKit","Chrome","138.0.0.0","Windows","10.0","https://app.prolific.com/","en-GB,en-US;q=0.9,en;q=0.8,ta;q=0.7","66c5f76d9a214b469f6476c8","6877649eabb845cf142cd221","6893184efb8352de797df5f4","1","66c5f76d9a214b469f6476c8","1","2025-08-06T09:13:20.778Z","","","","StressQ","","","","","","","","","","","50","","","","","","","","","","","","","","","","","","","","","","","","","","",""
"3405","","<div style=""width:500px;"">
  <p>What best describes how you currently feel?</p>
  </div>","78","html-slider-response","37","567485","0.0-7.0-4.4","151","1","2025-08-06 09:01:59","36c45c0696341be0efffe67d72a12abb","49.206.11.110","Mozilla/5.0 (Windows NT 10.0; Win64; x64) AppleWebKit/537.36 (KHTML, like Gecko) Chrome/138.0.0.0 Safari/537.36","WebKit","Chrome","138.0.0.0","Windows","10.0","https://app.prolific.com/","en-GB,en-US;q=0.9,en;q=0.8,ta;q=0.7","66c5f76d9a214b469f6476c8","6877649eabb845cf142cd221","6893184efb8352de797df5f4","1","66c5f76d9a214b469f6476c8","1","2025-08-06T09:13:24.185Z","","","","MotivationQ","","","","","","","","","","","50","","","","","","","","","","","","","","","","","","","","","","","","","","",""
"","","","","ctl-task-cpt","38","607356","0.0-7.0-0.5","151","1","2025-08-06 09:01:59","36c45c0696341be0efffe67d72a12abb","49.206.11.110","Mozilla/5.0 (Windows NT 10.0; Win64; x64) AppleWebKit/537.36 (KHTML, like Gecko) Chrome/138.0.0.0 Safari/537.36","WebKit","Chrome","138.0.0.0","Windows","10.0","https://app.prolific.com/","en-GB,en-US;q=0.9,en;q=0.8,ta;q=0.7","66c5f76d9a214b469f6476c8","6877649eabb845cf142cd221","6893184efb8352de797df5f4","1","66c5f76d9a214b469f6476c8","1","2025-08-06T09:14:04.056Z","","","","","","","","","","","","","","","","win-only","1","g1:NE,g2:SW","0.5","6","0","577257.4","871.4","5876.9","36852.9","1","4","4","6","2","-4","-4","4","8","0.030303030303030304","1012.9","3000","-2575","[""down"",""left""]","{""num_key_presses"":8,""num_perfect"":4,""num_errors"":0,""num_randdir"":4,""num_randdir_good_moves"":2,""num_whilered"":0,""num_whileblue"":0,""num_blue"":2,""num_good_moves"":6}","[298.22232142857143,295.12857142857143,0.2,298.22232142857143,295.12857142857143,103.7,298.22232142857143,295.12857142857143,205.1,298.22232142857143,295.12857142857143,313.1,290.22232142857143,294.12857142857143,414.2,289.22232142857143,294.12857142857143,519.7,177.22232142857143,396.12857142857143,619.8,79.22232142857143,533.1285714285714,724.9,72.22232142857143,544.1285714285714,830.8,62.222321428571426,540.1285714285714,934.3,61.222321428571426,539.1285714285714,1035.3,122.22232142857143,504.12857142857143,1148.1,694.2223214285714,223.12857142857143,1249.6,978.2223214285714,20.128571428571426,1350.5,978.2223214285714,20.128571428571426,1455.2,978.2223214285714,20.128571428571426,1565.8,978.2223214285714,20.128571428571426,1669.8,978.2223214285714,20.128571428571426,1769.9,978.2223214285714,20.128571428571426,1875.6,978.2223214285714,20.128571428571426,1979.3,978.2223214285714,20.128571428571426,2080.5,978.2223214285714,20.128571428571426,2181,978.2223214285714,20.128571428571426,2283.9,978.2223214285714,20.128571428571426,2384.8,978.2223214285714,20.128571428571426,2489.7,978.2223214285714,20.128571428571426,2595.6,978.2223214285714,20.128571428571426,2696.3,978.2223214285714,20.128571428571426,2797.7,978.2223214285714,20.128571428571426,2899.5,978.2223214285714,20.128571428571426,2999.8,978.2223214285714,20.128571428571426,3099.9,978.2223214285714,20.128571428571426,3204.6,978.2223214285714,20.128571428571426,3305.5,978.2223214285714,20.128571428571426,3413.1,978.2223214285714,20.128571428571426,3513.2,978.2223214285714,20.128571428571426,3614,978.2223214285714,20.128571428571426,3715,978.2223214285714,20.128571428571426,3815.4,978.2223214285714,20.128571428571426,3915.4,978.2223214285714,20.128571428571426,4019.3,978.2223214285714,20.128571428571426,4120.6,978.2223214285714,20.128571428571426,4225.5,978.2223214285714,20.128571428571426,4330,978.2223214285714,20.128571428571426,4430.7,978.2223214285714,20.128571428571426,4535.2,978.2223214285714,20.128571428571426,4639.2,978.2223214285714,20.128571428571426,4747,978.2223214285714,20.128571428571426,4847.3,978.2223214285714,20.128571428571426,4948.7]","[5440.1,5440.1,2943.1,2009,488,""smooth"",""down"",""down"",""good_move"",7942,2501.4,2116.3,5440.6,385.1,""oops"",""down"",""left"",""good_move"",10662.3,2719.9,2314.6,7942.4,405.3,""oops"",""down"",""right"",""bad_move"",17207.2,6544.6,2658.8,14029.8,518.6,""oops"",""down"",""down"",""good_move"",19825,2617.7,2108.4,17207.3,509.3,""oops"",""left"",""up"",""bad_move"",22315.6,2490.4,2129.7,19825.2,360.7,""smooth"",""left"",""left"",""good_move"",25346.7,3030.9,2668.6,22315.8,362.3,""smooth"",""left"",""left"",""good_move"",28111.2,2764.4,2422.6,25346.8,341.8,""smooth"",""down"",""down"",""good_move""]"
"2904","","<div style=""width:500px;"">
  <p>What determined the result of this run?</p>
  </div>","14","html-slider-response","39","610261","0.0-7.0-1.5","151","1","2025-08-06 09:01:59","36c45c0696341be0efffe67d72a12abb","49.206.11.110","Mozilla/5.0 (Windows NT 10.0; Win64; x64) AppleWebKit/537.36 (KHTML, like Gecko) Chrome/138.0.0.0 Safari/537.36","WebKit","Chrome","138.0.0.0","Windows","10.0","https://app.prolific.com/","en-GB,en-US;q=0.9,en;q=0.8,ta;q=0.7","66c5f76d9a214b469f6476c8","6877649eabb845cf142cd221","6893184efb8352de797df5f4","1","66c5f76d9a214b469f6476c8","1","2025-08-06T09:14:06.961Z","","","","AttribQ","","","","","","","","","","","50","","","","","","","","","","","","","","","","","","","","","","","","","","",""
"1622","","<div style=""width:500px;"">
  <p>How much control did you have over the ball?</p>
  </div>","15","html-slider-response","40","611885","0.0-7.0-2.5","151","1","2025-08-06 09:01:59","36c45c0696341be0efffe67d72a12abb","49.206.11.110","Mozilla/5.0 (Windows NT 10.0; Win64; x64) AppleWebKit/537.36 (KHTML, like Gecko) Chrome/138.0.0.0 Safari/537.36","WebKit","Chrome","138.0.0.0","Windows","10.0","https://app.prolific.com/","en-GB,en-US;q=0.9,en;q=0.8,ta;q=0.7","66c5f76d9a214b469f6476c8","6877649eabb845cf142cd221","6893184efb8352de797df5f4","1","66c5f76d9a214b469f6476c8","1","2025-08-06T09:14:08.585Z","","","","ControlQ","","","","","","","","","","","50","","","","","","","","","","","","","","","","","","","","","","","","","","",""
"2358","","<div style=""width:500px;"">
  <p>How would you describe your current emotional state?</p>
  </div>","93","html-slider-response","41","614245","0.0-7.0-3.5","151","1","2025-08-06 09:01:59","36c45c0696341be0efffe67d72a12abb","49.206.11.110","Mozilla/5.0 (Windows NT 10.0; Win64; x64) AppleWebKit/537.36 (KHTML, like Gecko) Chrome/138.0.0.0 Safari/537.36","WebKit","Chrome","138.0.0.0","Windows","10.0","https://app.prolific.com/","en-GB,en-US;q=0.9,en;q=0.8,ta;q=0.7","66c5f76d9a214b469f6476c8","6877649eabb845cf142cd221","6893184efb8352de797df5f4","1","66c5f76d9a214b469f6476c8","1","2025-08-06T09:14:10.945Z","","","","StressQ","","","","","","","","","","","50","","","","","","","","","","","","","","","","","","","","","","","","","","",""
"1487","","<div style=""width:500px;"">
  <p>What best describes how you currently feel?</p>
  </div>","19","html-slider-response","42","615733","0.0-7.0-4.5","151","1","2025-08-06 09:01:59","36c45c0696341be0efffe67d72a12abb","49.206.11.110","Mozilla/5.0 (Windows NT 10.0; Win64; x64) AppleWebKit/537.36 (KHTML, like Gecko) Chrome/138.0.0.0 Safari/537.36","WebKit","Chrome","138.0.0.0","Windows","10.0","https://app.prolific.com/","en-GB,en-US;q=0.9,en;q=0.8,ta;q=0.7","66c5f76d9a214b469f6476c8","6877649eabb845cf142cd221","6893184efb8352de797df5f4","1","66c5f76d9a214b469f6476c8","1","2025-08-06T09:14:12.433Z","","","","MotivationQ","","","","","","","","","","","50","","","","","","","","","","","","","","","","","","","","","","","","","","",""
"","","","","ctl-task-cpt","43","651691","0.0-7.0-0.6","151","1","2025-08-06 09:01:59","36c45c0696341be0efffe67d72a12abb","49.206.11.110","Mozilla/5.0 (Windows NT 10.0; Win64; x64) AppleWebKit/537.36 (KHTML, like Gecko) Chrome/138.0.0.0 Safari/537.36","WebKit","Chrome","138.0.0.0","Windows","10.0","https://app.prolific.com/","en-GB,en-US;q=0.9,en;q=0.8,ta;q=0.7","66c5f76d9a214b469f6476c8","6877649eabb845cf142cd221","6893184efb8352de797df5f4","1","66c5f76d9a214b469f6476c8","1","2025-08-06T09:14:48.391Z","","","","","","","","","","","","","","","","win-only","0","g1:NW,g2:SE","0.4","7","0","625506.2","684.1","5689.5","32945.4","1","4","4","6","2","-4","-4","0","4","0","1075.5","3000","-2445","[""down"",""right""]","{""num_key_presses"":9,""num_perfect"":3,""num_errors"":0,""num_randdir"":6,""num_randdir_good_moves"":4,""num_whilered"":0,""num_whileblue"":0,""num_blue"":0,""num_good_moves"":7}","[292.22232142857143,299.12857142857143,0.3,292.22232142857143,299.12857142857143,108.3,292.22232142857143,299.12857142857143,212.1,281.22232142857143,297.12857142857143,320.1,279.22232142857143,307.12857142857143,422.2,178.22232142857143,240.12857142857143,526.4,244.22232142857143,225.12857142857143,628,601.2223214285714,458.12857142857143,734.9,579.2223214285714,519.1285714285714,838.6,573.2223214285714,538.1285714285714,941.6,549.2223214285714,550.1285714285714,1041.7,551.2223214285714,550.1285714285714,1148,750.2223214285714,379.12857142857143,1256.2,839.2223214285714,295.12857142857143,1356.3,839.2223214285714,295.12857142857143,1462.1,839.2223214285714,295.12857142857143,1570.9,839.2223214285714,295.12857142857143,1672,839.2223214285714,295.12857142857143,1772.1,839.2223214285714,295.12857142857143,1876.3,839.2223214285714,295.12857142857143,1977.6,839.2223214285714,295.12857142857143,2085.1,839.2223214285714,295.12857142857143,2186.9,839.2223214285714,295.12857142857143,2287.3,839.2223214285714,295.12857142857143,2387.3,839.2223214285714,295.12857142857143,2492.8,839.2223214285714,295.12857142857143,2598.1,839.2223214285714,295.12857142857143,2705.3,839.2223214285714,295.12857142857143,2806.9,839.2223214285714,295.12857142857143,2907.1,839.2223214285714,295.12857142857143,3007.2,839.2223214285714,295.12857142857143,3111.8,839.2223214285714,295.12857142857143,3212,839.2223214285714,295.12857142857143,3312.7,839.2223214285714,295.12857142857143,3412.7,839.2223214285714,295.12857142857143,3517.5,839.2223214285714,295.12857142857143,3620.1,839.2223214285714,295.12857142857143,3720.3,839.2223214285714,295.12857142857143,3825.5,839.2223214285714,295.12857142857143,3926,839.2223214285714,295.12857142857143,4026.3,839.2223214285714,295.12857142857143,4126.4,839.2223214285714,295.12857142857143,4226.8,839.2223214285714,295.12857142857143,4327.3,839.2223214285714,295.12857142857143,4438.4,839.2223214285714,295.12857142857143,4541.7,839.2223214285714,295.12857142857143,4646.6,839.2223214285714,295.12857142857143,4754.3,839.2223214285714,295.12857142857143,4856.1,839.2223214285714,295.12857142857143,4957.1]","[1578.1,1578.1,1000,0,578.1,""oops"",""right"",""left"",""bad_move"",4580.5,3001.5,2605.5,1579,396,""smooth"",""down"",""down"",""good_move"",7447,2865.8,2468.8,4581.2,397,""smooth"",""down"",""down"",""good_move"",10349,2901.8,2521.5,7447.2,380.3,""oops"",""right"",""right"",""good_move"",13280.1,2930.8,2575,10349.3,355.8,""oops"",""right"",""down"",""good_move"",16611.5,3331.1,2988.5,13280.4,342.6,""oops"",""right"",""right"",""good_move"",18836.1,2224.2,1855.2,16611.9,369,""oops"",""right"",""left"",""bad_move"",21777.7,2941.4,2596,18836.3,345.4,""oops"",""right"",""right"",""good_move"",24436.9,2658.7,2294.4,21778.2,364.3,""smooth"",""right"",""right"",""good_move""]"
"2705","","<div style=""width:500px;"">
  <p>What determined the result of this run?</p>
  </div>","9","html-slider-response","44","654396","0.0-7.0-1.6","151","1","2025-08-06 09:01:59","36c45c0696341be0efffe67d72a12abb","49.206.11.110","Mozilla/5.0 (Windows NT 10.0; Win64; x64) AppleWebKit/537.36 (KHTML, like Gecko) Chrome/138.0.0.0 Safari/537.36","WebKit","Chrome","138.0.0.0","Windows","10.0","https://app.prolific.com/","en-GB,en-US;q=0.9,en;q=0.8,ta;q=0.7","66c5f76d9a214b469f6476c8","6877649eabb845cf142cd221","6893184efb8352de797df5f4","1","66c5f76d9a214b469f6476c8","1","2025-08-06T09:14:51.097Z","","","","AttribQ","","","","","","","","","","","50","","","","","","","","","","","","","","","","","","","","","","","","","","",""
"1846","","<div style=""width:500px;"">
  <p>How much control did you have over the ball?</p>
  </div>","14","html-slider-response","45","656245","0.0-7.0-2.6","151","1","2025-08-06 09:01:59","36c45c0696341be0efffe67d72a12abb","49.206.11.110","Mozilla/5.0 (Windows NT 10.0; Win64; x64) AppleWebKit/537.36 (KHTML, like Gecko) Chrome/138.0.0.0 Safari/537.36","WebKit","Chrome","138.0.0.0","Windows","10.0","https://app.prolific.com/","en-GB,en-US;q=0.9,en;q=0.8,ta;q=0.7","66c5f76d9a214b469f6476c8","6877649eabb845cf142cd221","6893184efb8352de797df5f4","1","66c5f76d9a214b469f6476c8","1","2025-08-06T09:14:52.945Z","","","","ControlQ","","","","","","","","","","","50","","","","","","","","","","","","","","","","","","","","","","","","","","",""
"2239","","<div style=""width:500px;"">
  <p>How would you describe your current emotional state?</p>
  </div>","90","html-slider-response","46","658485","0.0-7.0-3.6","151","1","2025-08-06 09:01:59","36c45c0696341be0efffe67d72a12abb","49.206.11.110","Mozilla/5.0 (Windows NT 10.0; Win64; x64) AppleWebKit/537.36 (KHTML, like Gecko) Chrome/138.0.0.0 Safari/537.36","WebKit","Chrome","138.0.0.0","Windows","10.0","https://app.prolific.com/","en-GB,en-US;q=0.9,en;q=0.8,ta;q=0.7","66c5f76d9a214b469f6476c8","6877649eabb845cf142cd221","6893184efb8352de797df5f4","1","66c5f76d9a214b469f6476c8","1","2025-08-06T09:14:55.185Z","","","","StressQ","","","","","","","","","","","50","","","","","","","","","","","","","","","","","","","","","","","","","","",""
"1885","","<div style=""width:500px;"">
  <p>What best describes how you currently feel?</p>
  </div>","15","html-slider-response","47","660372","0.0-7.0-4.6","151","1","2025-08-06 09:01:59","36c45c0696341be0efffe67d72a12abb","49.206.11.110","Mozilla/5.0 (Windows NT 10.0; Win64; x64) AppleWebKit/537.36 (KHTML, like Gecko) Chrome/138.0.0.0 Safari/537.36","WebKit","Chrome","138.0.0.0","Windows","10.0","https://app.prolific.com/","en-GB,en-US;q=0.9,en;q=0.8,ta;q=0.7","66c5f76d9a214b469f6476c8","6877649eabb845cf142cd221","6893184efb8352de797df5f4","1","66c5f76d9a214b469f6476c8","1","2025-08-06T09:14:57.073Z","","","","MotivationQ","","","","","","","","","","","50","","","","","","","","","","","","","","","","","","","","","","","","","","",""
"","","","","ctl-task-cpt","48","706343","0.0-7.0-0.7","151","1","2025-08-06 09:01:59","36c45c0696341be0efffe67d72a12abb","49.206.11.110","Mozilla/5.0 (Windows NT 10.0; Win64; x64) AppleWebKit/537.36 (KHTML, like Gecko) Chrome/138.0.0.0 Safari/537.36","WebKit","Chrome","138.0.0.0","Windows","10.0","https://app.prolific.com/","en-GB,en-US;q=0.9,en;q=0.8,ta;q=0.7","66c5f76d9a214b469f6476c8","6877649eabb845cf142cd221","6893184efb8352de797df5f4","1","66c5f76d9a214b469f6476c8","1","2025-08-06T09:15:43.043Z","","","","","","","","","","","","","","","","win-only","1","g1:NE,g2:SW","0.3","8","0","670146.5","831.2","5836.4","42957.2","1","4","8","6","2","-8","-10","0","0","0","999.5","3000","-2770","[""down"",""left""]","{""num_key_presses"":10,""num_perfect"":3,""num_errors"":2,""num_randdir"":5,""num_randdir_good_moves"":1,""num_whilered"":0,""num_whileblue"":0,""num_blue"":3,""num_good_moves"":4}","[301.22232142857143,303.12857142857143,0.1,301.22232142857143,303.12857142857143,102,301.22232142857143,303.12857142857143,205.1,300.22232142857143,302.12857142857143,305.1,299.22232142857143,302.12857142857143,409.1,177.22232142857143,396.12857142857143,509.4,-12.777678571428574,528.1285714285714,619.2,-11.777678571428574,534.1285714285714,719.9,-10.777678571428574,536.1285714285714,824.4,53.222321428571426,537.1285714285714,925.4,53.222321428571426,537.1285714285714,1035.4,53.222321428571426,537.1285714285714,1140.3,55.222321428571426,537.1285714285714,1247.6,331.22232142857143,411.12857142857143,1350,750.2223214285714,263.12857142857143,1453.4,753.2223214285714,262.12857142857143,1555,753.2223214285714,262.12857142857143,1667.9,753.2223214285714,262.12857142857143,1769.7,753.2223214285714,262.12857142857143,1874.1,753.2223214285714,262.12857142857143,1974.4,753.2223214285714,262.12857142857143,2075.2,753.2223214285714,262.12857142857143,2185.1,753.2223214285714,262.12857142857143,2289.7,753.2223214285714,262.12857142857143,2403,753.2223214285714,262.12857142857143,2505.2,753.2223214285714,262.12857142857143,2619.8,753.2223214285714,262.12857142857143,2724.8,753.2223214285714,262.12857142857143,2829.9,753.2223214285714,262.12857142857143,2930,753.2223214285714,262.12857142857143,3035.5,753.2223214285714,262.12857142857143,3136.4,753.2223214285714,262.12857142857143,3239.1,753.2223214285714,262.12857142857143,3339.6,753.2223214285714,262.12857142857143,3439.9,753.2223214285714,262.12857142857143,3552.8,753.2223214285714,262.12857142857143,3653.4,753.2223214285714,262.12857142857143,3754.3,753.2223214285714,262.12857142857143,3854.7,753.2223214285714,262.12857142857143,3959,753.2223214285714,262.12857142857143,4060.2,753.2223214285714,262.12857142857143,4167.6,753.2223214285714,262.12857142857143,4270.4,753.2223214285714,262.12857142857143,4374.1,753.2223214285714,262.12857142857143,4474.2,753.2223214285714,262.12857142857143,4576,753.2223214285714,262.12857142857143,4685.5,753.2223214285714,262.12857142857143,4790.2,753.2223214285714,262.12857142857143,4890.6,753.2223214285714,262.12857142857143,4996.7]","[4932.2,4932.2,2415,2005.6,511.6,""oops"",""down"",""right"",""bad_move"",8367.2,3434.7,2978.7,4932.5,456.1,""smooth"",""down"",""down"",""good_move"",10527.3,2159.4,1718.8,8367.9,440.6,""oops"",""down"",""up"",""bad_move"",12912.4,2384.8,1979.7,10527.6,405.1,""smooth"",""down"",""down"",""good_move"",22381.5,9469.1,2246.5,19647.9,487.2,""oops"",""down"",""up"",""bad_move"",24870.9,2489.2,2056.2,22381.7,433,""smooth"",""down"",""down"",""good_move"",26902.5,2031.4,1621.5,24871.1,409.9,""oops"",""down"",""up"",""bad_move"",29710.6,2808,2301.3,26902.6,506.7,""oops"",""down"",""down"",""good_move"",30766,1055.2,2711.3,29710.8,-1656.1,""error"",""-"",""-"",""no_move"",33085.5,2319.3,2235.7,31769.1,-919.2,""error"",""-"",""-"",""no_move""]"
"2684","","<div style=""width:500px;"">
  <p>What determined the result of this run?</p>
  </div>","2","html-slider-response","49","709028","0.0-7.0-1.7","151","1","2025-08-06 09:01:59","36c45c0696341be0efffe67d72a12abb","49.206.11.110","Mozilla/5.0 (Windows NT 10.0; Win64; x64) AppleWebKit/537.36 (KHTML, like Gecko) Chrome/138.0.0.0 Safari/537.36","WebKit","Chrome","138.0.0.0","Windows","10.0","https://app.prolific.com/","en-GB,en-US;q=0.9,en;q=0.8,ta;q=0.7","66c5f76d9a214b469f6476c8","6877649eabb845cf142cd221","6893184efb8352de797df5f4","1","66c5f76d9a214b469f6476c8","1","2025-08-06T09:15:45.728Z","","","","AttribQ","","","","","","","","","","","50","","","","","","","","","","","","","","","","","","","","","","","","","","",""
"1303","","<div style=""width:500px;"">
  <p>How much control did you have over the ball?</p>
  </div>","10","html-slider-response","50","710332","0.0-7.0-2.7","151","1","2025-08-06 09:01:59","36c45c0696341be0efffe67d72a12abb","49.206.11.110","Mozilla/5.0 (Windows NT 10.0; Win64; x64) AppleWebKit/537.36 (KHTML, like Gecko) Chrome/138.0.0.0 Safari/537.36","WebKit","Chrome","138.0.0.0","Windows","10.0","https://app.prolific.com/","en-GB,en-US;q=0.9,en;q=0.8,ta;q=0.7","66c5f76d9a214b469f6476c8","6877649eabb845cf142cd221","6893184efb8352de797df5f4","1","66c5f76d9a214b469f6476c8","1","2025-08-06T09:15:47.033Z","","","","ControlQ","","","","","","","","","","","50","","","","","","","","","","","","","","","","","","","","","","","","","","",""
"2135","","<div style=""width:500px;"">
  <p>How would you describe your current emotional state?</p>
  </div>","90","html-slider-response","51","712469","0.0-7.0-3.7","151","1","2025-08-06 09:01:59","36c45c0696341be0efffe67d72a12abb","49.206.11.110","Mozilla/5.0 (Windows NT 10.0; Win64; x64) AppleWebKit/537.36 (KHTML, like Gecko) Chrome/138.0.0.0 Safari/537.36","WebKit","Chrome","138.0.0.0","Windows","10.0","https://app.prolific.com/","en-GB,en-US;q=0.9,en;q=0.8,ta;q=0.7","66c5f76d9a214b469f6476c8","6877649eabb845cf142cd221","6893184efb8352de797df5f4","1","66c5f76d9a214b469f6476c8","1","2025-08-06T09:15:49.169Z","","","","StressQ","","","","","","","","","","","50","","","","","","","","","","","","","","","","","","","","","","","","","","",""
"1486","","<div style=""width:500px;"">
  <p>What best describes how you currently feel?</p>
  </div>","4","html-slider-response","52","713958","0.0-7.0-4.7","151","1","2025-08-06 09:01:59","36c45c0696341be0efffe67d72a12abb","49.206.11.110","Mozilla/5.0 (Windows NT 10.0; Win64; x64) AppleWebKit/537.36 (KHTML, like Gecko) Chrome/138.0.0.0 Safari/537.36","WebKit","Chrome","138.0.0.0","Windows","10.0","https://app.prolific.com/","en-GB,en-US;q=0.9,en;q=0.8,ta;q=0.7","66c5f76d9a214b469f6476c8","6877649eabb845cf142cd221","6893184efb8352de797df5f4","1","66c5f76d9a214b469f6476c8","1","2025-08-06T09:15:50.658Z","","","","MotivationQ","","","","","","","","","","","50","","","","","","","","","","","","","","","","","","","","","","","","","","",""
"","","","","ctl-task-cpt","53","742743","0.0-7.0-0.8","151","1","2025-08-06 09:01:59","36c45c0696341be0efffe67d72a12abb","49.206.11.110","Mozilla/5.0 (Windows NT 10.0; Win64; x64) AppleWebKit/537.36 (KHTML, like Gecko) Chrome/138.0.0.0 Safari/537.36","WebKit","Chrome","138.0.0.0","Windows","10.0","https://app.prolific.com/","en-GB,en-US;q=0.9,en;q=0.8,ta;q=0.7","66c5f76d9a214b469f6476c8","6877649eabb845cf142cd221","6893184efb8352de797df5f4","1","66c5f76d9a214b469f6476c8","1","2025-08-06T09:16:19.443Z","","","","","","","","","","","","","","","","win-only","0","g1:NW,g2:SE","0.4","9","0","723732.2","747.4","5751.5","25761.7","1","4","8","6","2","8","8","8","0","0.06060606060606061","835.9","3000","940","[""down"",""right""]","{""num_key_presses"":6,""num_perfect"":3,""num_errors"":0,""num_randdir"":3,""num_randdir_good_moves"":3,""num_whilered"":0,""num_whileblue"":0,""num_blue"":1,""num_good_moves"":6}","[297.22232142857143,298.12857142857143,0.2,297.22232142857143,298.12857142857143,102.2,297.22232142857143,298.12857142857143,202.2,297.22232142857143,298.12857142857143,303.7,301.22232142857143,302.12857142857143,409.2,546.2223214285714,510.12857142857143,521.5,575.2223214285714,531.1285714285714,624.4,560.2223214285714,536.1285714285714,738.1,548.2223214285714,539.1285714285714,840.8,569.2223214285714,487.12857142857143,945.1,789.2223214285714,224.12857142857143,1053.4,787.2223214285714,215.12857142857143,1158.3,787.2223214285714,215.12857142857143,1269.1,787.2223214285714,215.12857142857143,1373.8,787.2223214285714,215.12857142857143,1486.9,787.2223214285714,215.12857142857143,1588.4,787.2223214285714,215.12857142857143,1688.4,787.2223214285714,215.12857142857143,1789,787.2223214285714,215.12857142857143,1893.4,787.2223214285714,215.12857142857143,1994.1,787.2223214285714,215.12857142857143,2094.5,787.2223214285714,215.12857142857143,2203,787.2223214285714,215.12857142857143,2303,787.2223214285714,215.12857142857143,2407.8,787.2223214285714,215.12857142857143,2509.2,787.2223214285714,215.12857142857143,2610.5,787.2223214285714,215.12857142857143,2718.5,787.2223214285714,215.12857142857143,2824.2,787.2223214285714,215.12857142857143,2936.7,787.2223214285714,215.12857142857143,3038.8,787.2223214285714,215.12857142857143,3152.2,787.2223214285714,215.12857142857143,3252.8,787.2223214285714,215.12857142857143,3353.7,787.2223214285714,215.12857142857143,3458.4,787.2223214285714,215.12857142857143,3563.8,787.2223214285714,215.12857142857143,3668.8,787.2223214285714,215.12857142857143,3773.8,787.2223214285714,215.12857142857143,3886.6,787.2223214285714,215.12857142857143,3987.1,787.2223214285714,215.12857142857143,4087.9,787.2223214285714,215.12857142857143,4189.6,787.2223214285714,215.12857142857143,4303.6,787.2223214285714,215.12857142857143,4408.3,787.2223214285714,215.12857142857143,4520.9,787.2223214285714,215.12857142857143,4624.8,787.2223214285714,215.12857142857143,4724.8,787.2223214285714,215.12857142857143,4836.6,787.2223214285714,215.12857142857143,4936.8]","[1477.7,1477.7,1000,0,477.7,""oops"",""down"",""right"",""good_move"",4169.7,2691.1,2287.5,1478.6,403.6,""smooth"",""down"",""down"",""good_move"",7076.5,2906.5,2511.9,4170,394.6,""smooth"",""down"",""down"",""good_move"",14111.9,7035.1,3005.5,10633.7,472.7,""smooth"",""down"",""down"",""good_move"",17010.6,2898.4,2431.7,14112.2,466.7,""oops"",""right"",""right"",""good_move"",19889.5,2877.9,2472.7,17011.6,405.2,""oops"",""right"",""right"",""good_move""]"
"61229","","<div style=""width:500px;"">
  <p>What determined the result of this run?</p>
  </div>","14","html-slider-response","54","803973","0.0-7.0-1.8","151","1","2025-08-06 09:01:59","36c45c0696341be0efffe67d72a12abb","49.206.11.110","Mozilla/5.0 (Windows NT 10.0; Win64; x64) AppleWebKit/537.36 (KHTML, like Gecko) Chrome/138.0.0.0 Safari/537.36","WebKit","Chrome","138.0.0.0","Windows","10.0","https://app.prolific.com/","en-GB,en-US;q=0.9,en;q=0.8,ta;q=0.7","66c5f76d9a214b469f6476c8","6877649eabb845cf142cd221","6893184efb8352de797df5f4","1","66c5f76d9a214b469f6476c8","1","2025-08-06T09:17:20.674Z","","","","AttribQ","","","","","","","","","","","50","","","","","","","","","","","","","","","","","","","","","","","","","","",""
"1646","","<div style=""width:500px;"">
  <p>How much control did you have over the ball?</p>
  </div>","15","html-slider-response","55","805622","0.0-7.0-2.8","151","1","2025-08-06 09:01:59","36c45c0696341be0efffe67d72a12abb","49.206.11.110","Mozilla/5.0 (Windows NT 10.0; Win64; x64) AppleWebKit/537.36 (KHTML, like Gecko) Chrome/138.0.0.0 Safari/537.36","WebKit","Chrome","138.0.0.0","Windows","10.0","https://app.prolific.com/","en-GB,en-US;q=0.9,en;q=0.8,ta;q=0.7","66c5f76d9a214b469f6476c8","6877649eabb845cf142cd221","6893184efb8352de797df5f4","1","66c5f76d9a214b469f6476c8","1","2025-08-06T09:17:22.322Z","","","","ControlQ","","","","","","","","","","","50","","","","","","","","","","","","","","","","","","","","","","","","","","",""
"1885","","<div style=""width:500px;"">
  <p>How would you describe your current emotional state?</p>
  </div>","87","html-slider-response","56","807510","0.0-7.0-3.8","151","1","2025-08-06 09:01:59","36c45c0696341be0efffe67d72a12abb","49.206.11.110","Mozilla/5.0 (Windows NT 10.0; Win64; x64) AppleWebKit/537.36 (KHTML, like Gecko) Chrome/138.0.0.0 Safari/537.36","WebKit","Chrome","138.0.0.0","Windows","10.0","https://app.prolific.com/","en-GB,en-US;q=0.9,en;q=0.8,ta;q=0.7","66c5f76d9a214b469f6476c8","6877649eabb845cf142cd221","6893184efb8352de797df5f4","1","66c5f76d9a214b469f6476c8","1","2025-08-06T09:17:24.211Z","","","","StressQ","","","","","","","","","","","50","","","","","","","","","","","","","","","","","","","","","","","","","","",""
"1636","","<div style=""width:500px;"">
  <p>What best describes how you currently feel?</p>
  </div>","11","html-slider-response","57","809149","0.0-7.0-4.8","151","1","2025-08-06 09:01:59","36c45c0696341be0efffe67d72a12abb","49.206.11.110","Mozilla/5.0 (Windows NT 10.0; Win64; x64) AppleWebKit/537.36 (KHTML, like Gecko) Chrome/138.0.0.0 Safari/537.36","WebKit","Chrome","138.0.0.0","Windows","10.0","https://app.prolific.com/","en-GB,en-US;q=0.9,en;q=0.8,ta;q=0.7","66c5f76d9a214b469f6476c8","6877649eabb845cf142cd221","6893184efb8352de797df5f4","1","66c5f76d9a214b469f6476c8","1","2025-08-06T09:17:25.849Z","","","","MotivationQ","","","","","","","","","","","50","","","","","","","","","","","","","","","","","","","","","","","","","","",""
"","","","","ctl-task-cpt","58","848611","0.0-7.0-0.9","151","1","2025-08-06 09:01:59","36c45c0696341be0efffe67d72a12abb","49.206.11.110","Mozilla/5.0 (Windows NT 10.0; Win64; x64) AppleWebKit/537.36 (KHTML, like Gecko) Chrome/138.0.0.0 Safari/537.36","WebKit","Chrome","138.0.0.0","Windows","10.0","https://app.prolific.com/","en-GB,en-US;q=0.9,en;q=0.8,ta;q=0.7","66c5f76d9a214b469f6476c8","6877649eabb845cf142cd221","6893184efb8352de797df5f4","1","66c5f76d9a214b469f6476c8","1","2025-08-06T09:18:05.311Z","","","","","","","","","","","","","","","","win-only","1","g1:NE,g2:SW","0.5","10","0","818921.4","1323","6326.4","36450.8","1","4","4","6","2","4","4","12","8","0.09090909090909091","950","3000","135","[""down"",""left""]","{""num_key_presses"":8,""num_perfect"":4,""num_errors"":0,""num_randdir"":4,""num_randdir_good_moves"":3,""num_whilered"":0,""num_whileblue"":0,""num_blue"":3,""num_good_moves"":7}","[296.22232142857143,300.12857142857143,0.2,296.22232142857143,300.12857142857143,102.4,296.22232142857143,300.12857142857143,203.1,296.22232142857143,300.12857142857143,311.9,296.22232142857143,300.12857142857143,413.1,207.22232142857143,396.12857142857143,514.7,115.22232142857143,489.12857142857143,618,100.22232142857143,501.12857142857143,723,76.22232142857143,511.12857142857143,823.4,63.222321428571426,520.1285714285714,928.7,63.222321428571426,520.1285714285714,1036.6,108.22232142857143,491.12857142857143,1140,497.22232142857143,263.12857142857143,1242.6,713.2223214285714,160.12857142857143,1344,747.2223214285714,139.12857142857143,1448.1,747.2223214285714,139.12857142857143,1553,747.2223214285714,139.12857142857143,1654.6,747.2223214285714,139.12857142857143,1758.2,747.2223214285714,139.12857142857143,1863.5,747.2223214285714,139.12857142857143,1963.6,747.2223214285714,139.12857142857143,2069.6,747.2223214285714,139.12857142857143,2174,747.2223214285714,139.12857142857143,2278.6,747.2223214285714,139.12857142857143,2388.1,747.2223214285714,139.12857142857143,2492.4,747.2223214285714,139.12857142857143,2593.7,747.2223214285714,139.12857142857143,2698.4,747.2223214285714,139.12857142857143,2800.2,747.2223214285714,139.12857142857143,2905,747.2223214285714,139.12857142857143,3007.2,747.2223214285714,139.12857142857143,3108.4,747.2223214285714,139.12857142857143,3215,747.2223214285714,139.12857142857143,3318.8,747.2223214285714,139.12857142857143,3421.2,747.2223214285714,139.12857142857143,3523.1,747.2223214285714,139.12857142857143,3623.1,747.2223214285714,139.12857142857143,3728.1,747.2223214285714,139.12857142857143,3833.7,747.2223214285714,139.12857142857143,3935.9,747.2223214285714,139.12857142857143,4037.6,747.2223214285714,139.12857142857143,4138.3,747.2223214285714,139.12857142857143,4239,747.2223214285714,139.12857142857143,4339.2,747.2223214285714,139.12857142857143,4439.5,747.2223214285714,139.12857142857143,4543.7,747.2223214285714,139.12857142857143,4644.6,747.2223214285714,139.12857142857143,4750.3,747.2223214285714,139.12857142857143,4856.8,747.2223214285714,139.12857142857143,4958.2]","[1400.4,1400.4,1000,0,400.4,""oops"",""down"",""down"",""good_move"",6709.8,5309,1600.9,4710,398.9,""smooth"",""down"",""down"",""good_move"",9755,3045.1,2625.1,6710,419.9,""oops"",""left"",""left"",""good_move"",12514.2,2758.8,2359.3,9755.4,399.5,""smooth"",""left"",""left"",""good_move"",21684.5,9170.1,2007.1,19259.6,417.8,""smooth"",""left"",""left"",""good_move"",23656.6,1971.8,1524.2,21684.8,447.6,""oops"",""down"",""right"",""bad_move"",27184.7,3527.8,3142.3,23656.9,385.5,""smooth"",""down"",""down"",""good_move"",30028.8,2843.8,2456,27185,387.8,""oops"",""left"",""left"",""good_move""]"
"14011","","<div style=""width:500px;"">
  <p>What determined the result of this run?</p>
  </div>","11","html-slider-response","59","862624","0.0-7.0-1.9","151","1","2025-08-06 09:01:59","36c45c0696341be0efffe67d72a12abb","49.206.11.110","Mozilla/5.0 (Windows NT 10.0; Win64; x64) AppleWebKit/537.36 (KHTML, like Gecko) Chrome/138.0.0.0 Safari/537.36","WebKit","Chrome","138.0.0.0","Windows","10.0","https://app.prolific.com/","en-GB,en-US;q=0.9,en;q=0.8,ta;q=0.7","66c5f76d9a214b469f6476c8","6877649eabb845cf142cd221","6893184efb8352de797df5f4","1","66c5f76d9a214b469f6476c8","1","2025-08-06T09:18:19.324Z","","","","AttribQ","","","","","","","","","","","50","","","","","","","","","","","","","","","","","","","","","","","","","","",""
"4195","","<div style=""width:500px;"">
  <p>How much control did you have over the ball?</p>
  </div>","14","html-slider-response","60","866820","0.0-7.0-2.9","151","1","2025-08-06 09:01:59","36c45c0696341be0efffe67d72a12abb","49.206.11.110","Mozilla/5.0 (Windows NT 10.0; Win64; x64) AppleWebKit/537.36 (KHTML, like Gecko) Chrome/138.0.0.0 Safari/537.36","WebKit","Chrome","138.0.0.0","Windows","10.0","https://app.prolific.com/","en-GB,en-US;q=0.9,en;q=0.8,ta;q=0.7","66c5f76d9a214b469f6476c8","6877649eabb845cf142cd221","6893184efb8352de797df5f4","1","66c5f76d9a214b469f6476c8","1","2025-08-06T09:18:23.520Z","","","","ControlQ","","","","","","","","","","","50","","","","","","","","","","","","","","","","","","","","","","","","","","",""
"2095","","<div style=""width:500px;"">
  <p>How would you describe your current emotional state?</p>
  </div>","91","html-slider-response","61","868916","0.0-7.0-3.9","151","1","2025-08-06 09:01:59","36c45c0696341be0efffe67d72a12abb","49.206.11.110","Mozilla/5.0 (Windows NT 10.0; Win64; x64) AppleWebKit/537.36 (KHTML, like Gecko) Chrome/138.0.0.0 Safari/537.36","WebKit","Chrome","138.0.0.0","Windows","10.0","https://app.prolific.com/","en-GB,en-US;q=0.9,en;q=0.8,ta;q=0.7","66c5f76d9a214b469f6476c8","6877649eabb845cf142cd221","6893184efb8352de797df5f4","1","66c5f76d9a214b469f6476c8","1","2025-08-06T09:18:25.617Z","","","","StressQ","","","","","","","","","","","50","","","","","","","","","","","","","","","","","","","","","","","","","","",""
"2007","","<div style=""width:500px;"">
  <p>What best describes how you currently feel?</p>
  </div>","16","html-slider-response","62","870926","0.0-7.0-4.9","151","1","2025-08-06 09:01:59","36c45c0696341be0efffe67d72a12abb","49.206.11.110","Mozilla/5.0 (Windows NT 10.0; Win64; x64) AppleWebKit/537.36 (KHTML, like Gecko) Chrome/138.0.0.0 Safari/537.36","WebKit","Chrome","138.0.0.0","Windows","10.0","https://app.prolific.com/","en-GB,en-US;q=0.9,en;q=0.8,ta;q=0.7","66c5f76d9a214b469f6476c8","6877649eabb845cf142cd221","6893184efb8352de797df5f4","1","66c5f76d9a214b469f6476c8","1","2025-08-06T09:18:27.626Z","","","","MotivationQ","","","","","","","","","","","50","","","","","","","","","","","","","","","","","","","","","","","","","","",""
"","","","","ctl-task-cpt","63","906470","0.0-7.0-0.10","151","1","2025-08-06 09:01:59","36c45c0696341be0efffe67d72a12abb","49.206.11.110","Mozilla/5.0 (Windows NT 10.0; Win64; x64) AppleWebKit/537.36 (KHTML, like Gecko) Chrome/138.0.0.0 Safari/537.36","WebKit","Chrome","138.0.0.0","Windows","10.0","https://app.prolific.com/","en-GB,en-US;q=0.9,en;q=0.8,ta;q=0.7","66c5f76d9a214b469f6476c8","6877649eabb845cf142cd221","6893184efb8352de797df5f4","1","66c5f76d9a214b469f6476c8","1","2025-08-06T09:19:03.170Z","","","","","","","","","","","","","","","","win-only","1","g1:NE,g2:SW","0.6","11","0","880700.3","1973.3","6979.9","32519.3","1","4","4","6","2","-4","-4","8","12","0.06060606060606061","751.1","3000","-2215","[""down"",""left""]","{""num_key_presses"":9,""num_perfect"":5,""num_errors"":0,""num_randdir"":4,""num_randdir_good_moves"":1,""num_whilered"":0,""num_whileblue"":0,""num_blue"":0,""num_good_moves"":6}","[297.22232142857143,291.12857142857143,0.2,297.22232142857143,291.12857142857143,102.8,297.22232142857143,291.12857142857143,203.1,297.22232142857143,291.12857142857143,308.4,263.22232142857143,326.12857142857143,412.6,44.222321428571426,545.1285714285714,514.4,31.222321428571426,555.1285714285714,617.5,31.222321428571426,555.1285714285714,718.5,31.222321428571426,555.1285714285714,823.9,39.222321428571426,551.1285714285714,932.8,230.22232142857143,464.12857142857143,1033.2,574.2223214285714,309.12857142857143,1134.4,640.2223214285714,274.12857142857143,1242,640.2223214285714,274.12857142857143,1346.7,640.2223214285714,274.12857142857143,1447.1,640.2223214285714,274.12857142857143,1554,640.2223214285714,274.12857142857143,1658,640.2223214285714,274.12857142857143,1763.2,640.2223214285714,274.12857142857143,1866,640.2223214285714,274.12857142857143,1968.5,640.2223214285714,274.12857142857143,2074.1,640.2223214285714,274.12857142857143,2177.7,640.2223214285714,274.12857142857143,2278.2,640.2223214285714,274.12857142857143,2378.4,640.2223214285714,274.12857142857143,2478.7,640.2223214285714,274.12857142857143,2581.9,640.2223214285714,274.12857142857143,2682,640.2223214285714,274.12857142857143,2782,640.2223214285714,274.12857142857143,2882.9,640.2223214285714,274.12857142857143,2997.6,640.2223214285714,274.12857142857143,3098,640.2223214285714,274.12857142857143,3199.6,640.2223214285714,274.12857142857143,3302.9,640.2223214285714,274.12857142857143,3403.3,640.2223214285714,274.12857142857143,3510.1,640.2223214285714,274.12857142857143,3613.4,640.2223214285714,274.12857142857143,3715.1,640.2223214285714,274.12857142857143,3816.4,640.2223214285714,274.12857142857143,3919.9,640.2223214285714,274.12857142857143,4033.3,640.2223214285714,274.12857142857143,4140,640.2223214285714,274.12857142857143,4241.9,640.2223214285714,274.12857142857143,4344.9,640.2223214285714,274.12857142857143,4451.1,640.2223214285714,274.12857142857143,4552.4,640.2223214285714,274.12857142857143,4654.3,640.2223214285714,274.12857142857143,4758.6,640.2223214285714,274.12857142857143,4861.4,640.2223214285714,274.12857142857143,4962.4]","[1553.2,1553.2,1000,0,553.2,""oops"",""down"",""right"",""bad_move"",3979.8,2425.9,2067.9,1553.9,358,""smooth"",""down"",""down"",""good_move"",6941.7,2961.6,2573.1,3980.1,388.5,""smooth"",""down"",""down"",""good_move"",9890.6,2948.8,2558,6941.8,390.8,""oops"",""left"",""left"",""good_move"",12926.2,3035.3,2580,9890.9,455.3,""smooth"",""left"",""left"",""good_move"",15486.6,2560.3,2216,12926.3,344.3,""smooth"",""left"",""left"",""good_move"",17338.9,1852,1379.4,15486.9,472.6,""oops"",""left"",""right"",""bad_move"",20439.2,3100.2,2740.1,17339,360.1,""smooth"",""down"",""down"",""good_move"",22839.3,2400.1,2027.4,20439.2,372.7,""oops"",""left"",""up"",""bad_move""]"
"7663","","<div style=""width:500px;"">
  <p>What determined the result of this run?</p>
  </div>","9","html-slider-response","64","914134","0.0-7.0-1.10","151","1","2025-08-06 09:01:59","36c45c0696341be0efffe67d72a12abb","49.206.11.110","Mozilla/5.0 (Windows NT 10.0; Win64; x64) AppleWebKit/537.36 (KHTML, like Gecko) Chrome/138.0.0.0 Safari/537.36","WebKit","Chrome","138.0.0.0","Windows","10.0","https://app.prolific.com/","en-GB,en-US;q=0.9,en;q=0.8,ta;q=0.7","66c5f76d9a214b469f6476c8","6877649eabb845cf142cd221","6893184efb8352de797df5f4","1","66c5f76d9a214b469f6476c8","1","2025-08-06T09:19:10.834Z","","","","AttribQ","","","","","","","","","","","50","","","","","","","","","","","","","","","","","","","","","","","","","","",""
"1774","","<div style=""width:500px;"">
  <p>How much control did you have over the ball?</p>
  </div>","10","html-slider-response","65","915910","0.0-7.0-2.10","151","1","2025-08-06 09:01:59","36c45c0696341be0efffe67d72a12abb","49.206.11.110","Mozilla/5.0 (Windows NT 10.0; Win64; x64) AppleWebKit/537.36 (KHTML, like Gecko) Chrome/138.0.0.0 Safari/537.36","WebKit","Chrome","138.0.0.0","Windows","10.0","https://app.prolific.com/","en-GB,en-US;q=0.9,en;q=0.8,ta;q=0.7","66c5f76d9a214b469f6476c8","6877649eabb845cf142cd221","6893184efb8352de797df5f4","1","66c5f76d9a214b469f6476c8","1","2025-08-06T09:19:12.610Z","","","","ControlQ","","","","","","","","","","","50","","","","","","","","","","","","","","","","","","","","","","","","","","",""
"2725","","<div style=""width:500px;"">
  <p>How would you describe your current emotional state?</p>
  </div>","6","html-slider-response","66","918638","0.0-7.0-3.10","151","1","2025-08-06 09:01:59","36c45c0696341be0efffe67d72a12abb","49.206.11.110","Mozilla/5.0 (Windows NT 10.0; Win64; x64) AppleWebKit/537.36 (KHTML, like Gecko) Chrome/138.0.0.0 Safari/537.36","WebKit","Chrome","138.0.0.0","Windows","10.0","https://app.prolific.com/","en-GB,en-US;q=0.9,en;q=0.8,ta;q=0.7","66c5f76d9a214b469f6476c8","6877649eabb845cf142cd221","6893184efb8352de797df5f4","1","66c5f76d9a214b469f6476c8","1","2025-08-06T09:19:15.338Z","","","","StressQ","","","","","","","","","","","50","","","","","","","","","","","","","","","","","","","","","","","","","","",""
"3397","","<div style=""width:500px;"">
  <p>What best describes how you currently feel?</p>
  </div>","19","html-slider-response","67","922038","0.0-7.0-4.10","151","1","2025-08-06 09:01:59","36c45c0696341be0efffe67d72a12abb","49.206.11.110","Mozilla/5.0 (Windows NT 10.0; Win64; x64) AppleWebKit/537.36 (KHTML, like Gecko) Chrome/138.0.0.0 Safari/537.36","WebKit","Chrome","138.0.0.0","Windows","10.0","https://app.prolific.com/","en-GB,en-US;q=0.9,en;q=0.8,ta;q=0.7","66c5f76d9a214b469f6476c8","6877649eabb845cf142cd221","6893184efb8352de797df5f4","1","66c5f76d9a214b469f6476c8","1","2025-08-06T09:19:18.738Z","","","","MotivationQ","","","","","","","","","","","50","","","","","","","","","","","","","","","","","","","","","","","","","","",""
"","","","","ctl-task-cpt","68","949151","0.0-7.0-0.11","151","1","2025-08-06 09:01:59","36c45c0696341be0efffe67d72a12abb","49.206.11.110","Mozilla/5.0 (Windows NT 10.0; Win64; x64) AppleWebKit/537.36 (KHTML, like Gecko) Chrome/138.0.0.0 Safari/537.36","WebKit","Chrome","138.0.0.0","Windows","10.0","https://app.prolific.com/","en-GB,en-US;q=0.9,en;q=0.8,ta;q=0.7","66c5f76d9a214b469f6476c8","6877649eabb845cf142cd221","6893184efb8352de797df5f4","1","66c5f76d9a214b469f6476c8","1","2025-08-06T09:19:45.851Z","","","","","","","","","","","","","","","","win-only","1","g1:NE,g2:SW","0.7","12","0","931810.8","2143.6","7146.6","24092.5","1","4","8","6","2","8","8","16","8","0.12121212121212122","951.2","3000","1200","[""down"",""left""]","{""num_key_presses"":6,""num_perfect"":5,""num_errors"":0,""num_randdir"":1,""num_randdir_good_moves"":1,""num_whilered"":0,""num_whileblue"":0,""num_blue"":0,""num_good_moves"":6}","[298.22232142857143,302.12857142857143,0.3,298.22232142857143,302.12857142857143,103.2,298.22232142857143,302.12857142857143,218.8,298.22232142857143,302.12857142857143,322.2,298.22232142857143,302.12857142857143,422.5,219.22232142857143,378.12857142857143,528.9,123.22232142857143,468.12857142857143,637.3,85.22232142857143,505.12857142857143,752.4,64.22232142857143,520.1285714285714,861.1,63.222321428571426,523.1285714285714,961.6,65.22232142857143,524.1285714285714,1066.3,186.22232142857143,455.12857142857143,1167,778.2223214285714,316.12857142857143,1272.7,978.2223214285714,163.12857142857143,1372.9,978.2223214285714,128.12857142857143,1487.4,978.2223214285714,128.12857142857143,1594.1,978.2223214285714,128.12857142857143,1697.9,978.2223214285714,128.12857142857143,1798.4,978.2223214285714,128.12857142857143,1903.5,978.2223214285714,128.12857142857143,2019,978.2223214285714,128.12857142857143,2120.3,978.2223214285714,128.12857142857143,2223.1,978.2223214285714,128.12857142857143,2337.5,978.2223214285714,128.12857142857143,2444.1,978.2223214285714,128.12857142857143,2544.1,978.2223214285714,128.12857142857143,2644.2,978.2223214285714,128.12857142857143,2744.2,978.2223214285714,128.12857142857143,2848.9,978.2223214285714,128.12857142857143,2948.9,978.2223214285714,128.12857142857143,3050.3,978.2223214285714,128.12857142857143,3152.3,978.2223214285714,128.12857142857143,3268.4,978.2223214285714,128.12857142857143,3369.3,978.2223214285714,128.12857142857143,3472.7,978.2223214285714,128.12857142857143,3574.6,978.2223214285714,128.12857142857143,3684,978.2223214285714,128.12857142857143,3786.8,978.2223214285714,128.12857142857143,3887.4,978.2223214285714,128.12857142857143,3992.8,978.2223214285714,128.12857142857143,4093.3,978.2223214285714,128.12857142857143,4193.8,978.2223214285714,128.12857142857143,4299,978.2223214285714,128.12857142857143,4403,978.2223214285714,128.12857142857143,4511.8,978.2223214285714,128.12857142857143,4613.7,978.2223214285714,128.12857142857143,4714.7,978.2223214285714,128.12857142857143,4818.2,978.2223214285714,128.12857142857143,4918.8]","[1416.3,1416.3,1000,0,416.3,""smooth"",""down"",""down"",""good_move"",5076.5,3659.8,3276.6,1416.7,383.2,""smooth"",""down"",""down"",""good_move"",7822.9,2746.1,2336.9,5076.9,409.1,""smooth"",""left"",""left"",""good_move"",9997.1,2173.6,1762.2,7823.6,411.3,""smooth"",""left"",""left"",""good_move"",13627.9,3630.7,3243.9,9997.2,386.8,""oops"",""left"",""down"",""good_move"",16831.5,3203.5,2801.6,13628.1,401.8,""smooth"",""left"",""left"",""good_move""]"
"7077","","<div style=""width:500px;"">
  <p>What determined the result of this run?</p>
  </div>","11","html-slider-response","69","956229","0.0-7.0-1.11","151","1","2025-08-06 09:01:59","36c45c0696341be0efffe67d72a12abb","49.206.11.110","Mozilla/5.0 (Windows NT 10.0; Win64; x64) AppleWebKit/537.36 (KHTML, like Gecko) Chrome/138.0.0.0 Safari/537.36","WebKit","Chrome","138.0.0.0","Windows","10.0","https://app.prolific.com/","en-GB,en-US;q=0.9,en;q=0.8,ta;q=0.7","66c5f76d9a214b469f6476c8","6877649eabb845cf142cd221","6893184efb8352de797df5f4","1","66c5f76d9a214b469f6476c8","1","2025-08-06T09:19:52.929Z","","","","AttribQ","","","","","","","","","","","50","","","","","","","","","","","","","","","","","","","","","","","","","","",""
"8038","","<div style=""width:500px;"">
  <p>How much control did you have over the ball?</p>
  </div>","13","html-slider-response","70","964268","0.0-7.0-2.11","151","1","2025-08-06 09:01:59","36c45c0696341be0efffe67d72a12abb","49.206.11.110","Mozilla/5.0 (Windows NT 10.0; Win64; x64) AppleWebKit/537.36 (KHTML, like Gecko) Chrome/138.0.0.0 Safari/537.36","WebKit","Chrome","138.0.0.0","Windows","10.0","https://app.prolific.com/","en-GB,en-US;q=0.9,en;q=0.8,ta;q=0.7","66c5f76d9a214b469f6476c8","6877649eabb845cf142cd221","6893184efb8352de797df5f4","1","66c5f76d9a214b469f6476c8","1","2025-08-06T09:20:00.968Z","","","","ControlQ","","","","","","","","","","","50","","","","","","","","","","","","","","","","","","","","","","","","","","",""
"2103","","<div style=""width:500px;"">
  <p>How would you describe your current emotional state?</p>
  </div>","89","html-slider-response","71","966372","0.0-7.0-3.11","151","1","2025-08-06 09:01:59","36c45c0696341be0efffe67d72a12abb","49.206.11.110","Mozilla/5.0 (Windows NT 10.0; Win64; x64) AppleWebKit/537.36 (KHTML, like Gecko) Chrome/138.0.0.0 Safari/537.36","WebKit","Chrome","138.0.0.0","Windows","10.0","https://app.prolific.com/","en-GB,en-US;q=0.9,en;q=0.8,ta;q=0.7","66c5f76d9a214b469f6476c8","6877649eabb845cf142cd221","6893184efb8352de797df5f4","1","66c5f76d9a214b469f6476c8","1","2025-08-06T09:20:03.072Z","","","","StressQ","","","","","","","","","","","50","","","","","","","","","","","","","","","","","","","","","","","","","","",""
"10791","","<div style=""width:500px;"">
  <p>What best describes how you currently feel?</p>
  </div>","15","html-slider-response","72","977164","0.0-7.0-4.11","151","1","2025-08-06 09:01:59","36c45c0696341be0efffe67d72a12abb","49.206.11.110","Mozilla/5.0 (Windows NT 10.0; Win64; x64) AppleWebKit/537.36 (KHTML, like Gecko) Chrome/138.0.0.0 Safari/537.36","WebKit","Chrome","138.0.0.0","Windows","10.0","https://app.prolific.com/","en-GB,en-US;q=0.9,en;q=0.8,ta;q=0.7","66c5f76d9a214b469f6476c8","6877649eabb845cf142cd221","6893184efb8352de797df5f4","1","66c5f76d9a214b469f6476c8","1","2025-08-06T09:20:13.865Z","","","","MotivationQ","","","","","","","","","","","50","","","","","","","","","","","","","","","","","","","","","","","","","","",""
"","","","","ctl-task-cpt","73","1018137","0.0-7.0-0.12","151","1","2025-08-06 09:01:59","36c45c0696341be0efffe67d72a12abb","49.206.11.110","Mozilla/5.0 (Windows NT 10.0; Win64; x64) AppleWebKit/537.36 (KHTML, like Gecko) Chrome/138.0.0.0 Safari/537.36","WebKit","Chrome","138.0.0.0","Windows","10.0","https://app.prolific.com/","en-GB,en-US;q=0.9,en;q=0.8,ta;q=0.7","66c5f76d9a214b469f6476c8","6877649eabb845cf142cd221","6893184efb8352de797df5f4","1","66c5f76d9a214b469f6476c8","1","2025-08-06T09:20:54.837Z","","","","","","","","","","","","","","","","win-only","2","g1:SE,g2:NW","0.8","13","0","986937.4","1702.9","6707.2","37953","1","4","4","6","2","4","4","20","16","0.15151515151515152","1177.3","3000","620","[""left"",""up""]","{""num_key_presses"":8,""num_perfect"":7,""num_errors"":0,""num_randdir"":1,""num_randdir_good_moves"":0,""num_whilered"":0,""num_whileblue"":0,""num_blue"":3,""num_good_moves"":7}","[299.22232142857143,299.12857142857143,0.2,299.22232142857143,299.12857142857143,104,299.22232142857143,299.12857142857143,220.7,299.22232142857143,299.12857142857143,326.2,299.22232142857143,299.12857142857143,426.8,272.22232142857143,291.12857142857143,547,209.22232142857143,259.12857142857143,650.3,115.22232142857143,146.12857142857143,752.4,84.22232142857143,115.12857142857143,856.9,62.222321428571426,96.12857142857143,963.1,59.222321428571426,93.12857142857143,1067.6,59.222321428571426,93.12857142857143,1168.3,59.222321428571426,93.12857142857143,1269.5,59.222321428571426,93.12857142857143,1371,70.22232142857143,91.12857142857143,1472.3,418.22232142857143,53.128571428571426,1576.5,774.2223214285714,17.128571428571426,1684.1,906.2223214285714,-24.871428571428574,1786.1,906.2223214285714,-24.871428571428574,1888.9,906.2223214285714,-24.871428571428574,1993.4,906.2223214285714,-24.871428571428574,2095,906.2223214285714,-24.871428571428574,2199.6,906.2223214285714,-24.871428571428574,2303.7,906.2223214285714,-24.871428571428574,2410.3,906.2223214285714,-24.871428571428574,2514.4,906.2223214285714,-24.871428571428574,2615.2,906.2223214285714,-24.871428571428574,2715.6,906.2223214285714,-24.871428571428574,2816.6,906.2223214285714,-24.871428571428574,2919.4,906.2223214285714,-24.871428571428574,3027.4,906.2223214285714,-24.871428571428574,3132.1,906.2223214285714,-24.871428571428574,3233.1,906.2223214285714,-24.871428571428574,3333.8,906.2223214285714,-24.871428571428574,3439.5,906.2223214285714,-24.871428571428574,3547.2,906.2223214285714,-24.871428571428574,3650.7,906.2223214285714,-24.871428571428574,3754.9,906.2223214285714,-24.871428571428574,3859.5,906.2223214285714,-24.871428571428574,3965.2,906.2223214285714,-24.871428571428574,4070.6,906.2223214285714,-24.871428571428574,4175.4,906.2223214285714,-24.871428571428574,4282.1,906.2223214285714,-24.871428571428574,4383.4,906.2223214285714,-24.871428571428574,4484.9,906.2223214285714,-24.871428571428574,4586.2,906.2223214285714,-24.871428571428574,4688.7,906.2223214285714,-24.871428571428574,4794.9,906.2223214285714,-24.871428571428574,4899.5]","[1399,1399,1000,0,399,""smooth"",""left"",""left"",""good_move"",3978.6,2579.2,2211.3,1399.4,367.9,""smooth"",""left"",""left"",""good_move"",10309.8,6331,2821.7,7055.8,432.3,""smooth"",""left"",""left"",""good_move"",16804.2,6494.1,2348.2,14026,430,""smooth"",""up"",""up"",""good_move"",19321.3,2516.8,1982.8,16804.5,534,""smooth"",""up"",""up"",""good_move"",26042.5,6721,2922.1,22618.2,502.2,""oops"",""up"",""down"",""bad_move"",28318.3,2274.8,1734.4,26043.5,540.4,""smooth"",""up"",""up"",""good_move"",31130.9,2812.2,2400.7,28318.7,411.5,""smooth"",""up"",""up"",""good_move""]"
"2883","","<div style=""width:500px;"">
  <p>What determined the result of this run?</p>
  </div>","90","html-slider-response","74","1021021","0.0-7.0-1.12","151","1","2025-08-06 09:01:59","36c45c0696341be0efffe67d72a12abb","49.206.11.110","Mozilla/5.0 (Windows NT 10.0; Win64; x64) AppleWebKit/537.36 (KHTML, like Gecko) Chrome/138.0.0.0 Safari/537.36","WebKit","Chrome","138.0.0.0","Windows","10.0","https://app.prolific.com/","en-GB,en-US;q=0.9,en;q=0.8,ta;q=0.7","66c5f76d9a214b469f6476c8","6877649eabb845cf142cd221","6893184efb8352de797df5f4","1","66c5f76d9a214b469f6476c8","1","2025-08-06T09:20:57.721Z","","","","AttribQ","","","","","","","","","","","50","","","","","","","","","","","","","","","","","","","","","","","","","","",""
"2678","","<div style=""width:500px;"">
  <p>How much control did you have over the ball?</p>
  </div>","84","html-slider-response","75","1023701","0.0-7.0-2.12","151","1","2025-08-06 09:01:59","36c45c0696341be0efffe67d72a12abb","49.206.11.110","Mozilla/5.0 (Windows NT 10.0; Win64; x64) AppleWebKit/537.36 (KHTML, like Gecko) Chrome/138.0.0.0 Safari/537.36","WebKit","Chrome","138.0.0.0","Windows","10.0","https://app.prolific.com/","en-GB,en-US;q=0.9,en;q=0.8,ta;q=0.7","66c5f76d9a214b469f6476c8","6877649eabb845cf142cd221","6893184efb8352de797df5f4","1","66c5f76d9a214b469f6476c8","1","2025-08-06T09:21:00.401Z","","","","ControlQ","","","","","","","","","","","50","","","","","","","","","","","","","","","","","","","","","","","","","","",""
"2646","","<div style=""width:500px;"">
  <p>How would you describe your current emotional state?</p>
  </div>","19","html-slider-response","76","1026350","0.0-7.0-3.12","151","1","2025-08-06 09:01:59","36c45c0696341be0efffe67d72a12abb","49.206.11.110","Mozilla/5.0 (Windows NT 10.0; Win64; x64) AppleWebKit/537.36 (KHTML, like Gecko) Chrome/138.0.0.0 Safari/537.36","WebKit","Chrome","138.0.0.0","Windows","10.0","https://app.prolific.com/","en-GB,en-US;q=0.9,en;q=0.8,ta;q=0.7","66c5f76d9a214b469f6476c8","6877649eabb845cf142cd221","6893184efb8352de797df5f4","1","66c5f76d9a214b469f6476c8","1","2025-08-06T09:21:03.050Z","","","","StressQ","","","","","","","","","","","50","","","","","","","","","","","","","","","","","","","","","","","","","","",""
"3854","","<div style=""width:500px;"">
  <p>What best describes how you currently feel?</p>
