"rt","response_timestamp","stimulus","response","trial_type","trial_index","time_elapsed","internal_node_id","run_id","condition","recorded_at","source_code_version","ip","user_agent","device","browser","browser_version","platform","platform_version","referer","accept_language","PROLIFIC_PID","STUDY_ID","SESSION_ID","BATCH","prolific_id","batch","realtime","success","question_order","question_id","eventType","responses","item_order","radio_event_ids","radio_event_times","key_event_times","mouse_event_times","straightlining","zigzagging","honeypot","view_history","slider_start","which_type","canvas_config","goals_layout","control_level","trial_number","tutorial_trial_number","trial_start_time","phase1_start_time","phase2_start_time","phase3_start_time","goal_1_value","goal_1_distance","goal_2_value","goal_2_distance","goal_selected","outcome","outcome_total","participant_final_score","participant_initial_score","participant_final_score_prop","goal_choice_rt","allocated_time","allocated_time_remaining","goal_direction","counts","mouse_movements","key_presses"
"17892","1753865292664","<p style='font-size:40px;line-height:1.25'><strong>Welcome to the experiment!</strong></p><p style='font-size:1.1em;line-height:1.25'>Thank you for participanting in our experiment again! You will be asked to play the Dysfunctional Ball Game again. We will briefly recap the rules before we start.</p><p style='font-size:1.1em;line-height:1.25'>Press <strong>Next</strong> to continue.</p>","0","custom-html-button-response","0","17897","0.0-0.0","56","1","2025-07-30 08:47:51","36c45c0696341be0efffe67d72a12abb","197.185.144.235","Mozilla/5.0 (Windows NT 10.0; Win64; x64) AppleWebKit/537.36 (KHTML, like Gecko) Chrome/138.0.0.0 Safari/537.36","WebKit","Chrome","138.0.0.0","Windows","10.0","https://app.prolific.com/","en-US,en;q=0.9","66c7397fb877280a42dcd495","687a360dabe5252b5ada7185","6889dac1e1dadc2f643e7c53","0","66c7397fb877280a42dcd495","0","2025-07-30T08:48:12.666Z","","","","","","","","","","","","","","","","","","","","","","","","","","","","","","","","","","","","","","","","","",""
"4071","","","","fullscreen","1","22978","0.0-1.0","56","1","2025-07-30 08:47:51","36c45c0696341be0efffe67d72a12abb","197.185.144.235","Mozilla/5.0 (Windows NT 10.0; Win64; x64) AppleWebKit/537.36 (KHTML, like Gecko) Chrome/138.0.0.0 Safari/537.36","WebKit","Chrome","138.0.0.0","Windows","10.0","https://app.prolific.com/","en-US,en;q=0.9","66c7397fb877280a42dcd495","687a360dabe5252b5ada7185","6889dac1e1dadc2f643e7c53","0","66c7397fb877280a42dcd495","0","","true","","","","","","","","","","","","","","","","","","","","","","","","","","","","","","","","","","","","","","","","",""
"65476","1753865363225"," <p style='font-size:1.1em;line-height:1.25'>Thank you for closing all other tabs.</p><p style='font-size:1.1em;line-height:1.25'>We will now invite you to fill in some questionnaires, before starting the game.<br>This will take about 5 minutes.<br></p><p style='font-size:1.1em;line-height:1.25'>Press the <strong>Next</strong> button to continue.</p>","0","custom-html-button-response","2","88456","0.0-2.0","56","1","2025-07-30 08:47:51","36c45c0696341be0efffe67d72a12abb","197.185.144.235","Mozilla/5.0 (Windows NT 10.0; Win64; x64) AppleWebKit/537.36 (KHTML, like Gecko) Chrome/138.0.0.0 Safari/537.36","WebKit","Chrome","138.0.0.0","Windows","10.0","https://app.prolific.com/","en-US,en;q=0.9","66c7397fb877280a42dcd495","687a360dabe5252b5ada7185","6889dac1e1dadc2f643e7c53","0","66c7397fb877280a42dcd495","0","2025-07-30T08:49:23.225Z","","","","","","","","","","","","","","","","","","","","","","","","","","","","","","","","","","","","","","","","","",""
"15451","","","{""assigned_sex"":""female""}","survey-multi-choice","3","103910","0.0-3.0-0.0","56","1","2025-07-30 08:47:51","36c45c0696341be0efffe67d72a12abb","197.185.144.235","Mozilla/5.0 (Windows NT 10.0; Win64; x64) AppleWebKit/537.36 (KHTML, like Gecko) Chrome/138.0.0.0 Safari/537.36","WebKit","Chrome","138.0.0.0","Windows","10.0","https://app.prolific.com/","en-US,en;q=0.9","66c7397fb877280a42dcd495","687a360dabe5252b5ada7185","6889dac1e1dadc2f643e7c53","0","66c7397fb877280a42dcd495","0","","","[0]","0","demographics","","","","","","","","","","","","","","","","","","","","","","","","","","","","","","","","","","","","","",""
"5563","1753865384244","<p style='font-size:1.1em;line-height:1.25'>In the following, we will perform a baseline assessment. This means that we will ask you a few questions relating to your experiences over the past month.<br></p><p style='font-size:1.1em;line-height:1.25'>Press the <strong>Next</strong> button to continue.</p>","0","custom-html-button-response","4","109476","0.0-4.0-0.0","56","1","2025-07-30 08:47:51","36c45c0696341be0efffe67d72a12abb","197.185.144.235","Mozilla/5.0 (Windows NT 10.0; Win64; x64) AppleWebKit/537.36 (KHTML, like Gecko) Chrome/138.0.0.0 Safari/537.36","WebKit","Chrome","138.0.0.0","Windows","10.0","https://app.prolific.com/","en-US,en;q=0.9","66c7397fb877280a42dcd495","687a360dabe5252b5ada7185","6889dac1e1dadc2f643e7c53","0","66c7397fb877280a42dcd495","0","2025-07-30T08:49:44.245Z","","","","","","","","","","","","","","","","","","","","","","","","","","","","","","","","","","","","","","","","","",""
"66939.29999999981","","","","survey-template","5","176421","0.0-4.0-1.0","56","1","2025-07-30 08:47:51","36c45c0696341be0efffe67d72a12abb","197.185.144.235","Mozilla/5.0 (Windows NT 10.0; Win64; x64) AppleWebKit/537.36 (KHTML, like Gecko) Chrome/138.0.0.0 Safari/537.36","WebKit","Chrome","138.0.0.0","Windows","10.0","https://app.prolific.com/","en-US,en;q=0.9","66c7397fb877280a42dcd495","687a360dabe5252b5ada7185","6889dac1e1dadc2f643e7c53","0","66c7397fb877280a42dcd495","0","2025-07-30T08:50:51.190Z","","","","pss","{""Q01"":""2"",""Q02"":""3"",""Q03"":""2"",""Q04"":""0"",""Q05"":""0"",""Q06"":""3"",""Q07"":""0"",""Q08"":""0"",""Q09"":""0"",""Q10"":""2""}","[0,1,2,3,4,5,6,7,8,9]","[""Q01"",""Q02"",""Q03"",""Q04"",""Q05"",""Q06"",""Q07"",""Q08"",""Q09"",""Q10"",""Q09""]","[5709.4000000003725,11922.700000000186,22803.599999999627,32500.799999999814,34058.09999999963,38045.700000000186,41051.799999999814,51100.40000000037,53079.200000000186,59559.799999999814,63147.700000000186]","[]","[0.20000000018626451,5709.4000000003725,11922.700000000186,18801.400000000373,20789.200000000186,22803.599999999627,32500.799999999814,34058.09999999963,36654.799999999814,38045.700000000186,41051.799999999814,48332.5,51100.40000000037,53079.200000000186,58219.59999999963,59559.799999999814,61850.700000000186,63147.700000000186,66937.20000000019]","0.4","0.5555555555555556","0","","","","","","","","","","","","","","","","","","","","","","","","","","","","",""
"3997","1753865455189","<p style='font-size:1.1em;line-height:1.25'>Thank you for your answers! Now we will ask you a few more questions relating to your feelings in the last 24 hours.<br></p><p style='font-size:1.1em;line-height:1.25'>Press the <strong>Next</strong> button to continue.</p>","0","custom-html-button-response","6","180420","0.0-4.0-2.0","56","1","2025-07-30 08:47:51","36c45c0696341be0efffe67d72a12abb","197.185.144.235","Mozilla/5.0 (Windows NT 10.0; Win64; x64) AppleWebKit/537.36 (KHTML, like Gecko) Chrome/138.0.0.0 Safari/537.36","WebKit","Chrome","138.0.0.0","Windows","10.0","https://app.prolific.com/","en-US,en;q=0.9","66c7397fb877280a42dcd495","687a360dabe5252b5ada7185","6889dac1e1dadc2f643e7c53","0","66c7397fb877280a42dcd495","0","2025-07-30T08:50:55.190Z","","","","","","","","","","","","","","","","","","","","","","","","","","","","","","","","","","","","","","","","","",""
"103622.70000000019","","","","survey-template","7","284052","0.0-4.0-3.0","56","1","2025-07-30 08:47:51","36c45c0696341be0efffe67d72a12abb","197.185.144.235","Mozilla/5.0 (Windows NT 10.0; Win64; x64) AppleWebKit/537.36 (KHTML, like Gecko) Chrome/138.0.0.0 Safari/537.36","WebKit","Chrome","138.0.0.0","Windows","10.0","https://app.prolific.com/","en-US,en;q=0.9","66c7397fb877280a42dcd495","687a360dabe5252b5ada7185","6889dac1e1dadc2f643e7c53","0","66c7397fb877280a42dcd495","0","2025-07-30T08:52:38.821Z","","","","drsp","{""Q01"":""0"",""Q02"":""0"",""Q03"":""0"",""Q04"":""0"",""Q05"":""0"",""Q06"":""0"",""Q07"":""0"",""Q08"":""0"",""Q09"":""0"",""Q10"":""0"",""Q11"":""0"",""Q12"":""0"",""Q13"":""5"",""Q14"":""2"",""Q15"":""0"",""Q16"":""0"",""Q17"":""4"",""Q18"":""0"",""Q19"":""5"",""Q20"":""3"",""Q21"":""0"",""Q22"":""0""}","[0,1,2,3,4,5,6,7,8,9,10,11,12,13,14,15,16,17,18,19,20,21]","[""Q01"",""Q02"",""Q03"",""Q04"",""Q05"",""Q06"",""Q07"",""Q08"",""Q09"",""Q10"",""Q11"",""Q12"",""Q13"",""Q14"",""Q16"",""Q17"",""Q18"",""Q19"",""Q20"",""Q21"",""Q22"",""Q15""]","[4272.299999999814,5513.9000000003725,6804.4000000003725,10776.700000000186,12967.299999999814,14909.799999999814,16660,18350.700000000186,20016.700000000186,30295.700000000186,34449,35991.5,39787.200000000186,51047.700000000186,57516.40000000037,61036.799999999814,64609.700000000186,73456.79999999981,83392.29999999981,90639,92306.70000000019,101315.09999999963]","[]","[0.2999999998137355,4272.299999999814,5513.9000000003725,6804.4000000003725,7866.5999999996275,9250.900000000373,10776.700000000186,12967.299999999814,14909.799999999814,16660,18350.700000000186,20016.700000000186,30295.700000000186,34449,35991.5,39787.200000000186,48657.5,49447.90000000037,51047.700000000186,57516.40000000037,61036.799999999814,64609.700000000186,73456.79999999981,83392.29999999981,90639,92306.70000000019,94736.5,101315.09999999963,103618.79999999981]","0.7727272727272727","0.09523809523809523","0","","","","","","","","","","","","","","","","","","","","","","","","","","","","",""
"10214.099999999627","","","","survey-template","8","294270","0.0-4.0-4.0","56","1","2025-07-30 08:47:51","36c45c0696341be0efffe67d72a12abb","197.185.144.235","Mozilla/5.0 (Windows NT 10.0; Win64; x64) AppleWebKit/537.36 (KHTML, like Gecko) Chrome/138.0.0.0 Safari/537.36","WebKit","Chrome","138.0.0.0","Windows","10.0","https://app.prolific.com/","en-US,en;q=0.9","66c7397fb877280a42dcd495","687a360dabe5252b5ada7185","6889dac1e1dadc2f643e7c53","0","66c7397fb877280a42dcd495","0","2025-07-30T08:52:49.039Z","","","","stress","{""Q01"":""0"",""Q02"":""5"",""Q03"":""0""}","[0,1,2]","[""Q01"",""Q02"",""Q03""]","[3643.9000000003725,5538.200000000186,8246.299999999814]","[]","[3643.9000000003725,5538.200000000186,6635.700000000186,8246.299999999814,10212.900000000373]","1","0","0","","","","","","","","","","","","","","","","","","","","","","","","","","","","",""
"30991","","","","instructions","9","325263","0.0-5.0-0.0","56","1","2025-07-30 08:47:51","36c45c0696341be0efffe67d72a12abb","197.185.144.235","Mozilla/5.0 (Windows NT 10.0; Win64; x64) AppleWebKit/537.36 (KHTML, like Gecko) Chrome/138.0.0.0 Safari/537.36","WebKit","Chrome","138.0.0.0","Windows","10.0","https://app.prolific.com/","en-US,en;q=0.9","66c7397fb877280a42dcd495","687a360dabe5252b5ada7185","6889dac1e1dadc2f643e7c53","0","66c7397fb877280a42dcd495","0","","","","","","","","","","","","","","","[{""page_index"":0,""viewing_time"":30991}]","","","","","","","","","","","","","","","","","","","","","","","","","","","",""
"7661","","<p>Before you start with this game please answer the following three questions yourself. </p>
  <p>Through this game, we measure several aspects of your cognitive performance, such as reaction times, multi-tasking capabilities </p>
  <p>and the ability to assess the situation you are in.</p>
  <p></p>
  <p><b>How good do you usually are in such tasks?</b></p>","74","html-slider-response","10","332927","0.0-6.0-0.0","56","1","2025-07-30 08:47:51","36c45c0696341be0efffe67d72a12abb","197.185.144.235","Mozilla/5.0 (Windows NT 10.0; Win64; x64) AppleWebKit/537.36 (KHTML, like Gecko) Chrome/138.0.0.0 Safari/537.36","WebKit","Chrome","138.0.0.0","Windows","10.0","https://app.prolific.com/","en-US,en;q=0.9","66c7397fb877280a42dcd495","687a360dabe5252b5ada7185","6889dac1e1dadc2f643e7c53","0","66c7397fb877280a42dcd495","0","2025-07-30T08:53:27.696Z","","","","PreSkillQ","","","","","","","","","","","50","","","","","","","","","","","","","","","","","","","","","","","","","","",""
"3903","","<div style=""width:500px;"">
  <p>How well do you think you will perform in this task compared to other participants?</p>
  </div>","87","html-slider-response","11","336832","0.0-6.0-1.0","56","1","2025-07-30 08:47:51","36c45c0696341be0efffe67d72a12abb","197.185.144.235","Mozilla/5.0 (Windows NT 10.0; Win64; x64) AppleWebKit/537.36 (KHTML, like Gecko) Chrome/138.0.0.0 Safari/537.36","WebKit","Chrome","138.0.0.0","Windows","10.0","https://app.prolific.com/","en-US,en;q=0.9","66c7397fb877280a42dcd495","687a360dabe5252b5ada7185","6889dac1e1dadc2f643e7c53","0","66c7397fb877280a42dcd495","0","2025-07-30T08:53:31.601Z","","","","PrePerfQ","","","","","","","","","","","50","","","","","","","","","","","","","","","","","","","","","","","","","","",""
"5744","","<div style=""width:500px;"">
  <p>What best describes how you currently feel?</p>
  </div>","92","html-slider-response","12","342578","0.0-6.0-2.0","56","1","2025-07-30 08:47:51","36c45c0696341be0efffe67d72a12abb","197.185.144.235","Mozilla/5.0 (Windows NT 10.0; Win64; x64) AppleWebKit/537.36 (KHTML, like Gecko) Chrome/138.0.0.0 Safari/537.36","WebKit","Chrome","138.0.0.0","Windows","10.0","https://app.prolific.com/","en-US,en;q=0.9","66c7397fb877280a42dcd495","687a360dabe5252b5ada7185","6889dac1e1dadc2f643e7c53","0","66c7397fb877280a42dcd495","0","2025-07-30T08:53:37.347Z","","","","PreMotivationQ","","","","","","","","","","","50","","","","","","","","","","","","","","","","","","","","","","","","","","",""
"","","","","ctl-task-cpt","13","362609","0.0-7.0-0.0","56","1","2025-07-30 08:47:51","36c45c0696341be0efffe67d72a12abb","197.185.144.235","Mozilla/5.0 (Windows NT 10.0; Win64; x64) AppleWebKit/537.36 (KHTML, like Gecko) Chrome/138.0.0.0 Safari/537.36","WebKit","Chrome","138.0.0.0","Windows","10.0","https://app.prolific.com/","en-US,en;q=0.9","66c7397fb877280a42dcd495","687a360dabe5252b5ada7185","6889dac1e1dadc2f643e7c53","0","66c7397fb877280a42dcd495","0","2025-07-30T08:53:57.378Z","","","","","","","","","","","","","","","","win-only","2","g1:SE,g2:NW","1","1","0","349182.3","7941.9","12947.1","17023.6","1","4","4","6","1","-1","-1","0","0","0","5005.2","3000","-2980","[""down"",""right""]","{""num_key_presses"":0,""num_perfect"":0,""num_errors"":0,""num_randdir"":0,""num_randdir_good_moves"":0,""num_whilered"":0,""num_whileblue"":0,""num_blue"":0,""num_good_moves"":0}","[297.22232142857143,296.12857142857143,1.1,297.22232142857143,296.12857142857143,100.3,297.22232142857143,296.12857142857143,205.4,297.22232142857143,296.12857142857143,308.7,297.22232142857143,296.12857142857143,409,297.22232142857143,296.12857142857143,514.5,297.22232142857143,296.12857142857143,614.6,297.22232142857143,296.12857142857143,719.5,297.22232142857143,296.12857142857143,824.8,297.22232142857143,296.12857142857143,929,297.22232142857143,296.12857142857143,1034.5,299.22232142857143,296.12857142857143,1135.8,316.22232142857143,319.12857142857143,1239,350.22232142857143,358.12857142857143,1343.4,351.22232142857143,360.12857142857143,1443.9,351.22232142857143,360.12857142857143,1544.4,351.22232142857143,359.12857142857143,1645,351.22232142857143,359.12857142857143,1749.6,351.22232142857143,359.12857142857143,1856.5,351.22232142857143,359.12857142857143,1959.6,351.22232142857143,359.12857142857143,2059.9,351.22232142857143,359.12857142857143,2164.8,351.22232142857143,359.12857142857143,2269.5,351.22232142857143,359.12857142857143,2376.3,351.22232142857143,359.12857142857143,2479.8,351.22232142857143,359.12857142857143,2585,351.22232142857143,359.12857142857143,2689.5,351.22232142857143,359.12857142857143,2790.3,351.22232142857143,359.12857142857143,2894.3,351.22232142857143,359.12857142857143,2994.9,351.22232142857143,359.12857142857143,3095.8,351.22232142857143,359.12857142857143,3199.7,351.22232142857143,359.12857142857143,3304.8,351.22232142857143,359.12857142857143,3409.4,351.22232142857143,359.12857142857143,3510.5,351.22232142857143,359.12857142857143,3615.3,351.22232142857143,359.12857142857143,3719.2,351.22232142857143,359.12857142857143,3819.2,351.22232142857143,359.12857142857143,3920.7,351.22232142857143,359.12857142857143,4025.2,351.22232142857143,359.12857142857143,4129.8,351.22232142857143,359.12857142857143,4236.5,351.22232142857143,359.12857142857143,4339.2,351.22232142857143,359.12857142857143,4439.6,351.22232142857143,359.12857142857143,4543.9,351.22232142857143,359.12857142857143,4649,351.22232142857143,359.12857142857143,4749.2,351.22232142857143,359.12857142857143,4849.3,351.22232142857143,359.12857142857143,4953.9]","[]"
"7561","","<div style=""width:500px;"">
  <p>What determined the result of this run?</p>
  </div>","41","html-slider-response","14","370171","0.0-7.0-1.0","56","1","2025-07-30 08:47:51","36c45c0696341be0efffe67d72a12abb","197.185.144.235","Mozilla/5.0 (Windows NT 10.0; Win64; x64) AppleWebKit/537.36 (KHTML, like Gecko) Chrome/138.0.0.0 Safari/537.36","WebKit","Chrome","138.0.0.0","Windows","10.0","https://app.prolific.com/","en-US,en;q=0.9","66c7397fb877280a42dcd495","687a360dabe5252b5ada7185","6889dac1e1dadc2f643e7c53","0","66c7397fb877280a42dcd495","0","2025-07-30T08:54:04.941Z","","","","AttribQ","","","","","","","","","","","50","","","","","","","","","","","","","","","","","","","","","","","","","","",""
"4907","","<div style=""width:500px;"">
  <p>How much control did you have over the ball?</p>
  </div>","32","html-slider-response","15","375081","0.0-7.0-2.0","56","1","2025-07-30 08:47:51","36c45c0696341be0efffe67d72a12abb","197.185.144.235","Mozilla/5.0 (Windows NT 10.0; Win64; x64) AppleWebKit/537.36 (KHTML, like Gecko) Chrome/138.0.0.0 Safari/537.36","WebKit","Chrome","138.0.0.0","Windows","10.0","https://app.prolific.com/","en-US,en;q=0.9","66c7397fb877280a42dcd495","687a360dabe5252b5ada7185","6889dac1e1dadc2f643e7c53","0","66c7397fb877280a42dcd495","0","2025-07-30T08:54:09.850Z","","","","ControlQ","","","","","","","","","","","50","","","","","","","","","","","","","","","","","","","","","","","","","","",""
"5199","","<div style=""width:500px;"">
  <p>How would you describe your current emotional state?</p>
  </div>","63","html-slider-response","16","380282","0.0-7.0-3.0","56","1","2025-07-30 08:47:51","36c45c0696341be0efffe67d72a12abb","197.185.144.235","Mozilla/5.0 (Windows NT 10.0; Win64; x64) AppleWebKit/537.36 (KHTML, like Gecko) Chrome/138.0.0.0 Safari/537.36","WebKit","Chrome","138.0.0.0","Windows","10.0","https://app.prolific.com/","en-US,en;q=0.9","66c7397fb877280a42dcd495","687a360dabe5252b5ada7185","6889dac1e1dadc2f643e7c53","0","66c7397fb877280a42dcd495","0","2025-07-30T08:54:15.051Z","","","","StressQ","","","","","","","","","","","50","","","","","","","","","","","","","","","","","","","","","","","","","","",""
"3874","","<div style=""width:500px;"">
  <p>What best describes how you currently feel?</p>
  </div>","66","html-slider-response","17","384158","0.0-7.0-4.0","56","1","2025-07-30 08:47:51","36c45c0696341be0efffe67d72a12abb","197.185.144.235","Mozilla/5.0 (Windows NT 10.0; Win64; x64) AppleWebKit/537.36 (KHTML, like Gecko) Chrome/138.0.0.0 Safari/537.36","WebKit","Chrome","138.0.0.0","Windows","10.0","https://app.prolific.com/","en-US,en;q=0.9","66c7397fb877280a42dcd495","687a360dabe5252b5ada7185","6889dac1e1dadc2f643e7c53","0","66c7397fb877280a42dcd495","0","2025-07-30T08:54:18.927Z","","","","MotivationQ","","","","","","","","","","","50","","","","","","","","","","","","","","","","","","","","","","","","","","",""
"","","","","ctl-task-cpt","18","409992","0.0-7.0-0.1","56","1","2025-07-30 08:47:51","36c45c0696341be0efffe67d72a12abb","197.185.144.235","Mozilla/5.0 (Windows NT 10.0; Win64; x64) AppleWebKit/537.36 (KHTML, like Gecko) Chrome/138.0.0.0 Safari/537.36","WebKit","Chrome","138.0.0.0","Windows","10.0","https://app.prolific.com/","en-US,en;q=0.9","66c7397fb877280a42dcd495","687a360dabe5252b5ada7185","6889dac1e1dadc2f643e7c53","0","66c7397fb877280a42dcd495","0","2025-07-30T08:54:44.762Z","","","","","","","","","","","","","","","","win-only","2","g1:SE,g2:NW","0.9","2","0","390760.9","4140.2","9141.1","22816.7","1","4","8","6","2","-8","-8","0","0","0","5000.8","3000","-2995","[""left"",""up""]","{""num_key_presses"":4,""num_perfect"":4,""num_errors"":0,""num_randdir"":0,""num_randdir_good_moves"":0,""num_whilered"":0,""num_whileblue"":0,""num_blue"":0,""num_good_moves"":4}","[296.22232142857143,300.12857142857143,0.4,296.22232142857143,300.12857142857143,101.9,296.22232142857143,300.12857142857143,205.7,296.22232142857143,300.12857142857143,307.6,296.22232142857143,300.12857142857143,411,296.22232142857143,300.12857142857143,516.8,296.22232142857143,300.12857142857143,620.8,296.22232142857143,300.12857142857143,725.7,296.22232142857143,300.12857142857143,826.2,296.22232142857143,300.12857142857143,926.2,296.22232142857143,300.12857142857143,1027.7,296.22232142857143,300.12857142857143,1130.8,296.22232142857143,300.12857142857143,1230.8,296.22232142857143,300.12857142857143,1332.2,296.22232142857143,300.12857142857143,1435.5,296.22232142857143,300.12857142857143,1536.5,296.22232142857143,300.12857142857143,1640.9,296.22232142857143,300.12857142857143,1746.5,296.22232142857143,300.12857142857143,1846.8,296.22232142857143,300.12857142857143,1950.9,296.22232142857143,300.12857142857143,2051,296.22232142857143,300.12857142857143,2155.6,296.22232142857143,300.12857142857143,2256.9,296.22232142857143,300.12857142857143,2360.2,296.22232142857143,300.12857142857143,2460.6,296.22232142857143,300.12857142857143,2566,296.22232142857143,300.12857142857143,2669.5,296.22232142857143,300.12857142857143,2770.9,296.22232142857143,300.12857142857143,2876,296.22232142857143,300.12857142857143,2981,296.22232142857143,300.12857142857143,3082.6,296.22232142857143,300.12857142857143,3185.6,296.22232142857143,300.12857142857143,3286.7,296.22232142857143,300.12857142857143,3389,296.22232142857143,300.12857142857143,3491.9,296.22232142857143,300.12857142857143,3595.6,296.22232142857143,300.12857142857143,3696.9,296.22232142857143,300.12857142857143,3800.6,296.22232142857143,300.12857142857143,3901,296.22232142857143,300.12857142857143,4004.9,296.22232142857143,300.12857142857143,4105.8,296.22232142857143,300.12857142857143,4206.6,296.22232142857143,300.12857142857143,4306.9,296.22232142857143,300.12857142857143,4411.3,296.22232142857143,300.12857142857143,4515.8,296.22232142857143,300.12857142857143,4616.9,296.22232142857143,300.12857142857143,4721,296.22232142857143,300.12857142857143,4827,296.22232142857143,300.12857142857143,4930.2]","[1594.4,1594.4,1000,0,594.4,""smooth"",""up"",""up"",""good_move"",4942.6,3347.7,2380.9,1594.9,966.8,""smooth"",""up"",""up"",""good_move"",8078.7,3135.3,2501.6,4943.4,633.7,""smooth"",""left"",""left"",""good_move"",10601.3,2522,1984.8,8079.3,537.2,""smooth"",""up"",""up"",""good_move""]"
"3441","","<div style=""width:500px;"">
  <p>What determined the result of this run?</p>
  </div>","60","html-slider-response","19","413436","0.0-7.0-1.1","56","1","2025-07-30 08:47:51","36c45c0696341be0efffe67d72a12abb","197.185.144.235","Mozilla/5.0 (Windows NT 10.0; Win64; x64) AppleWebKit/537.36 (KHTML, like Gecko) Chrome/138.0.0.0 Safari/537.36","WebKit","Chrome","138.0.0.0","Windows","10.0","https://app.prolific.com/","en-US,en;q=0.9","66c7397fb877280a42dcd495","687a360dabe5252b5ada7185","6889dac1e1dadc2f643e7c53","0","66c7397fb877280a42dcd495","0","2025-07-30T08:54:48.206Z","","","","AttribQ","","","","","","","","","","","50","","","","","","","","","","","","","","","","","","","","","","","","","","",""
"3597","","<div style=""width:500px;"">
  <p>How much control did you have over the ball?</p>
  </div>","61","html-slider-response","20","417036","0.0-7.0-2.1","56","1","2025-07-30 08:47:51","36c45c0696341be0efffe67d72a12abb","197.185.144.235","Mozilla/5.0 (Windows NT 10.0; Win64; x64) AppleWebKit/537.36 (KHTML, like Gecko) Chrome/138.0.0.0 Safari/537.36","WebKit","Chrome","138.0.0.0","Windows","10.0","https://app.prolific.com/","en-US,en;q=0.9","66c7397fb877280a42dcd495","687a360dabe5252b5ada7185","6889dac1e1dadc2f643e7c53","0","66c7397fb877280a42dcd495","0","2025-07-30T08:54:51.805Z","","","","ControlQ","","","","","","","","","","","50","","","","","","","","","","","","","","","","","","","","","","","","","","",""
"6243","","<div style=""width:500px;"">
  <p>How would you describe your current emotional state?</p>
  </div>","34","html-slider-response","21","423281","0.0-7.0-3.1","56","1","2025-07-30 08:47:51","36c45c0696341be0efffe67d72a12abb","197.185.144.235","Mozilla/5.0 (Windows NT 10.0; Win64; x64) AppleWebKit/537.36 (KHTML, like Gecko) Chrome/138.0.0.0 Safari/537.36","WebKit","Chrome","138.0.0.0","Windows","10.0","https://app.prolific.com/","en-US,en;q=0.9","66c7397fb877280a42dcd495","687a360dabe5252b5ada7185","6889dac1e1dadc2f643e7c53","0","66c7397fb877280a42dcd495","0","2025-07-30T08:54:58.050Z","","","","StressQ","","","","","","","","","","","50","","","","","","","","","","","","","","","","","","","","","","","","","","",""
"6587","","<div style=""width:500px;"">
  <p>What best describes how you currently feel?</p>
  </div>","73","html-slider-response","22","429870","0.0-7.0-4.1","56","1","2025-07-30 08:47:51","36c45c0696341be0efffe67d72a12abb","197.185.144.235","Mozilla/5.0 (Windows NT 10.0; Win64; x64) AppleWebKit/537.36 (KHTML, like Gecko) Chrome/138.0.0.0 Safari/537.36","WebKit","Chrome","138.0.0.0","Windows","10.0","https://app.prolific.com/","en-US,en;q=0.9","66c7397fb877280a42dcd495","687a360dabe5252b5ada7185","6889dac1e1dadc2f643e7c53","0","66c7397fb877280a42dcd495","0","2025-07-30T08:55:04.639Z","","","","MotivationQ","","","","","","","","","","","50","","","","","","","","","","","","","","","","","","","","","","","","","","",""
"","","","","ctl-task-cpt","23","455053","0.0-7.0-0.2","56","1","2025-07-30 08:47:51","36c45c0696341be0efffe67d72a12abb","197.185.144.235","Mozilla/5.0 (Windows NT 10.0; Win64; x64) AppleWebKit/537.36 (KHTML, like Gecko) Chrome/138.0.0.0 Safari/537.36","WebKit","Chrome","138.0.0.0","Windows","10.0","https://app.prolific.com/","en-US,en;q=0.9","66c7397fb877280a42dcd495","687a360dabe5252b5ada7185","6889dac1e1dadc2f643e7c53","0","66c7397fb877280a42dcd495","0","2025-07-30T08:55:29.822Z","","","","","","","","","","","","","","","","win-only","2","g1:SE,g2:NW","0.8","3","0","436474.3","2661.2","7662.1","22160.5","1","4","4","6","1","-1","-1","0","0","0","5000.9","3000","-2915","[""down"",""right""]","{""num_key_presses"":3,""num_perfect"":3,""num_errors"":0,""num_randdir"":0,""num_randdir_good_moves"":0,""num_whilered"":0,""num_whileblue"":0,""num_blue"":1,""num_good_moves"":3}","[291.22232142857143,293.12857142857143,0.4,291.22232142857143,293.12857142857143,100,291.22232142857143,293.12857142857143,204.6,291.22232142857143,293.12857142857143,310.2,291.22232142857143,293.12857142857143,414.7,291.22232142857143,293.12857142857143,516.2,291.22232142857143,293.12857142857143,619.7,291.22232142857143,293.12857142857143,720,291.22232142857143,293.12857142857143,824.3,291.22232142857143,293.12857142857143,925,291.22232142857143,293.12857142857143,1030.8,291.22232142857143,293.12857142857143,1132.3,291.22232142857143,293.12857142857143,1239.2,291.22232142857143,293.12857142857143,1339.5,291.22232142857143,293.12857142857143,1439.5,291.22232142857143,293.12857142857143,1539.9,291.22232142857143,293.12857142857143,1645.1,291.22232142857143,293.12857142857143,1750,291.22232142857143,293.12857142857143,1853,291.22232142857143,293.12857142857143,1955,291.22232142857143,293.12857142857143,2061.1,291.22232142857143,293.12857142857143,2164.5,291.22232142857143,293.12857142857143,2265.1,291.22232142857143,293.12857142857143,2365.1,291.22232142857143,293.12857142857143,2472.3,291.22232142857143,293.12857142857143,2574.5,291.22232142857143,293.12857142857143,2679.9,291.22232142857143,293.12857142857143,2780.1,291.22232142857143,293.12857142857143,2884.5,291.22232142857143,293.12857142857143,2984.6,291.22232142857143,293.12857142857143,3085.4,291.22232142857143,293.12857142857143,3193.1,291.22232142857143,293.12857142857143,3293.9,307.22232142857143,316.12857142857143,3395.5,325.22232142857143,328.12857142857143,3498.9,327.22232142857143,330.12857142857143,3599.5,327.22232142857143,330.12857142857143,3704.9,329.22232142857143,330.12857142857143,3811.7,329.22232142857143,330.12857142857143,3914.9,329.22232142857143,330.12857142857143,4015.2,329.22232142857143,330.12857142857143,4115.9,329.22232142857143,330.12857142857143,4219.4,329.22232142857143,330.12857142857143,4319.5,329.22232142857143,330.12857142857143,4424.4,329.22232142857143,330.12857142857143,4524.8,329.22232142857143,330.12857142857143,4629.4,329.22232142857143,330.12857142857143,4729.9,329.22232142857143,330.12857142857143,4835.1,329.22232142857143,330.12857142857143,4939.2]","[2406,2406,1000,0,1406,""smooth"",""right"",""right"",""good_move"",5685.6,3278.4,2433,2407.3,845.3,""smooth"",""right"",""right"",""good_move"",11881.4,6195.5,2717.6,8708.4,455.4,""smooth"",""down"",""down"",""good_move""]"
"19654","","<div style=""width:500px;"">
  <p>What determined the result of this run?</p>
  </div>","61","html-slider-response","24","474709","0.0-7.0-1.2","56","1","2025-07-30 08:47:51","36c45c0696341be0efffe67d72a12abb","197.185.144.235","Mozilla/5.0 (Windows NT 10.0; Win64; x64) AppleWebKit/537.36 (KHTML, like Gecko) Chrome/138.0.0.0 Safari/537.36","WebKit","Chrome","138.0.0.0","Windows","10.0","https://app.prolific.com/","en-US,en;q=0.9","66c7397fb877280a42dcd495","687a360dabe5252b5ada7185","6889dac1e1dadc2f643e7c53","0","66c7397fb877280a42dcd495","0","2025-07-30T08:55:49.478Z","","","","AttribQ","","","","","","","","","","","50","","","","","","","","","","","","","","","","","","","","","","","","","","",""
"6623","","<div style=""width:500px;"">
  <p>How much control did you have over the ball?</p>
  </div>","36","html-slider-response","25","481335","0.0-7.0-2.2","56","1","2025-07-30 08:47:51","36c45c0696341be0efffe67d72a12abb","197.185.144.235","Mozilla/5.0 (Windows NT 10.0; Win64; x64) AppleWebKit/537.36 (KHTML, like Gecko) Chrome/138.0.0.0 Safari/537.36","WebKit","Chrome","138.0.0.0","Windows","10.0","https://app.prolific.com/","en-US,en;q=0.9","66c7397fb877280a42dcd495","687a360dabe5252b5ada7185","6889dac1e1dadc2f643e7c53","0","66c7397fb877280a42dcd495","0","2025-07-30T08:55:56.104Z","","","","ControlQ","","","","","","","","","","","50","","","","","","","","","","","","","","","","","","","","","","","","","","",""
"13978","","<div style=""width:500px;"">
  <p>How would you describe your current emotional state?</p>
  </div>","34","html-slider-response","26","495315","0.0-7.0-3.2","56","1","2025-07-30 08:47:51","36c45c0696341be0efffe67d72a12abb","197.185.144.235","Mozilla/5.0 (Windows NT 10.0; Win64; x64) AppleWebKit/537.36 (KHTML, like Gecko) Chrome/138.0.0.0 Safari/537.36","WebKit","Chrome","138.0.0.0","Windows","10.0","https://app.prolific.com/","en-US,en;q=0.9","66c7397fb877280a42dcd495","687a360dabe5252b5ada7185","6889dac1e1dadc2f643e7c53","0","66c7397fb877280a42dcd495","0","2025-07-30T08:56:10.084Z","","","","StressQ","","","","","","","","","","","50","","","","","","","","","","","","","","","","","","","","","","","","","","",""
"4536","","<div style=""width:500px;"">
  <p>What best describes how you currently feel?</p>
  </div>","68","html-slider-response","27","499853","0.0-7.0-4.2","56","1","2025-07-30 08:47:51","36c45c0696341be0efffe67d72a12abb","197.185.144.235","Mozilla/5.0 (Windows NT 10.0; Win64; x64) AppleWebKit/537.36 (KHTML, like Gecko) Chrome/138.0.0.0 Safari/537.36","WebKit","Chrome","138.0.0.0","Windows","10.0","https://app.prolific.com/","en-US,en;q=0.9","66c7397fb877280a42dcd495","687a360dabe5252b5ada7185","6889dac1e1dadc2f643e7c53","0","66c7397fb877280a42dcd495","0","2025-07-30T08:56:14.622Z","","","","MotivationQ","","","","","","","","","","","50","","","","","","","","","","","","","","","","","","","","","","","","","","",""
"","","","","ctl-task-cpt","28","539339","0.0-7.0-0.3","56","1","2025-07-30 08:47:51","36c45c0696341be0efffe67d72a12abb","197.185.144.235","Mozilla/5.0 (Windows NT 10.0; Win64; x64) AppleWebKit/537.36 (KHTML, like Gecko) Chrome/138.0.0.0 Safari/537.36","WebKit","Chrome","138.0.0.0","Windows","10.0","https://app.prolific.com/","en-US,en;q=0.9","66c7397fb877280a42dcd495","687a360dabe5252b5ada7185","6889dac1e1dadc2f643e7c53","0","66c7397fb877280a42dcd495","0","2025-07-30T08:56:54.108Z","","","","","","","","","","","","","","","","win-only","3","g1:SW,g2:NE","0.7","4","0","506457.6","4093.4","9096.4","36461","1","4","8","6","2","8","6","6","0","0.045454545454545456","5003","3000","800","[""up"",""right""]","{""num_key_presses"":7,""num_perfect"":3,""num_errors"":2,""num_randdir"":2,""num_randdir_good_moves"":2,""num_whilered"":0,""num_whileblue"":1,""num_blue"":3,""num_good_moves"":6}","[293.22232142857143,299.12857142857143,0.4,293.22232142857143,299.12857142857143,102.4,293.22232142857143,299.12857142857143,202.7,293.22232142857143,299.12857142857143,303.9,293.22232142857143,299.12857142857143,407.1,293.22232142857143,299.12857142857143,512.7,293.22232142857143,299.12857142857143,615.6,293.22232142857143,299.12857142857143,718.6,293.22232142857143,299.12857142857143,822.1,293.22232142857143,299.12857142857143,929.8,293.22232142857143,299.12857142857143,1034.2,293.22232142857143,299.12857142857143,1138.2,292.22232142857143,302.12857142857143,1243.5,290.22232142857143,311.12857142857143,1347.5,290.22232142857143,324.12857142857143,1459.6,291.22232142857143,333.12857142857143,1562.3,291.22232142857143,336.12857142857143,1673.5,291.22232142857143,336.12857142857143,1775,291.22232142857143,336.12857142857143,1876.9,291.22232142857143,336.12857142857143,1977.4,291.22232142857143,336.12857142857143,2077.6,291.22232142857143,336.12857142857143,2178.7,291.22232142857143,336.12857142857143,2282,291.22232142857143,336.12857142857143,2382.8,291.22232142857143,336.12857142857143,2487.6,291.22232142857143,336.12857142857143,2595.2,291.22232142857143,336.12857142857143,2697.4,291.22232142857143,336.12857142857143,2797.5,291.22232142857143,336.12857142857143,2897.9,291.22232142857143,336.12857142857143,3001.9,291.22232142857143,336.12857142857143,3103.9,291.22232142857143,336.12857142857143,3215.2,291.22232142857143,336.12857142857143,3315.5,291.22232142857143,336.12857142857143,3417.3,291.22232142857143,336.12857142857143,3527,291.22232142857143,336.12857142857143,3627,291.22232142857143,336.12857142857143,3731.4,291.22232142857143,336.12857142857143,3832.4,291.22232142857143,336.12857142857143,3933.9,291.22232142857143,336.12857142857143,4034,291.22232142857143,336.12857142857143,4137.1,291.22232142857143,336.12857142857143,4246.8,291.22232142857143,336.12857142857143,4347.6,291.22232142857143,336.12857142857143,4454.8,291.22232142857143,336.12857142857143,4554.9,291.22232142857143,336.12857142857143,4657.4,291.22232142857143,336.12857142857143,4757.7,291.22232142857143,336.12857142857143,4857.9,291.22232142857143,336.12857142857143,4967.9]","[407,407,1000,0,-593,""error"",""-"",""-"",""no_move"",3831.3,3424,1951.5,1408.1,471.7,""oops"",""right"",""up"",""good_move"",8067.4,4235.5,3817.5,3831.9,418,""smooth"",""up"",""up"",""good_move"",11593.8,3526.2,2804.4,8067.6,721.8,""smooth"",""up"",""up"",""good_move"",17558.9,5964.6,2147.8,15057,354.1,""while_blue"",""right"",""right"",""good_move"",20799.4,3240.2,2685.8,17559.2,554.4,""oops"",""right"",""right"",""good_move"",27259.5,6459.8,2753.6,24100,405.9,""smooth"",""right"",""right"",""good_move""]"
"6575","","<div style=""width:500px;"">
  <p>What determined the result of this run?</p>
  </div>","60","html-slider-response","29","545917","0.0-7.0-1.3","56","1","2025-07-30 08:47:51","36c45c0696341be0efffe67d72a12abb","197.185.144.235","Mozilla/5.0 (Windows NT 10.0; Win64; x64) AppleWebKit/537.36 (KHTML, like Gecko) Chrome/138.0.0.0 Safari/537.36","WebKit","Chrome","138.0.0.0","Windows","10.0","https://app.prolific.com/","en-US,en;q=0.9","66c7397fb877280a42dcd495","687a360dabe5252b5ada7185","6889dac1e1dadc2f643e7c53","0","66c7397fb877280a42dcd495","0","2025-07-30T08:57:00.686Z","","","","AttribQ","","","","","","","","","","","50","","","","","","","","","","","","","","","","","","","","","","","","","","",""
"10442","","<div style=""width:500px;"">
  <p>How much control did you have over the ball?</p>
  </div>","82","html-slider-response","30","556361","0.0-7.0-2.3","56","1","2025-07-30 08:47:51","36c45c0696341be0efffe67d72a12abb","197.185.144.235","Mozilla/5.0 (Windows NT 10.0; Win64; x64) AppleWebKit/537.36 (KHTML, like Gecko) Chrome/138.0.0.0 Safari/537.36","WebKit","Chrome","138.0.0.0","Windows","10.0","https://app.prolific.com/","en-US,en;q=0.9","66c7397fb877280a42dcd495","687a360dabe5252b5ada7185","6889dac1e1dadc2f643e7c53","0","66c7397fb877280a42dcd495","0","2025-07-30T08:57:11.131Z","","","","ControlQ","","","","","","","","","","","50","","","","","","","","","","","","","","","","","","","","","","","","","","",""
"12403","","<div style=""width:500px;"">
  <p>How would you describe your current emotional state?</p>
  </div>","64","html-slider-response","31","568767","0.0-7.0-3.3","56","1","2025-07-30 08:47:51","36c45c0696341be0efffe67d72a12abb","197.185.144.235","Mozilla/5.0 (Windows NT 10.0; Win64; x64) AppleWebKit/537.36 (KHTML, like Gecko) Chrome/138.0.0.0 Safari/537.36","WebKit","Chrome","138.0.0.0","Windows","10.0","https://app.prolific.com/","en-US,en;q=0.9","66c7397fb877280a42dcd495","687a360dabe5252b5ada7185","6889dac1e1dadc2f643e7c53","0","66c7397fb877280a42dcd495","0","2025-07-30T08:57:23.536Z","","","","StressQ","","","","","","","","","","","50","","","","","","","","","","","","","","","","","","","","","","","","","","",""
"4127","","<div style=""width:500px;"">
  <p>What best describes how you currently feel?</p>
  </div>","58","html-slider-response","32","572897","0.0-7.0-4.3","56","1","2025-07-30 08:47:51","36c45c0696341be0efffe67d72a12abb","197.185.144.235","Mozilla/5.0 (Windows NT 10.0; Win64; x64) AppleWebKit/537.36 (KHTML, like Gecko) Chrome/138.0.0.0 Safari/537.36","WebKit","Chrome","138.0.0.0","Windows","10.0","https://app.prolific.com/","en-US,en;q=0.9","66c7397fb877280a42dcd495","687a360dabe5252b5ada7185","6889dac1e1dadc2f643e7c53","0","66c7397fb877280a42dcd495","0","2025-07-30T08:57:27.667Z","","","","MotivationQ","","","","","","","","","","","50","","","","","","","","","","","","","","","","","","","","","","","","","","",""
"","","","","ctl-task-cpt","33","597974","0.0-7.0-0.4","56","1","2025-07-30 08:47:51","36c45c0696341be0efffe67d72a12abb","197.185.144.235","Mozilla/5.0 (Windows NT 10.0; Win64; x64) AppleWebKit/537.36 (KHTML, like Gecko) Chrome/138.0.0.0 Safari/537.36","WebKit","Chrome","138.0.0.0","Windows","10.0","https://app.prolific.com/","en-US,en;q=0.9","66c7397fb877280a42dcd495","687a360dabe5252b5ada7185","6889dac1e1dadc2f643e7c53","0","66c7397fb877280a42dcd495","0","2025-07-30T08:57:52.743Z","","","","","","","","","","","","","","","","win-only","0","g1:NW,g2:SE","0.6","5","0","579503","2674.5","7675.8","22056.6","1","4","4","6","1","1","0","6","6","0.045454545454545456","5001.3","3000","1290","[""left"",""up""]","{""num_key_presses"":4,""num_perfect"":3,""num_errors"":1,""num_randdir"":0,""num_randdir_good_moves"":0,""num_whilered"":0,""num_whileblue"":1,""num_blue"":2,""num_good_moves"":4}","[292.22232142857143,298.12857142857143,0.3,292.22232142857143,298.12857142857143,109.4,292.22232142857143,298.12857142857143,211.1,292.22232142857143,298.12857142857143,312,292.22232142857143,298.12857142857143,424.4,292.22232142857143,298.12857142857143,527,292.22232142857143,298.12857142857143,631.8,292.22232142857143,298.12857142857143,736.5,292.22232142857143,298.12857142857143,836.5,292.22232142857143,298.12857142857143,936.7,292.22232142857143,298.12857142857143,1041.7,292.22232142857143,298.12857142857143,1142.2,292.22232142857143,298.12857142857143,1246.3,292.22232142857143,298.12857142857143,1347.6,292.22232142857143,298.12857142857143,1451.1,292.22232142857143,298.12857142857143,1552.7,292.22232142857143,298.12857142857143,1656.7,292.22232142857143,298.12857142857143,1763.1,292.22232142857143,298.12857142857143,1866.3,292.22232142857143,298.12857142857143,1967.4,292.22232142857143,298.12857142857143,2075.1,292.22232142857143,298.12857142857143,2177.4,292.22232142857143,298.12857142857143,2284.2,292.22232142857143,298.12857142857143,2386.1,292.22232142857143,298.12857142857143,2486.2,292.22232142857143,298.12857142857143,2586.8,292.22232142857143,298.12857142857143,2700.5,292.22232142857143,298.12857142857143,2801.8,292.22232142857143,298.12857142857143,2905.8,292.22232142857143,298.12857142857143,3006.8,290.22232142857143,296.12857142857143,3111.7,290.22232142857143,296.12857142857143,3212,290.22232142857143,289.12857142857143,3326.1,290.22232142857143,285.12857142857143,3426.6,291.22232142857143,280.12857142857143,3526.8,291.22232142857143,280.12857142857143,3631.4,291.22232142857143,280.12857142857143,3736.7,291.22232142857143,280.12857142857143,3840.1,291.22232142857143,280.12857142857143,3941.1,291.22232142857143,280.12857142857143,4046.7,291.22232142857143,280.12857142857143,4147,291.22232142857143,280.12857142857143,4247,291.22232142857143,280.12857142857143,4357,291.22232142857143,280.12857142857143,4462.9,291.22232142857143,280.12857142857143,4576.4,291.22232142857143,280.12857142857143,4678.6,291.22232142857143,280.12857142857143,4781,291.22232142857143,280.12857142857143,4881.2,291.22232142857143,280.12857142857143,4981.2]","[2147.4,2147.4,1000,0,1147.4,""smooth"",""left"",""left"",""good_move"",5184.7,3036.5,2523.6,2148.2,512.9,""smooth"",""left"",""left"",""good_move"",8389.5,3204.5,2718.9,5185,485.6,""smooth"",""up"",""up"",""good_move"",14269.1,5879.1,1973,11939.3,356.8,""while_blue"",""up"",""up"",""good_move""]"
"7513","","<div style=""width:500px;"">
  <p>What determined the result of this run?</p>
  </div>","32","html-slider-response","34","605489","0.0-7.0-1.4","56","1","2025-07-30 08:47:51","36c45c0696341be0efffe67d72a12abb","197.185.144.235","Mozilla/5.0 (Windows NT 10.0; Win64; x64) AppleWebKit/537.36 (KHTML, like Gecko) Chrome/138.0.0.0 Safari/537.36","WebKit","Chrome","138.0.0.0","Windows","10.0","https://app.prolific.com/","en-US,en;q=0.9","66c7397fb877280a42dcd495","687a360dabe5252b5ada7185","6889dac1e1dadc2f643e7c53","0","66c7397fb877280a42dcd495","0","2025-07-30T08:58:00.258Z","","","","AttribQ","","","","","","","","","","","50","","","","","","","","","","","","","","","","","","","","","","","","","","",""
"7088","","<div style=""width:500px;"">
  <p>How much control did you have over the ball?</p>
  </div>","43","html-slider-response","35","612580","0.0-7.0-2.4","56","1","2025-07-30 08:47:51","36c45c0696341be0efffe67d72a12abb","197.185.144.235","Mozilla/5.0 (Windows NT 10.0; Win64; x64) AppleWebKit/537.36 (KHTML, like Gecko) Chrome/138.0.0.0 Safari/537.36","WebKit","Chrome","138.0.0.0","Windows","10.0","https://app.prolific.com/","en-US,en;q=0.9","66c7397fb877280a42dcd495","687a360dabe5252b5ada7185","6889dac1e1dadc2f643e7c53","0","66c7397fb877280a42dcd495","0","2025-07-30T08:58:07.349Z","","","","ControlQ","","","","","","","","","","","50","","","","","","","","","","","","","","","","","","","","","","","","","","",""
"6948","","<div style=""width:500px;"">
  <p>How would you describe your current emotional state?</p>
  </div>","37","html-slider-response","36","619531","0.0-7.0-3.4","56","1","2025-07-30 08:47:51","36c45c0696341be0efffe67d72a12abb","197.185.144.235","Mozilla/5.0 (Windows NT 10.0; Win64; x64) AppleWebKit/537.36 (KHTML, like Gecko) Chrome/138.0.0.0 Safari/537.36","WebKit","Chrome","138.0.0.0","Windows","10.0","https://app.prolific.com/","en-US,en;q=0.9","66c7397fb877280a42dcd495","687a360dabe5252b5ada7185","6889dac1e1dadc2f643e7c53","0","66c7397fb877280a42dcd495","0","2025-07-30T08:58:14.300Z","","","","StressQ","","","","","","","","","","","50","","","","","","","","","","","","","","","","","","","","","","","","","","",""
"5724","","<div style=""width:500px;"">
  <p>What best describes how you currently feel?</p>
  </div>","58","html-slider-response","37","625258","0.0-7.0-4.4","56","1","2025-07-30 08:47:51","36c45c0696341be0efffe67d72a12abb","197.185.144.235","Mozilla/5.0 (Windows NT 10.0; Win64; x64) AppleWebKit/537.36 (KHTML, like Gecko) Chrome/138.0.0.0 Safari/537.36","WebKit","Chrome","138.0.0.0","Windows","10.0","https://app.prolific.com/","en-US,en;q=0.9","66c7397fb877280a42dcd495","687a360dabe5252b5ada7185","6889dac1e1dadc2f643e7c53","0","66c7397fb877280a42dcd495","0","2025-07-30T08:58:20.027Z","","","","MotivationQ","","","","","","","","","","","50","","","","","","","","","","","","","","","","","","","","","","","","","","",""
"","","","","ctl-task-cpt","38","656320","0.0-7.0-0.5","56","1","2025-07-30 08:47:51","36c45c0696341be0efffe67d72a12abb","197.185.144.235","Mozilla/5.0 (Windows NT 10.0; Win64; x64) AppleWebKit/537.36 (KHTML, like Gecko) Chrome/138.0.0.0 Safari/537.36","WebKit","Chrome","138.0.0.0","Windows","10.0","https://app.prolific.com/","en-US,en;q=0.9","66c7397fb877280a42dcd495","687a360dabe5252b5ada7185","6889dac1e1dadc2f643e7c53","0","66c7397fb877280a42dcd495","0","2025-07-30T08:58:51.089Z","","","","","","","","","","","","","","","","win-only","0","g1:NW,g2:SE","0.5","6","0","631863.5","8740.3","13743.4","28040.9","1","4","8","6","1","-1","-1","5","6","0.03787878787878788","5003.1","3000","-2335","[""left"",""up""]","{""num_key_presses"":4,""num_perfect"":4,""num_errors"":0,""num_randdir"":0,""num_randdir_good_moves"":0,""num_whilered"":0,""num_whileblue"":0,""num_blue"":0,""num_good_moves"":3}","[295.22232142857143,296.12857142857143,0.4,295.22232142857143,296.12857142857143,100.3,295.22232142857143,296.12857142857143,205.8,295.22232142857143,296.12857142857143,309,295.22232142857143,296.12857142857143,410.9,295.22232142857143,296.12857142857143,511,295.22232142857143,296.12857142857143,615.7,295.22232142857143,296.12857142857143,726.8,295.22232142857143,296.12857142857143,833.3,295.22232142857143,296.12857142857143,935,295.22232142857143,296.12857142857143,1035.2,295.22232142857143,296.12857142857143,1135.9,295.22232142857143,296.12857142857143,1242.7,295.22232142857143,296.12857142857143,1352.2,295.22232142857143,296.12857142857143,1454.9,295.22232142857143,296.12857142857143,1555.9,295.22232142857143,296.12857142857143,1655.9,295.22232142857143,296.12857142857143,1761.1,295.22232142857143,296.12857142857143,1861.9,295.22232142857143,296.12857142857143,1962.8,295.22232142857143,296.12857142857143,2072.5,295.22232142857143,296.12857142857143,2175.6,295.22232142857143,296.12857142857143,2276,295.22232142857143,296.12857142857143,2376,295.22232142857143,296.12857142857143,2482.1,295.22232142857143,296.12857142857143,2598.6,295.22232142857143,296.12857142857143,2704.4,295.22232142857143,296.12857142857143,2805.8,295.22232142857143,296.12857142857143,2908.2,295.22232142857143,296.12857142857143,3010.8,295.22232142857143,296.12857142857143,3115.9,295.22232142857143,296.12857142857143,3220.4,295.22232142857143,296.12857142857143,3323.9,295.22232142857143,296.12857142857143,3425.8,295.22232142857143,296.12857142857143,3527.7,295.22232142857143,296.12857142857143,3630.1,295.22232142857143,296.12857142857143,3730.6,295.22232142857143,296.12857142857143,3836.1,295.22232142857143,296.12857142857143,3947.7,295.22232142857143,296.12857142857143,4052.9,295.22232142857143,296.12857142857143,4156.1,295.22232142857143,296.12857142857143,4256.2,295.22232142857143,296.12857142857143,4358.2,295.22232142857143,296.12857142857143,4461,295.22232142857143,296.12857142857143,4565,295.22232142857143,296.12857142857143,4666,295.22232142857143,296.12857142857143,4768.1,295.22232142857143,296.12857142857143,4880.5,295.22232142857143,296.12857142857143,4985.9]","[1973,1973,1000,0,973,""smooth"",""left"",""left"",""good_move"",5064.6,3090.8,2479.7,1973.8,611.1,""smooth"",""left"",""left"",""good_move"",8790.3,3725.4,2287.8,5064.9,1437.6,""smooth"",""right"",""right"",""bad_move"",11406,2614.9,2073.4,8791.1,541.5,""smooth"",""up"",""up"",""good_move""]"
"9648","","<div style=""width:500px;"">
  <p>What determined the result of this run?</p>
  </div>","43","html-slider-response","39","665970","0.0-7.0-1.5","56","1","2025-07-30 08:47:51","36c45c0696341be0efffe67d72a12abb","197.185.144.235","Mozilla/5.0 (Windows NT 10.0; Win64; x64) AppleWebKit/537.36 (KHTML, like Gecko) Chrome/138.0.0.0 Safari/537.36","WebKit","Chrome","138.0.0.0","Windows","10.0","https://app.prolific.com/","en-US,en;q=0.9","66c7397fb877280a42dcd495","687a360dabe5252b5ada7185","6889dac1e1dadc2f643e7c53","0","66c7397fb877280a42dcd495","0","2025-07-30T08:59:00.739Z","","","","AttribQ","","","","","","","","","","","50","","","","","","","","","","","","","","","","","","","","","","","","","","",""
"5074","","<div style=""width:500px;"">
  <p>How much control did you have over the ball?</p>
  </div>","42","html-slider-response","40","671047","0.0-7.0-2.5","56","1","2025-07-30 08:47:51","36c45c0696341be0efffe67d72a12abb","197.185.144.235","Mozilla/5.0 (Windows NT 10.0; Win64; x64) AppleWebKit/537.36 (KHTML, like Gecko) Chrome/138.0.0.0 Safari/537.36","WebKit","Chrome","138.0.0.0","Windows","10.0","https://app.prolific.com/","en-US,en;q=0.9","66c7397fb877280a42dcd495","687a360dabe5252b5ada7185","6889dac1e1dadc2f643e7c53","0","66c7397fb877280a42dcd495","0","2025-07-30T08:59:05.816Z","","","","ControlQ","","","","","","","","","","","50","","","","","","","","","","","","","","","","","","","","","","","","","","",""
"3562","","<div style=""width:500px;"">
  <p>How would you describe your current emotional state?</p>
  </div>","42","html-slider-response","41","674613","0.0-7.0-3.5","56","1","2025-07-30 08:47:51","36c45c0696341be0efffe67d72a12abb","197.185.144.235","Mozilla/5.0 (Windows NT 10.0; Win64; x64) AppleWebKit/537.36 (KHTML, like Gecko) Chrome/138.0.0.0 Safari/537.36","WebKit","Chrome","138.0.0.0","Windows","10.0","https://app.prolific.com/","en-US,en;q=0.9","66c7397fb877280a42dcd495","687a360dabe5252b5ada7185","6889dac1e1dadc2f643e7c53","0","66c7397fb877280a42dcd495","0","2025-07-30T08:59:09.382Z","","","","StressQ","","","","","","","","","","","50","","","","","","","","","","","","","","","","","","","","","","","","","","",""
"4243","","<div style=""width:500px;"">
  <p>What best describes how you currently feel?</p>
  </div>","36","html-slider-response","42","678860","0.0-7.0-4.5","56","1","2025-07-30 08:47:51","36c45c0696341be0efffe67d72a12abb","197.185.144.235","Mozilla/5.0 (Windows NT 10.0; Win64; x64) AppleWebKit/537.36 (KHTML, like Gecko) Chrome/138.0.0.0 Safari/537.36","WebKit","Chrome","138.0.0.0","Windows","10.0","https://app.prolific.com/","en-US,en;q=0.9","66c7397fb877280a42dcd495","687a360dabe5252b5ada7185","6889dac1e1dadc2f643e7c53","0","66c7397fb877280a42dcd495","0","2025-07-30T08:59:13.629Z","","","","MotivationQ","","","","","","","","","","","50","","","","","","","","","","","","","","","","","","","","","","","","","","",""
"","","","","ctl-task-cpt","43","722167","0.0-7.0-0.6","56","1","2025-07-30 08:47:51","36c45c0696341be0efffe67d72a12abb","197.185.144.235","Mozilla/5.0 (Windows NT 10.0; Win64; x64) AppleWebKit/537.36 (KHTML, like Gecko) Chrome/138.0.0.0 Safari/537.36","WebKit","Chrome","138.0.0.0","Windows","10.0","https://app.prolific.com/","en-US,en;q=0.9","66c7397fb877280a42dcd495","687a360dabe5252b5ada7185","6889dac1e1dadc2f643e7c53","0","66c7397fb877280a42dcd495","0","2025-07-30T08:59:56.936Z","","","","","","","","","","","","","","","","win-only","0","g1:NW,g2:SE","0.4","7","0","685464.6","2056.6","7058.5","40281.4","1","4","4","6","1","-1","-1","4","5","0.030303030303030304","5001.9","3000","-2305","[""left"",""up""]","{""num_key_presses"":7,""num_perfect"":4,""num_errors"":0,""num_randdir"":3,""num_randdir_good_moves"":1,""num_whilered"":0,""num_whileblue"":0,""num_blue"":3,""num_good_moves"":5}","[296.22232142857143,292.12857142857143,0.4,296.22232142857143,292.12857142857143,100.8,296.22232142857143,292.12857142857143,214.6,296.22232142857143,292.12857142857143,315.5,296.22232142857143,292.12857142857143,419.5,296.22232142857143,292.12857142857143,534,296.22232142857143,292.12857142857143,639.8,296.22232142857143,292.12857142857143,744.6,296.22232142857143,292.12857142857143,850.5,296.22232142857143,292.12857142857143,956.2,296.22232142857143,292.12857142857143,1070,296.22232142857143,292.12857142857143,1181.8,296.22232142857143,292.12857142857143,1285.3,296.22232142857143,292.12857142857143,1385.4,296.22232142857143,292.12857142857143,1489.8,296.22232142857143,292.12857142857143,1605.9,296.22232142857143,292.12857142857143,1706.4,296.22232142857143,292.12857142857143,1807.2,296.22232142857143,292.12857142857143,1910,296.22232142857143,292.12857142857143,2016.4,296.22232142857143,292.12857142857143,2119.1,296.22232142857143,292.12857142857143,2223.8,296.22232142857143,292.12857142857143,2324.4,296.22232142857143,292.12857142857143,2428.6,296.22232142857143,292.12857142857143,2532.6,296.22232142857143,292.12857142857143,2644.9,296.22232142857143,292.12857142857143,2745.2,296.22232142857143,292.12857142857143,2850.9,296.22232142857143,292.12857142857143,2955.1,296.22232142857143,292.12857142857143,3056.9,296.22232142857143,292.12857142857143,3159.6,296.22232142857143,292.12857142857143,3260,296.22232142857143,292.12857142857143,3364.4,296.22232142857143,292.12857142857143,3470.1,296.22232142857143,292.12857142857143,3570.3,296.22232142857143,292.12857142857143,3681.3,296.22232142857143,292.12857142857143,3787.8,296.22232142857143,292.12857142857143,3888.9,296.22232142857143,292.12857142857143,3991.7,296.22232142857143,292.12857142857143,4099.6,296.22232142857143,292.12857142857143,4200.5,296.22232142857143,292.12857142857143,4311.6,296.22232142857143,292.12857142857143,4414.5,296.22232142857143,292.12857142857143,4517.2,296.22232142857143,292.12857142857143,4618.7,296.22232142857143,292.12857142857143,4719.4,296.22232142857143,292.12857142857143,4833.4,296.22232142857143,292.12857142857143,4934.5]","[8395.1,8395.1,2609.5,5323.6,462,""smooth"",""left"",""left"",""good_move"",12223,3827.3,3334.9,8395.7,492.4,""smooth"",""left"",""left"",""good_move"",18605.3,6382,2320.2,15820.1,465,""oops"",""up"",""right"",""bad_move"",22408.8,3803.1,2464.4,18605.7,1338.7,""oops"",""left"",""up"",""good_move"",25302.9,2892.6,2327,22410.3,565.6,""oops"",""up"",""right"",""bad_move"",28187,2883.8,2401.6,25303.2,482.2,""smooth"",""left"",""left"",""good_move"",30786.4,2598.9,1794.2,28187.5,804.7,""smooth"",""left"",""left"",""good_move""]"
"4152","","<div style=""width:500px;"">
  <p>What determined the result of this run?</p>
  </div>","44","html-slider-response","44","726320","0.0-7.0-1.6","56","1","2025-07-30 08:47:51","36c45c0696341be0efffe67d72a12abb","197.185.144.235","Mozilla/5.0 (Windows NT 10.0; Win64; x64) AppleWebKit/537.36 (KHTML, like Gecko) Chrome/138.0.0.0 Safari/537.36","WebKit","Chrome","138.0.0.0","Windows","10.0","https://app.prolific.com/","en-US,en;q=0.9","66c7397fb877280a42dcd495","687a360dabe5252b5ada7185","6889dac1e1dadc2f643e7c53","0","66c7397fb877280a42dcd495","0","2025-07-30T09:00:01.090Z","","","","AttribQ","","","","","","","","","","","50","","","","","","","","","","","","","","","","","","","","","","","","","","",""
"2775","","<div style=""width:500px;"">
  <p>How much control did you have over the ball?</p>
  </div>","55","html-slider-response","45","729099","0.0-7.0-2.6","56","1","2025-07-30 08:47:51","36c45c0696341be0efffe67d72a12abb","197.185.144.235","Mozilla/5.0 (Windows NT 10.0; Win64; x64) AppleWebKit/537.36 (KHTML, like Gecko) Chrome/138.0.0.0 Safari/537.36","WebKit","Chrome","138.0.0.0","Windows","10.0","https://app.prolific.com/","en-US,en;q=0.9","66c7397fb877280a42dcd495","687a360dabe5252b5ada7185","6889dac1e1dadc2f643e7c53","0","66c7397fb877280a42dcd495","0","2025-07-30T09:00:03.869Z","","","","ControlQ","","","","","","","","","","","50","","","","","","","","","","","","","","","","","","","","","","","","","","",""
"3573","","<div style=""width:500px;"">
  <p>How would you describe your current emotional state?</p>
  </div>","41","html-slider-response","46","732675","0.0-7.0-3.6","56","1","2025-07-30 08:47:51","36c45c0696341be0efffe67d72a12abb","197.185.144.235","Mozilla/5.0 (Windows NT 10.0; Win64; x64) AppleWebKit/537.36 (KHTML, like Gecko) Chrome/138.0.0.0 Safari/537.36","WebKit","Chrome","138.0.0.0","Windows","10.0","https://app.prolific.com/","en-US,en;q=0.9","66c7397fb877280a42dcd495","687a360dabe5252b5ada7185","6889dac1e1dadc2f643e7c53","0","66c7397fb877280a42dcd495","0","2025-07-30T09:00:07.445Z","","","","StressQ","","","","","","","","","","","50","","","","","","","","","","","","","","","","","","","","","","","","","","",""
"11453","","<div style=""width:500px;"">
  <p>What best describes how you currently feel?</p>
  </div>","68","html-slider-response","47","744132","0.0-7.0-4.6","56","1","2025-07-30 08:47:51","36c45c0696341be0efffe67d72a12abb","197.185.144.235","Mozilla/5.0 (Windows NT 10.0; Win64; x64) AppleWebKit/537.36 (KHTML, like Gecko) Chrome/138.0.0.0 Safari/537.36","WebKit","Chrome","138.0.0.0","Windows","10.0","https://app.prolific.com/","en-US,en;q=0.9","66c7397fb877280a42dcd495","687a360dabe5252b5ada7185","6889dac1e1dadc2f643e7c53","0","66c7397fb877280a42dcd495","0","2025-07-30T09:00:18.901Z","","","","MotivationQ","","","","","","","","","","","50","","","","","","","","","","","","","","","","","","","","","","","","","","",""
"","","","","ctl-task-cpt","48","781463","0.0-7.0-0.7","56","1","2025-07-30 08:47:51","36c45c0696341be0efffe67d72a12abb","197.185.144.235","Mozilla/5.0 (Windows NT 10.0; Win64; x64) AppleWebKit/537.36 (KHTML, like Gecko) Chrome/138.0.0.0 Safari/537.36","WebKit","Chrome","138.0.0.0","Windows","10.0","https://app.prolific.com/","en-US,en;q=0.9","66c7397fb877280a42dcd495","687a360dabe5252b5ada7185","6889dac1e1dadc2f643e7c53","0","66c7397fb877280a42dcd495","0","2025-07-30T09:00:56.233Z","","","","","","","","","","","","","","","","win-only","0","g1:NW,g2:SE","0.3","8","0","750737.5","3437.1","8438.4","34297","1","4","8","6","1","-1","-7","0","4","0","5001.3","3000","-2090","[""left"",""up""]","{""num_key_presses"":11,""num_perfect"":2,""num_errors"":6,""num_randdir"":2,""num_randdir_good_moves"":0,""num_whilered"":1,""num_whileblue"":1,""num_blue"":1,""num_good_moves"":2}","[292.22232142857143,290.12857142857143,0.4,292.22232142857143,290.12857142857143,100.1,292.22232142857143,290.12857142857143,205,292.22232142857143,290.12857142857143,309.8,292.22232142857143,290.12857142857143,415.7,292.22232142857143,290.12857142857143,519.4,292.22232142857143,290.12857142857143,620,292.22232142857143,290.12857142857143,724.5,285.22232142857143,282.12857142857143,829.9,281.22232142857143,269.12857142857143,931,281.22232142857143,269.12857142857143,1035.8,281.22232142857143,269.12857142857143,1138.1,281.22232142857143,269.12857142857143,1240.7,281.22232142857143,269.12857142857143,1349.3,281.22232142857143,269.12857142857143,1467.8,281.22232142857143,269.12857142857143,1569.6,281.22232142857143,269.12857142857143,1669.9,281.22232142857143,269.12857142857143,1769.9,281.22232142857143,269.12857142857143,1870.7,281.22232142857143,269.12857142857143,1975.7,281.22232142857143,269.12857142857143,2079.8,281.22232142857143,269.12857142857143,2180.4,281.22232142857143,269.12857142857143,2284.1,281.22232142857143,269.12857142857143,2385.1,281.22232142857143,269.12857142857143,2489.4,281.22232142857143,269.12857142857143,2589.6,281.22232142857143,269.12857142857143,2695.8,281.22232142857143,269.12857142857143,2799.3,281.22232142857143,269.12857142857143,2899.7,281.22232142857143,269.12857142857143,3005.8,281.22232142857143,269.12857142857143,3109.8,281.22232142857143,269.12857142857143,3213.7,281.22232142857143,269.12857142857143,3321,281.22232142857143,269.12857142857143,3426.1,281.22232142857143,269.12857142857143,3536.6,281.22232142857143,269.12857142857143,3639,281.22232142857143,269.12857142857143,3739.2,281.22232142857143,269.12857142857143,3845.7,281.22232142857143,269.12857142857143,3958.7,281.22232142857143,269.12857142857143,4059.1,281.22232142857143,269.12857142857143,4165.3,281.22232142857143,269.12857142857143,4269.7,281.22232142857143,269.12857142857143,4374.6,281.22232142857143,269.12857142857143,4479.1,281.22232142857143,269.12857142857143,4580,281.22232142857143,269.12857142857143,4683.1,281.22232142857143,269.12857142857143,4803.4,281.22232142857143,269.12857142857143,4903.8]","[3072.7,3072.7,1000,0,2072.7,""smooth"",""left"",""left"",""good_move"",5880.4,2806.9,2047.9,3073.5,759,""smooth"",""left"",""left"",""good_move"",8505.7,2624.9,2185.5,5880.9,439.3,""oops"",""up"",""down"",""bad_move"",11905.7,3399.4,2966.8,8506.3,432.6,""while_blue"",""down"",""down"",""bad_move"",13346.3,1439.9,2903.4,11906.5,-1463.5,""error"",""-"",""-"",""no_move"",14046.4,699.8,2903.4,11906.5,-763.4,""while_red"",""-"",""-"",""no_move"",14361.4,1014.7,2807.6,14349,-2795.2,""error"",""-"",""-"",""no_move"",18294.2,3932.6,2411.9,15375.3,507,""oops"",""up"",""down"",""bad_move"",19456.8,1162.2,2209.4,18294.6,-1047.2,""error"",""-"",""-"",""no_move"",20678.4,1221.3,1941.8,20459.3,-1722.7,""error"",""-"",""-"",""no_move"",22348.3,1669.6,2547.4,21681.8,-1880.9,""error"",""-"",""-"",""no_move""]"
"19798","","<div style=""width:500px;"">
  <p>What determined the result of this run?</p>
  </div>","66","html-slider-response","49","801263","0.0-7.0-1.7","56","1","2025-07-30 08:47:51","36c45c0696341be0efffe67d72a12abb","197.185.144.235","Mozilla/5.0 (Windows NT 10.0; Win64; x64) AppleWebKit/537.36 (KHTML, like Gecko) Chrome/138.0.0.0 Safari/537.36","WebKit","Chrome","138.0.0.0","Windows","10.0","https://app.prolific.com/","en-US,en;q=0.9","66c7397fb877280a42dcd495","687a360dabe5252b5ada7185","6889dac1e1dadc2f643e7c53","0","66c7397fb877280a42dcd495","0","2025-07-30T09:01:16.033Z","","","","AttribQ","","","","","","","","","","","50","","","","","","","","","","","","","","","","","","","","","","","","","","",""
"6526","","<div style=""width:500px;"">
  <p>How much control did you have over the ball?</p>
  </div>","61","html-slider-response","50","807793","0.0-7.0-2.7","56","1","2025-07-30 08:47:51","36c45c0696341be0efffe67d72a12abb","197.185.144.235","Mozilla/5.0 (Windows NT 10.0; Win64; x64) AppleWebKit/537.36 (KHTML, like Gecko) Chrome/138.0.0.0 Safari/537.36","WebKit","Chrome","138.0.0.0","Windows","10.0","https://app.prolific.com/","en-US,en;q=0.9","66c7397fb877280a42dcd495","687a360dabe5252b5ada7185","6889dac1e1dadc2f643e7c53","0","66c7397fb877280a42dcd495","0","2025-07-30T09:01:22.562Z","","","","ControlQ","","","","","","","","","","","50","","","","","","","","","","","","","","","","","","","","","","","","","","",""
"7667","","<div style=""width:500px;"">
  <p>How would you describe your current emotional state?</p>
  </div>","23","html-slider-response","51","815462","0.0-7.0-3.7","56","1","2025-07-30 08:47:51","36c45c0696341be0efffe67d72a12abb","197.185.144.235","Mozilla/5.0 (Windows NT 10.0; Win64; x64) AppleWebKit/537.36 (KHTML, like Gecko) Chrome/138.0.0.0 Safari/537.36","WebKit","Chrome","138.0.0.0","Windows","10.0","https://app.prolific.com/","en-US,en;q=0.9","66c7397fb877280a42dcd495","687a360dabe5252b5ada7185","6889dac1e1dadc2f643e7c53","0","66c7397fb877280a42dcd495","0","2025-07-30T09:01:30.232Z","","","","StressQ","","","","","","","","","","","50","","","","","","","","","","","","","","","","","","","","","","","","","","",""
"5882","","<div style=""width:500px;"">
  <p>What best describes how you currently feel?</p>
  </div>","73","html-slider-response","52","821347","0.0-7.0-4.7","56","1","2025-07-30 08:47:51","36c45c0696341be0efffe67d72a12abb","197.185.144.235","Mozilla/5.0 (Windows NT 10.0; Win64; x64) AppleWebKit/537.36 (KHTML, like Gecko) Chrome/138.0.0.0 Safari/537.36","WebKit","Chrome","138.0.0.0","Windows","10.0","https://app.prolific.com/","en-US,en;q=0.9","66c7397fb877280a42dcd495","687a360dabe5252b5ada7185","6889dac1e1dadc2f643e7c53","0","66c7397fb877280a42dcd495","0","2025-07-30T09:01:36.116Z","","","","MotivationQ","","","","","","","","","","","50","","","","","","","","","","","","","","","","","","","","","","","","","","",""
"","","","","ctl-task-cpt","53","876673","0.0-7.0-0.8","56","1","2025-07-30 08:47:51","36c45c0696341be0efffe67d72a12abb","197.185.144.235","Mozilla/5.0 (Windows NT 10.0; Win64; x64) AppleWebKit/537.36 (KHTML, like Gecko) Chrome/138.0.0.0 Safari/537.36","WebKit","Chrome","138.0.0.0","Windows","10.0","https://app.prolific.com/","en-US,en;q=0.9","66c7397fb877280a42dcd495","687a360dabe5252b5ada7185","6889dac1e1dadc2f643e7c53","0","66c7397fb877280a42dcd495","0","2025-07-30T09:02:31.442Z","","","","","","","","","","","","","","","","win-only","3","g1:SW,g2:NE","0.4","9","0","827951.9","12507.9","17512","52304.3","1","4","8","6","1","-1","-2","0","0","0","5004.1","3000","-2095","[""down"",""left""]","{""num_key_presses"":8,""num_perfect"":3,""num_errors"":1,""num_randdir"":4,""num_randdir_good_moves"":0,""num_whilered"":0,""num_whileblue"":1,""num_blue"":4,""num_good_moves"":1}","[299.22232142857143,293.12857142857143,0.6,299.22232142857143,293.12857142857143,101.6,299.22232142857143,293.12857142857143,217.4,299.22232142857143,293.12857142857143,319.7,299.22232142857143,293.12857142857143,439.1,299.22232142857143,293.12857142857143,543.8,299.22232142857143,293.12857142857143,647.7,299.22232142857143,293.12857142857143,747.8,299.22232142857143,293.12857142857143,849.5,299.22232142857143,293.12857142857143,952.7,299.22232142857143,293.12857142857143,1053.4,299.22232142857143,293.12857142857143,1157.9,299.22232142857143,293.12857142857143,1260,299.22232142857143,293.12857142857143,1361.3,299.22232142857143,293.12857142857143,1471.7,299.22232142857143,293.12857142857143,1593.5,299.22232142857143,293.12857142857143,1704.5,299.22232142857143,293.12857142857143,1807.9,299.22232142857143,293.12857142857143,1929.4,299.22232142857143,293.12857142857143,2033.2,299.22232142857143,293.12857142857143,2133.7,299.22232142857143,293.12857142857143,2237.6,299.22232142857143,293.12857142857143,2363.2,299.22232142857143,293.12857142857143,2473.6,299.22232142857143,293.12857142857143,2583.3,299.22232142857143,293.12857142857143,2688.1,299.22232142857143,293.12857142857143,2789.3,299.22232142857143,293.12857142857143,2897,299.22232142857143,293.12857142857143,3013.7,299.22232142857143,293.12857142857143,3117.8,299.22232142857143,293.12857142857143,3224.2,299.22232142857143,293.12857142857143,3328,299.22232142857143,293.12857142857143,3428.6,299.22232142857143,293.12857142857143,3550,299.22232142857143,293.12857142857143,3666,299.22232142857143,293.12857142857143,3770.6,299.22232142857143,293.12857142857143,3870.8,299.22232142857143,293.12857142857143,3973.2,299.22232142857143,293.12857142857143,4078.3,299.22232142857143,293.12857142857143,4187.2,299.22232142857143,293.12857142857143,4288.6,299.22232142857143,293.12857142857143,4396.8,299.22232142857143,293.12857142857143,4497.7,299.22232142857143,293.12857142857143,4598.2,299.22232142857143,293.12857142857143,4703.6,299.22232142857143,293.12857142857143,4819.4,299.22232142857143,293.12857142857143,4919.5]","[1382.5,1382.5,1000,0,382.5,""oops"",""down"",""up"",""bad_move"",7852.2,6469,2804.1,4438.4,609.7,""oops"",""left"",""up"",""bad_move"",16356.7,8504.1,2340.9,13559.2,456.6,""while_blue"",""right"",""up"",""bad_move"",19556.9,3199.8,2330.4,16357.1,869.4,""smooth"",""right"",""right"",""bad_move"",22828.7,3271.5,2729.2,19557.4,542.2,""smooth"",""right"",""right"",""bad_move"",25813.5,2984.1,2343.5,22829.4,640.6,""oops"",""right"",""right"",""bad_move"",29131.9,3317.8,2863.5,25814.1,454.3,""smooth"",""right"",""down"",""good_move"",31633.6,2500.6,2014.6,29133,486,""oops"",""right"",""up"",""bad_move""]"
"4670","","<div style=""width:500px;"">
  <p>What determined the result of this run?</p>
  </div>","58","html-slider-response","54","881345","0.0-7.0-1.8","56","1","2025-07-30 08:47:51","36c45c0696341be0efffe67d72a12abb","197.185.144.235","Mozilla/5.0 (Windows NT 10.0; Win64; x64) AppleWebKit/537.36 (KHTML, like Gecko) Chrome/138.0.0.0 Safari/537.36","WebKit","Chrome","138.0.0.0","Windows","10.0","https://app.prolific.com/","en-US,en;q=0.9","66c7397fb877280a42dcd495","687a360dabe5252b5ada7185","6889dac1e1dadc2f643e7c53","0","66c7397fb877280a42dcd495","0","2025-07-30T09:02:36.114Z","","","","AttribQ","","","","","","","","","","","50","","","","","","","","","","","","","","","","","","","","","","","","","","",""
"3802","","<div style=""width:500px;"">
  <p>How much control did you have over the ball?</p>
  </div>","63","html-slider-response","55","885151","0.0-7.0-2.8","56","1","2025-07-30 08:47:51","36c45c0696341be0efffe67d72a12abb","197.185.144.235","Mozilla/5.0 (Windows NT 10.0; Win64; x64) AppleWebKit/537.36 (KHTML, like Gecko) Chrome/138.0.0.0 Safari/537.36","WebKit","Chrome","138.0.0.0","Windows","10.0","https://app.prolific.com/","en-US,en;q=0.9","66c7397fb877280a42dcd495","687a360dabe5252b5ada7185","6889dac1e1dadc2f643e7c53","0","66c7397fb877280a42dcd495","0","2025-07-30T09:02:39.920Z","","","","ControlQ","","","","","","","","","","","50","","","","","","","","","","","","","","","","","","","","","","","","","","",""
"7218","","<div style=""width:500px;"">
  <p>How would you describe your current emotional state?</p>
  </div>","63","html-slider-response","56","892371","0.0-7.0-3.8","56","1","2025-07-30 08:47:51","36c45c0696341be0efffe67d72a12abb","197.185.144.235","Mozilla/5.0 (Windows NT 10.0; Win64; x64) AppleWebKit/537.36 (KHTML, like Gecko) Chrome/138.0.0.0 Safari/537.36","WebKit","Chrome","138.0.0.0","Windows","10.0","https://app.prolific.com/","en-US,en;q=0.9","66c7397fb877280a42dcd495","687a360dabe5252b5ada7185","6889dac1e1dadc2f643e7c53","0","66c7397fb877280a42dcd495","0","2025-07-30T09:02:47.140Z","","","","StressQ","","","","","","","","","","","50","","","","","","","","","","","","","","","","","","","","","","","","","","",""
"3818","","<div style=""width:500px;"">
  <p>What best describes how you currently feel?</p>
  </div>","61","html-slider-response","57","896191","0.0-7.0-4.8","56","1","2025-07-30 08:47:51","36c45c0696341be0efffe67d72a12abb","197.185.144.235","Mozilla/5.0 (Windows NT 10.0; Win64; x64) AppleWebKit/537.36 (KHTML, like Gecko) Chrome/138.0.0.0 Safari/537.36","WebKit","Chrome","138.0.0.0","Windows","10.0","https://app.prolific.com/","en-US,en;q=0.9","66c7397fb877280a42dcd495","687a360dabe5252b5ada7185","6889dac1e1dadc2f643e7c53","0","66c7397fb877280a42dcd495","0","2025-07-30T09:02:50.961Z","","","","MotivationQ","","","","","","","","","","","50","","","","","","","","","","","","","","","","","","","","","","","","","","",""
"","","","","ctl-task-cpt","58","958776","0.0-7.0-0.9","56","1","2025-07-30 08:47:51","36c45c0696341be0efffe67d72a12abb","197.185.144.235","Mozilla/5.0 (Windows NT 10.0; Win64; x64) AppleWebKit/537.36 (KHTML, like Gecko) Chrome/138.0.0.0 Safari/537.36","WebKit","Chrome","138.0.0.0","Windows","10.0","https://app.prolific.com/","en-US,en;q=0.9","66c7397fb877280a42dcd495","687a360dabe5252b5ada7185","6889dac1e1dadc2f643e7c53","0","66c7397fb877280a42dcd495","0","2025-07-30T09:03:53.546Z","","","","","","","","","","","","","","","","win-only","3","g1:SW,g2:NE","0.5","10","0","902797.1","10857.1","15864.9","59561.9","1","4","4","6","2","-4","-5","0","0","0","5007.8","3000","-1825","[""up"",""right""]","{""num_key_presses"":8,""num_perfect"":3,""num_errors"":1,""num_randdir"":4,""num_randdir_good_moves"":1,""num_whilered"":0,""num_whileblue"":0,""num_blue"":5,""num_good_moves"":4}","[299.22232142857143,291.12857142857143,1,299.22232142857143,291.12857142857143,103,299.22232142857143,291.12857142857143,207.9,299.22232142857143,291.12857142857143,315.9,299.22232142857143,291.12857142857143,419.9,299.22232142857143,291.12857142857143,527.8,299.22232142857143,291.12857142857143,635.3,299.22232142857143,291.12857142857143,738.1,299.22232142857143,291.12857142857143,844.3,299.22232142857143,291.12857142857143,947.3,299.22232142857143,291.12857142857143,1048,299.22232142857143,291.12857142857143,1153.6,299.22232142857143,291.12857142857143,1262.1,299.22232142857143,291.12857142857143,1364.2,299.22232142857143,291.12857142857143,1472.6,299.22232142857143,291.12857142857143,1580.9,299.22232142857143,291.12857142857143,1681.8,299.22232142857143,291.12857142857143,1783.4,299.22232142857143,291.12857142857143,1887.3,299.22232142857143,291.12857142857143,1987.8,299.22232142857143,291.12857142857143,2088.9,299.22232142857143,291.12857142857143,2189.2,299.22232142857143,291.12857142857143,2293.6,299.22232142857143,291.12857142857143,2400.4,299.22232142857143,291.12857142857143,2504.5,299.22232142857143,291.12857142857143,2608.7,299.22232142857143,291.12857142857143,2721.1,299.22232142857143,291.12857142857143,2833,299.22232142857143,291.12857142857143,2938.6,299.22232142857143,291.12857142857143,3045.5,299.22232142857143,291.12857142857143,3150.2,299.22232142857143,291.12857142857143,3254.2,299.22232142857143,291.12857142857143,3357,299.22232142857143,291.12857142857143,3464.5,299.22232142857143,291.12857142857143,3578.8,299.22232142857143,291.12857142857143,3698.2,299.22232142857143,291.12857142857143,3799.5,299.22232142857143,291.12857142857143,3899.7,299.22232142857143,291.12857142857143,4013.3,299.22232142857143,291.12857142857143,4129.8,299.22232142857143,291.12857142857143,4236.5,299.22232142857143,291.12857142857143,4342.4,299.22232142857143,291.12857142857143,4448.1,299.22232142857143,291.12857142857143,4557.7,299.22232142857143,291.12857142857143,4659.1,299.22232142857143,291.12857142857143,4761.2,299.22232142857143,291.12857142857143,4877.9,299.22232142857143,291.12857142857143,4979.1]","[7249,7249,1965.6,4872,411.4,""smooth"",""up"",""up"",""good_move"",14775.8,7525.9,3157.4,11052.5,565.9,""smooth"",""up"",""up"",""good_move"",17570,2793.8,2232.5,14776.2,561.3,""smooth"",""up"",""up"",""good_move"",20415.7,2845.4,2391.2,17570.3,454.2,""oops"",""right"",""right"",""good_move"",23221.8,2805.6,2419.4,20416.2,386.2,""oops"",""right"",""down"",""bad_move"",26309.9,3087.3,2625.9,23222.6,461.4,""oops"",""right"",""left"",""bad_move"",27985,1674.5,2644.5,26310.5,-970,""error"",""-"",""-"",""no_move"",39692.9,11707.2,2833.3,36197.6,662,""oops"",""up"",""down"",""bad_move""]"
"5501","","<div style=""width:500px;"">
  <p>What determined the result of this run?</p>
  </div>","27","html-slider-response","59","964280","0.0-7.0-1.9","56","1","2025-07-30 08:47:51","36c45c0696341be0efffe67d72a12abb","197.185.144.235","Mozilla/5.0 (Windows NT 10.0; Win64; x64) AppleWebKit/537.36 (KHTML, like Gecko) Chrome/138.0.0.0 Safari/537.36","WebKit","Chrome","138.0.0.0","Windows","10.0","https://app.prolific.com/","en-US,en;q=0.9","66c7397fb877280a42dcd495","687a360dabe5252b5ada7185","6889dac1e1dadc2f643e7c53","0","66c7397fb877280a42dcd495","0","2025-07-30T09:03:59.049Z","","","","AttribQ","","","","","","","","","","","50","","","","","","","","","","","","","","","","","","","","","","","","","","",""
"4339","","<div style=""width:500px;"">
  <p>How much control did you have over the ball?</p>
  </div>","31","html-slider-response","60","968621","0.0-7.0-2.9","56","1","2025-07-30 08:47:51","36c45c0696341be0efffe67d72a12abb","197.185.144.235","Mozilla/5.0 (Windows NT 10.0; Win64; x64) AppleWebKit/537.36 (KHTML, like Gecko) Chrome/138.0.0.0 Safari/537.36","WebKit","Chrome","138.0.0.0","Windows","10.0","https://app.prolific.com/","en-US,en;q=0.9","66c7397fb877280a42dcd495","687a360dabe5252b5ada7185","6889dac1e1dadc2f643e7c53","0","66c7397fb877280a42dcd495","0","2025-07-30T09:04:03.390Z","","","","ControlQ","","","","","","","","","","","50","","","","","","","","","","","","","","","","","","","","","","","","","","",""
"5445","","<div style=""width:500px;"">
  <p>How would you describe your current emotional state?</p>
  </div>","21","html-slider-response","61","974069","0.0-7.0-3.9","56","1","2025-07-30 08:47:51","36c45c0696341be0efffe67d72a12abb","197.185.144.235","Mozilla/5.0 (Windows NT 10.0; Win64; x64) AppleWebKit/537.36 (KHTML, like Gecko) Chrome/138.0.0.0 Safari/537.36","WebKit","Chrome","138.0.0.0","Windows","10.0","https://app.prolific.com/","en-US,en;q=0.9","66c7397fb877280a42dcd495","687a360dabe5252b5ada7185","6889dac1e1dadc2f643e7c53","0","66c7397fb877280a42dcd495","0","2025-07-30T09:04:08.839Z","","","","StressQ","","","","","","","","","","","50","","","","","","","","","","","","","","","","","","","","","","","","","","",""
"5919","","<div style=""width:500px;"">
  <p>What best describes how you currently feel?</p>
  </div>","75","html-slider-response","62","979991","0.0-7.0-4.9","56","1","2025-07-30 08:47:51","36c45c0696341be0efffe67d72a12abb","197.185.144.235","Mozilla/5.0 (Windows NT 10.0; Win64; x64) AppleWebKit/537.36 (KHTML, like Gecko) Chrome/138.0.0.0 Safari/537.36","WebKit","Chrome","138.0.0.0","Windows","10.0","https://app.prolific.com/","en-US,en;q=0.9","66c7397fb877280a42dcd495","687a360dabe5252b5ada7185","6889dac1e1dadc2f643e7c53","0","66c7397fb877280a42dcd495","0","2025-07-30T09:04:14.760Z","","","","MotivationQ","","","","","","","","","","","50","","","","","","","","","","","","","","","","","","","","","","","","","","",""
"","","","","ctl-task-cpt","63","1032304","0.0-7.0-0.10","56","1","2025-07-30 08:47:51","36c45c0696341be0efffe67d72a12abb","197.185.144.235","Mozilla/5.0 (Windows NT 10.0; Win64; x64) AppleWebKit/537.36 (KHTML, like Gecko) Chrome/138.0.0.0 Safari/537.36","WebKit","Chrome","138.0.0.0","Windows","10.0","https://app.prolific.com/","en-US,en;q=0.9","66c7397fb877280a42dcd495","687a360dabe5252b5ada7185","6889dac1e1dadc2f643e7c53","0","66c7397fb877280a42dcd495","0","2025-07-30T09:05:07.073Z","","","","","","","","","","","","","","","","win-only","1","g1:NE,g2:SW","0.6","11","0","986595.2","12606.2","17607.8","49272.5","1","4","8","6","1","1","1","1","0","0.007575757575757576","5001.6","3000","425","[""up"",""right""]","{""num_key_presses"":6,""num_perfect"":4,""num_errors"":0,""num_randdir"":2,""num_randdir_good_moves"":1,""num_whilered"":0,""num_whileblue"":0,""num_blue"":4,""num_good_moves"":5}","[303.22232142857143,298.12857142857143,0.3,303.22232142857143,298.12857142857143,101.3,303.22232142857143,298.12857142857143,210.2,303.22232142857143,298.12857142857143,313.8,303.22232142857143,298.12857142857143,424.5,303.22232142857143,298.12857142857143,527.2,303.22232142857143,298.12857142857143,631,303.22232142857143,298.12857142857143,734.4,303.22232142857143,298.12857142857143,837.5,303.22232142857143,298.12857142857143,940.8,303.22232142857143,298.12857142857143,1061.7,303.22232142857143,298.12857142857143,1170.4,303.22232142857143,298.12857142857143,1271.5,303.22232142857143,298.12857142857143,1392.9,303.22232142857143,298.12857142857143,1494.2,303.22232142857143,298.12857142857143,1598.2,303.22232142857143,298.12857142857143,1706.5,303.22232142857143,298.12857142857143,1809.1,303.22232142857143,298.12857142857143,1914.6,303.22232142857143,298.12857142857143,2021.1,303.22232142857143,298.12857142857143,2146.8,303.22232142857143,298.12857142857143,2255.7,303.22232142857143,298.12857142857143,2358.7,303.22232142857143,298.12857142857143,2461.3,303.22232142857143,298.12857142857143,2561.9,303.22232142857143,298.12857142857143,2666.2,303.22232142857143,298.12857142857143,2769.1,303.22232142857143,298.12857142857143,2869.8,303.22232142857143,298.12857142857143,2971,303.22232142857143,298.12857142857143,3083.1,303.22232142857143,298.12857142857143,3189.3,303.22232142857143,298.12857142857143,3290.6,303.22232142857143,298.12857142857143,3391.4,303.22232142857143,298.12857142857143,3497.3,303.22232142857143,298.12857142857143,3599.4,303.22232142857143,298.12857142857143,3725.3,303.22232142857143,298.12857142857143,3832,303.22232142857143,298.12857142857143,3933.2,303.22232142857143,298.12857142857143,4037.7,303.22232142857143,298.12857142857143,4150.9,303.22232142857143,298.12857142857143,4268.5,303.22232142857143,298.12857142857143,4377.9,303.22232142857143,298.12857142857143,4479.9,303.22232142857143,298.12857142857143,4581.1,303.22232142857143,298.12857142857143,4682,303.22232142857143,298.12857142857143,4782.5,303.22232142857143,298.12857142857143,4885.6]","[1681.3,1681.3,1000,0,681.3,""smooth"",""right"",""right"",""good_move"",4961.6,3278.7,2723.8,1682.9,554.9,""smooth"",""up"",""up"",""good_move"",8368.9,3406.5,2612.8,4962.4,793.7,""oops"",""right"",""down"",""bad_move"",12289,3919.6,2162.7,8369.4,1756.9,""smooth"",""up"",""up"",""good_move"",21938.1,9648.1,2956.3,18528.2,453.6,""oops"",""up"",""up"",""good_move"",31520,9581.1,2727.9,28342.8,449.3,""smooth"",""right"",""right"",""good_move""]"
"14935","","<div style=""width:500px;"">
  <p>What determined the result of this run?</p>
  </div>","60","html-slider-response","64","1047241","0.0-7.0-1.10","56","1","2025-07-30 08:47:51","36c45c0696341be0efffe67d72a12abb","197.185.144.235","Mozilla/5.0 (Windows NT 10.0; Win64; x64) AppleWebKit/537.36 (KHTML, like Gecko) Chrome/138.0.0.0 Safari/537.36","WebKit","Chrome","138.0.0.0","Windows","10.0","https://app.prolific.com/","en-US,en;q=0.9","66c7397fb877280a42dcd495","687a360dabe5252b5ada7185","6889dac1e1dadc2f643e7c53","0","66c7397fb877280a42dcd495","0","2025-07-30T09:05:22.011Z","","","","AttribQ","","","","","","","","","","","50","","","","","","","","","","","","","","","","","","","","","","","","","","",""
"5524","","<div style=""width:500px;"">
  <p>How much control did you have over the ball?</p>
  </div>","64","html-slider-response","65","1052768","0.0-7.0-2.10","56","1","2025-07-30 08:47:51","36c45c0696341be0efffe67d72a12abb","197.185.144.235","Mozilla/5.0 (Windows NT 10.0; Win64; x64) AppleWebKit/537.36 (KHTML, like Gecko) Chrome/138.0.0.0 Safari/537.36","WebKit","Chrome","138.0.0.0","Windows","10.0","https://app.prolific.com/","en-US,en;q=0.9","66c7397fb877280a42dcd495","687a360dabe5252b5ada7185","6889dac1e1dadc2f643e7c53","0","66c7397fb877280a42dcd495","0","2025-07-30T09:05:27.538Z","","","","ControlQ","","","","","","","","","","","50","","","","","","","","","","","","","","","","","","","","","","","","","","",""
"4109","","<div style=""width:500px;"">
  <p>How would you describe your current emotional state?</p>
  </div>","67","html-slider-response","66","1056880","0.0-7.0-3.10","56","1","2025-07-30 08:47:51","36c45c0696341be0efffe67d72a12abb","197.185.144.235","Mozilla/5.0 (Windows NT 10.0; Win64; x64) AppleWebKit/537.36 (KHTML, like Gecko) Chrome/138.0.0.0 Safari/537.36","WebKit","Chrome","138.0.0.0","Windows","10.0","https://app.prolific.com/","en-US,en;q=0.9","66c7397fb877280a42dcd495","687a360dabe5252b5ada7185","6889dac1e1dadc2f643e7c53","0","66c7397fb877280a42dcd495","0","2025-07-30T09:05:31.650Z","","","","StressQ","","","","","","","","","","","50","","","","","","","","","","","","","","","","","","","","","","","","","","",""
"5126","","<div style=""width:500px;"">
  <p>What best describes how you currently feel?</p>
  </div>","64","html-slider-response","67","1062008","0.0-7.0-4.10","56","1","2025-07-30 08:47:51","36c45c0696341be0efffe67d72a12abb","197.185.144.235","Mozilla/5.0 (Windows NT 10.0; Win64; x64) AppleWebKit/537.36 (KHTML, like Gecko) Chrome/138.0.0.0 Safari/537.36","WebKit","Chrome","138.0.0.0","Windows","10.0","https://app.prolific.com/","en-US,en;q=0.9","66c7397fb877280a42dcd495","687a360dabe5252b5ada7185","6889dac1e1dadc2f643e7c53","0","66c7397fb877280a42dcd495","0","2025-07-30T09:05:36.777Z","","","","MotivationQ","","","","","","","","","","","50","","","","","","","","","","","","","","","","","","","","","","","","","","",""
"","","","","ctl-task-cpt","68","1094858","0.0-7.0-0.11","56","1","2025-07-30 08:47:51","36c45c0696341be0efffe67d72a12abb","197.185.144.235","Mozilla/5.0 (Windows NT 10.0; Win64; x64) AppleWebKit/537.36 (KHTML, like Gecko) Chrome/138.0.0.0 Safari/537.36","WebKit","Chrome","138.0.0.0","Windows","10.0","https://app.prolific.com/","en-US,en;q=0.9","66c7397fb877280a42dcd495","687a360dabe5252b5ada7185","6889dac1e1dadc2f643e7c53","0","66c7397fb877280a42dcd495","0","2025-07-30T09:06:09.627Z","","","","","","","","","","","","","","","","win-only","3","g1:SW,g2:NE","0.7","12","0","1068613.8","10812.6","15817.6","29802.4","1","4","4","6","1","1","1","2","1","0.015151515151515152","5005","3000","230","[""down"",""left""]","{""num_key_presses"":4,""num_perfect"":3,""num_errors"":0,""num_randdir"":1,""num_randdir_good_moves"":1,""num_whilered"":0,""num_whileblue"":0,""num_blue"":0,""num_good_moves"":4}","[296.22232142857143,299.12857142857143,0.8,296.22232142857143,299.12857142857143,121.1,296.22232142857143,299.12857142857143,222.4,296.22232142857143,299.12857142857143,324.5,296.22232142857143,299.12857142857143,440,296.22232142857143,299.12857142857143,540.8,296.22232142857143,299.12857142857143,649.5,296.22232142857143,299.12857142857143,755.5,296.22232142857143,299.12857142857143,855.5,296.22232142857143,299.12857142857143,958.9,296.22232142857143,299.12857142857143,1060.2,296.22232142857143,299.12857142857143,1177.4,296.22232142857143,299.12857142857143,1290,296.22232142857143,299.12857142857143,1393.8,296.22232142857143,299.12857142857143,1495.4,296.22232142857143,299.12857142857143,1599,296.22232142857143,299.12857142857143,1701.5,296.22232142857143,299.12857142857143,1811.8,296.22232142857143,299.12857142857143,1912.9,296.22232142857143,299.12857142857143,2033.1,296.22232142857143,299.12857142857143,2134,296.22232142857143,299.12857142857143,2235.1,296.22232142857143,299.12857142857143,2340.4,296.22232142857143,299.12857142857143,2440.9,296.22232142857143,299.12857142857143,2543.9,296.22232142857143,299.12857142857143,2644.3,296.22232142857143,299.12857142857143,2745.2,296.22232142857143,299.12857142857143,2851.5,296.22232142857143,299.12857142857143,2953,296.22232142857143,299.12857142857143,3053.9,296.22232142857143,299.12857142857143,3159.2,296.22232142857143,299.12857142857143,3292.7,296.22232142857143,299.12857142857143,3403.3,296.22232142857143,299.12857142857143,3506.1,296.22232142857143,299.12857142857143,3625.5,296.22232142857143,299.12857142857143,3730,296.22232142857143,299.12857142857143,3830.8,296.22232142857143,299.12857142857143,3932.7,296.22232142857143,299.12857142857143,4038.9,296.22232142857143,299.12857142857143,4139.1,296.22232142857143,299.12857142857143,4245.1,296.22232142857143,299.12857142857143,4373.7,296.22232142857143,299.12857142857143,4507.9,296.22232142857143,299.12857142857143,4610.3,296.22232142857143,299.12857142857143,4711.3,296.22232142857143,299.12857142857143,4836,296.22232142857143,299.12857142857143,4940.3]","[3400.4,3400.4,1000,0,2400.5,""oops"",""left"",""down"",""good_move"",7173.3,3771.8,2686.3,3401.6,1085.5,""smooth"",""left"",""left"",""good_move"",11571.5,4397.3,2692.8,7174.2,1704.5,""smooth"",""down"",""down"",""good_move"",13772.6,2200.4,1656.8,11572.2,543.6,""smooth"",""left"",""left"",""good_move""]"
"3255","","<div style=""width:500px;"">
  <p>What determined the result of this run?</p>
  </div>","88","html-slider-response","69","1098115","0.0-7.0-1.11","56","1","2025-07-30 08:47:51","36c45c0696341be0efffe67d72a12abb","197.185.144.235","Mozilla/5.0 (Windows NT 10.0; Win64; x64) AppleWebKit/537.36 (KHTML, like Gecko) Chrome/138.0.0.0 Safari/537.36","WebKit","Chrome","138.0.0.0","Windows","10.0","https://app.prolific.com/","en-US,en;q=0.9","66c7397fb877280a42dcd495","687a360dabe5252b5ada7185","6889dac1e1dadc2f643e7c53","0","66c7397fb877280a42dcd495","0","2025-07-30T09:06:12.884Z","","","","AttribQ","","","","","","","","","","","50","","","","","","","","","","","","","","","","","","","","","","","","","","",""
"4342","","<div style=""width:500px;"">
  <p>How much control did you have over the ball?</p>
  </div>","84","html-slider-response","70","1102460","0.0-7.0-2.11","56","1","2025-07-30 08:47:51","36c45c0696341be0efffe67d72a12abb","197.185.144.235","Mozilla/5.0 (Windows NT 10.0; Win64; x64) AppleWebKit/537.36 (KHTML, like Gecko) Chrome/138.0.0.0 Safari/537.36","WebKit","Chrome","138.0.0.0","Windows","10.0","https://app.prolific.com/","en-US,en;q=0.9","66c7397fb877280a42dcd495","687a360dabe5252b5ada7185","6889dac1e1dadc2f643e7c53","0","66c7397fb877280a42dcd495","0","2025-07-30T09:06:17.229Z","","","","ControlQ","","","","","","","","","","","50","","","","","","","","","","","","","","","","","","","","","","","","","","",""
"4417","","<div style=""width:500px;"">
  <p>How would you describe your current emotional state?</p>
  </div>","21","html-slider-response","71","1106880","0.0-7.0-3.11","56","1","2025-07-30 08:47:51","36c45c0696341be0efffe67d72a12abb","197.185.144.235","Mozilla/5.0 (Windows NT 10.0; Win64; x64) AppleWebKit/537.36 (KHTML, like Gecko) Chrome/138.0.0.0 Safari/537.36","WebKit","Chrome","138.0.0.0","Windows","10.0","https://app.prolific.com/","en-US,en;q=0.9","66c7397fb877280a42dcd495","687a360dabe5252b5ada7185","6889dac1e1dadc2f643e7c53","0","66c7397fb877280a42dcd495","0","2025-07-30T09:06:21.649Z","","","","StressQ","","","","","","","","","","","50","","","","","","","","","","","","","","","","","","","","","","","","","","",""
"5825","","<div style=""width:500px;"">
  <p>What best describes how you currently feel?</p>
  </div>","75","html-slider-response","72","1112707","0.0-7.0-4.11","56","1","2025-07-30 08:47:51","36c45c0696341be0efffe67d72a12abb","197.185.144.235","Mozilla/5.0 (Windows NT 10.0; Win64; x64) AppleWebKit/537.36 (KHTML, like Gecko) Chrome/138.0.0.0 Safari/537.36","WebKit","Chrome","138.0.0.0","Windows","10.0","https://app.prolific.com/","en-US,en;q=0.9","66c7397fb877280a42dcd495","687a360dabe5252b5ada7185","6889dac1e1dadc2f643e7c53","0","66c7397fb877280a42dcd495","0","2025-07-30T09:06:27.476Z","","","","MotivationQ","","","","","","","","","","","50","","","","","","","","","","","","","","","","","","","","","","","","","","",""
"","","","","ctl-task-cpt","73","1161946","0.0-7.0-0.12","56","1","2025-07-30 08:47:51","36c45c0696341be0efffe67d72a12abb","197.185.144.235","Mozilla/5.0 (Windows NT 10.0; Win64; x64) AppleWebKit/537.36 (KHTML, like Gecko) Chrome/138.0.0.0 Safari/537.36","WebKit","Chrome","138.0.0.0","Windows","10.0","https://app.prolific.com/","en-US,en;q=0.9","66c7397fb877280a42dcd495","687a360dabe5252b5ada7185","6889dac1e1dadc2f643e7c53","0","66c7397fb877280a42dcd495","0","2025-07-30T09:07:16.715Z","","","","","","","","","","","","","","","","win-only","1","g1:NE,g2:SW","0.8","13","0","1119313.3","11646.2","16651.8","46215.7","1","4","4","6","2","-4","-4","0","2","0","5005.6","3000","-1265","[""down"",""left""]","{""num_key_presses"":7,""num_perfect"":5,""num_errors"":0,""num_randdir"":2,""num_randdir_good_moves"":1,""num_whilered"":0,""num_whileblue"":0,""num_blue"":1,""num_good_moves"":6}","[299.22232142857143,289.12857142857143,0.6,299.22232142857143,289.12857142857143,120.5,299.22232142857143,289.12857142857143,226.1,299.22232142857143,289.12857142857143,330.1,299.22232142857143,289.12857142857143,432.7,299.22232142857143,289.12857142857143,533.5,299.22232142857143,289.12857142857143,645.5,299.22232142857143,289.12857142857143,749.1,299.22232142857143,289.12857142857143,852.9,299.22232142857143,289.12857142857143,980.6,299.22232142857143,289.12857142857143,1099.1,299.22232142857143,289.12857142857143,1220.5,299.22232142857143,289.12857142857143,1323.7,299.22232142857143,289.12857142857143,1425.1,299.22232142857143,289.12857142857143,1541.6,299.22232142857143,289.12857142857143,1644.2,299.22232142857143,289.12857142857143,1754.1,299.22232142857143,289.12857142857143,1868.1,299.22232142857143,289.12857142857143,1970.4,299.22232142857143,289.12857142857143,2077.4,299.22232142857143,289.12857142857143,2182.2,299.22232142857143,289.12857142857143,2286.4,299.22232142857143,289.12857142857143,2409.9,299.22232142857143,289.12857142857143,2520.8,299.22232142857143,289.12857142857143,2633.2,299.22232142857143,289.12857142857143,2750.4,299.22232142857143,289.12857142857143,2851.9,299.22232142857143,289.12857142857143,2957,299.22232142857143,289.12857142857143,3067.7,299.22232142857143,289.12857142857143,3169.4,299.22232142857143,289.12857142857143,3288,299.22232142857143,289.12857142857143,3396.8,299.22232142857143,289.12857142857143,3509.4,299.22232142857143,289.12857142857143,3610.6,299.22232142857143,289.12857142857143,3712.5,299.22232142857143,289.12857142857143,3818.8,299.22232142857143,289.12857142857143,3919.4,299.22232142857143,289.12857142857143,4042.9,299.22232142857143,289.12857142857143,4144.2,299.22232142857143,289.12857142857143,4245.7,299.22232142857143,289.12857142857143,4346.4,299.22232142857143,289.12857142857143,4447.2,299.22232142857143,289.12857142857143,4552.2,299.22232142857143,289.12857142857143,4669.3,299.22232142857143,289.12857142857143,4786.6,299.22232142857143,289.12857142857143,4905.6]","[1478.6,1478.7,1000,0,478.7,""oops"",""right"",""down"",""good_move"",4986.7,3507.1,2416.3,1479.6,1090.9,""oops"",""left"",""up"",""bad_move"",7820.3,2832.1,2252.4,4988.2,579.7,""smooth"",""down"",""down"",""good_move"",11946.1,4125.4,2172.3,7820.7,1953.1,""smooth"",""down"",""down"",""good_move"",15662.7,3716,2910.4,11946.7,805.6,""smooth"",""down"",""down"",""good_move"",20248.3,4585.2,3295.8,15663.1,1289.4,""smooth"",""left"",""left"",""good_move"",26326.6,6077.6,2603.3,23089.3,634,""smooth"",""left"",""left"",""good_move""]"
"4119","","<div style=""width:500px;"">
  <p>What determined the result of this run?</p>
  </div>","64","html-slider-response","74","1166069","0.0-7.0-1.12","56","1","2025-07-30 08:47:51","36c45c0696341be0efffe67d72a12abb","197.185.144.235","Mozilla/5.0 (Windows NT 10.0; Win64; x64) AppleWebKit/537.36 (KHTML, like Gecko) Chrome/138.0.0.0 Safari/537.36","WebKit","Chrome","138.0.0.0","Windows","10.0","https://app.prolific.com/","en-US,en;q=0.9","66c7397fb877280a42dcd495","687a360dabe5252b5ada7185","6889dac1e1dadc2f643e7c53","0","66c7397fb877280a42dcd495","0","2025-07-30T09:07:20.838Z","","","","AttribQ","","","","","","","","","","","50","","","","","","","","","","","","","","","","","","","","","","","","","","",""
"3751","","<div style=""width:500px;"">
  <p>How much control did you have over the ball?</p>
  </div>","69","html-slider-response","75","1169823","0.0-7.0-2.12","56","1","2025-07-30 08:47:51","36c45c0696341be0efffe67d72a12abb","197.185.144.235","Mozilla/5.0 (Windows NT 10.0; Win64; x64) AppleWebKit/537.36 (KHTML, like Gecko) Chrome/138.0.0.0 Safari/537.36","WebKit","Chrome","138.0.0.0","Windows","10.0","https://app.prolific.com/","en-US,en;q=0.9","66c7397fb877280a42dcd495","687a360dabe5252b5ada7185","6889dac1e1dadc2f643e7c53","0","66c7397fb877280a42dcd495","0","2025-07-30T09:07:24.593Z","","","","ControlQ","","","","","","","","","","","50","","","","","","","","","","","","","","","","","","","","","","","","","","",""
"3413","","<div style=""width:500px;"">
  <p>How would you describe your current emotional state?</p>
  </div>","76","html-slider-response","76","1173240","0.0-7.0-3.12","56","1","2025-07-30 08:47:51","36c45c0696341be0efffe67d72a12abb","197.185.144.235","Mozilla/5.0 (Windows NT 10.0; Win64; x64) AppleWebKit/537.36 (KHTML, like Gecko) Chrome/138.0.0.0 Safari/537.36","WebKit","Chrome","138.0.0.0","Windows","10.0","https://app.prolific.com/","en-US,en;q=0.9","66c7397fb877280a42dcd495","687a360dabe5252b5ada7185","6889dac1e1dadc2f643e7c53","0","66c7397fb877280a42dcd495","0","2025-07-30T09:07:28.009Z","","","","StressQ","","","","","","","","","","","50","","","","","","","","","","","","","","","","","","","","","","","","","","",""
"5197","","<div style=""width:500px;"">
  <p>What best describes how you currently feel?</p>
  </div>","78","html-slider-response","77","1178440","0.0-7.0-4.12","56","1","2025-07-30 08:47:51","36c45c0696341be0efffe67d72a12abb","197.185.144.235","Mozilla/5.0 (Windows NT 10.0; Win64; x64) AppleWebKit/537.36 (KHTML, like Gecko) Chrome/138.0.0.0 Safari/537.36","WebKit","Chrome","138.0.0.0","Windows","10.0","https://app.prolific.com/","en-US,en;q=0.9","66c7397fb877280a42dcd495","687a360dabe5252b5ada7185","6889dac1e1dadc2f643e7c53","0","66c7397fb877280a42dcd495","0","2025-07-30T09:07:33.209Z","","","","MotivationQ","","","","","","","","","","","50","","","","","","","","","","","","","","","","","","","","","","","","","","",""
