"rt","response_timestamp","stimulus","response","trial_type","trial_index","time_elapsed","internal_node_id","run_id","condition","recorded_at","source_code_version","ip","user_agent","device","browser","browser_version","platform","platform_version","referer","accept_language","PROLIFIC_PID","STUDY_ID","SESSION_ID","BATCH","prolific_id","batch","realtime","success","question_order","question_id","eventType","responses","item_order","radio_event_ids","radio_event_times","key_event_times","mouse_event_times","straightlining","zigzagging","honeypot","view_history","slider_start","which_type","canvas_config","goals_layout","control_level","trial_number","tutorial_trial_number","trial_start_time","phase1_start_time","phase2_start_time","phase3_start_time","goal_1_value","goal_1_distance","goal_2_value","goal_2_distance","goal_selected","outcome","outcome_total","participant_final_score","participant_initial_score","participant_final_score_prop","goal_choice_rt","allocated_time","allocated_time_remaining","goal_direction","counts","mouse_movements","key_presses"
"7145","1753865021413","<p style='font-size:40px;line-height:1.25'><strong>Welcome to the experiment!</strong></p><p style='font-size:1.1em;line-height:1.25'>Thank you for participanting in our experiment again! You will be asked to play the Dysfunctional Ball Game again. We will briefly recap the rules before we start.</p><p style='font-size:1.1em;line-height:1.25'>Press <strong>Next</strong> to continue.</p>","0","custom-html-button-response","0","7146","0.0-0.0","43","1","2025-07-30 08:43:34","36c45c0696341be0efffe67d72a12abb","196.75.100.139","Mozilla/5.0 (Windows NT 10.0; Win64; x64) AppleWebKit/537.36 (KHTML, like Gecko) Chrome/138.0.0.0 Safari/537.36","WebKit","Chrome","138.0.0.0","Windows","10.0","https://app.prolific.com/","en-US,en;q=0.9,ar;q=0.8","66ce541cd8da920539a1c3cc","687a19d2168e237449fb8af4","6889da06cdedc5b9120dcca7","0","66ce541cd8da920539a1c3cc","0","2025-07-30T08:43:41.414Z","","","","","","","","","","","","","","","","","","","","","","","","","","","","","","","","","","","","","","","","","",""
"7570","","","","fullscreen","1","15730","0.0-1.0","43","1","2025-07-30 08:43:34","36c45c0696341be0efffe67d72a12abb","196.75.100.139","Mozilla/5.0 (Windows NT 10.0; Win64; x64) AppleWebKit/537.36 (KHTML, like Gecko) Chrome/138.0.0.0 Safari/537.36","WebKit","Chrome","138.0.0.0","Windows","10.0","https://app.prolific.com/","en-US,en;q=0.9,ar;q=0.8","66ce541cd8da920539a1c3cc","687a19d2168e237449fb8af4","6889da06cdedc5b9120dcca7","0","66ce541cd8da920539a1c3cc","0","","true","","","","","","","","","","","","","","","","","","","","","","","","","","","","","","","","","","","","","","","","",""
"6308","1753865036307"," <p style='font-size:1.1em;line-height:1.25'>Thank you for closing all other tabs.</p><p style='font-size:1.1em;line-height:1.25'>We will now invite you to fill in some questionnaires, before starting the game.<br>This will take about 5 minutes.<br></p><p style='font-size:1.1em;line-height:1.25'>Press the <strong>Next</strong> button to continue.</p>","0","custom-html-button-response","2","22039","0.0-2.0","43","1","2025-07-30 08:43:34","36c45c0696341be0efffe67d72a12abb","196.75.100.139","Mozilla/5.0 (Windows NT 10.0; Win64; x64) AppleWebKit/537.36 (KHTML, like Gecko) Chrome/138.0.0.0 Safari/537.36","WebKit","Chrome","138.0.0.0","Windows","10.0","https://app.prolific.com/","en-US,en;q=0.9,ar;q=0.8","66ce541cd8da920539a1c3cc","687a19d2168e237449fb8af4","6889da06cdedc5b9120dcca7","0","66ce541cd8da920539a1c3cc","0","2025-07-30T08:43:56.307Z","","","","","","","","","","","","","","","","","","","","","","","","","","","","","","","","","","","","","","","","","",""
"3382","","","{""assigned_sex"":""male""}","survey-multi-choice","3","25422","0.0-3.0-0.0","43","1","2025-07-30 08:43:34","36c45c0696341be0efffe67d72a12abb","196.75.100.139","Mozilla/5.0 (Windows NT 10.0; Win64; x64) AppleWebKit/537.36 (KHTML, like Gecko) Chrome/138.0.0.0 Safari/537.36","WebKit","Chrome","138.0.0.0","Windows","10.0","https://app.prolific.com/","en-US,en;q=0.9,ar;q=0.8","66ce541cd8da920539a1c3cc","687a19d2168e237449fb8af4","6889da06cdedc5b9120dcca7","0","66ce541cd8da920539a1c3cc","0","","","[0]","0","demographics","","","","","","","","","","","","","","","","","","","","","","","","","","","","","","","","","","","","","",""
"6532","1753865046223","<p style='font-size:1.1em;line-height:1.25'>In the following, we will perform a baseline assessment. This means that we will ask you a few questions relating to your experiences over the past month.<br></p><p style='font-size:1.1em;line-height:1.25'>Press the <strong>Next</strong> button to continue.</p>","0","custom-html-button-response","4","31955","0.0-4.0-0.0","43","1","2025-07-30 08:43:34","36c45c0696341be0efffe67d72a12abb","196.75.100.139","Mozilla/5.0 (Windows NT 10.0; Win64; x64) AppleWebKit/537.36 (KHTML, like Gecko) Chrome/138.0.0.0 Safari/537.36","WebKit","Chrome","138.0.0.0","Windows","10.0","https://app.prolific.com/","en-US,en;q=0.9,ar;q=0.8","66ce541cd8da920539a1c3cc","687a19d2168e237449fb8af4","6889da06cdedc5b9120dcca7","0","66ce541cd8da920539a1c3cc","0","2025-07-30T08:44:06.223Z","","","","","","","","","","","","","","","","","","","","","","","","","","","","","","","","","","","","","","","","","",""
"87031.5","","","","survey-template","5","118988","0.0-4.0-1.0","43","1","2025-07-30 08:43:34","36c45c0696341be0efffe67d72a12abb","196.75.100.139","Mozilla/5.0 (Windows NT 10.0; Win64; x64) AppleWebKit/537.36 (KHTML, like Gecko) Chrome/138.0.0.0 Safari/537.36","WebKit","Chrome","138.0.0.0","Windows","10.0","https://app.prolific.com/","en-US,en;q=0.9,ar;q=0.8","66ce541cd8da920539a1c3cc","687a19d2168e237449fb8af4","6889da06cdedc5b9120dcca7","0","66ce541cd8da920539a1c3cc","0","2025-07-30T08:45:33.256Z","","","","pss","{""Q01"":""2"",""Q02"":""1"",""Q03"":""2"",""Q04"":""1"",""Q05"":""1"",""Q06"":""1"",""Q07"":""1"",""Q08"":""1"",""Q09"":""2"",""Q10"":""1""}","[0,1,2,3,4,5,6,7,8,9]","[""Q01"",""Q03"",""Q02"",""Q02"",""Q02"",""Q03"",""Q04"",""Q05"",""Q06"",""Q05"",""Q07"",""Q08"",""Q09"",""Q10""]","[12276.300000011921,25568.5,27726.5,29109.399999976158,31590.399999976158,33131.39999997616,39334.30000001192,43123.19999998808,49732.19999998808,50926.80000001192,57257.19999998808,66385,70368.89999997616,75293.5]","[]","[0.09999996423721313,12276.300000011921,19192.599999964237,20658.5,23673.5,24636.399999976158,25568.5,27726.5,29109.399999976158,30876.5,31590.399999976158,33131.39999997616,38605.30000001192,39334.30000001192,43123.19999998808,49732.19999998808,50926.80000001192,57257.19999998808,62294.5,65617.89999997616,66385,70368.89999997616,75293.5,87029.80000001192]","0.4","0.5555555555555556","0","","","","","","","","","","","","","","","","","","","","","","","","","","","","",""
"4057","1753865137313","<p style='font-size:1.1em;line-height:1.25'>Thank you for your answers! Now we will ask you a few more questions relating to your feelings in the last 24 hours.<br></p><p style='font-size:1.1em;line-height:1.25'>Press the <strong>Next</strong> button to continue.</p>","0","custom-html-button-response","6","123046","0.0-4.0-2.0","43","1","2025-07-30 08:43:34","36c45c0696341be0efffe67d72a12abb","196.75.100.139","Mozilla/5.0 (Windows NT 10.0; Win64; x64) AppleWebKit/537.36 (KHTML, like Gecko) Chrome/138.0.0.0 Safari/537.36","WebKit","Chrome","138.0.0.0","Windows","10.0","https://app.prolific.com/","en-US,en;q=0.9,ar;q=0.8","66ce541cd8da920539a1c3cc","687a19d2168e237449fb8af4","6889da06cdedc5b9120dcca7","0","66ce541cd8da920539a1c3cc","0","2025-07-30T08:45:37.314Z","","","","","","","","","","","","","","","","","","","","","","","","","","","","","","","","","","","","","","","","","",""
"131132.10000002384","","","","survey-template","7","254180","0.0-4.0-3.0","43","1","2025-07-30 08:43:34","36c45c0696341be0efffe67d72a12abb","196.75.100.139","Mozilla/5.0 (Windows NT 10.0; Win64; x64) AppleWebKit/537.36 (KHTML, like Gecko) Chrome/138.0.0.0 Safari/537.36","WebKit","Chrome","138.0.0.0","Windows","10.0","https://app.prolific.com/","en-US,en;q=0.9,ar;q=0.8","66ce541cd8da920539a1c3cc","687a19d2168e237449fb8af4","6889da06cdedc5b9120dcca7","0","66ce541cd8da920539a1c3cc","0","2025-07-30T08:47:48.448Z","","","","drsp","{""Q01"":""1"",""Q02"":""1"",""Q03"":""0"",""Q04"":""2"",""Q05"":""1"",""Q06"":""0"",""Q07"":""1"",""Q08"":""1"",""Q09"":""1"",""Q10"":""0"",""Q11"":""1"",""Q12"":""1"",""Q13"":""5"",""Q14"":""2"",""Q15"":""1"",""Q16"":""3"",""Q17"":""1"",""Q18"":""1"",""Q19"":""2"",""Q20"":""2"",""Q21"":""1"",""Q22"":""2""}","[0,1,2,3,4,5,6,7,8,9,10,11,12,13,14,15,16,17,18,19,20,21]","[""Q01"",""Q02"",""Q03"",""Q03"",""Q03"",""Q04"",""Q05"",""Q06"",""Q07"",""Q07"",""Q08"",""Q09"",""Q10"",""Q11"",""Q13"",""Q12"",""Q03"",""Q03"",""Q14"",""Q15"",""Q16"",""Q17"",""Q18"",""Q18"",""Q19"",""Q20"",""Q20"",""Q20"",""Q21"",""Q22""]","[14049.699999988079,15290.699999988079,16816.80000001192,16830.900000035763,16854.900000035763,19319.69999998808,21921.100000023842,27596.900000035763,31935.30000001192,34379.19999998808,36385.90000003576,39702.40000003576,43746.40000003576,44543.19999998808,53746.19999998808,58106.40000003576,64285.80000001192,73594,80074.90000003576,87193.80000001192,92005.80000001192,99862.69999998808,102598.69999998808,102702.90000003576,107583.60000002384,113988.40000003576,114010.80000001192,119883.40000003576,121003.30000001192,124349.40000003576]","[]","[0.19999998807907104,12327.600000023842,14049.699999988079,15290.699999988079,16816.80000001192,16830.900000035763,16854.900000035763,19319.69999998808,21921.100000023842,25560.19999998808,26026.19999998808,27596.900000035763,29341.30000001192,31935.30000001192,34379.19999998808,36385.90000003576,38942.30000001192,39702.40000003576,41401.40000003576,43746.40000003576,44543.19999998808,53746.19999998808,58106.40000003576,64285.80000001192,73594,80074.90000003576,87193.80000001192,90743,91554.60000002384,92005.80000001192,99862.69999998808,102598.69999998808,102702.90000003576,107583.60000002384,113988.40000003576,114010.80000001192,119883.40000003576,121003.30000001192,124349.40000003576,131130.10000002384]","0.5454545454545454","0.47619047619047616","0","","","","","","","","","","","","","","","","","","","","","","","","","","","","",""
"17815","","","","survey-template","8","271996","0.0-4.0-4.0","43","1","2025-07-30 08:43:34","36c45c0696341be0efffe67d72a12abb","196.75.100.139","Mozilla/5.0 (Windows NT 10.0; Win64; x64) AppleWebKit/537.36 (KHTML, like Gecko) Chrome/138.0.0.0 Safari/537.36","WebKit","Chrome","138.0.0.0","Windows","10.0","https://app.prolific.com/","en-US,en;q=0.9,ar;q=0.8","66ce541cd8da920539a1c3cc","687a19d2168e237449fb8af4","6889da06cdedc5b9120dcca7","0","66ce541cd8da920539a1c3cc","0","2025-07-30T08:48:06.264Z","","","","stress","{""Q01"":""3"",""Q02"":""3"",""Q03"":""1""}","[0,1,2]","[""Q01"",""Q02"",""Q02"",""Q01"",""Q03""]","[8725.599999964237,12070.199999988079,12115.399999976158,13198.199999988079,15784.5]","[]","[4274.599999964237,8725.599999964237,10597.599999964237,11206.099999964237,12070.199999988079,12115.399999976158,13198.199999988079,15784.5,17814.5]","0.3333333333333333","1","0","","","","","","","","","","","","","","","","","","","","","","","","","","","","",""
"34448","","","","instructions","9","306444","0.0-5.0-0.0","43","1","2025-07-30 08:43:34","36c45c0696341be0efffe67d72a12abb","196.75.100.139","Mozilla/5.0 (Windows NT 10.0; Win64; x64) AppleWebKit/537.36 (KHTML, like Gecko) Chrome/138.0.0.0 Safari/537.36","WebKit","Chrome","138.0.0.0","Windows","10.0","https://app.prolific.com/","en-US,en;q=0.9,ar;q=0.8","66ce541cd8da920539a1c3cc","687a19d2168e237449fb8af4","6889da06cdedc5b9120dcca7","0","66ce541cd8da920539a1c3cc","0","","","","","","","","","","","","","","","[{""page_index"":0,""viewing_time"":34447}]","","","","","","","","","","","","","","","","","","","","","","","","","","","",""
"12683","","<p>Before you start with this game please answer the following three questions yourself. </p>
  <p>Through this game, we measure several aspects of your cognitive performance, such as reaction times, multi-tasking capabilities </p>
  <p>and the ability to assess the situation you are in.</p>
  <p></p>
  <p><b>How good do you usually are in such tasks?</b></p>","83","html-slider-response","10","319128","0.0-6.0-0.0","43","1","2025-07-30 08:43:34","36c45c0696341be0efffe67d72a12abb","196.75.100.139","Mozilla/5.0 (Windows NT 10.0; Win64; x64) AppleWebKit/537.36 (KHTML, like Gecko) Chrome/138.0.0.0 Safari/537.36","WebKit","Chrome","138.0.0.0","Windows","10.0","https://app.prolific.com/","en-US,en;q=0.9,ar;q=0.8","66ce541cd8da920539a1c3cc","687a19d2168e237449fb8af4","6889da06cdedc5b9120dcca7","0","66ce541cd8da920539a1c3cc","0","2025-07-30T08:48:53.396Z","","","","PreSkillQ","","","","","","","","","","","50","","","","","","","","","","","","","","","","","","","","","","","","","","",""
"6043","","<div style=""width:500px;"">
  <p>How well do you think you will perform in this task compared to other participants?</p>
  </div>","70","html-slider-response","11","325172","0.0-6.0-1.0","43","1","2025-07-30 08:43:34","36c45c0696341be0efffe67d72a12abb","196.75.100.139","Mozilla/5.0 (Windows NT 10.0; Win64; x64) AppleWebKit/537.36 (KHTML, like Gecko) Chrome/138.0.0.0 Safari/537.36","WebKit","Chrome","138.0.0.0","Windows","10.0","https://app.prolific.com/","en-US,en;q=0.9,ar;q=0.8","66ce541cd8da920539a1c3cc","687a19d2168e237449fb8af4","6889da06cdedc5b9120dcca7","0","66ce541cd8da920539a1c3cc","0","2025-07-30T08:48:59.440Z","","","","PrePerfQ","","","","","","","","","","","50","","","","","","","","","","","","","","","","","","","","","","","","","","",""
"3864","","<div style=""width:500px;"">
  <p>What best describes how you currently feel?</p>
  </div>","86","html-slider-response","12","329037","0.0-6.0-2.0","43","1","2025-07-30 08:43:34","36c45c0696341be0efffe67d72a12abb","196.75.100.139","Mozilla/5.0 (Windows NT 10.0; Win64; x64) AppleWebKit/537.36 (KHTML, like Gecko) Chrome/138.0.0.0 Safari/537.36","WebKit","Chrome","138.0.0.0","Windows","10.0","https://app.prolific.com/","en-US,en;q=0.9,ar;q=0.8","66ce541cd8da920539a1c3cc","687a19d2168e237449fb8af4","6889da06cdedc5b9120dcca7","0","66ce541cd8da920539a1c3cc","0","2025-07-30T08:49:03.305Z","","","","PreMotivationQ","","","","","","","","","","","50","","","","","","","","","","","","","","","","","","","","","","","","","","",""
"","","","","ctl-task-cpt","13","340994","0.0-7.0-0.0","43","1","2025-07-30 08:43:34","36c45c0696341be0efffe67d72a12abb","196.75.100.139","Mozilla/5.0 (Windows NT 10.0; Win64; x64) AppleWebKit/537.36 (KHTML, like Gecko) Chrome/138.0.0.0 Safari/537.36","WebKit","Chrome","138.0.0.0","Windows","10.0","https://app.prolific.com/","en-US,en;q=0.9,ar;q=0.8","66ce541cd8da920539a1c3cc","687a19d2168e237449fb8af4","6889da06cdedc5b9120dcca7","0","66ce541cd8da920539a1c3cc","0","2025-07-30T08:49:15.262Z","","","","","","","","","","","","","","","","win-only","1","g1:NE,g2:SW","1","1","0","333043.2","3945.5","-9999","8952.2","1","4","4","6","-9999","-4","-4","0","0","0","-9999","3000","3000","[]","{""num_key_presses"":0,""num_perfect"":0,""num_errors"":0,""num_randdir"":0,""num_randdir_good_moves"":0,""num_whilered"":0,""num_whileblue"":0,""num_blue"":0,""num_good_moves"":0}","[413.57142857142856,422.47767857142856,0.1,413.57142857142856,422.47767857142856,100.6,413.57142857142856,422.47767857142856,200.6,413.57142857142856,422.47767857142856,300.9,413.57142857142856,422.47767857142856,405.8,413.57142857142856,422.47767857142856,510.6,413.57142857142856,422.47767857142856,610.6,413.57142857142856,422.47767857142856,710.6,413.57142857142856,422.47767857142856,810.6,413.57142857142856,422.47767857142856,910.6,413.57142857142856,422.47767857142856,1010.9,413.57142857142856,424.47767857142856,1115.4,416.57142857142856,435.47767857142856,1220.9,423.57142857142856,435.47767857142856,1321.6,423.57142857142856,435.47767857142856,1426.6,423.57142857142856,435.47767857142856,1530.5,421.57142857142856,437.47767857142856,1630.6,421.57142857142856,437.47767857142856,1730.6,421.57142857142856,437.47767857142856,1830.6,421.57142857142856,437.47767857142856,1936.5,421.57142857142856,438.47767857142856,2036.5,421.57142857142856,438.47767857142856,2140.6,418.57142857142856,443.47767857142856,2240.6,418.57142857142856,443.47767857142856,2340.6,418.57142857142856,443.47767857142856,2440.6,418.57142857142856,443.47767857142856,2544.7,420.57142857142856,441.47767857142856,2644.8,420.57142857142856,441.47767857142856,2750.6,420.57142857142856,441.47767857142856,2855.1,420.57142857142856,441.47767857142856,2955.3,420.57142857142856,441.47767857142856,3060.5,420.57142857142856,441.47767857142856,3160.6,420.57142857142856,441.47767857142856,3265,420.57142857142856,441.47767857142856,3366.6,420.57142857142856,441.47767857142856,3470.6,420.57142857142856,441.47767857142856,3575.1,420.57142857142856,441.47767857142856,3675.2,420.57142857142856,441.47767857142856,3775.7,420.57142857142856,441.47767857142856,3880.6,420.57142857142856,441.47767857142856,3984.7,420.57142857142856,441.47767857142856,4085.1,420.57142857142856,441.47767857142856,4185.6,420.57142857142856,441.47767857142856,4290.6,420.57142857142856,441.47767857142856,4390.6,420.57142857142856,441.47767857142856,4494.7,420.57142857142856,441.47767857142856,4595.6,420.57142857142856,441.47767857142856,4695.6,420.57142857142856,441.47767857142856,4800.7,420.57142857142856,441.47767857142856,4904.9]","[]"
"6107","","<div style=""width:500px;"">
  <p>What determined the result of this run?</p>
  </div>","86","html-slider-response","14","347102","0.0-7.0-1.0","43","1","2025-07-30 08:43:34","36c45c0696341be0efffe67d72a12abb","196.75.100.139","Mozilla/5.0 (Windows NT 10.0; Win64; x64) AppleWebKit/537.36 (KHTML, like Gecko) Chrome/138.0.0.0 Safari/537.36","WebKit","Chrome","138.0.0.0","Windows","10.0","https://app.prolific.com/","en-US,en;q=0.9,ar;q=0.8","66ce541cd8da920539a1c3cc","687a19d2168e237449fb8af4","6889da06cdedc5b9120dcca7","0","66ce541cd8da920539a1c3cc","0","2025-07-30T08:49:21.370Z","","","","AttribQ","","","","","","","","","","","50","","","","","","","","","","","","","","","","","","","","","","","","","","",""
"5007","","<div style=""width:500px;"">
  <p>How much control did you have over the ball?</p>
  </div>","20","html-slider-response","15","352109","0.0-7.0-2.0","43","1","2025-07-30 08:43:34","36c45c0696341be0efffe67d72a12abb","196.75.100.139","Mozilla/5.0 (Windows NT 10.0; Win64; x64) AppleWebKit/537.36 (KHTML, like Gecko) Chrome/138.0.0.0 Safari/537.36","WebKit","Chrome","138.0.0.0","Windows","10.0","https://app.prolific.com/","en-US,en;q=0.9,ar;q=0.8","66ce541cd8da920539a1c3cc","687a19d2168e237449fb8af4","6889da06cdedc5b9120dcca7","0","66ce541cd8da920539a1c3cc","0","2025-07-30T08:49:26.377Z","","","","ControlQ","","","","","","","","","","","50","","","","","","","","","","","","","","","","","","","","","","","","","","",""
"4758","","<div style=""width:500px;"">
  <p>How would you describe your current emotional state?</p>
  </div>","39","html-slider-response","16","356868","0.0-7.0-3.0","43","1","2025-07-30 08:43:34","36c45c0696341be0efffe67d72a12abb","196.75.100.139","Mozilla/5.0 (Windows NT 10.0; Win64; x64) AppleWebKit/537.36 (KHTML, like Gecko) Chrome/138.0.0.0 Safari/537.36","WebKit","Chrome","138.0.0.0","Windows","10.0","https://app.prolific.com/","en-US,en;q=0.9,ar;q=0.8","66ce541cd8da920539a1c3cc","687a19d2168e237449fb8af4","6889da06cdedc5b9120dcca7","0","66ce541cd8da920539a1c3cc","0","2025-07-30T08:49:31.136Z","","","","StressQ","","","","","","","","","","","50","","","","","","","","","","","","","","","","","","","","","","","","","","",""
"3217","","<div style=""width:500px;"">
  <p>What best describes how you currently feel?</p>
  </div>","68","html-slider-response","17","360086","0.0-7.0-4.0","43","1","2025-07-30 08:43:34","36c45c0696341be0efffe67d72a12abb","196.75.100.139","Mozilla/5.0 (Windows NT 10.0; Win64; x64) AppleWebKit/537.36 (KHTML, like Gecko) Chrome/138.0.0.0 Safari/537.36","WebKit","Chrome","138.0.0.0","Windows","10.0","https://app.prolific.com/","en-US,en;q=0.9,ar;q=0.8","66ce541cd8da920539a1c3cc","687a19d2168e237449fb8af4","6889da06cdedc5b9120dcca7","0","66ce541cd8da920539a1c3cc","0","2025-07-30T08:49:34.354Z","","","","MotivationQ","","","","","","","","","","","50","","","","","","","","","","","","","","","","","","","","","","","","","","",""
"","","","","ctl-task-cpt","18","384154","0.0-7.0-0.1","43","1","2025-07-30 08:43:34","36c45c0696341be0efffe67d72a12abb","196.75.100.139","Mozilla/5.0 (Windows NT 10.0; Win64; x64) AppleWebKit/537.36 (KHTML, like Gecko) Chrome/138.0.0.0 Safari/537.36","WebKit","Chrome","138.0.0.0","Windows","10.0","https://app.prolific.com/","en-US,en;q=0.9,ar;q=0.8","66ce541cd8da920539a1c3cc","687a19d2168e237449fb8af4","6889da06cdedc5b9120dcca7","0","66ce541cd8da920539a1c3cc","0","2025-07-30T08:49:58.422Z","","","","","","","","","","","","","","","","win-only","3","g1:SW,g2:NE","0.9","2","0","364092.3","1194","6195.4","21066.1","1","4","8","6","1","1","1","1","0","0.007575757575757576","5001.4","3000","1200","[""down"",""left""]","{""num_key_presses"":4,""num_perfect"":4,""num_errors"":0,""num_randdir"":0,""num_randdir_good_moves"":0,""num_whilered"":0,""num_whileblue"":0,""num_blue"":1,""num_good_moves"":4}","[411.57142857142856,407.47767857142856,0,411.57142857142856,407.47767857142856,101.9,411.57142857142856,407.47767857142856,202,411.57142857142856,407.47767857142856,306.8,411.57142857142856,407.47767857142856,407,411.57142857142856,407.47767857142856,511.3,411.57142857142856,407.47767857142856,612,411.57142857142856,407.47767857142856,716.9,411.57142857142856,407.47767857142856,816.9,411.57142857142856,407.47767857142856,916.9,416.57142857142856,414.47767857142856,1022.3,419.57142857142856,419.47767857142856,1122.3,421.57142857142856,422.47767857142856,1227,421.57142857142856,422.47767857142856,1331.5,421.57142857142856,422.47767857142856,1436.4,421.57142857142856,422.47767857142856,1536.5,421.57142857142856,422.47767857142856,1636.5,421.57142857142856,422.47767857142856,1741.1,421.57142857142856,422.47767857142856,1841.1,421.57142857142856,422.47767857142856,1942,421.57142857142856,422.47767857142856,2046.9,421.57142857142856,422.47767857142856,2146.9,421.57142857142856,422.47767857142856,2251.3,421.57142857142856,422.47767857142856,2357.5,421.57142857142856,425.47767857142856,2461,421.57142857142856,425.47767857142856,2561.9,421.57142857142856,425.47767857142856,2662.9,421.57142857142856,425.47767857142856,2766.6,421.57142857142856,425.47767857142856,2872.2,421.57142857142856,425.47767857142856,2976.8,421.57142857142856,425.47767857142856,3077,421.57142857142856,425.47767857142856,3181.6,421.57142857142856,425.47767857142856,3281.6,421.57142857142856,425.47767857142856,3381.9,421.57142857142856,425.47767857142856,3486.5,421.57142857142856,425.47767857142856,3586.5,421.57142857142856,425.47767857142856,3691.8,421.57142857142856,425.47767857142856,3791.9,350.57142857142856,535.4776785714286,3891.9,83.57142857142857,765.4776785714286,3992,-543.4285714285714,959.4776785714286,4096.9,-543.4285714285714,959.4776785714286,4196.9,-543.4285714285714,959.4776785714286,4303.7,-543.4285714285714,959.4776785714286,4406.9,-543.4285714285714,959.4776785714286,4507.2,-543.4285714285714,959.4776785714286,4612,-509.42857142857144,959.4776785714286,4716.9,-496.42857142857144,959.4776785714286,4816.9,-446.42857142857144,959.4776785714286,4917.8]","[5048.9,5048.9,2587.5,2001.3,460.1,""smooth"",""down"",""down"",""good_move"",8316,3266.8,2761.4,5049.2,505.4,""smooth"",""left"",""left"",""good_move"",12026,3709.8,3271,8316.2,438.8,""smooth"",""down"",""down"",""good_move"",14783.8,2757.7,2337.7,12026.1,420,""smooth"",""left"",""left"",""good_move""]"
"5350","","<div style=""width:500px;"">
  <p>What determined the result of this run?</p>
  </div>","93","html-slider-response","19","389505","0.0-7.0-1.1","43","1","2025-07-30 08:43:34","36c45c0696341be0efffe67d72a12abb","196.75.100.139","Mozilla/5.0 (Windows NT 10.0; Win64; x64) AppleWebKit/537.36 (KHTML, like Gecko) Chrome/138.0.0.0 Safari/537.36","WebKit","Chrome","138.0.0.0","Windows","10.0","https://app.prolific.com/","en-US,en;q=0.9,ar;q=0.8","66ce541cd8da920539a1c3cc","687a19d2168e237449fb8af4","6889da06cdedc5b9120dcca7","0","66ce541cd8da920539a1c3cc","0","2025-07-30T08:50:03.773Z","","","","AttribQ","","","","","","","","","","","50","","","","","","","","","","","","","","","","","","","","","","","","","","",""
"2863","","<div style=""width:500px;"">
  <p>How much control did you have over the ball?</p>
  </div>","100","html-slider-response","20","392369","0.0-7.0-2.1","43","1","2025-07-30 08:43:34","36c45c0696341be0efffe67d72a12abb","196.75.100.139","Mozilla/5.0 (Windows NT 10.0; Win64; x64) AppleWebKit/537.36 (KHTML, like Gecko) Chrome/138.0.0.0 Safari/537.36","WebKit","Chrome","138.0.0.0","Windows","10.0","https://app.prolific.com/","en-US,en;q=0.9,ar;q=0.8","66ce541cd8da920539a1c3cc","687a19d2168e237449fb8af4","6889da06cdedc5b9120dcca7","0","66ce541cd8da920539a1c3cc","0","2025-07-30T08:50:06.637Z","","","","ControlQ","","","","","","","","","","","50","","","","","","","","","","","","","","","","","","","","","","","","","","",""
"3939","","<div style=""width:500px;"">
  <p>How would you describe your current emotional state?</p>
  </div>","17","html-slider-response","21","396309","0.0-7.0-3.1","43","1","2025-07-30 08:43:34","36c45c0696341be0efffe67d72a12abb","196.75.100.139","Mozilla/5.0 (Windows NT 10.0; Win64; x64) AppleWebKit/537.36 (KHTML, like Gecko) Chrome/138.0.0.0 Safari/537.36","WebKit","Chrome","138.0.0.0","Windows","10.0","https://app.prolific.com/","en-US,en;q=0.9,ar;q=0.8","66ce541cd8da920539a1c3cc","687a19d2168e237449fb8af4","6889da06cdedc5b9120dcca7","0","66ce541cd8da920539a1c3cc","0","2025-07-30T08:50:10.577Z","","","","StressQ","","","","","","","","","","","50","","","","","","","","","","","","","","","","","","","","","","","","","","",""
"3210","","<div style=""width:500px;"">
  <p>What best describes how you currently feel?</p>
  </div>","92","html-slider-response","22","399519","0.0-7.0-4.1","43","1","2025-07-30 08:43:34","36c45c0696341be0efffe67d72a12abb","196.75.100.139","Mozilla/5.0 (Windows NT 10.0; Win64; x64) AppleWebKit/537.36 (KHTML, like Gecko) Chrome/138.0.0.0 Safari/537.36","WebKit","Chrome","138.0.0.0","Windows","10.0","https://app.prolific.com/","en-US,en;q=0.9,ar;q=0.8","66ce541cd8da920539a1c3cc","687a19d2168e237449fb8af4","6889da06cdedc5b9120dcca7","0","66ce541cd8da920539a1c3cc","0","2025-07-30T08:50:13.787Z","","","","MotivationQ","","","","","","","","","","","50","","","","","","","","","","","","","","","","","","","","","","","","","","",""
"","","","","ctl-task-cpt","23","441121","0.0-7.0-0.2","43","1","2025-07-30 08:43:34","36c45c0696341be0efffe67d72a12abb","196.75.100.139","Mozilla/5.0 (Windows NT 10.0; Win64; x64) AppleWebKit/537.36 (KHTML, like Gecko) Chrome/138.0.0.0 Safari/537.36","WebKit","Chrome","138.0.0.0","Windows","10.0","https://app.prolific.com/","en-US,en;q=0.9,ar;q=0.8","66ce541cd8da920539a1c3cc","687a19d2168e237449fb8af4","6889da06cdedc5b9120dcca7","0","66ce541cd8da920539a1c3cc","0","2025-07-30T08:50:55.390Z","","","","","","","","","","","","","","","","win-only","1","g1:NE,g2:SW","0.8","3","0","403525.1","1263.7","6266.2","38586.1","1","4","8","6","2","-8","-8","0","1","0","1487","3000","-3000","[""down"",""left""]","{""num_key_presses"":7,""num_perfect"":5,""num_errors"":0,""num_randdir"":2,""num_randdir_good_moves"":1,""num_whilered"":0,""num_whileblue"":0,""num_blue"":3,""num_good_moves"":6}","[413.57142857142856,406.47767857142856,0.1,413.57142857142856,406.47767857142856,100.7,413.57142857142856,406.47767857142856,202.2,413.57142857142856,406.47767857142856,302.3,402.57142857142856,404.47767857142856,403,356.57142857142856,457.47767857142856,507,279.57142857142856,564.4776785714286,607,233.57142857142856,599.4776785714286,707,213.57142857142856,625.4776785714286,807.1,163.57142857142856,670.4776785714286,907.2,163.57142857142856,670.4776785714286,1008,136.57142857142856,694.4776785714286,1112.2,87.57142857142857,737.4776785714286,1216.7,57.57142857142857,754.4776785714286,1322.2,57.57142857142857,754.4776785714286,1427.7,35.57142857142857,736.4776785714286,1531.8,-11.42857142857143,689.4776785714286,1632.9,-14.42857142857143,681.4776785714286,1737.5,-9.42857142857143,669.4776785714286,1843.5,-9.42857142857143,669.4776785714286,1946.9,-9.42857142857143,668.4776785714286,2047.6,-9.42857142857143,670.4776785714286,2148,-9.42857142857143,668.4776785714286,2253.2,-7.428571428571431,673.4776785714286,2353.2,-7.428571428571431,673.4776785714286,2457,-7.428571428571431,673.4776785714286,2557,-7.428571428571431,673.4776785714286,2663.2,-7.428571428571431,673.4776785714286,2763.3,-7.428571428571431,673.4776785714286,2866.8,-7.428571428571431,673.4776785714286,2967.4,-7.428571428571431,673.4776785714286,3072,-7.428571428571431,673.4776785714286,3172.2,-7.428571428571431,673.4776785714286,3276.6,-7.428571428571431,673.4776785714286,3377.6,-7.428571428571431,673.4776785714286,3482.1,-7.428571428571431,673.4776785714286,3582.1,-7.428571428571431,673.4776785714286,3682.9,-7.428571428571431,673.4776785714286,3788.3,-7.428571428571431,673.4776785714286,3891.6,-7.428571428571431,673.4776785714286,3996.5,-7.428571428571431,673.4776785714286,4098.2,-7.428571428571431,673.4776785714286,4202.4,-7.428571428571431,673.4776785714286,4306.9,-7.428571428571431,673.4776785714286,4407.1,-7.428571428571431,673.4776785714286,4507.2,-7.428571428571431,673.4776785714286,4607.3,-7.428571428571431,673.4776785714286,4707.5,-7.428571428571431,673.4776785714286,4812.3,-7.428571428571431,673.4776785714286,4912.3]","[1654.3,1654.3,1000,0,654.3,""smooth"",""down"",""down"",""good_move"",8157.4,6502.8,2726.9,5050.6,379.9,""smooth"",""left"",""left"",""good_move"",13767.2,5609.5,1807.7,11599.1,360.5,""oops"",""down"",""up"",""bad_move"",15972.3,2204.8,1707.6,13767.5,497.2,""oops"",""down"",""left"",""good_move"",22572.5,6600,2833.1,19375.7,363.7,""smooth"",""down"",""down"",""good_move"",26067.2,3494.5,3143.2,22572.7,351.3,""smooth"",""down"",""down"",""good_move"",29146.9,3079.6,2769.7,26067.3,309.9,""smooth"",""down"",""down"",""good_move""]"
"3807","","<div style=""width:500px;"">
  <p>What determined the result of this run?</p>
  </div>","38","html-slider-response","24","444929","0.0-7.0-1.2","43","1","2025-07-30 08:43:34","36c45c0696341be0efffe67d72a12abb","196.75.100.139","Mozilla/5.0 (Windows NT 10.0; Win64; x64) AppleWebKit/537.36 (KHTML, like Gecko) Chrome/138.0.0.0 Safari/537.36","WebKit","Chrome","138.0.0.0","Windows","10.0","https://app.prolific.com/","en-US,en;q=0.9,ar;q=0.8","66ce541cd8da920539a1c3cc","687a19d2168e237449fb8af4","6889da06cdedc5b9120dcca7","0","66ce541cd8da920539a1c3cc","0","2025-07-30T08:50:59.197Z","","","","AttribQ","","","","","","","","","","","50","","","","","","","","","","","","","","","","","","","","","","","","","","",""
"4239","","<div style=""width:500px;"">
  <p>How much control did you have over the ball?</p>
  </div>","39","html-slider-response","25","449169","0.0-7.0-2.2","43","1","2025-07-30 08:43:34","36c45c0696341be0efffe67d72a12abb","196.75.100.139","Mozilla/5.0 (Windows NT 10.0; Win64; x64) AppleWebKit/537.36 (KHTML, like Gecko) Chrome/138.0.0.0 Safari/537.36","WebKit","Chrome","138.0.0.0","Windows","10.0","https://app.prolific.com/","en-US,en;q=0.9,ar;q=0.8","66ce541cd8da920539a1c3cc","687a19d2168e237449fb8af4","6889da06cdedc5b9120dcca7","0","66ce541cd8da920539a1c3cc","0","2025-07-30T08:51:03.437Z","","","","ControlQ","","","","","","","","","","","50","","","","","","","","","","","","","","","","","","","","","","","","","","",""
"3059","","<div style=""width:500px;"">
  <p>How would you describe your current emotional state?</p>
  </div>","36","html-slider-response","26","452229","0.0-7.0-3.2","43","1","2025-07-30 08:43:34","36c45c0696341be0efffe67d72a12abb","196.75.100.139","Mozilla/5.0 (Windows NT 10.0; Win64; x64) AppleWebKit/537.36 (KHTML, like Gecko) Chrome/138.0.0.0 Safari/537.36","WebKit","Chrome","138.0.0.0","Windows","10.0","https://app.prolific.com/","en-US,en;q=0.9,ar;q=0.8","66ce541cd8da920539a1c3cc","687a19d2168e237449fb8af4","6889da06cdedc5b9120dcca7","0","66ce541cd8da920539a1c3cc","0","2025-07-30T08:51:06.497Z","","","","StressQ","","","","","","","","","","","50","","","","","","","","","","","","","","","","","","","","","","","","","","",""
"2367","","<div style=""width:500px;"">
  <p>What best describes how you currently feel?</p>
  </div>","81","html-slider-response","27","454597","0.0-7.0-4.2","43","1","2025-07-30 08:43:34","36c45c0696341be0efffe67d72a12abb","196.75.100.139","Mozilla/5.0 (Windows NT 10.0; Win64; x64) AppleWebKit/537.36 (KHTML, like Gecko) Chrome/138.0.0.0 Safari/537.36","WebKit","Chrome","138.0.0.0","Windows","10.0","https://app.prolific.com/","en-US,en;q=0.9,ar;q=0.8","66ce541cd8da920539a1c3cc","687a19d2168e237449fb8af4","6889da06cdedc5b9120dcca7","0","66ce541cd8da920539a1c3cc","0","2025-07-30T08:51:08.865Z","","","","MotivationQ","","","","","","","","","","","50","","","","","","","","","","","","","","","","","","","","","","","","","","",""
"","","","","ctl-task-cpt","28","480637","0.0-7.0-0.3","43","1","2025-07-30 08:43:34","36c45c0696341be0efffe67d72a12abb","196.75.100.139","Mozilla/5.0 (Windows NT 10.0; Win64; x64) AppleWebKit/537.36 (KHTML, like Gecko) Chrome/138.0.0.0 Safari/537.36","WebKit","Chrome","138.0.0.0","Windows","10.0","https://app.prolific.com/","en-US,en;q=0.9,ar;q=0.8","66ce541cd8da920539a1c3cc","687a19d2168e237449fb8af4","6889da06cdedc5b9120dcca7","0","66ce541cd8da920539a1c3cc","0","2025-07-30T08:51:34.905Z","","","","","","","","","","","","","","","","win-only","1","g1:NE,g2:SW","0.7","4","0","458603.1","1205.1","6206.1","23015.9","1","4","4","6","2","4","3","3","0","0.022727272727272728","2072.1","3000","1620","[""down"",""left""]","{""num_key_presses"":6,""num_perfect"":4,""num_errors"":1,""num_randdir"":1,""num_randdir_good_moves"":1,""num_whilered"":0,""num_whileblue"":1,""num_blue"":1,""num_good_moves"":6}","[416.57142857142856,424.47767857142856,0.1,416.57142857142856,424.47767857142856,101.3,416.57142857142856,424.47767857142856,205.8,416.57142857142856,424.47767857142856,305.9,416.57142857142856,424.47767857142856,406.1,413.57142857142856,436.47767857142856,510.8,403.57142857142856,442.47767857142856,611,397.57142857142856,444.47767857142856,712.1,407.57142857142856,407.47767857142856,817.7,417.57142857142856,385.47767857142856,922,394.57142857142856,401.47767857142856,1025.3,410.57142857142856,372.47767857142856,1125.5,594.5714285714286,122.47767857142857,1234.2,640.5714285714286,122.47767857142857,1334.5,674.5714285714286,130.47767857142856,1436.3,572.5714285714286,276.47767857142856,1536.5,-95.42857142857143,737.4776785714286,1640.5,-93.42857142857143,742.4776785714286,1741.3,24.57142857142857,747.4776785714286,1851.3,69.57142857142857,755.4776785714286,1955.9,69.57142857142857,755.4776785714286,2060.4,69.57142857142857,757.4776785714286,2167.8,69.57142857142857,757.4776785714286,2267.9,69.57142857142857,757.4776785714286,2370.7,69.57142857142857,757.4776785714286,2470.7,69.57142857142857,757.4776785714286,2575.2,69.57142857142857,757.4776785714286,2676.3,69.57142857142857,757.4776785714286,2784.1,69.57142857142857,757.4776785714286,2885.1,69.57142857142857,757.4776785714286,2986.3,69.57142857142857,757.4776785714286,3086.4,69.57142857142857,757.4776785714286,3191.5,69.57142857142857,757.4776785714286,3300.7,69.57142857142857,757.4776785714286,3400.9,69.57142857142857,757.4776785714286,3501,69.57142857142857,757.4776785714286,3605.5,69.57142857142857,757.4776785714286,3710.1,69.57142857142857,757.4776785714286,3810.3,69.57142857142857,757.4776785714286,3911.5,69.57142857142857,757.4776785714286,4017.7,69.57142857142857,757.4776785714286,4120.3,68.57142857142857,755.4776785714286,4220.5,73.57142857142857,755.4776785714286,4320.5,73.57142857142857,755.4776785714286,4420.5,73.57142857142857,755.4776785714286,4520.5,73.57142857142857,755.4776785714286,4620.5,73.57142857142857,755.4776785714286,4720.6,73.57142857142857,755.4776785714286,4825.2,75.57142857142857,753.4776785714286,4925.3]","[1282.9,1282.9,1000,0,282.9,""smooth"",""down"",""down"",""good_move"",4199.3,2916.3,2593.5,1283,322.8,""smooth"",""left"",""left"",""good_move"",7865.9,3666.3,3338.7,4199.6,327.6,""oops"",""down"",""left"",""good_move"",10632.7,2766.6,2424.5,7866.1,342.1,""smooth"",""down"",""down"",""good_move"",13316.5,2683.6,2367.2,10632.9,316.4,""smooth"",""left"",""left"",""good_move"",16708.6,3391.9,3100,13316.7,291.9,""while_blue"",""down"",""down"",""good_move""]"
"7492","","<div style=""width:500px;"">
  <p>What determined the result of this run?</p>
  </div>","63","html-slider-response","29","488129","0.0-7.0-1.3","43","1","2025-07-30 08:43:34","36c45c0696341be0efffe67d72a12abb","196.75.100.139","Mozilla/5.0 (Windows NT 10.0; Win64; x64) AppleWebKit/537.36 (KHTML, like Gecko) Chrome/138.0.0.0 Safari/537.36","WebKit","Chrome","138.0.0.0","Windows","10.0","https://app.prolific.com/","en-US,en;q=0.9,ar;q=0.8","66ce541cd8da920539a1c3cc","687a19d2168e237449fb8af4","6889da06cdedc5b9120dcca7","0","66ce541cd8da920539a1c3cc","0","2025-07-30T08:51:42.397Z","","","","AttribQ","","","","","","","","","","","50","","","","","","","","","","","","","","","","","","","","","","","","","","",""
"4540","","<div style=""width:500px;"">
  <p>How much control did you have over the ball?</p>
  </div>","64","html-slider-response","30","492669","0.0-7.0-2.3","43","1","2025-07-30 08:43:34","36c45c0696341be0efffe67d72a12abb","196.75.100.139","Mozilla/5.0 (Windows NT 10.0; Win64; x64) AppleWebKit/537.36 (KHTML, like Gecko) Chrome/138.0.0.0 Safari/537.36","WebKit","Chrome","138.0.0.0","Windows","10.0","https://app.prolific.com/","en-US,en;q=0.9,ar;q=0.8","66ce541cd8da920539a1c3cc","687a19d2168e237449fb8af4","6889da06cdedc5b9120dcca7","0","66ce541cd8da920539a1c3cc","0","2025-07-30T08:51:46.937Z","","","","ControlQ","","","","","","","","","","","50","","","","","","","","","","","","","","","","","","","","","","","","","","",""
"11856","","<div style=""width:500px;"">
  <p>How would you describe your current emotional state?</p>
  </div>","34","html-slider-response","31","504525","0.0-7.0-3.3","43","1","2025-07-30 08:43:34","36c45c0696341be0efffe67d72a12abb","196.75.100.139","Mozilla/5.0 (Windows NT 10.0; Win64; x64) AppleWebKit/537.36 (KHTML, like Gecko) Chrome/138.0.0.0 Safari/537.36","WebKit","Chrome","138.0.0.0","Windows","10.0","https://app.prolific.com/","en-US,en;q=0.9,ar;q=0.8","66ce541cd8da920539a1c3cc","687a19d2168e237449fb8af4","6889da06cdedc5b9120dcca7","0","66ce541cd8da920539a1c3cc","0","2025-07-30T08:51:58.794Z","","","","StressQ","","","","","","","","","","","50","","","","","","","","","","","","","","","","","","","","","","","","","","",""
"3999","","<div style=""width:500px;"">
  <p>What best describes how you currently feel?</p>
  </div>","77","html-slider-response","32","508525","0.0-7.0-4.3","43","1","2025-07-30 08:43:34","36c45c0696341be0efffe67d72a12abb","196.75.100.139","Mozilla/5.0 (Windows NT 10.0; Win64; x64) AppleWebKit/537.36 (KHTML, like Gecko) Chrome/138.0.0.0 Safari/537.36","WebKit","Chrome","138.0.0.0","Windows","10.0","https://app.prolific.com/","en-US,en;q=0.9,ar;q=0.8","66ce541cd8da920539a1c3cc","687a19d2168e237449fb8af4","6889da06cdedc5b9120dcca7","0","66ce541cd8da920539a1c3cc","0","2025-07-30T08:52:02.793Z","","","","MotivationQ","","","","","","","","","","","50","","","","","","","","","","","","","","","","","","","","","","","","","","",""
"","","","","ctl-task-cpt","33","548118","0.0-7.0-0.4","43","1","2025-07-30 08:43:34","36c45c0696341be0efffe67d72a12abb","196.75.100.139","Mozilla/5.0 (Windows NT 10.0; Win64; x64) AppleWebKit/537.36 (KHTML, like Gecko) Chrome/138.0.0.0 Safari/537.36","WebKit","Chrome","138.0.0.0","Windows","10.0","https://app.prolific.com/","en-US,en;q=0.9,ar;q=0.8","66ce541cd8da920539a1c3cc","687a19d2168e237449fb8af4","6889da06cdedc5b9120dcca7","0","66ce541cd8da920539a1c3cc","0","2025-07-30T08:52:42.386Z","","","","","","","","","","","","","","","","win-only","0","g1:NW,g2:SE","0.6","5","0","512531.7","1736.1","6736.6","36575.1","1","4","4","6","1","1","1","4","3","0.030303030303030304","2705.7","3000","275","[""left"",""up""]","{""num_key_presses"":8,""num_perfect"":4,""num_errors"":0,""num_randdir"":4,""num_randdir_good_moves"":2,""num_whilered"":0,""num_whileblue"":0,""num_blue"":2,""num_good_moves"":6}","[407.57142857142856,406.47767857142856,0.1,407.57142857142856,406.47767857142856,104.3,407.57142857142856,406.47767857142856,204.7,407.57142857142856,406.47767857142856,309.3,407.57142857142856,406.47767857142856,409.5,407.57142857142856,406.47767857142856,510.4,407.57142857142856,406.47767857142856,614.6,408.57142857142856,401.47767857142856,714.7,346.57142857142856,355.47767857142856,820.6,323.57142857142856,336.47767857142856,925.3,281.57142857142856,310.47767857142856,1029,458.57142857142856,400.47767857142856,1129,880.5714285714286,565.4776785714286,1229.8,927.5714285714286,657.4776785714286,1330,977.5714285714286,745.4776785714286,1434,948.5714285714286,745.4776785714286,1535.8,845.5714285714286,754.4776785714286,1639.6,802.5714285714286,760.4776785714286,1744.1,778.5714285714286,760.4776785714286,1844.6,420.57142857142856,521.4776785714286,1945.8,-130.42857142857144,112.47767857142857,2049.3,-178.42857142857144,38.47767857142857,2154.2,-138.42857142857144,6.477678571428569,2255.2,-58.42857142857143,64.47767857142857,2359.2,-29.42857142857143,84.47767857142857,2460.7,13.57142857142857,78.47767857142857,2564.8,22.57142857142857,75.47767857142857,2669,30.57142857142857,75.47767857142857,2769,30.57142857142857,75.47767857142857,2869.7,30.57142857142857,75.47767857142857,2974.8,30.57142857142857,75.47767857142857,3074.8,30.57142857142857,75.47767857142857,3179.4,30.57142857142857,75.47767857142857,3284.5,30.57142857142857,75.47767857142857,3384.7,30.57142857142857,75.47767857142857,3489,30.57142857142857,75.47767857142857,3589.5,30.57142857142857,75.47767857142857,3690.3,30.57142857142857,75.47767857142857,3794.3,30.57142857142857,75.47767857142857,3894.4,30.57142857142857,75.47767857142857,3995.8,30.57142857142857,75.47767857142857,4099,30.57142857142857,75.47767857142857,4199.6,30.57142857142857,75.47767857142857,4300.2,30.57142857142857,75.47767857142857,4404.7,30.57142857142857,75.47767857142857,4505.1,30.57142857142857,75.47767857142857,4609,32.57142857142857,77.47767857142857,4709.9,37.57142857142857,77.47767857142857,4810.2,43.57142857142857,79.47767857142857,4915]","[1458.4,1458.4,1000,0,458.4,""smooth"",""up"",""up"",""good_move"",4997.7,3539.1,3185.8,1458.6,353.3,""smooth"",""left"",""left"",""good_move"",7749.4,2751.5,2362.4,4997.9,389.1,""oops"",""up"",""left"",""good_move"",11385.8,3636.2,3353.1,7749.6,283.1,""oops"",""up"",""down"",""bad_move"",14265.4,2879.4,2569.6,11386,309.8,""smooth"",""up"",""up"",""good_move"",21241.4,6975.7,3066.9,17858.5,316,""oops"",""up"",""down"",""bad_move"",23855.3,2613.7,2245.6,21241.6,368.1,""oops"",""up"",""up"",""good_move"",29752.4,5897,2781.2,26679,292.2,""smooth"",""up"",""up"",""good_move""]"
"4080","","<div style=""width:500px;"">
  <p>What determined the result of this run?</p>
  </div>","73","html-slider-response","34","552199","0.0-7.0-1.4","43","1","2025-07-30 08:43:34","36c45c0696341be0efffe67d72a12abb","196.75.100.139","Mozilla/5.0 (Windows NT 10.0; Win64; x64) AppleWebKit/537.36 (KHTML, like Gecko) Chrome/138.0.0.0 Safari/537.36","WebKit","Chrome","138.0.0.0","Windows","10.0","https://app.prolific.com/","en-US,en;q=0.9,ar;q=0.8","66ce541cd8da920539a1c3cc","687a19d2168e237449fb8af4","6889da06cdedc5b9120dcca7","0","66ce541cd8da920539a1c3cc","0","2025-07-30T08:52:46.467Z","","","","AttribQ","","","","","","","","","","","50","","","","","","","","","","","","","","","","","","","","","","","","","","",""
"5901","","<div style=""width:500px;"">
  <p>How much control did you have over the ball?</p>
  </div>","30","html-slider-response","35","558100","0.0-7.0-2.4","43","1","2025-07-30 08:43:34","36c45c0696341be0efffe67d72a12abb","196.75.100.139","Mozilla/5.0 (Windows NT 10.0; Win64; x64) AppleWebKit/537.36 (KHTML, like Gecko) Chrome/138.0.0.0 Safari/537.36","WebKit","Chrome","138.0.0.0","Windows","10.0","https://app.prolific.com/","en-US,en;q=0.9,ar;q=0.8","66ce541cd8da920539a1c3cc","687a19d2168e237449fb8af4","6889da06cdedc5b9120dcca7","0","66ce541cd8da920539a1c3cc","0","2025-07-30T08:52:52.368Z","","","","ControlQ","","","","","","","","","","","50","","","","","","","","","","","","","","","","","","","","","","","","","","",""
"2998","","<div style=""width:500px;"">
  <p>How would you describe your current emotional state?</p>
  </div>","31","html-slider-response","36","561100","0.0-7.0-3.4","43","1","2025-07-30 08:43:34","36c45c0696341be0efffe67d72a12abb","196.75.100.139","Mozilla/5.0 (Windows NT 10.0; Win64; x64) AppleWebKit/537.36 (KHTML, like Gecko) Chrome/138.0.0.0 Safari/537.36","WebKit","Chrome","138.0.0.0","Windows","10.0","https://app.prolific.com/","en-US,en;q=0.9,ar;q=0.8","66ce541cd8da920539a1c3cc","687a19d2168e237449fb8af4","6889da06cdedc5b9120dcca7","0","66ce541cd8da920539a1c3cc","0","2025-07-30T08:52:55.368Z","","","","StressQ","","","","","","","","","","","50","","","","","","","","","","","","","","","","","","","","","","","","","","",""
"3541","","<div style=""width:500px;"">
  <p>What best describes how you currently feel?</p>
  </div>","82","html-slider-response","37","564641","0.0-7.0-4.4","43","1","2025-07-30 08:43:34","36c45c0696341be0efffe67d72a12abb","196.75.100.139","Mozilla/5.0 (Windows NT 10.0; Win64; x64) AppleWebKit/537.36 (KHTML, like Gecko) Chrome/138.0.0.0 Safari/537.36","WebKit","Chrome","138.0.0.0","Windows","10.0","https://app.prolific.com/","en-US,en;q=0.9,ar;q=0.8","66ce541cd8da920539a1c3cc","687a19d2168e237449fb8af4","6889da06cdedc5b9120dcca7","0","66ce541cd8da920539a1c3cc","0","2025-07-30T08:52:58.909Z","","","","MotivationQ","","","","","","","","","","","50","","","","","","","","","","","","","","","","","","","","","","","","","","",""
"","","","","ctl-task-cpt","38","597969","0.0-7.0-0.5","43","1","2025-07-30 08:43:34","36c45c0696341be0efffe67d72a12abb","196.75.100.139","Mozilla/5.0 (Windows NT 10.0; Win64; x64) AppleWebKit/537.36 (KHTML, like Gecko) Chrome/138.0.0.0 Safari/537.36","WebKit","Chrome","138.0.0.0","Windows","10.0","https://app.prolific.com/","en-US,en;q=0.9,ar;q=0.8","66ce541cd8da920539a1c3cc","687a19d2168e237449fb8af4","6889da06cdedc5b9120dcca7","0","66ce541cd8da920539a1c3cc","0","2025-07-30T08:53:32.237Z","","","","","","","","","","","","","","","","win-only","3","g1:SW,g2:NE","0.5","6","0","568647.4","1097","6100.6","30311.1","1","4","8","6","2","-8","-8","0","4","0","1142.5","3000","-3015","[""up"",""right""]","{""num_key_presses"":9,""num_perfect"":5,""num_errors"":0,""num_randdir"":4,""num_randdir_good_moves"":1,""num_whilered"":0,""num_whileblue"":0,""num_blue"":0,""num_good_moves"":6}","[425.57142857142856,415.47767857142856,0.2,425.57142857142856,415.47767857142856,104.6,425.57142857142856,415.47767857142856,204.9,425.57142857142856,415.47767857142856,304.9,425.57142857142856,415.47767857142856,409.3,432.57142857142856,413.47767857142856,514.7,498.57142857142856,353.47767857142856,614.7,621.5714285714286,198.47767857142856,718.8,651.5714285714286,156.47767857142856,819,692.5714285714286,125.47767857142857,923.8,723.5714285714286,120.47767857142857,1028.8,723.5714285714286,120.47767857142857,1128.9,723.5714285714286,120.47767857142857,1233.9,723.5714285714286,120.47767857142857,1339.4,723.5714285714286,120.47767857142857,1445,723.5714285714286,120.47767857142857,1548.3,723.5714285714286,120.47767857142857,1649.3,723.5714285714286,120.47767857142857,1749.3,723.5714285714286,120.47767857142857,1854,723.5714285714286,120.47767857142857,1954.2,723.5714285714286,120.47767857142857,2058.7,723.5714285714286,120.47767857142857,2164.5,723.5714285714286,120.47767857142857,2264.8,723.5714285714286,120.47767857142857,2369,723.5714285714286,120.47767857142857,2469.8,723.5714285714286,120.47767857142857,2573.5,723.5714285714286,120.47767857142857,2673.5,723.5714285714286,120.47767857142857,2773.5,723.5714285714286,120.47767857142857,2873.8,723.5714285714286,120.47767857142857,2975.1,723.5714285714286,120.47767857142857,3078.6,723.5714285714286,120.47767857142857,3179,723.5714285714286,120.47767857142857,3284.7,723.5714285714286,120.47767857142857,3390.1,723.5714285714286,120.47767857142857,3493.3,723.5714285714286,120.47767857142857,3594.3,723.5714285714286,120.47767857142857,3700.1,723.5714285714286,120.47767857142857,3804.1,723.5714285714286,120.47767857142857,3904.2,723.5714285714286,120.47767857142857,4010,723.5714285714286,120.47767857142857,4114.6,723.5714285714286,120.47767857142857,4219.4,723.5714285714286,120.47767857142857,4324.2,723.5714285714286,120.47767857142857,4424.5,723.5714285714286,120.47767857142857,4528.5,723.5714285714286,120.47767857142857,4634.8,723.5714285714286,120.47767857142857,4739.7,723.5714285714286,120.47767857142857,4843.4,723.5714285714286,120.47767857142857,4944]","[1383.8,1383.8,1000,0,383.8,""smooth"",""right"",""right"",""good_move"",4138.9,2754.8,2278.5,1384.1,476.3,""oops"",""right"",""left"",""bad_move"",6816.6,2677.4,2308.2,4139.2,369.2,""oops"",""right"",""down"",""bad_move"",9013.8,2196.9,1872.3,6816.9,324.6,""smooth"",""right"",""right"",""good_move"",11192.7,2178.8,1917.2,9013.9,261.6,""smooth"",""right"",""right"",""good_move"",14250.8,3058,2781.3,11192.8,276.7,""smooth"",""right"",""right"",""good_move"",17037.7,2786.8,2497.6,14250.9,289.2,""oops"",""up"",""down"",""bad_move"",19177.9,2139.9,1807.2,17038,332.7,""smooth"",""up"",""up"",""good_move"",21795.7,2617.6,2365.8,19178.1,251.8,""oops"",""up"",""up"",""good_move""]"
"4398","","<div style=""width:500px;"">
  <p>What determined the result of this run?</p>
  </div>","81","html-slider-response","39","602367","0.0-7.0-1.5","43","1","2025-07-30 08:43:34","36c45c0696341be0efffe67d72a12abb","196.75.100.139","Mozilla/5.0 (Windows NT 10.0; Win64; x64) AppleWebKit/537.36 (KHTML, like Gecko) Chrome/138.0.0.0 Safari/537.36","WebKit","Chrome","138.0.0.0","Windows","10.0","https://app.prolific.com/","en-US,en;q=0.9,ar;q=0.8","66ce541cd8da920539a1c3cc","687a19d2168e237449fb8af4","6889da06cdedc5b9120dcca7","0","66ce541cd8da920539a1c3cc","0","2025-07-30T08:53:36.635Z","","","","AttribQ","","","","","","","","","","","50","","","","","","","","","","","","","","","","","","","","","","","","","","",""
"3834","","<div style=""width:500px;"">
  <p>How much control did you have over the ball?</p>
  </div>","10","html-slider-response","40","606202","0.0-7.0-2.5","43","1","2025-07-30 08:43:34","36c45c0696341be0efffe67d72a12abb","196.75.100.139","Mozilla/5.0 (Windows NT 10.0; Win64; x64) AppleWebKit/537.36 (KHTML, like Gecko) Chrome/138.0.0.0 Safari/537.36","WebKit","Chrome","138.0.0.0","Windows","10.0","https://app.prolific.com/","en-US,en;q=0.9,ar;q=0.8","66ce541cd8da920539a1c3cc","687a19d2168e237449fb8af4","6889da06cdedc5b9120dcca7","0","66ce541cd8da920539a1c3cc","0","2025-07-30T08:53:40.470Z","","","","ControlQ","","","","","","","","","","","50","","","","","","","","","","","","","","","","","","","","","","","","","","",""
"3171","","<div style=""width:500px;"">
  <p>How would you describe your current emotional state?</p>
  </div>","63","html-slider-response","41","609374","0.0-7.0-3.5","43","1","2025-07-30 08:43:34","36c45c0696341be0efffe67d72a12abb","196.75.100.139","Mozilla/5.0 (Windows NT 10.0; Win64; x64) AppleWebKit/537.36 (KHTML, like Gecko) Chrome/138.0.0.0 Safari/537.36","WebKit","Chrome","138.0.0.0","Windows","10.0","https://app.prolific.com/","en-US,en;q=0.9,ar;q=0.8","66ce541cd8da920539a1c3cc","687a19d2168e237449fb8af4","6889da06cdedc5b9120dcca7","0","66ce541cd8da920539a1c3cc","0","2025-07-30T08:53:43.642Z","","","","StressQ","","","","","","","","","","","50","","","","","","","","","","","","","","","","","","","","","","","","","","",""
"2849","","<div style=""width:500px;"">
  <p>What best describes how you currently feel?</p>
  </div>","75","html-slider-response","42","612224","0.0-7.0-4.5","43","1","2025-07-30 08:43:34","36c45c0696341be0efffe67d72a12abb","196.75.100.139","Mozilla/5.0 (Windows NT 10.0; Win64; x64) AppleWebKit/537.36 (KHTML, like Gecko) Chrome/138.0.0.0 Safari/537.36","WebKit","Chrome","138.0.0.0","Windows","10.0","https://app.prolific.com/","en-US,en;q=0.9,ar;q=0.8","66ce541cd8da920539a1c3cc","687a19d2168e237449fb8af4","6889da06cdedc5b9120dcca7","0","66ce541cd8da920539a1c3cc","0","2025-07-30T08:53:46.492Z","","","","MotivationQ","","","","","","","","","","","50","","","","","","","","","","","","","","","","","","","","","","","","","","",""
"","","","","ctl-task-cpt","43","669606","0.0-7.0-0.6","43","1","2025-07-30 08:43:34","36c45c0696341be0efffe67d72a12abb","196.75.100.139","Mozilla/5.0 (Windows NT 10.0; Win64; x64) AppleWebKit/537.36 (KHTML, like Gecko) Chrome/138.0.0.0 Safari/537.36","WebKit","Chrome","138.0.0.0","Windows","10.0","https://app.prolific.com/","en-US,en;q=0.9,ar;q=0.8","66ce541cd8da920539a1c3cc","687a19d2168e237449fb8af4","6889da06cdedc5b9120dcca7","0","66ce541cd8da920539a1c3cc","0","2025-07-30T08:54:43.874Z","","","","","","","","","","","","","","","","win-only","2","g1:SE,g2:NW","0.4","7","0","616230.3","2382.1","7387.1","54363.7","1","4","4","6","2","-4","-6","0","0","0","1322.9","3000","-2705","[""left"",""up""]","{""num_key_presses"":10,""num_perfect"":4,""num_errors"":2,""num_randdir"":4,""num_randdir_good_moves"":2,""num_whilered"":0,""num_whileblue"":1,""num_blue"":6,""num_good_moves"":7}","[408.57142857142856,421.47767857142856,0.2,408.57142857142856,421.47767857142856,103.5,408.57142857142856,421.47767857142856,204.6,408.57142857142856,421.47767857142856,314.1,405.57142857142856,420.47767857142856,414.2,391.57142857142856,404.47767857142856,514.4,368.57142857142856,356.47767857142856,618.9,233.57142857142856,236.47767857142856,723.6,211.57142857142856,193.47767857142856,823.7,197.57142857142856,177.47767857142856,923.9,147.57142857142856,144.47767857142856,1023.9,135.57142857142856,133.47767857142856,1123.9,98.57142857142857,109.47767857142857,1231,82.57142857142857,101.47767857142857,1334,82.57142857142857,101.47767857142857,1439.2,79.57142857142857,101.47767857142857,1547.6,79.57142857142857,101.47767857142857,1647.9,90.57142857142857,111.47767857142857,1753.8,93.57142857142857,114.47767857142857,1854.8,93.57142857142857,114.47767857142857,1964.4,93.57142857142857,114.47767857142857,2069.7,93.57142857142857,114.47767857142857,2173.1,93.57142857142857,114.47767857142857,2273.5,93.57142857142857,114.47767857142857,2374.6,93.57142857142857,114.47767857142857,2481.2,93.57142857142857,114.47767857142857,2581.3,93.57142857142857,114.47767857142857,2681.4,93.57142857142857,114.47767857142857,2783.5,93.57142857142857,114.47767857142857,2883.7,93.57142857142857,114.47767857142857,2984.8,93.57142857142857,114.47767857142857,3089.9,93.57142857142857,114.47767857142857,3197.5,93.57142857142857,114.47767857142857,3298,93.57142857142857,114.47767857142857,3403,93.57142857142857,114.47767857142857,3503.5,93.57142857142857,114.47767857142857,3618.3,93.57142857142857,114.47767857142857,3723.1,93.57142857142857,114.47767857142857,3823.2,93.57142857142857,114.47767857142857,3923.3,93.57142857142857,114.47767857142857,4023.5,93.57142857142857,114.47767857142857,4123.5,93.57142857142857,114.47767857142857,4224.5,93.57142857142857,114.47767857142857,4331.1,93.57142857142857,114.47767857142857,4433.8,93.57142857142857,114.47767857142857,4539.9,93.57142857142857,114.47767857142857,4647.7,93.57142857142857,114.47767857142857,4748.2,93.57142857142857,114.47767857142857,4848.5,93.57142857142857,114.47767857142857,4949.9]","[283.5,283.5,1000,0,-716.5,""error"",""-"",""-"",""no_move"",4225.4,3941.7,2510.8,1284.7,429.9,""smooth"",""left"",""left"",""good_move"",6715.4,2489.8,2150.9,4225.6,338.9,""while_blue"",""up"",""left"",""good_move"",12208.3,5492.8,1761.3,10092.5,354.5,""oops"",""up"",""left"",""good_move"",15658.5,3450.1,3112.4,12208.4,337.7,""smooth"",""up"",""up"",""good_move"",27997.4,12338.6,1907.1,25709.2,381.1,""smooth"",""up"",""up"",""good_move"",33879.4,5881.8,1968.8,31428.4,482.2,""oops"",""up"",""right"",""bad_move"",37332.4,3452.9,3020.4,33879.6,432.4,""smooth"",""up"",""up"",""good_move"",40341.7,3009.3,2614.3,37332.5,394.9,""oops"",""left"",""down"",""bad_move"",43916.3,3574.4,3130.4,40341.9,444,""oops"",""up"",""up"",""good_move""]"
"5394","","<div style=""width:500px;"">
  <p>What determined the result of this run?</p>
  </div>","25","html-slider-response","44","675001","0.0-7.0-1.6","43","1","2025-07-30 08:43:34","36c45c0696341be0efffe67d72a12abb","196.75.100.139","Mozilla/5.0 (Windows NT 10.0; Win64; x64) AppleWebKit/537.36 (KHTML, like Gecko) Chrome/138.0.0.0 Safari/537.36","WebKit","Chrome","138.0.0.0","Windows","10.0","https://app.prolific.com/","en-US,en;q=0.9,ar;q=0.8","66ce541cd8da920539a1c3cc","687a19d2168e237449fb8af4","6889da06cdedc5b9120dcca7","0","66ce541cd8da920539a1c3cc","0","2025-07-30T08:54:49.269Z","","","","AttribQ","","","","","","","","","","","50","","","","","","","","","","","","","","","","","","","","","","","","","","",""
"4480","","<div style=""width:500px;"">
  <p>How much control did you have over the ball?</p>
  </div>","19","html-slider-response","45","679482","0.0-7.0-2.6","43","1","2025-07-30 08:43:34","36c45c0696341be0efffe67d72a12abb","196.75.100.139","Mozilla/5.0 (Windows NT 10.0; Win64; x64) AppleWebKit/537.36 (KHTML, like Gecko) Chrome/138.0.0.0 Safari/537.36","WebKit","Chrome","138.0.0.0","Windows","10.0","https://app.prolific.com/","en-US,en;q=0.9,ar;q=0.8","66ce541cd8da920539a1c3cc","687a19d2168e237449fb8af4","6889da06cdedc5b9120dcca7","0","66ce541cd8da920539a1c3cc","0","2025-07-30T08:54:53.751Z","","","","ControlQ","","","","","","","","","","","50","","","","","","","","","","","","","","","","","","","","","","","","","","",""
"4104","","<div style=""width:500px;"">
  <p>How would you describe your current emotional state?</p>
  </div>","76","html-slider-response","46","683587","0.0-7.0-3.6","43","1","2025-07-30 08:43:34","36c45c0696341be0efffe67d72a12abb","196.75.100.139","Mozilla/5.0 (Windows NT 10.0; Win64; x64) AppleWebKit/537.36 (KHTML, like Gecko) Chrome/138.0.0.0 Safari/537.36","WebKit","Chrome","138.0.0.0","Windows","10.0","https://app.prolific.com/","en-US,en;q=0.9,ar;q=0.8","66ce541cd8da920539a1c3cc","687a19d2168e237449fb8af4","6889da06cdedc5b9120dcca7","0","66ce541cd8da920539a1c3cc","0","2025-07-30T08:54:57.855Z","","","","StressQ","","","","","","","","","","","50","","","","","","","","","","","","","","","","","","","","","","","","","","",""
"3420","","<div style=""width:500px;"">
  <p>What best describes how you currently feel?</p>
  </div>","74","html-slider-response","47","687008","0.0-7.0-4.6","43","1","2025-07-30 08:43:34","36c45c0696341be0efffe67d72a12abb","196.75.100.139","Mozilla/5.0 (Windows NT 10.0; Win64; x64) AppleWebKit/537.36 (KHTML, like Gecko) Chrome/138.0.0.0 Safari/537.36","WebKit","Chrome","138.0.0.0","Windows","10.0","https://app.prolific.com/","en-US,en;q=0.9,ar;q=0.8","66ce541cd8da920539a1c3cc","687a19d2168e237449fb8af4","6889da06cdedc5b9120dcca7","0","66ce541cd8da920539a1c3cc","0","2025-07-30T08:55:01.276Z","","","","MotivationQ","","","","","","","","","","","50","","","","","","","","","","","","","","","","","","","","","","","","","","",""
"","","","","ctl-task-cpt","48","724066","0.0-7.0-0.7","43","1","2025-07-30 08:43:34","36c45c0696341be0efffe67d72a12abb","196.75.100.139","Mozilla/5.0 (Windows NT 10.0; Win64; x64) AppleWebKit/537.36 (KHTML, like Gecko) Chrome/138.0.0.0 Safari/537.36","WebKit","Chrome","138.0.0.0","Windows","10.0","https://app.prolific.com/","en-US,en;q=0.9,ar;q=0.8","66ce541cd8da920539a1c3cc","687a19d2168e237449fb8af4","6889da06cdedc5b9120dcca7","0","66ce541cd8da920539a1c3cc","0","2025-07-30T08:55:38.334Z","","","","","","","","","","","","","","","","win-only","2","g1:SE,g2:NW","0.3","8","0","691014.1","871.6","5875.5","34040.8","1","4","8","6","1","1","-1","0","0","0","1397.8","3000","735","[""down"",""right""]","{""num_key_presses"":9,""num_perfect"":2,""num_errors"":2,""num_randdir"":5,""num_randdir_good_moves"":3,""num_whilered"":0,""num_whileblue"":1,""num_blue"":2,""num_good_moves"":6}","[416.57142857142856,420.47767857142856,0.1,416.57142857142856,420.47767857142856,104.4,416.57142857142856,420.47767857142856,208.6,416.57142857142856,420.47767857142856,309.4,416.57142857142856,420.47767857142856,410.5,428.57142857142856,423.47767857142856,515,536.5714285714286,545.4776785714286,619.1,566.5714285714286,570.4776785714286,719.9,593.5714285714286,590.4776785714286,820.1,614.5714285714286,624.4776785714286,920.1,669.5714285714286,677.4776785714286,1024.2,687.5714285714286,692.4776785714286,1124.9,704.5714285714286,704.4776785714286,1229,735.5714285714286,743.4776785714286,1333.6,740.5714285714286,748.4776785714286,1435.2,740.5714285714286,751.4776785714286,1535.2,740.5714285714286,751.4776785714286,1640.2,740.5714285714286,744.4776785714286,1744.9,740.5714285714286,742.4776785714286,1849.2,740.5714285714286,729.4776785714286,1949.4,743.5714285714286,719.4776785714286,2050.1,741.5714285714286,709.4776785714286,2154.4,741.5714285714286,704.4776785714286,2260.1,739.5714285714286,693.4776785714286,2364.5,736.5714285714286,686.4776785714286,2470.3,731.5714285714286,664.4776785714286,2574.3,731.5714285714286,662.4776785714286,2674.6,731.5714285714286,662.4776785714286,2778.6,728.5714285714286,657.4776785714286,2879.3,728.5714285714286,657.4776785714286,2980.3,725.5714285714286,651.4776785714286,3084.8,717.5714285714286,639.4776785714286,3190.4,717.5714285714286,636.4776785714286,3295.4,717.5714285714286,636.4776785714286,3395.5,717.5714285714286,636.4776785714286,3498.9,717.5714285714286,636.4776785714286,3603.6,717.5714285714286,636.4776785714286,3704.4,717.5714285714286,636.4776785714286,3809,717.5714285714286,636.4776785714286,3910.1,717.5714285714286,636.4776785714286,4014.3,717.5714285714286,636.4776785714286,4114.5,717.5714285714286,636.4776785714286,4218.8,717.5714285714286,636.4776785714286,4319.2,717.5714285714286,636.4776785714286,4420.2,717.5714285714286,636.4776785714286,4524.1,717.5714285714286,636.4776785714286,4624.6,717.5714285714286,636.4776785714286,4729,717.5714285714286,636.4776785714286,4830.1,717.5714285714286,636.4776785714286,4934.5]","[240.3,240.3,1000,0,-759.7,""error"",""-"",""-"",""no_move"",4510.3,4269.8,2968.5,1240.9,300.9,""oops"",""right"",""right"",""good_move"",7529.2,3018.7,2695,4510.5,323.7,""smooth"",""down"",""down"",""good_move"",10622.2,3092.7,2727,7529.5,365.7,""oops"",""right"",""up"",""bad_move"",13362.1,2739.5,2399.4,10622.6,340.1,""oops"",""right"",""left"",""bad_move"",18779.4,5417.1,2027.5,16486.3,265.6,""oops"",""right"",""down"",""good_move"",21806.2,3026.6,2665,18779.6,361.6,""smooth"",""right"",""right"",""good_move"",24631.2,2824.7,2482.2,21806.5,342.5,""oops"",""right"",""down"",""good_move"",28074.1,3442.8,3174.9,24631.4,267.9,""while_blue"",""right"",""right"",""good_move""]"
"6877","","<div style=""width:500px;"">
  <p>What determined the result of this run?</p>
  </div>","17","html-slider-response","49","730944","0.0-7.0-1.7","43","1","2025-07-30 08:43:34","36c45c0696341be0efffe67d72a12abb","196.75.100.139","Mozilla/5.0 (Windows NT 10.0; Win64; x64) AppleWebKit/537.36 (KHTML, like Gecko) Chrome/138.0.0.0 Safari/537.36","WebKit","Chrome","138.0.0.0","Windows","10.0","https://app.prolific.com/","en-US,en;q=0.9,ar;q=0.8","66ce541cd8da920539a1c3cc","687a19d2168e237449fb8af4","6889da06cdedc5b9120dcca7","0","66ce541cd8da920539a1c3cc","0","2025-07-30T08:55:45.212Z","","","","AttribQ","","","","","","","","","","","50","","","","","","","","","","","","","","","","","","","","","","","","","","",""
"3369","","<div style=""width:500px;"">
  <p>How much control did you have over the ball?</p>
  </div>","7","html-slider-response","50","734313","0.0-7.0-2.7","43","1","2025-07-30 08:43:34","36c45c0696341be0efffe67d72a12abb","196.75.100.139","Mozilla/5.0 (Windows NT 10.0; Win64; x64) AppleWebKit/537.36 (KHTML, like Gecko) Chrome/138.0.0.0 Safari/537.36","WebKit","Chrome","138.0.0.0","Windows","10.0","https://app.prolific.com/","en-US,en;q=0.9,ar;q=0.8","66ce541cd8da920539a1c3cc","687a19d2168e237449fb8af4","6889da06cdedc5b9120dcca7","0","66ce541cd8da920539a1c3cc","0","2025-07-30T08:55:48.581Z","","","","ControlQ","","","","","","","","","","","50","","","","","","","","","","","","","","","","","","","","","","","","","","",""
"3556","","<div style=""width:500px;"">
  <p>How would you describe your current emotional state?</p>
  </div>","82","html-slider-response","51","737870","0.0-7.0-3.7","43","1","2025-07-30 08:43:34","36c45c0696341be0efffe67d72a12abb","196.75.100.139","Mozilla/5.0 (Windows NT 10.0; Win64; x64) AppleWebKit/537.36 (KHTML, like Gecko) Chrome/138.0.0.0 Safari/537.36","WebKit","Chrome","138.0.0.0","Windows","10.0","https://app.prolific.com/","en-US,en;q=0.9,ar;q=0.8","66ce541cd8da920539a1c3cc","687a19d2168e237449fb8af4","6889da06cdedc5b9120dcca7","0","66ce541cd8da920539a1c3cc","0","2025-07-30T08:55:52.138Z","","","","StressQ","","","","","","","","","","","50","","","","","","","","","","","","","","","","","","","","","","","","","","",""
"3358","","<div style=""width:500px;"">
  <p>What best describes how you currently feel?</p>
  </div>","68","html-slider-response","52","741229","0.0-7.0-4.7","43","1","2025-07-30 08:43:34","36c45c0696341be0efffe67d72a12abb","196.75.100.139","Mozilla/5.0 (Windows NT 10.0; Win64; x64) AppleWebKit/537.36 (KHTML, like Gecko) Chrome/138.0.0.0 Safari/537.36","WebKit","Chrome","138.0.0.0","Windows","10.0","https://app.prolific.com/","en-US,en;q=0.9,ar;q=0.8","66ce541cd8da920539a1c3cc","687a19d2168e237449fb8af4","6889da06cdedc5b9120dcca7","0","66ce541cd8da920539a1c3cc","0","2025-07-30T08:55:55.497Z","","","","MotivationQ","","","","","","","","","","","50","","","","","","","","","","","","","","","","","","","","","","","","","","",""
"","","","","ctl-task-cpt","53","773267","0.0-7.0-0.8","43","1","2025-07-30 08:43:34","36c45c0696341be0efffe67d72a12abb","196.75.100.139","Mozilla/5.0 (Windows NT 10.0; Win64; x64) AppleWebKit/537.36 (KHTML, like Gecko) Chrome/138.0.0.0 Safari/537.36","WebKit","Chrome","138.0.0.0","Windows","10.0","https://app.prolific.com/","en-US,en;q=0.9,ar;q=0.8","66ce541cd8da920539a1c3cc","687a19d2168e237449fb8af4","6889da06cdedc5b9120dcca7","0","66ce541cd8da920539a1c3cc","0","2025-07-30T08:56:27.535Z","","","","","","","","","","","","","","","","win-only","2","g1:SE,g2:NW","0.4","9","0","745235.1","1156.9","6157.1","29020.8","1","4","8","6","1","-1","-2","0","0","0","1023.1","3000","-3015","[""down"",""right""]","{""num_key_presses"":8,""num_perfect"":2,""num_errors"":1,""num_randdir"":5,""num_randdir_good_moves"":2,""num_whilered"":0,""num_whileblue"":1,""num_blue"":1,""num_good_moves"":4}","[412.57142857142856,415.47767857142856,0.1,412.57142857142856,415.47767857142856,103.7,412.57142857142856,415.47767857142856,209.2,412.57142857142856,415.47767857142856,313.8,412.57142857142856,400.47767857142856,413.9,543.5714285714286,457.47767857142856,518.4,696.5714285714286,657.4776785714286,619,693.5714285714286,742.4776785714286,723.3,686.5714285714286,752.4776785714286,824.5,697.5714285714286,743.4776785714286,928.4,702.5714285714286,743.4776785714286,1031.4,707.5714285714286,743.4776785714286,1134.3,726.5714285714286,754.4776785714286,1238.4,726.5714285714286,754.4776785714286,1343.5,726.5714285714286,754.4776785714286,1449.4,726.5714285714286,754.4776785714286,1549.4,726.5714285714286,754.4776785714286,1654.8,726.5714285714286,754.4776785714286,1758.3,726.5714285714286,754.4776785714286,1858.9,726.5714285714286,754.4776785714286,1958.9,726.5714285714286,754.4776785714286,2059.9,726.5714285714286,754.4776785714286,2163.8,726.5714285714286,754.4776785714286,2264.4,726.5714285714286,754.4776785714286,2369,726.5714285714286,754.4776785714286,2470.1,726.5714285714286,754.4776785714286,2574.2,726.5714285714286,754.4776785714286,2674.4,726.5714285714286,754.4776785714286,2778.3,726.5714285714286,754.4776785714286,2878.3,726.5714285714286,754.4776785714286,2983.2,726.5714285714286,754.4776785714286,3084.5,726.5714285714286,754.4776785714286,3188.6,726.5714285714286,754.4776785714286,3289.5,726.5714285714286,754.4776785714286,3389.5,726.5714285714286,754.4776785714286,3495,726.5714285714286,754.4776785714286,3600,721.5714285714286,763.4776785714286,3704.4,716.5714285714286,766.4776785714286,3809,716.5714285714286,766.4776785714286,3910,716.5714285714286,766.4776785714286,4014.4,716.5714285714286,766.4776785714286,4118.3,716.5714285714286,766.4776785714286,4219.4,716.5714285714286,766.4776785714286,4319.6,716.5714285714286,766.4776785714286,4424.5,716.5714285714286,766.4776785714286,4528.4,716.5714285714286,766.4776785714286,4628.9,716.5714285714286,766.4776785714286,4734,716.5714285714286,766.4776785714286,4834.1,716.5714285714286,766.4776785714286,4939.5]","[1352.9,1352.9,1000,0,352.9,""oops"",""right"",""left"",""bad_move"",4188.7,2835.4,2495.2,1353.3,340.2,""oops"",""right"",""down"",""good_move"",6602.6,2413.6,1597.6,4189,816,""oops"",""right"",""left"",""bad_move"",9878.7,3275.9,2943.2,6602.8,332.7,""oops"",""right"",""left"",""bad_move"",12607.6,2728.8,2416,9878.8,312.8,""while_blue"",""right"",""up"",""bad_move"",15667.2,3059.4,2694,12607.8,365.4,""oops"",""right"",""right"",""good_move"",18010.6,2343.2,2006.8,15667.4,336.4,""smooth"",""right"",""right"",""good_move"",20310.1,2299.3,1813.7,18010.8,485.6,""smooth"",""right"",""right"",""good_move""]"
"5861","","<div style=""width:500px;"">
  <p>What determined the result of this run?</p>
  </div>","13","html-slider-response","54","779128","0.0-7.0-1.8","43","1","2025-07-30 08:43:34","36c45c0696341be0efffe67d72a12abb","196.75.100.139","Mozilla/5.0 (Windows NT 10.0; Win64; x64) AppleWebKit/537.36 (KHTML, like Gecko) Chrome/138.0.0.0 Safari/537.36","WebKit","Chrome","138.0.0.0","Windows","10.0","https://app.prolific.com/","en-US,en;q=0.9,ar;q=0.8","66ce541cd8da920539a1c3cc","687a19d2168e237449fb8af4","6889da06cdedc5b9120dcca7","0","66ce541cd8da920539a1c3cc","0","2025-07-30T08:56:33.396Z","","","","AttribQ","","","","","","","","","","","50","","","","","","","","","","","","","","","","","","","","","","","","","","",""
"2601","","<div style=""width:500px;"">
  <p>How much control did you have over the ball?</p>
  </div>","11","html-slider-response","55","781730","0.0-7.0-2.8","43","1","2025-07-30 08:43:34","36c45c0696341be0efffe67d72a12abb","196.75.100.139","Mozilla/5.0 (Windows NT 10.0; Win64; x64) AppleWebKit/537.36 (KHTML, like Gecko) Chrome/138.0.0.0 Safari/537.36","WebKit","Chrome","138.0.0.0","Windows","10.0","https://app.prolific.com/","en-US,en;q=0.9,ar;q=0.8","66ce541cd8da920539a1c3cc","687a19d2168e237449fb8af4","6889da06cdedc5b9120dcca7","0","66ce541cd8da920539a1c3cc","0","2025-07-30T08:56:35.998Z","","","","ControlQ","","","","","","","","","","","50","","","","","","","","","","","","","","","","","","","","","","","","","","",""
"4314","","<div style=""width:500px;"">
  <p>How would you describe your current emotional state?</p>
  </div>","85","html-slider-response","56","786045","0.0-7.0-3.8","43","1","2025-07-30 08:43:34","36c45c0696341be0efffe67d72a12abb","196.75.100.139","Mozilla/5.0 (Windows NT 10.0; Win64; x64) AppleWebKit/537.36 (KHTML, like Gecko) Chrome/138.0.0.0 Safari/537.36","WebKit","Chrome","138.0.0.0","Windows","10.0","https://app.prolific.com/","en-US,en;q=0.9,ar;q=0.8","66ce541cd8da920539a1c3cc","687a19d2168e237449fb8af4","6889da06cdedc5b9120dcca7","0","66ce541cd8da920539a1c3cc","0","2025-07-30T08:56:40.313Z","","","","StressQ","","","","","","","","","","","50","","","","","","","","","","","","","","","","","","","","","","","","","","",""
"4639","","<div style=""width:500px;"">
  <p>What best describes how you currently feel?</p>
  </div>","76","html-slider-response","57","790684","0.0-7.0-4.8","43","1","2025-07-30 08:43:34","36c45c0696341be0efffe67d72a12abb","196.75.100.139","Mozilla/5.0 (Windows NT 10.0; Win64; x64) AppleWebKit/537.36 (KHTML, like Gecko) Chrome/138.0.0.0 Safari/537.36","WebKit","Chrome","138.0.0.0","Windows","10.0","https://app.prolific.com/","en-US,en;q=0.9,ar;q=0.8","66ce541cd8da920539a1c3cc","687a19d2168e237449fb8af4","6889da06cdedc5b9120dcca7","0","66ce541cd8da920539a1c3cc","0","2025-07-30T08:56:44.953Z","","","","MotivationQ","","","","","","","","","","","50","","","","","","","","","","","","","","","","","","","","","","","","","","",""
"","","","","ctl-task-cpt","58","824802","0.0-7.0-0.9","43","1","2025-07-30 08:43:34","36c45c0696341be0efffe67d72a12abb","196.75.100.139","Mozilla/5.0 (Windows NT 10.0; Win64; x64) AppleWebKit/537.36 (KHTML, like Gecko) Chrome/138.0.0.0 Safari/537.36","WebKit","Chrome","138.0.0.0","Windows","10.0","https://app.prolific.com/","en-US,en;q=0.9,ar;q=0.8","66ce541cd8da920539a1c3cc","687a19d2168e237449fb8af4","6889da06cdedc5b9120dcca7","0","66ce541cd8da920539a1c3cc","0","2025-07-30T08:57:19.070Z","","","","","","","","","","","","","","","","win-only","3","g1:SW,g2:NE","0.5","10","0","794691","1389.6","6391.7","31100.2","1","4","4","6","1","-1","-1","0","0","0","1194.9","3000","-3015","[""down"",""left""]","{""num_key_presses"":6,""num_perfect"":2,""num_errors"":0,""num_randdir"":4,""num_randdir_good_moves"":1,""num_whilered"":0,""num_whileblue"":0,""num_blue"":2,""num_good_moves"":3}","[420.57142857142856,418.47767857142856,0.1,420.57142857142856,418.47767857142856,100.9,420.57142857142856,418.47767857142856,200.9,418.57142857142856,418.47767857142856,306.1,418.57142857142856,418.47767857142856,407.4,433.57142857142856,402.47767857142856,510.6,429.57142857142856,396.47767857142856,611.4,395.57142857142856,431.47767857142856,712,132.57142857142856,688.4776785714286,817,107.57142857142857,698.4776785714286,920.8,92.57142857142857,703.4776785714286,1026.7,77.57142857142857,711.4776785714286,1127.1,72.57142857142857,716.4776785714286,1230.8,72.57142857142857,716.4776785714286,1332.5,72.57142857142857,716.4776785714286,1436.3,72.57142857142857,716.4776785714286,1540.7,72.57142857142857,716.4776785714286,1642.2,72.57142857142857,716.4776785714286,1746.2,72.57142857142857,716.4776785714286,1851.9,72.57142857142857,716.4776785714286,1957.2,72.57142857142857,716.4776785714286,2062,72.57142857142857,716.4776785714286,2166.8,72.57142857142857,716.4776785714286,2267.3,72.57142857142857,716.4776785714286,2371.7,72.57142857142857,716.4776785714286,2475.9,72.57142857142857,716.4776785714286,2576.4,72.57142857142857,716.4776785714286,2680.9,72.57142857142857,716.4776785714286,2780.9,72.57142857142857,716.4776785714286,2886.8,72.57142857142857,716.4776785714286,2987,72.57142857142857,716.4776785714286,3087.1,72.57142857142857,716.4776785714286,3191.5,72.57142857142857,716.4776785714286,3291.7,72.57142857142857,716.4776785714286,3391.7,72.57142857142857,716.4776785714286,3491.8,72.57142857142857,716.4776785714286,3595.6,72.57142857142857,716.4776785714286,3695.9,72.57142857142857,716.4776785714286,3795.9,72.57142857142857,716.4776785714286,3896.9,72.57142857142857,716.4776785714286,4000.6,72.57142857142857,716.4776785714286,4100.8,72.57142857142857,716.4776785714286,4201.8,72.57142857142857,716.4776785714286,4305.8,72.57142857142857,716.4776785714286,4406.4,72.57142857142857,716.4776785714286,4511,72.57142857142857,716.4776785714286,4617.1,72.57142857142857,716.4776785714286,4722,72.57142857142857,716.4776785714286,4825.9,72.57142857142857,716.4776785714286,4930.6]","[1550.4,1550.4,1000,0,550.4,""smooth"",""left"",""left"",""good_move"",3694.4,2143.7,1688,1550.7,455.7,""oops"",""down"",""right"",""bad_move"",9780.1,6085.4,2276.4,7104.5,399.2,""oops"",""down"",""right"",""bad_move"",16814.5,7034.1,2590.4,13723.6,500.5,""oops"",""down"",""down"",""good_move"",19487.1,2672.3,2114.8,16814.8,557.5,""oops"",""left"",""up"",""bad_move"",22235.2,2747.8,2258.6,19487.4,489.2,""smooth"",""left"",""left"",""good_move""]"
"3668","","<div style=""width:500px;"">
  <p>What determined the result of this run?</p>
  </div>","19","html-slider-response","59","828471","0.0-7.0-1.9","43","1","2025-07-30 08:43:34","36c45c0696341be0efffe67d72a12abb","196.75.100.139","Mozilla/5.0 (Windows NT 10.0; Win64; x64) AppleWebKit/537.36 (KHTML, like Gecko) Chrome/138.0.0.0 Safari/537.36","WebKit","Chrome","138.0.0.0","Windows","10.0","https://app.prolific.com/","en-US,en;q=0.9,ar;q=0.8","66ce541cd8da920539a1c3cc","687a19d2168e237449fb8af4","6889da06cdedc5b9120dcca7","0","66ce541cd8da920539a1c3cc","0","2025-07-30T08:57:22.739Z","","","","AttribQ","","","","","","","","","","","50","","","","","","","","","","","","","","","","","","","","","","","","","","",""
"3472","","<div style=""width:500px;"">
  <p>How much control did you have over the ball?</p>
  </div>","11","html-slider-response","60","831944","0.0-7.0-2.9","43","1","2025-07-30 08:43:34","36c45c0696341be0efffe67d72a12abb","196.75.100.139","Mozilla/5.0 (Windows NT 10.0; Win64; x64) AppleWebKit/537.36 (KHTML, like Gecko) Chrome/138.0.0.0 Safari/537.36","WebKit","Chrome","138.0.0.0","Windows","10.0","https://app.prolific.com/","en-US,en;q=0.9,ar;q=0.8","66ce541cd8da920539a1c3cc","687a19d2168e237449fb8af4","6889da06cdedc5b9120dcca7","0","66ce541cd8da920539a1c3cc","0","2025-07-30T08:57:26.212Z","","","","ControlQ","","","","","","","","","","","50","","","","","","","","","","","","","","","","","","","","","","","","","","",""
"2556","","<div style=""width:500px;"">
  <p>How would you describe your current emotional state?</p>
  </div>","74","html-slider-response","61","834500","0.0-7.0-3.9","43","1","2025-07-30 08:43:34","36c45c0696341be0efffe67d72a12abb","196.75.100.139","Mozilla/5.0 (Windows NT 10.0; Win64; x64) AppleWebKit/537.36 (KHTML, like Gecko) Chrome/138.0.0.0 Safari/537.36","WebKit","Chrome","138.0.0.0","Windows","10.0","https://app.prolific.com/","en-US,en;q=0.9,ar;q=0.8","66ce541cd8da920539a1c3cc","687a19d2168e237449fb8af4","6889da06cdedc5b9120dcca7","0","66ce541cd8da920539a1c3cc","0","2025-07-30T08:57:28.769Z","","","","StressQ","","","","","","","","","","","50","","","","","","","","","","","","","","","","","","","","","","","","","","",""
"7382","","<div style=""width:500px;"">
  <p>What best describes how you currently feel?</p>
  </div>","63","html-slider-response","62","841883","0.0-7.0-4.9","43","1","2025-07-30 08:43:34","36c45c0696341be0efffe67d72a12abb","196.75.100.139","Mozilla/5.0 (Windows NT 10.0; Win64; x64) AppleWebKit/537.36 (KHTML, like Gecko) Chrome/138.0.0.0 Safari/537.36","WebKit","Chrome","138.0.0.0","Windows","10.0","https://app.prolific.com/","en-US,en;q=0.9,ar;q=0.8","66ce541cd8da920539a1c3cc","687a19d2168e237449fb8af4","6889da06cdedc5b9120dcca7","0","66ce541cd8da920539a1c3cc","0","2025-07-30T08:57:36.151Z","","","","MotivationQ","","","","","","","","","","","50","","","","","","","","","","","","","","","","","","","","","","","","","","",""
"","","","","ctl-task-cpt","63","876977","0.0-7.0-0.10","43","1","2025-07-30 08:43:34","36c45c0696341be0efffe67d72a12abb","196.75.100.139","Mozilla/5.0 (Windows NT 10.0; Win64; x64) AppleWebKit/537.36 (KHTML, like Gecko) Chrome/138.0.0.0 Safari/537.36","WebKit","Chrome","138.0.0.0","Windows","10.0","https://app.prolific.com/","en-US,en;q=0.9,ar;q=0.8","66ce541cd8da920539a1c3cc","687a19d2168e237449fb8af4","6889da06cdedc5b9120dcca7","0","66ce541cd8da920539a1c3cc","0","2025-07-30T08:58:11.245Z","","","","","","","","","","","","","","","","win-only","3","g1:SW,g2:NE","0.6","11","0","845889","1006.9","6010.9","32075.2","1","4","4","6","1","-1","-1","0","0","0","1447.3","3000","-2700","[""down"",""left""]","{""num_key_presses"":5,""num_perfect"":2,""num_errors"":0,""num_randdir"":3,""num_randdir_good_moves"":1,""num_whilered"":0,""num_whileblue"":0,""num_blue"":3,""num_good_moves"":3}","[423.57142857142856,415.47767857142856,0.2,423.57142857142856,415.47767857142856,104.6,423.57142857142856,415.47767857142856,205.2,423.57142857142856,415.47767857142856,308.7,423.57142857142856,415.47767857142856,414.8,423.57142857142856,415.47767857142856,515.7,423.57142857142856,415.47767857142856,615.8,384.57142857142856,433.47767857142856,715.8,331.57142857142856,484.47767857142856,818.9,285.57142857142856,540.4776785714286,919.1,199.57142857142856,626.4776785714286,1024.4,158.57142857142856,660.4776785714286,1132.6,102.57142857142857,700.4776785714286,1234.9,61.57142857142857,733.4776785714286,1339.7,61.57142857142857,733.4776785714286,1439.7,61.57142857142857,733.4776785714286,1539.7,61.57142857142857,733.4776785714286,1648.2,61.57142857142857,733.4776785714286,1748.6,61.57142857142857,733.4776785714286,1848.8,61.57142857142857,733.4776785714286,1948.8,61.57142857142857,733.4776785714286,2055.1,61.57142857142857,733.4776785714286,2159.5,61.57142857142857,733.4776785714286,2260.1,61.57142857142857,733.4776785714286,2366.2,61.57142857142857,733.4776785714286,2468.8,61.57142857142857,733.4776785714286,2574.4,61.57142857142857,733.4776785714286,2682.9,61.57142857142857,733.4776785714286,2783.4,61.57142857142857,733.4776785714286,2884.5,61.57142857142857,733.4776785714286,2988.5,61.57142857142857,733.4776785714286,3088.5,61.57142857142857,733.4776785714286,3188.5,61.57142857142857,733.4776785714286,3288.7,61.57142857142857,733.4776785714286,3388.7,61.57142857142857,733.4776785714286,3488.8,61.57142857142857,733.4776785714286,3588.9,61.57142857142857,733.4776785714286,3698.6,61.57142857142857,733.4776785714286,3803.6,61.57142857142857,733.4776785714286,3904.2,61.57142857142857,733.4776785714286,4009.8,61.57142857142857,733.4776785714286,4115.3,61.57142857142857,733.4776785714286,4218.8,61.57142857142857,733.4776785714286,4318.9,61.57142857142857,733.4776785714286,4418.9,61.57142857142857,733.4776785714286,4519.3,61.57142857142857,733.4776785714286,4620,61.57142857142857,733.4776785714286,4723.5,61.57142857142857,733.4776785714286,4824,61.57142857142857,733.4776785714286,4932.1]","[4601.2,4601.2,2170.2,2010.8,420.2,""smooth"",""left"",""left"",""good_move"",11109.9,6508.4,1888.2,8744.5,477.2,""smooth"",""down"",""down"",""good_move"",13909.5,2799.4,2101.3,11110.1,698.1,""oops"",""down"",""down"",""good_move"",16360,2450.4,2015.2,13909.6,435.2,""oops"",""left"",""right"",""bad_move"",22746.1,6386,1890.4,20511.1,344.6,""oops"",""left"",""right"",""bad_move""]"
"10504","","<div style=""width:500px;"">
  <p>What determined the result of this run?</p>
  </div>","9","html-slider-response","64","887481","0.0-7.0-1.10","43","1","2025-07-30 08:43:34","36c45c0696341be0efffe67d72a12abb","196.75.100.139","Mozilla/5.0 (Windows NT 10.0; Win64; x64) AppleWebKit/537.36 (KHTML, like Gecko) Chrome/138.0.0.0 Safari/537.36","WebKit","Chrome","138.0.0.0","Windows","10.0","https://app.prolific.com/","en-US,en;q=0.9,ar;q=0.8","66ce541cd8da920539a1c3cc","687a19d2168e237449fb8af4","6889da06cdedc5b9120dcca7","0","66ce541cd8da920539a1c3cc","0","2025-07-30T08:58:21.749Z","","","","AttribQ","","","","","","","","","","","50","","","","","","","","","","","","","","","","","","","","","","","","","","",""
"2751","","<div style=""width:500px;"">
  <p>How much control did you have over the ball?</p>
  </div>","5","html-slider-response","65","890233","0.0-7.0-2.10","43","1","2025-07-30 08:43:34","36c45c0696341be0efffe67d72a12abb","196.75.100.139","Mozilla/5.0 (Windows NT 10.0; Win64; x64) AppleWebKit/537.36 (KHTML, like Gecko) Chrome/138.0.0.0 Safari/537.36","WebKit","Chrome","138.0.0.0","Windows","10.0","https://app.prolific.com/","en-US,en;q=0.9,ar;q=0.8","66ce541cd8da920539a1c3cc","687a19d2168e237449fb8af4","6889da06cdedc5b9120dcca7","0","66ce541cd8da920539a1c3cc","0","2025-07-30T08:58:24.501Z","","","","ControlQ","","","","","","","","","","","50","","","","","","","","","","","","","","","","","","","","","","","","","","",""
"6924","","<div style=""width:500px;"">
  <p>How would you describe your current emotional state?</p>
  </div>","75","html-slider-response","66","897157","0.0-7.0-3.10","43","1","2025-07-30 08:43:34","36c45c0696341be0efffe67d72a12abb","196.75.100.139","Mozilla/5.0 (Windows NT 10.0; Win64; x64) AppleWebKit/537.36 (KHTML, like Gecko) Chrome/138.0.0.0 Safari/537.36","WebKit","Chrome","138.0.0.0","Windows","10.0","https://app.prolific.com/","en-US,en;q=0.9,ar;q=0.8","66ce541cd8da920539a1c3cc","687a19d2168e237449fb8af4","6889da06cdedc5b9120dcca7","0","66ce541cd8da920539a1c3cc","0","2025-07-30T08:58:31.425Z","","","","StressQ","","","","","","","","","","","50","","","","","","","","","","","","","","","","","","","","","","","","","","",""
"2871","","<div style=""width:500px;"">
  <p>What best describes how you currently feel?</p>
  </div>","45","html-slider-response","67","900029","0.0-7.0-4.10","43","1","2025-07-30 08:43:34","36c45c0696341be0efffe67d72a12abb","196.75.100.139","Mozilla/5.0 (Windows NT 10.0; Win64; x64) AppleWebKit/537.36 (KHTML, like Gecko) Chrome/138.0.0.0 Safari/537.36","WebKit","Chrome","138.0.0.0","Windows","10.0","https://app.prolific.com/","en-US,en;q=0.9,ar;q=0.8","66ce541cd8da920539a1c3cc","687a19d2168e237449fb8af4","6889da06cdedc5b9120dcca7","0","66ce541cd8da920539a1c3cc","0","2025-07-30T08:58:34.297Z","","","","MotivationQ","","","","","","","","","","","50","","","","","","","","","","","","","","","","","","","","","","","","","","",""
"","","","","ctl-task-cpt","68","933627","0.0-7.0-0.11","43","1","2025-07-30 08:43:34","36c45c0696341be0efffe67d72a12abb","196.75.100.139","Mozilla/5.0 (Windows NT 10.0; Win64; x64) AppleWebKit/537.36 (KHTML, like Gecko) Chrome/138.0.0.0 Safari/537.36","WebKit","Chrome","138.0.0.0","Windows","10.0","https://app.prolific.com/","en-US,en;q=0.9,ar;q=0.8","66ce541cd8da920539a1c3cc","687a19d2168e237449fb8af4","6889da06cdedc5b9120dcca7","0","66ce541cd8da920539a1c3cc","0","2025-07-30T08:59:07.895Z","","","","","","","","","","","","","","","","win-only","0","g1:NW,g2:SE","0.7","12","0","904035.4","969","5970.4","30580.7","1","4","8","6","1","-1","-1","0","0","0","1398","3000","-3010","[""left"",""up""]","{""num_key_presses"":6,""num_perfect"":3,""num_errors"":0,""num_randdir"":3,""num_randdir_good_moves"":1,""num_whilered"":0,""num_whileblue"":0,""num_blue"":1,""num_good_moves"":4}","[411.57142857142856,410.47767857142856,0.1,411.57142857142856,410.47767857142856,101.5,411.57142857142856,410.47767857142856,207.1,411.57142857142856,410.47767857142856,312.8,411.57142857142856,414.47767857142856,416.8,405.57142857142856,414.47767857142856,517.2,329.57142857142856,385.47767857142856,618.3,253.57142857142856,288.47767857142856,722.8,226.57142857142856,232.47767857142856,826.2,208.57142857142856,200.47767857142856,927.3,161.57142857142856,146.47767857142856,1033.4,139.57142857142856,118.47767857142857,1137.4,110.57142857142857,100.47767857142857,1241.2,105.57142857142857,95.47767857142857,1341.3,105.57142857142857,95.47767857142857,1442.5,105.57142857142857,95.47767857142857,1547.3,105.57142857142857,95.47767857142857,1651.5,117.57142857142857,89.47767857142857,1751.7,132.57142857142856,91.47767857142857,1851.8,132.57142857142856,91.47767857142857,1952.5,132.57142857142856,91.47767857142857,2056.5,132.57142857142856,91.47767857142857,2156.5,132.57142857142856,91.47767857142857,2256.6,132.57142857142856,91.47767857142857,2361.6,132.57142857142856,91.47767857142857,2466.5,132.57142857142856,91.47767857142857,2566.5,132.57142857142856,91.47767857142857,2672.7,132.57142857142856,91.47767857142857,2777.6,132.57142857142856,91.47767857142857,2881.6,132.57142857142856,91.47767857142857,2983.3,132.57142857142856,91.47767857142857,3086.6,132.57142857142856,91.47767857142857,3191.9,132.57142857142856,91.47767857142857,3292.4,132.57142857142856,91.47767857142857,3396.3,132.57142857142856,91.47767857142857,3496.8,132.57142857142856,91.47767857142857,3602.4,132.57142857142856,91.47767857142857,3702.7,132.57142857142856,91.47767857142857,3806.2,132.57142857142856,91.47767857142857,3906.6,132.57142857142856,91.47767857142857,4008.5,132.57142857142856,91.47767857142857,4112.5,132.57142857142856,91.47767857142857,4216.7,132.57142857142856,91.47767857142857,4317.9,132.57142857142856,91.47767857142857,4422.6,132.57142857142856,91.47767857142857,4526.7,132.57142857142856,91.47767857142857,4627.2,132.57142857142856,91.47767857142857,4733.6,132.57142857142856,91.47767857142857,4836.7,132.57142857142856,91.47767857142857,4936.8]","[1395.3,1395.3,1000,0,395.3,""oops"",""left"",""right"",""bad_move"",8880.2,7484.5,2538.1,5781,561.1,""oops"",""left"",""down"",""bad_move"",12950.4,4069.9,3519.7,8880.5,550.2,""smooth"",""left"",""left"",""good_move"",16493.2,3542.5,2788.8,12950.7,753.7,""smooth"",""up"",""up"",""good_move"",19292.8,2799.4,2393.1,16493.4,406.3,""oops"",""up"",""left"",""good_move"",21557.3,2264.1,1915.8,19293.3,348.2,""smooth"",""up"",""up"",""good_move""]"
"7263","","<div style=""width:500px;"">
  <p>What determined the result of this run?</p>
  </div>","10","html-slider-response","69","940891","0.0-7.0-1.11","43","1","2025-07-30 08:43:34","36c45c0696341be0efffe67d72a12abb","196.75.100.139","Mozilla/5.0 (Windows NT 10.0; Win64; x64) AppleWebKit/537.36 (KHTML, like Gecko) Chrome/138.0.0.0 Safari/537.36","WebKit","Chrome","138.0.0.0","Windows","10.0","https://app.prolific.com/","en-US,en;q=0.9,ar;q=0.8","66ce541cd8da920539a1c3cc","687a19d2168e237449fb8af4","6889da06cdedc5b9120dcca7","0","66ce541cd8da920539a1c3cc","0","2025-07-30T08:59:15.159Z","","","","AttribQ","","","","","","","","","","","50","","","","","","","","","","","","","","","","","","","","","","","","","","",""
"3360","","<div style=""width:500px;"">
  <p>How much control did you have over the ball?</p>
  </div>","7","html-slider-response","70","944252","0.0-7.0-2.11","43","1","2025-07-30 08:43:34","36c45c0696341be0efffe67d72a12abb","196.75.100.139","Mozilla/5.0 (Windows NT 10.0; Win64; x64) AppleWebKit/537.36 (KHTML, like Gecko) Chrome/138.0.0.0 Safari/537.36","WebKit","Chrome","138.0.0.0","Windows","10.0","https://app.prolific.com/","en-US,en;q=0.9,ar;q=0.8","66ce541cd8da920539a1c3cc","687a19d2168e237449fb8af4","6889da06cdedc5b9120dcca7","0","66ce541cd8da920539a1c3cc","0","2025-07-30T08:59:18.520Z","","","","ControlQ","","","","","","","","","","","50","","","","","","","","","","","","","","","","","","","","","","","","","","",""
"2893","","<div style=""width:500px;"">
  <p>How would you describe your current emotional state?</p>
  </div>","80","html-slider-response","71","947146","0.0-7.0-3.11","43","1","2025-07-30 08:43:34","36c45c0696341be0efffe67d72a12abb","196.75.100.139","Mozilla/5.0 (Windows NT 10.0; Win64; x64) AppleWebKit/537.36 (KHTML, like Gecko) Chrome/138.0.0.0 Safari/537.36","WebKit","Chrome","138.0.0.0","Windows","10.0","https://app.prolific.com/","en-US,en;q=0.9,ar;q=0.8","66ce541cd8da920539a1c3cc","687a19d2168e237449fb8af4","6889da06cdedc5b9120dcca7","0","66ce541cd8da920539a1c3cc","0","2025-07-30T08:59:21.414Z","","","","StressQ","","","","","","","","","","","50","","","","","","","","","","","","","","","","","","","","","","","","","","",""
"5291","","<div style=""width:500px;"">
  <p>What best describes how you currently feel?</p>
  </div>","41","html-slider-response","72","952438","0.0-7.0-4.11","43","1","2025-07-30 08:43:34","36c45c0696341be0efffe67d72a12abb","196.75.100.139","Mozilla/5.0 (Windows NT 10.0; Win64; x64) AppleWebKit/537.36 (KHTML, like Gecko) Chrome/138.0.0.0 Safari/537.36","WebKit","Chrome","138.0.0.0","Windows","10.0","https://app.prolific.com/","en-US,en;q=0.9,ar;q=0.8","66ce541cd8da920539a1c3cc","687a19d2168e237449fb8af4","6889da06cdedc5b9120dcca7","0","66ce541cd8da920539a1c3cc","0","2025-07-30T08:59:26.706Z","","","","MotivationQ","","","","","","","","","","","50","","","","","","","","","","","","","","","","","","","","","","","","","","",""
"","","","","ctl-task-cpt","73","998586","0.0-7.0-0.12","43","1","2025-07-30 08:43:34","36c45c0696341be0efffe67d72a12abb","196.75.100.139","Mozilla/5.0 (Windows NT 10.0; Win64; x64) AppleWebKit/537.36 (KHTML, like Gecko) Chrome/138.0.0.0 Safari/537.36","WebKit","Chrome","138.0.0.0","Windows","10.0","https://app.prolific.com/","en-US,en;q=0.9,ar;q=0.8","66ce541cd8da920539a1c3cc","687a19d2168e237449fb8af4","6889da06cdedc5b9120dcca7","0","66ce541cd8da920539a1c3cc","0","2025-07-30T09:00:12.854Z","","","","","","","","","","","","","","","","win-only","1","g1:NE,g2:SW","0.8","13","0","956444.6","1488.3","6490.9","43130.5","1","4","8","6","2","-8","-8","0","0","0","1450.9","3000","-3000","[""down"",""left""]","{""num_key_presses"":7,""num_perfect"":6,""num_errors"":0,""num_randdir"":1,""num_randdir_good_moves"":0,""num_whilered"":0,""num_whileblue"":0,""num_blue"":4,""num_good_moves"":5}","[413.57142857142856,411.47767857142856,0.1,413.57142857142856,411.47767857142856,102.1,407.57142857142856,411.47767857142856,202.9,407.57142857142856,411.47767857142856,303.3,399.57142857142856,411.47767857142856,408,384.57142857142856,411.47767857142856,513.6,331.57142857142856,464.47767857142856,613.8,304.57142857142856,520.4776785714286,717,252.57142857142856,578.4776785714286,818.5,167.57142857142856,640.4776785714286,923.4,147.57142857142856,660.4776785714286,1023.5,142.57142857142856,675.4776785714286,1128.4,139.57142857142856,683.4776785714286,1233.7,137.57142857142856,697.4776785714286,1337.8,137.57142857142856,699.4776785714286,1443.3,137.57142857142856,699.4776785714286,1543.5,137.57142857142856,699.4776785714286,1647.7,137.57142857142856,699.4776785714286,1752.9,137.57142857142856,699.4776785714286,1857.2,131.57142857142856,697.4776785714286,1957.5,131.57142857142856,697.4776785714286,2062.1,131.57142857142856,697.4776785714286,2162.9,131.57142857142856,697.4776785714286,2268.3,131.57142857142856,697.4776785714286,2368.3,131.57142857142856,697.4776785714286,2473.1,131.57142857142856,697.4776785714286,2578,131.57142857142856,697.4776785714286,2678.3,131.57142857142856,697.4776785714286,2782,131.57142857142856,697.4776785714286,2882,131.57142857142856,697.4776785714286,2982,131.57142857142856,697.4776785714286,3082.2,131.57142857142856,697.4776785714286,3182.9,131.57142857142856,697.4776785714286,3288,131.57142857142856,697.4776785714286,3392,131.57142857142856,697.4776785714286,3492.1,131.57142857142856,697.4776785714286,3592.1,131.57142857142856,697.4776785714286,3692.1,131.57142857142856,697.4776785714286,3798.1,131.57142857142856,697.4776785714286,3903.4,131.57142857142856,697.4776785714286,4007,131.57142857142856,697.4776785714286,4107,131.57142857142856,697.4776785714286,4207.8,131.57142857142856,697.4776785714286,4313.3,131.57142857142856,697.4776785714286,4418.5,131.57142857142856,697.4776785714286,4522,131.57142857142856,697.4776785714286,4622.8,131.57142857142856,697.4776785714286,4723,131.57142857142856,697.4776785714286,4827.3,131.57142857142856,697.4776785714286,4932.8]","[5415.6,5415.6,3098.9,2004.8,311.9,""smooth"",""up"",""up"",""bad_move"",12504.5,7088.6,2713.2,9370.4,420.9,""smooth"",""down"",""down"",""good_move"",19181.7,6676.9,3161.8,15729.3,290.6,""smooth"",""down"",""down"",""good_move"",22144.6,2962.7,2587.9,19181.9,374.8,""smooth"",""down"",""down"",""good_move"",24596.5,2451.8,1742,22144.7,709.8,""smooth"",""left"",""left"",""good_move"",30791.8,6194.9,2126.2,28391.1,274.5,""smooth"",""down"",""down"",""good_move"",33764.5,2972.6,2601.2,30791.9,371.4,""oops"",""left"",""up"",""bad_move""]"
"2427","","<div style=""width:500px;"">
  <p>What determined the result of this run?</p>
  </div>","13","html-slider-response","74","1001014","0.0-7.0-1.12","43","1","2025-07-30 08:43:34","36c45c0696341be0efffe67d72a12abb","196.75.100.139","Mozilla/5.0 (Windows NT 10.0; Win64; x64) AppleWebKit/537.36 (KHTML, like Gecko) Chrome/138.0.0.0 Safari/537.36","WebKit","Chrome","138.0.0.0","Windows","10.0","https://app.prolific.com/","en-US,en;q=0.9,ar;q=0.8","66ce541cd8da920539a1c3cc","687a19d2168e237449fb8af4","6889da06cdedc5b9120dcca7","0","66ce541cd8da920539a1c3cc","0","2025-07-30T09:00:15.282Z","","","","AttribQ","","","","","","","","","","","50","","","","","","","","","","","","","","","","","","","","","","","","","","",""
"4585","","<div style=""width:500px;"">
  <p>How much control did you have over the ball?</p>
  </div>","11","html-slider-response","75","1005600","0.0-7.0-2.12","43","1","2025-07-30 08:43:34","36c45c0696341be0efffe67d72a12abb","196.75.100.139","Mozilla/5.0 (Windows NT 10.0; Win64; x64) AppleWebKit/537.36 (KHTML, like Gecko) Chrome/138.0.0.0 Safari/537.36","WebKit","Chrome","138.0.0.0","Windows","10.0","https://app.prolific.com/","en-US,en;q=0.9,ar;q=0.8","66ce541cd8da920539a1c3cc","687a19d2168e237449fb8af4","6889da06cdedc5b9120dcca7","0","66ce541cd8da920539a1c3cc","0","2025-07-30T09:00:19.868Z","","","","ControlQ","","","","","","","","","","","50","","","","","","","","","","","","","","","","","","","","","","","","","","",""
"4277","","<div style=""width:500px;"">
  <p>How would you describe your current emotional state?</p>
  </div>","86","html-slider-response","76","1009878","0.0-7.0-3.12","43","1","2025-07-30 08:43:34","36c45c0696341be0efffe67d72a12abb","196.75.100.139","Mozilla/5.0 (Windows NT 10.0; Win64; x64) AppleWebKit/537.36 (KHTML, like Gecko) Chrome/138.0.0.0 Safari/537.36","WebKit","Chrome","138.0.0.0","Windows","10.0","https://app.prolific.com/","en-US,en;q=0.9,ar;q=0.8","66ce541cd8da920539a1c3cc","687a19d2168e237449fb8af4","6889da06cdedc5b9120dcca7","0","66ce541cd8da920539a1c3cc","0","2025-07-30T09:00:24.146Z","","","","StressQ","","","","","","","","","","","50","","","","","","","","","","","","","","","","","","","","","","","","","","",""
"4630","","<div style=""width:500px;"">
  <p>What best describes how you currently feel?</p>
  </div>","31","html-slider-response","77","1014509","0.0-7.0-4.12","43","1","2025-07-30 08:43:34","36c45c0696341be0efffe67d72a12abb","196.75.100.139","Mozilla/5.0 (Windows NT 10.0; Win64; x64) AppleWebKit/537.36 (KHTML, like Gecko) Chrome/138.0.0.0 Safari/537.36","WebKit","Chrome","138.0.0.0","Windows","10.0","https://app.prolific.com/","en-US,en;q=0.9,ar;q=0.8","66ce541cd8da920539a1c3cc","687a19d2168e237449fb8af4","6889da06cdedc5b9120dcca7","0","66ce541cd8da920539a1c3cc","0","2025-07-30T09:00:28.777Z","","","","MotivationQ","","","","","","","","","","","50","","","","","","","","","","","","","","","","","","","","","","","","","","",""
