"rt","response_timestamp","stimulus","response","trial_type","trial_index","time_elapsed","internal_node_id","run_id","condition","recorded_at","source_code_version","ip","user_agent","device","browser","browser_version","platform","platform_version","referer","accept_language","PROLIFIC_PID","STUDY_ID","SESSION_ID","BATCH","prolific_id","batch","realtime","success","question_order","question_id","eventType","responses","item_order","radio_event_ids","radio_event_times","key_event_times","mouse_event_times","straightlining","zigzagging","honeypot","view_history","slider_start","which_type","canvas_config","goals_layout","control_level","trial_number","tutorial_trial_number","trial_start_time","phase1_start_time","phase2_start_time","phase3_start_time","goal_1_value","goal_1_distance","goal_2_value","goal_2_distance","goal_selected","outcome","outcome_total","participant_final_score","participant_initial_score","participant_final_score_prop","goal_choice_rt","allocated_time","allocated_time_remaining","goal_direction","counts","mouse_movements","key_presses"
"13085","1754486209598","<p style='font-size:40px;line-height:1.25'><strong>Welcome to the experiment!</strong></p><p style='font-size:1.1em;line-height:1.25'>Thank you for participanting in our experiment again! You will be asked to play the Dysfunctional Ball Game again. We will briefly recap the rules before we start.</p><p style='font-size:1.1em;line-height:1.25'>Press <strong>Next</strong> to continue.</p>","0","custom-html-button-response","0","13090","0.0-0.0","200","1","2025-08-06 13:16:34","36c45c0696341be0efffe67d72a12abb","102.221.201.129","Mozilla/5.0 (Windows NT 10.0; Win64; x64) AppleWebKit/537.36 (KHTML, like Gecko) Chrome/138.0.0.0 Safari/537.36 Edg/138.0.0.0","WebKit","Edge","138.0.0.0","Windows","10.0","https://app.prolific.com/","en-GB,en;q=0.9,en-US;q=0.8","66cf43db332889da5054c9e8","687a1a965b9f5b85a264363e","6893533145008204cb21f239","1","66cf43db332889da5054c9e8","1","2025-08-06T13:16:49.601Z","","","","","","","","","","","","","","","","","","","","","","","","","","","","","","","","","","","","","","","","","",""
"56935","","","","fullscreen","1","71033","0.0-1.0","200","1","2025-08-06 13:16:34","36c45c0696341be0efffe67d72a12abb","102.221.201.129","Mozilla/5.0 (Windows NT 10.0; Win64; x64) AppleWebKit/537.36 (KHTML, like Gecko) Chrome/138.0.0.0 Safari/537.36 Edg/138.0.0.0","WebKit","Edge","138.0.0.0","Windows","10.0","https://app.prolific.com/","en-GB,en;q=0.9,en-US;q=0.8","66cf43db332889da5054c9e8","687a1a965b9f5b85a264363e","6893533145008204cb21f239","1","66cf43db332889da5054c9e8","1","","true","","","","","","","","","","","","","","","","","","","","","","","","","","","","","","","","","","","","","","","","",""
"124762","1754486392307"," <p style='font-size:1.1em;line-height:1.25'>Thank you for closing all other tabs.</p><p style='font-size:1.1em;line-height:1.25'>We will now invite you to fill in some questionnaires, before starting the game.<br>This will take about 5 minutes.<br></p><p style='font-size:1.1em;line-height:1.25'>Press the <strong>Next</strong> button to continue.</p>","0","custom-html-button-response","2","195797","0.0-2.0","200","1","2025-08-06 13:16:34","36c45c0696341be0efffe67d72a12abb","102.221.201.129","Mozilla/5.0 (Windows NT 10.0; Win64; x64) AppleWebKit/537.36 (KHTML, like Gecko) Chrome/138.0.0.0 Safari/537.36 Edg/138.0.0.0","WebKit","Edge","138.0.0.0","Windows","10.0","https://app.prolific.com/","en-GB,en;q=0.9,en-US;q=0.8","66cf43db332889da5054c9e8","687a1a965b9f5b85a264363e","6893533145008204cb21f239","1","66cf43db332889da5054c9e8","1","2025-08-06T13:19:52.307Z","","","","","","","","","","","","","","","","","","","","","","","","","","","","","","","","","","","","","","","","","",""
"2561","","","{""assigned_sex"":""female""}","survey-multi-choice","3","198361","0.0-3.0-0.0","200","1","2025-08-06 13:16:34","36c45c0696341be0efffe67d72a12abb","102.221.201.129","Mozilla/5.0 (Windows NT 10.0; Win64; x64) AppleWebKit/537.36 (KHTML, like Gecko) Chrome/138.0.0.0 Safari/537.36 Edg/138.0.0.0","WebKit","Edge","138.0.0.0","Windows","10.0","https://app.prolific.com/","en-GB,en;q=0.9,en-US;q=0.8","66cf43db332889da5054c9e8","687a1a965b9f5b85a264363e","6893533145008204cb21f239","1","66cf43db332889da5054c9e8","1","","","[0]","0","demographics","","","","","","","","","","","","","","","","","","","","","","","","","","","","","","","","","","","","","",""
"9247","1754486404118","<p style='font-size:1.1em;line-height:1.25'>In the following, we will perform a baseline assessment. This means that we will ask you a few questions relating to your experiences over the past month.<br></p><p style='font-size:1.1em;line-height:1.25'>Press the <strong>Next</strong> button to continue.</p>","0","custom-html-button-response","4","207609","0.0-4.0-0.0","200","1","2025-08-06 13:16:34","36c45c0696341be0efffe67d72a12abb","102.221.201.129","Mozilla/5.0 (Windows NT 10.0; Win64; x64) AppleWebKit/537.36 (KHTML, like Gecko) Chrome/138.0.0.0 Safari/537.36 Edg/138.0.0.0","WebKit","Edge","138.0.0.0","Windows","10.0","https://app.prolific.com/","en-GB,en;q=0.9,en-US;q=0.8","66cf43db332889da5054c9e8","687a1a965b9f5b85a264363e","6893533145008204cb21f239","1","66cf43db332889da5054c9e8","1","2025-08-06T13:20:04.119Z","","","","","","","","","","","","","","","","","","","","","","","","","","","","","","","","","","","","","","","","","",""
"195249.89999997616","","","","survey-template","5","402863","0.0-4.0-1.0","200","1","2025-08-06 13:16:34","36c45c0696341be0efffe67d72a12abb","102.221.201.129","Mozilla/5.0 (Windows NT 10.0; Win64; x64) AppleWebKit/537.36 (KHTML, like Gecko) Chrome/138.0.0.0 Safari/537.36 Edg/138.0.0.0","WebKit","Edge","138.0.0.0","Windows","10.0","https://app.prolific.com/","en-GB,en;q=0.9,en-US;q=0.8","66cf43db332889da5054c9e8","687a1a965b9f5b85a264363e","6893533145008204cb21f239","1","66cf43db332889da5054c9e8","1","2025-08-06T13:23:19.373Z","","","","pss","{""Q01"":""2"",""Q02"":""2"",""Q03"":""2"",""Q04"":""1"",""Q05"":""1"",""Q06"":""2"",""Q07"":""1"",""Q08"":""1"",""Q09"":""2"",""Q10"":""1""}","[0,1,2,3,4,5,6,7,8,9]","[""Q01"",""Q02"",""Q03"",""Q04"",""Q05"",""Q06"",""Q07"",""Q08"",""Q09"",""Q10""]","[58195.299999952316,75561.29999995232,80614.79999995232,86803.39999997616,96952.79999995232,143636.79999995232,167701.89999997616,173434.79999995232,179574.79999995232,194394.69999992847]","[]","[0.19999992847442627,57208.89999997616,58195.299999952316,75561.29999995232,80614.79999995232,86803.39999997616,95341,96952.79999995232,143636.79999995232,167701.89999997616,173434.79999995232,179574.79999995232,194394.69999992847,195247.09999990463]","0.5","0.5555555555555556","0","","","","","","","","","","","","","","","","","","","","","","","","","","","","",""
"4899","1754486604274","<p style='font-size:1.1em;line-height:1.25'>Thank you for your answers! Now we will ask you a few more questions relating to your feelings in the last 24 hours.<br></p><p style='font-size:1.1em;line-height:1.25'>Press the <strong>Next</strong> button to continue.</p>","0","custom-html-button-response","6","407764","0.0-4.0-2.0","200","1","2025-08-06 13:16:34","36c45c0696341be0efffe67d72a12abb","102.221.201.129","Mozilla/5.0 (Windows NT 10.0; Win64; x64) AppleWebKit/537.36 (KHTML, like Gecko) Chrome/138.0.0.0 Safari/537.36 Edg/138.0.0.0","WebKit","Edge","138.0.0.0","Windows","10.0","https://app.prolific.com/","en-GB,en;q=0.9,en-US;q=0.8","66cf43db332889da5054c9e8","687a1a965b9f5b85a264363e","6893533145008204cb21f239","1","66cf43db332889da5054c9e8","1","2025-08-06T13:23:24.274Z","","","","","","","","","","","","","","","","","","","","","","","","","","","","","","","","","","","","","","","","","",""
"133439.60000002384","","","","survey-template","7","541208","0.0-4.0-3.0","200","1","2025-08-06 13:16:34","36c45c0696341be0efffe67d72a12abb","102.221.201.129","Mozilla/5.0 (Windows NT 10.0; Win64; x64) AppleWebKit/537.36 (KHTML, like Gecko) Chrome/138.0.0.0 Safari/537.36 Edg/138.0.0.0","WebKit","Edge","138.0.0.0","Windows","10.0","https://app.prolific.com/","en-GB,en;q=0.9,en-US;q=0.8","66cf43db332889da5054c9e8","687a1a965b9f5b85a264363e","6893533145008204cb21f239","1","66cf43db332889da5054c9e8","1","2025-08-06T13:25:37.718Z","","","","drsp","{""Q01"":""0"",""Q02"":""0"",""Q03"":""0"",""Q04"":""0"",""Q05"":""0"",""Q06"":""1"",""Q07"":""0"",""Q08"":""0"",""Q09"":""1"",""Q10"":""0"",""Q11"":""2"",""Q12"":""0"",""Q13"":""5"",""Q14"":""3"",""Q15"":""0"",""Q16"":""2"",""Q17"":""3"",""Q18"":""0"",""Q19"":""0"",""Q20"":""0"",""Q21"":""1"",""Q22"":""1""}","[0,1,2,3,4,5,6,7,8,9,10,11,12,13,14,15,16,17,18,19,20,21]","[""Q01"",""Q03"",""Q02"",""Q04"",""Q05"",""Q06"",""Q07"",""Q08"",""Q09"",""Q10"",""Q11"",""Q12"",""Q13"",""Q14"",""Q15"",""Q16"",""Q17"",""Q18"",""Q19"",""Q20"",""Q21"",""Q21"",""Q22""]","[3863.7999999523163,8404,9261.899999976158,11051.899999976158,13637.899999976158,18263.899999976158,21605.700000047684,32315.600000023842,35965.89999997616,39237.700000047684,42942.200000047684,55933.39999997616,59597.799999952316,63628,67269.5,79361.5,92979.29999995232,104727.5,112800,117633.89999997616,121284.20000004768,128104.70000004768,132173.89999997616]","[]","[0,3863.7999999523163,5232.899999976158,8404,9261.899999976158,11051.899999976158,13637.899999976158,18263.899999976158,21605.700000047684,32315.600000023842,35965.89999997616,39237.700000047684,42942.200000047684,55933.39999997616,59597.799999952316,63628,66604.29999995232,67269.5,79361.5,92979.29999995232,104727.5,112800,117633.89999997616,121284.20000004768,128104.70000004768,132173.89999997616,133432.79999995232]","0.5909090909090909","0.3333333333333333","0","","","","","","","","","","","","","","","","","","","","","","","","","","","","",""
"28278","","","","survey-template","8","569488","0.0-4.0-4.0","200","1","2025-08-06 13:16:34","36c45c0696341be0efffe67d72a12abb","102.221.201.129","Mozilla/5.0 (Windows NT 10.0; Win64; x64) AppleWebKit/537.36 (KHTML, like Gecko) Chrome/138.0.0.0 Safari/537.36 Edg/138.0.0.0","WebKit","Edge","138.0.0.0","Windows","10.0","https://app.prolific.com/","en-GB,en;q=0.9,en-US;q=0.8","66cf43db332889da5054c9e8","687a1a965b9f5b85a264363e","6893533145008204cb21f239","1","66cf43db332889da5054c9e8","1","2025-08-06T13:26:05.998Z","","","","stress","{""Q01"":""1"",""Q02"":""2"",""Q03"":""3""}","[0,1,2]","[""Q01"",""Q02"",""Q02"",""Q03""]","[4206.400000095367,8379.100000023842,10128.600000023842,26149.800000071526]","[]","[4206.400000095367,8379.100000023842,10128.600000023842,26149.800000071526,28276.5]","0.6666666666666666","0","0","","","","","","","","","","","","","","","","","","","","","","","","","","","","",""
"53244","","","","instructions","9","622734","0.0-5.0-0.0","200","1","2025-08-06 13:16:34","36c45c0696341be0efffe67d72a12abb","102.221.201.129","Mozilla/5.0 (Windows NT 10.0; Win64; x64) AppleWebKit/537.36 (KHTML, like Gecko) Chrome/138.0.0.0 Safari/537.36 Edg/138.0.0.0","WebKit","Edge","138.0.0.0","Windows","10.0","https://app.prolific.com/","en-GB,en;q=0.9,en-US;q=0.8","66cf43db332889da5054c9e8","687a1a965b9f5b85a264363e","6893533145008204cb21f239","1","66cf43db332889da5054c9e8","1","","","","","","","","","","","","","","","[{""page_index"":0,""viewing_time"":53244}]","","","","","","","","","","","","","","","","","","","","","","","","","","","",""
"29679","","<p>Before you start with this game please answer the following three questions yourself. </p>
  <p>Through this game, we measure several aspects of your cognitive performance, such as reaction times, multi-tasking capabilities </p>
  <p>and the ability to assess the situation you are in.</p>
  <p></p>
  <p><b>How good do you usually are in such tasks?</b></p>","90","html-slider-response","10","652416","0.0-6.0-0.0","200","1","2025-08-06 13:16:34","36c45c0696341be0efffe67d72a12abb","102.221.201.129","Mozilla/5.0 (Windows NT 10.0; Win64; x64) AppleWebKit/537.36 (KHTML, like Gecko) Chrome/138.0.0.0 Safari/537.36 Edg/138.0.0.0","WebKit","Edge","138.0.0.0","Windows","10.0","https://app.prolific.com/","en-GB,en;q=0.9,en-US;q=0.8","66cf43db332889da5054c9e8","687a1a965b9f5b85a264363e","6893533145008204cb21f239","1","66cf43db332889da5054c9e8","1","2025-08-06T13:27:28.926Z","","","","PreSkillQ","","","","","","","","","","","50","","","","","","","","","","","","","","","","","","","","","","","","","","",""
"5104","","<div style=""width:500px;"">
  <p>How well do you think you will perform in this task compared to other participants?</p>
  </div>","96","html-slider-response","11","657523","0.0-6.0-1.0","200","1","2025-08-06 13:16:34","36c45c0696341be0efffe67d72a12abb","102.221.201.129","Mozilla/5.0 (Windows NT 10.0; Win64; x64) AppleWebKit/537.36 (KHTML, like Gecko) Chrome/138.0.0.0 Safari/537.36 Edg/138.0.0.0","WebKit","Edge","138.0.0.0","Windows","10.0","https://app.prolific.com/","en-GB,en;q=0.9,en-US;q=0.8","66cf43db332889da5054c9e8","687a1a965b9f5b85a264363e","6893533145008204cb21f239","1","66cf43db332889da5054c9e8","1","2025-08-06T13:27:34.033Z","","","","PrePerfQ","","","","","","","","","","","50","","","","","","","","","","","","","","","","","","","","","","","","","","",""
"4773","","<div style=""width:500px;"">
  <p>What best describes how you currently feel?</p>
  </div>","100","html-slider-response","12","662298","0.0-6.0-2.0","200","1","2025-08-06 13:16:34","36c45c0696341be0efffe67d72a12abb","102.221.201.129","Mozilla/5.0 (Windows NT 10.0; Win64; x64) AppleWebKit/537.36 (KHTML, like Gecko) Chrome/138.0.0.0 Safari/537.36 Edg/138.0.0.0","WebKit","Edge","138.0.0.0","Windows","10.0","https://app.prolific.com/","en-GB,en;q=0.9,en-US;q=0.8","66cf43db332889da5054c9e8","687a1a965b9f5b85a264363e","6893533145008204cb21f239","1","66cf43db332889da5054c9e8","1","2025-08-06T13:27:38.808Z","","","","PreMotivationQ","","","","","","","","","","","50","","","","","","","","","","","","","","","","","","","","","","","","","","",""
"","","","","ctl-task-cpt","13","712868","0.0-7.0-0.0","200","1","2025-08-06 13:16:34","36c45c0696341be0efffe67d72a12abb","102.221.201.129","Mozilla/5.0 (Windows NT 10.0; Win64; x64) AppleWebKit/537.36 (KHTML, like Gecko) Chrome/138.0.0.0 Safari/537.36 Edg/138.0.0.0","WebKit","Edge","138.0.0.0","Windows","10.0","https://app.prolific.com/","en-GB,en;q=0.9,en-US;q=0.8","66cf43db332889da5054c9e8","687a1a965b9f5b85a264363e","6893533145008204cb21f239","1","66cf43db332889da5054c9e8","1","2025-08-06T13:28:29.379Z","","","","","","","","","","","","","","","","win-only","1","g1:NE,g2:SW","1","1","0","664803.2","10070.1","15079.6","47557.7","1","4","8","6","1","1","-2","0","0","0","5009.5","3000","165","[""up"",""right""]","{""num_key_presses"":9,""num_perfect"":6,""num_errors"":3,""num_randdir"":0,""num_randdir_good_moves"":0,""num_whilered"":0,""num_whileblue"":0,""num_blue"":2,""num_good_moves"":5}","[416.57142857142856,416.1808016640799,0.6,416.57142857142856,416.1808016640799,104.8,416.57142857142856,416.1808016640799,206.4,416.57142857142856,416.1808016640799,310,416.57142857142856,416.1808016640799,411,416.57142857142856,416.1808016640799,512,416.57142857142856,416.1808016640799,614.7,416.57142857142856,416.1808016640799,720.2,416.57142857142856,416.1808016640799,826.4,416.57142857142856,416.1808016640799,932.9,416.57142857142856,416.1808016640799,1033.1,416.57142857142856,416.1808016640799,1133.4,416.57142857142856,416.1808016640799,1238.5,416.57142857142856,416.1808016640799,1344.6,416.57142857142856,416.1808016640799,1448,464.57142857142856,162.68080166407992,1559.4,466.07142857142856,155.18080166407992,1662.7,467.57142857142856,149.18080166407992,1764.8,467.57142857142856,146.18080166407992,1871.2,467.57142857142856,141.68080166407992,1972.2,467.57142857142856,141.68080166407992,2076.1,467.57142857142856,140.18080166407992,2184.6,467.57142857142856,140.18080166407992,2286,467.57142857142856,140.18080166407992,2392.4,467.57142857142856,140.18080166407992,2496.7,467.57142857142856,140.18080166407992,2596.8,461.57142857142856,167.18080166407992,2700.9,461.57142857142856,173.18080166407992,2804.6,461.57142857142856,174.68080166407992,2907.1,460.07142857142856,224.18080166407992,3009.5,467.57142857142856,191.18080166407992,3117.2,467.57142857142856,191.18080166407992,3221.7,467.57142857142856,191.18080166407992,3326.5,467.57142857142856,191.18080166407992,3430.1,467.57142857142856,191.18080166407992,3537.5,467.57142857142856,191.18080166407992,3637.9,467.57142857142856,191.18080166407992,3742.1,467.57142857142856,191.18080166407992,3842.3,467.57142857142856,191.18080166407992,3953,467.57142857142856,191.18080166407992,4053,467.57142857142856,191.18080166407992,4156.4,467.57142857142856,191.18080166407992,4263,467.57142857142856,191.18080166407992,4371.6,467.57142857142856,191.18080166407992,4471.6,467.57142857142856,191.18080166407992,4572.2,467.57142857142856,191.18080166407992,4676.1,467.57142857142856,191.18080166407992,4781.7,467.57142857142856,191.18080166407992,4887.7,467.57142857142856,191.18080166407992,4988.6]","[221.5,221.4,1000,0.1,-778.6,""error"",""-"",""-"",""no_move"",2792.7,2570.8,2084.9,1228.4,-520.6,""error"",""-"",""-"",""no_move"",8292.3,5499.3,3145.3,3799.1,1348,""smooth"",""down"",""down"",""bad_move"",9397.7,1104.3,1538.2,8293.4,-433.9,""error"",""-"",""-"",""no_move"",13386.9,3988.6,2345,10401.1,640.9,""smooth"",""up"",""up"",""good_move"",16536.5,3148.9,2647.1,13387.6,501.8,""smooth"",""up"",""up"",""good_move"",27084.1,10547.1,2248.7,24335.4,500,""smooth"",""up"",""up"",""good_move"",29782.3,2697.8,2311.2,27084.5,386.6,""smooth"",""right"",""right"",""good_move"",32348.7,2565.8,2163.7,29782.9,402.1,""smooth"",""right"",""right"",""good_move""]"
"6195","","<div style=""width:500px;"">
  <p>What determined the result of this run?</p>
  </div>","72","html-slider-response","14","719066","0.0-7.0-1.0","200","1","2025-08-06 13:16:34","36c45c0696341be0efffe67d72a12abb","102.221.201.129","Mozilla/5.0 (Windows NT 10.0; Win64; x64) AppleWebKit/537.36 (KHTML, like Gecko) Chrome/138.0.0.0 Safari/537.36 Edg/138.0.0.0","WebKit","Edge","138.0.0.0","Windows","10.0","https://app.prolific.com/","en-GB,en;q=0.9,en-US;q=0.8","66cf43db332889da5054c9e8","687a1a965b9f5b85a264363e","6893533145008204cb21f239","1","66cf43db332889da5054c9e8","1","2025-08-06T13:28:35.576Z","","","","AttribQ","","","","","","","","","","","50","","","","","","","","","","","","","","","","","","","","","","","","","","",""
"4620","","<div style=""width:500px;"">
  <p>How much control did you have over the ball?</p>
  </div>","94","html-slider-response","15","723688","0.0-7.0-2.0","200","1","2025-08-06 13:16:34","36c45c0696341be0efffe67d72a12abb","102.221.201.129","Mozilla/5.0 (Windows NT 10.0; Win64; x64) AppleWebKit/537.36 (KHTML, like Gecko) Chrome/138.0.0.0 Safari/537.36 Edg/138.0.0.0","WebKit","Edge","138.0.0.0","Windows","10.0","https://app.prolific.com/","en-GB,en;q=0.9,en-US;q=0.8","66cf43db332889da5054c9e8","687a1a965b9f5b85a264363e","6893533145008204cb21f239","1","66cf43db332889da5054c9e8","1","2025-08-06T13:28:40.198Z","","","","ControlQ","","","","","","","","","","","50","","","","","","","","","","","","","","","","","","","","","","","","","","",""
"6827","","<div style=""width:500px;"">
  <p>How would you describe your current emotional state?</p>
  </div>","0","html-slider-response","16","730516","0.0-7.0-3.0","200","1","2025-08-06 13:16:34","36c45c0696341be0efffe67d72a12abb","102.221.201.129","Mozilla/5.0 (Windows NT 10.0; Win64; x64) AppleWebKit/537.36 (KHTML, like Gecko) Chrome/138.0.0.0 Safari/537.36 Edg/138.0.0.0","WebKit","Edge","138.0.0.0","Windows","10.0","https://app.prolific.com/","en-GB,en;q=0.9,en-US;q=0.8","66cf43db332889da5054c9e8","687a1a965b9f5b85a264363e","6893533145008204cb21f239","1","66cf43db332889da5054c9e8","1","2025-08-06T13:28:47.027Z","","","","StressQ","","","","","","","","","","","50","","","","","","","","","","","","","","","","","","","","","","","","","","",""
"7809","","<div style=""width:500px;"">
  <p>What best describes how you currently feel?</p>
  </div>","100","html-slider-response","17","738327","0.0-7.0-4.0","200","1","2025-08-06 13:16:34","36c45c0696341be0efffe67d72a12abb","102.221.201.129","Mozilla/5.0 (Windows NT 10.0; Win64; x64) AppleWebKit/537.36 (KHTML, like Gecko) Chrome/138.0.0.0 Safari/537.36 Edg/138.0.0.0","WebKit","Edge","138.0.0.0","Windows","10.0","https://app.prolific.com/","en-GB,en;q=0.9,en-US;q=0.8","66cf43db332889da5054c9e8","687a1a965b9f5b85a264363e","6893533145008204cb21f239","1","66cf43db332889da5054c9e8","1","2025-08-06T13:28:54.838Z","","","","MotivationQ","","","","","","","","","","","50","","","","","","","","","","","","","","","","","","","","","","","","","","",""
"","","","","ctl-task-cpt","18","776782","0.0-7.0-0.1","200","1","2025-08-06 13:16:34","36c45c0696341be0efffe67d72a12abb","102.221.201.129","Mozilla/5.0 (Windows NT 10.0; Win64; x64) AppleWebKit/537.36 (KHTML, like Gecko) Chrome/138.0.0.0 Safari/537.36 Edg/138.0.0.0","WebKit","Edge","138.0.0.0","Windows","10.0","https://app.prolific.com/","en-GB,en;q=0.9,en-US;q=0.8","66cf43db332889da5054c9e8","687a1a965b9f5b85a264363e","6893533145008204cb21f239","1","66cf43db332889da5054c9e8","1","2025-08-06T13:29:33.292Z","","","","","","","","","","","","","","","","win-only","3","g1:SW,g2:NE","0.9","2","0","740826.7","3699.8","8701.8","35445.9","1","4","4","6","1","-1","-3","0","0","0","5002","3000","-2335","[""down"",""left""]","{""num_key_presses"":7,""num_perfect"":5,""num_errors"":2,""num_randdir"":0,""num_randdir_good_moves"":0,""num_whilered"":0,""num_whileblue"":2,""num_blue"":3,""num_good_moves"":5}","[407.57142857142856,407.1808016640799,0.6,407.57142857142856,407.1808016640799,101,407.57142857142856,407.1808016640799,206.5,407.57142857142856,407.1808016640799,314.4,407.57142857142856,407.1808016640799,415.7,407.57142857142856,407.1808016640799,520.1,407.57142857142856,407.1808016640799,624,407.57142857142856,407.1808016640799,724.1,407.57142857142856,407.1808016640799,825,407.57142857142856,407.1808016640799,925.8,407.57142857142856,407.1808016640799,1026,407.57142857142856,407.1808016640799,1126.8,407.57142857142856,407.1808016640799,1235.9,407.57142857142856,407.1808016640799,1341.4,407.57142857142856,407.1808016640799,1448.7,407.57142857142856,407.1808016640799,1550.1,407.57142857142856,407.1808016640799,1651.1,407.57142857142856,407.1808016640799,1751.2,407.57142857142856,407.1808016640799,1852.9,407.57142857142856,407.1808016640799,1964,407.57142857142856,407.1808016640799,2065.1,407.57142857142856,407.1808016640799,2166.7,407.57142857142856,407.1808016640799,2267,407.57142857142856,407.1808016640799,2368.7,407.57142857142856,407.1808016640799,2477.2,407.57142857142856,407.1808016640799,2584.7,407.57142857142856,407.1808016640799,2685.3,407.57142857142856,407.1808016640799,2792.1,407.57142857142856,407.1808016640799,2900.3,407.57142857142856,407.1808016640799,3001,407.57142857142856,407.1808016640799,3107,407.57142857142856,407.1808016640799,3208.5,407.57142857142856,407.1808016640799,3308.5,407.57142857142856,407.1808016640799,3416.8,407.57142857142856,407.1808016640799,3517.8,407.57142857142856,407.1808016640799,3623,407.57142857142856,407.1808016640799,3725,407.57142857142856,407.1808016640799,3825.6,407.57142857142856,407.1808016640799,3930.9,407.57142857142856,407.1808016640799,4031.4,407.57142857142856,407.1808016640799,4131.4,407.57142857142856,407.1808016640799,4233.2,407.57142857142856,407.1808016640799,4335.5,407.57142857142856,407.1808016640799,4442.6,407.57142857142856,407.1808016640799,4543.8,407.57142857142856,407.1808016640799,4647.1,407.57142857142856,407.1808016640799,4750.2,407.57142857142856,407.1808016640799,4850.9,340.07142857142856,359.1808016640799,4951.3]","[2545.9,2545.9,1000,0,1545.9,""smooth"",""up"",""up"",""bad_move"",5029.8,2483.4,1607.6,2546.4,875.8,""smooth"",""down"",""down"",""good_move"",8509.6,3479.3,3084.6,5030.3,394.7,""while_blue"",""down"",""right"",""bad_move"",15324,6813.9,2974,11936.3,413.8,""smooth"",""down"",""down"",""good_move"",18237.2,2912.7,2481.1,15324.5,431.6,""smooth"",""down"",""down"",""good_move"",21926.4,3688.6,3349.5,18237.9,339.1,""while_blue"",""left"",""left"",""good_move"",24644.3,2717.3,2264,21927,453.3,""smooth"",""left"",""left"",""good_move""]"
"3051","","<div style=""width:500px;"">
  <p>What determined the result of this run?</p>
  </div>","42","html-slider-response","19","779835","0.0-7.0-1.1","200","1","2025-08-06 13:16:34","36c45c0696341be0efffe67d72a12abb","102.221.201.129","Mozilla/5.0 (Windows NT 10.0; Win64; x64) AppleWebKit/537.36 (KHTML, like Gecko) Chrome/138.0.0.0 Safari/537.36 Edg/138.0.0.0","WebKit","Edge","138.0.0.0","Windows","10.0","https://app.prolific.com/","en-GB,en;q=0.9,en-US;q=0.8","66cf43db332889da5054c9e8","687a1a965b9f5b85a264363e","6893533145008204cb21f239","1","66cf43db332889da5054c9e8","1","2025-08-06T13:29:36.345Z","","","","AttribQ","","","","","","","","","","","50","","","","","","","","","","","","","","","","","","","","","","","","","","",""
"3053","","<div style=""width:500px;"">
  <p>How much control did you have over the ball?</p>
  </div>","82","html-slider-response","20","782890","0.0-7.0-2.1","200","1","2025-08-06 13:16:34","36c45c0696341be0efffe67d72a12abb","102.221.201.129","Mozilla/5.0 (Windows NT 10.0; Win64; x64) AppleWebKit/537.36 (KHTML, like Gecko) Chrome/138.0.0.0 Safari/537.36 Edg/138.0.0.0","WebKit","Edge","138.0.0.0","Windows","10.0","https://app.prolific.com/","en-GB,en;q=0.9,en-US;q=0.8","66cf43db332889da5054c9e8","687a1a965b9f5b85a264363e","6893533145008204cb21f239","1","66cf43db332889da5054c9e8","1","2025-08-06T13:29:39.400Z","","","","ControlQ","","","","","","","","","","","50","","","","","","","","","","","","","","","","","","","","","","","","","","",""
"4177","","<div style=""width:500px;"">
  <p>How would you describe your current emotional state?</p>
  </div>","15","html-slider-response","21","787069","0.0-7.0-3.1","200","1","2025-08-06 13:16:34","36c45c0696341be0efffe67d72a12abb","102.221.201.129","Mozilla/5.0 (Windows NT 10.0; Win64; x64) AppleWebKit/537.36 (KHTML, like Gecko) Chrome/138.0.0.0 Safari/537.36 Edg/138.0.0.0","WebKit","Edge","138.0.0.0","Windows","10.0","https://app.prolific.com/","en-GB,en;q=0.9,en-US;q=0.8","66cf43db332889da5054c9e8","687a1a965b9f5b85a264363e","6893533145008204cb21f239","1","66cf43db332889da5054c9e8","1","2025-08-06T13:29:43.579Z","","","","StressQ","","","","","","","","","","","50","","","","","","","","","","","","","","","","","","","","","","","","","","",""
"3631","","<div style=""width:500px;"">
  <p>What best describes how you currently feel?</p>
  </div>","81","html-slider-response","22","790701","0.0-7.0-4.1","200","1","2025-08-06 13:16:34","36c45c0696341be0efffe67d72a12abb","102.221.201.129","Mozilla/5.0 (Windows NT 10.0; Win64; x64) AppleWebKit/537.36 (KHTML, like Gecko) Chrome/138.0.0.0 Safari/537.36 Edg/138.0.0.0","WebKit","Edge","138.0.0.0","Windows","10.0","https://app.prolific.com/","en-GB,en;q=0.9,en-US;q=0.8","66cf43db332889da5054c9e8","687a1a965b9f5b85a264363e","6893533145008204cb21f239","1","66cf43db332889da5054c9e8","1","2025-08-06T13:29:47.211Z","","","","MotivationQ","","","","","","","","","","","50","","","","","","","","","","","","","","","","","","","","","","","","","","",""
"","","","","ctl-task-cpt","23","826052","0.0-7.0-0.2","200","1","2025-08-06 13:16:34","36c45c0696341be0efffe67d72a12abb","102.221.201.129","Mozilla/5.0 (Windows NT 10.0; Win64; x64) AppleWebKit/537.36 (KHTML, like Gecko) Chrome/138.0.0.0 Safari/537.36 Edg/138.0.0.0","WebKit","Edge","138.0.0.0","Windows","10.0","https://app.prolific.com/","en-GB,en;q=0.9,en-US;q=0.8","66cf43db332889da5054c9e8","687a1a965b9f5b85a264363e","6893533145008204cb21f239","1","66cf43db332889da5054c9e8","1","2025-08-06T13:30:22.563Z","","","","","","","","","","","","","","","","win-only","0","g1:NW,g2:SE","0.8","3","0","793203.2","2988.9","7991","32339.7","1","4","4","6","2","4","4","4","0","0.030303030303030304","2323.9","3000","875","[""down"",""right""]","{""num_key_presses"":8,""num_perfect"":6,""num_errors"":0,""num_randdir"":2,""num_randdir_good_moves"":1,""num_whilered"":0,""num_whileblue"":0,""num_blue"":1,""num_good_moves"":7}","[421.07142857142856,413.1808016640799,0.5,421.07142857142856,413.1808016640799,108.8,421.07142857142856,413.1808016640799,209.2,421.07142857142856,413.1808016640799,315.5,421.07142857142856,413.1808016640799,426.9,421.07142857142856,414.6808016640799,527.6,449.57142857142856,482.1808016640799,628.5,479.57142857142856,512.1808016640799,735.3,500.57142857142856,533.1808016640799,842.5,529.0714285714286,611.1808016640799,944.1,560.5714285714286,693.6808016640799,1051.4,572.5714285714286,723.6808016640799,1153.5,578.5714285714286,734.1808016640799,1259.2,587.5714285714286,743.1808016640799,1360.8,599.5714285714286,752.1808016640799,1461.8,611.5714285714286,758.1808016640799,1567,622.0714285714286,758.1808016640799,1668,644.5714285714286,758.1808016640799,1775.1,659.5714285714286,752.1808016640799,1878.4,665.5714285714286,752.1808016640799,1981.1,686.5714285714286,752.1808016640799,2083.8,713.5714285714286,753.6808016640799,2186.8,721.0714285714286,755.1808016640799,2292.9,724.0714285714286,755.1808016640799,2397.5,725.5714285714286,755.1808016640799,2498.7,725.5714285714286,755.1808016640799,2599.4,719.5714285714286,752.1808016640799,2700.8,667.0714285714286,755.1808016640799,2802.6,556.0714285714286,818.1808016640799,2913.6,467.57142857142856,830.1808016640799,3018.4,362.57142857142856,797.1808016640799,3129.1,358.07142857142856,774.6808016640799,3242.2,358.07142857142856,774.6808016640799,3344.3,358.07142857142856,774.6808016640799,3445.8,358.07142857142856,774.6808016640799,3547.3,358.07142857142856,774.6808016640799,3651.1,358.07142857142856,774.6808016640799,3760.4,358.07142857142856,774.6808016640799,3865.1,358.07142857142856,774.6808016640799,3975.8,358.07142857142856,774.6808016640799,4082,358.07142857142856,774.6808016640799,4184.6,358.07142857142856,774.6808016640799,4293.4,358.07142857142856,774.6808016640799,4400,358.07142857142856,774.6808016640799,4508.5,358.07142857142856,774.6808016640799,4612.9,358.07142857142856,774.6808016640799,4714.8,358.07142857142856,774.6808016640799,4817.8,358.07142857142856,774.6808016640799,4926.1]","[1408.3,1408.3,1000,0,408.3,""oops"",""down"",""up"",""bad_move"",3770.5,2361.4,1991.5,1409.1,369.9,""smooth"",""down"",""down"",""good_move"",6287.3,2515.8,2205.7,3771.5,310.2,""smooth"",""down"",""down"",""good_move"",13159.7,6871.9,2196,10562.7,401,""smooth"",""down"",""down"",""good_move"",16238.4,3078.3,2719.2,13160.1,359.1,""smooth"",""down"",""down"",""good_move"",19309.1,3070.2,2745.2,16238.9,325,""oops"",""right"",""right"",""good_move"",21940.2,2630.4,2211.6,19309.8,418.8,""smooth"",""right"",""right"",""good_move"",24236.7,2296.1,1945.4,21940.6,350.7,""smooth"",""right"",""right"",""good_move""]"
"4257","","<div style=""width:500px;"">
  <p>What determined the result of this run?</p>
  </div>","82","html-slider-response","24","830311","0.0-7.0-1.2","200","1","2025-08-06 13:16:34","36c45c0696341be0efffe67d72a12abb","102.221.201.129","Mozilla/5.0 (Windows NT 10.0; Win64; x64) AppleWebKit/537.36 (KHTML, like Gecko) Chrome/138.0.0.0 Safari/537.36 Edg/138.0.0.0","WebKit","Edge","138.0.0.0","Windows","10.0","https://app.prolific.com/","en-GB,en;q=0.9,en-US;q=0.8","66cf43db332889da5054c9e8","687a1a965b9f5b85a264363e","6893533145008204cb21f239","1","66cf43db332889da5054c9e8","1","2025-08-06T13:30:26.821Z","","","","AttribQ","","","","","","","","","","","50","","","","","","","","","","","","","","","","","","","","","","","","","","",""
"6399","","<div style=""width:500px;"">
  <p>How much control did you have over the ball?</p>
  </div>","94","html-slider-response","25","836713","0.0-7.0-2.2","200","1","2025-08-06 13:16:34","36c45c0696341be0efffe67d72a12abb","102.221.201.129","Mozilla/5.0 (Windows NT 10.0; Win64; x64) AppleWebKit/537.36 (KHTML, like Gecko) Chrome/138.0.0.0 Safari/537.36 Edg/138.0.0.0","WebKit","Edge","138.0.0.0","Windows","10.0","https://app.prolific.com/","en-GB,en;q=0.9,en-US;q=0.8","66cf43db332889da5054c9e8","687a1a965b9f5b85a264363e","6893533145008204cb21f239","1","66cf43db332889da5054c9e8","1","2025-08-06T13:30:33.223Z","","","","ControlQ","","","","","","","","","","","50","","","","","","","","","","","","","","","","","","","","","","","","","","",""
"5231","","<div style=""width:500px;"">
  <p>How would you describe your current emotional state?</p>
  </div>","16","html-slider-response","26","841945","0.0-7.0-3.2","200","1","2025-08-06 13:16:34","36c45c0696341be0efffe67d72a12abb","102.221.201.129","Mozilla/5.0 (Windows NT 10.0; Win64; x64) AppleWebKit/537.36 (KHTML, like Gecko) Chrome/138.0.0.0 Safari/537.36 Edg/138.0.0.0","WebKit","Edge","138.0.0.0","Windows","10.0","https://app.prolific.com/","en-GB,en;q=0.9,en-US;q=0.8","66cf43db332889da5054c9e8","687a1a965b9f5b85a264363e","6893533145008204cb21f239","1","66cf43db332889da5054c9e8","1","2025-08-06T13:30:38.455Z","","","","StressQ","","","","","","","","","","","50","","","","","","","","","","","","","","","","","","","","","","","","","","",""
"3356","","<div style=""width:500px;"">
  <p>What best describes how you currently feel?</p>
  </div>","88","html-slider-response","27","845303","0.0-7.0-4.2","200","1","2025-08-06 13:16:34","36c45c0696341be0efffe67d72a12abb","102.221.201.129","Mozilla/5.0 (Windows NT 10.0; Win64; x64) AppleWebKit/537.36 (KHTML, like Gecko) Chrome/138.0.0.0 Safari/537.36 Edg/138.0.0.0","WebKit","Edge","138.0.0.0","Windows","10.0","https://app.prolific.com/","en-GB,en;q=0.9,en-US;q=0.8","66cf43db332889da5054c9e8","687a1a965b9f5b85a264363e","6893533145008204cb21f239","1","66cf43db332889da5054c9e8","1","2025-08-06T13:30:41.814Z","","","","MotivationQ","","","","","","","","","","","50","","","","","","","","","","","","","","","","","","","","","","","","","","",""
"","","","","ctl-task-cpt","28","893656","0.0-7.0-0.3","200","1","2025-08-06 13:16:34","36c45c0696341be0efffe67d72a12abb","102.221.201.129","Mozilla/5.0 (Windows NT 10.0; Win64; x64) AppleWebKit/537.36 (KHTML, like Gecko) Chrome/138.0.0.0 Safari/537.36 Edg/138.0.0.0","WebKit","Edge","138.0.0.0","Windows","10.0","https://app.prolific.com/","en-GB,en;q=0.9,en-US;q=0.8","66cf43db332889da5054c9e8","687a1a965b9f5b85a264363e","6893533145008204cb21f239","1","66cf43db332889da5054c9e8","1","2025-08-06T13:31:30.166Z","","","","","","","","","","","","","","","","win-only","0","g1:NW,g2:SE","0.7","4","0","847804.9","1045.6","6046.7","45337.9","1","4","8","6","2","-8","-9","0","4","0","1499.8","3000","-2130","[""down"",""right""]","{""num_key_presses"":11,""num_perfect"":7,""num_errors"":1,""num_randdir"":3,""num_randdir_good_moves"":0,""num_whilered"":0,""num_whileblue"":1,""num_blue"":3,""num_good_moves"":7}","[413.57142857142856,419.1808016640799,0.4,413.57142857142856,419.1808016640799,108.7,413.57142857142856,419.1808016640799,211.2,413.57142857142856,419.1808016640799,313.3,425.57142857142856,468.6808016640799,418.3,485.57142857142856,588.6808016640799,518.3,535.0714285714286,671.1808016640799,624.8,593.5714285714286,735.6808016640799,736.7,614.5714285714286,750.6808016640799,841.4,653.5714285714286,744.6808016640799,945.8,703.0714285714286,731.1808016640799,1053.5,734.5714285714286,737.1808016640799,1155.8,761.5714285714286,746.1808016640799,1268.4,769.0714285714286,749.1808016640799,1368.4,769.0714285714286,749.1808016640799,1468.7,769.0714285714286,749.1808016640799,1573.9,769.0714285714286,747.6808016640799,1679.9,764.5714285714286,744.6808016640799,1788.3,742.0714285714286,743.1808016640799,1890.7,611.5714285714286,729.6808016640799,1992.8,418.07142857142856,744.6808016640799,2096.6,398.57142857142856,771.6808016640799,2204.4,401.57142857142856,773.1808016640799,2307.4,422.57142857142856,758.1808016640799,2408.5,422.57142857142856,746.1808016640799,2511.9,422.57142857142856,746.1808016640799,2618.3,422.57142857142856,746.1808016640799,2719.9,422.57142857142856,746.1808016640799,2825.6,422.57142857142856,746.1808016640799,2933.6,422.57142857142856,746.1808016640799,3036.6,422.57142857142856,746.1808016640799,3143.5,422.57142857142856,746.1808016640799,3252.8,422.57142857142856,746.1808016640799,3353.1,422.57142857142856,746.1808016640799,3458.7,422.57142857142856,746.1808016640799,3560.7,422.57142857142856,746.1808016640799,3661.1,422.57142857142856,746.1808016640799,3761.1,422.57142857142856,746.1808016640799,3862.2,422.57142857142856,746.1808016640799,3967,422.57142857142856,746.1808016640799,4067.1,422.57142857142856,746.1808016640799,4171.3,422.57142857142856,746.1808016640799,4271.3,422.57142857142856,746.1808016640799,4373.7,422.57142857142856,746.1808016640799,4475.5,422.57142857142856,746.1808016640799,4580.3,422.57142857142856,746.1808016640799,4692,422.57142857142856,746.1808016640799,4793.6,422.57142857142856,746.1808016640799,4895.2]","[1281.3,1281.3,1005.7,0,275.6,""while_blue"",""down"",""left"",""bad_move"",4516.2,3233.8,2821.4,1282.4,412.4,""smooth"",""down"",""down"",""good_move"",7575.9,3059.1,2663.3,4516.8,395.9,""smooth"",""down"",""down"",""good_move"",10072,2495.7,2100.8,7576.3,394.9,""smooth"",""right"",""right"",""good_move"",12471.7,2399.3,1735.5,10072.4,663.8,""oops"",""down"",""up"",""bad_move"",21881.5,9408.8,2573.5,18950.8,357.2,""oops"",""down"",""up"",""bad_move"",25637.2,3755.3,3344.8,21881.9,410.5,""smooth"",""down"",""down"",""good_move"",28922.3,3284.7,2940.6,25637.6,344.2,""smooth"",""down"",""down"",""good_move"",31185.9,2263.1,1880.9,28922.8,382.2,""smooth"",""right"",""right"",""good_move"",34212.6,3026.3,2656.4,31186.3,369.9,""smooth"",""right"",""right"",""good_move"",36579.1,2366,2006.3,34213.1,359.7,""oops"",""right"",""left"",""bad_move""]"
"6752","","<div style=""width:500px;"">
  <p>What determined the result of this run?</p>
  </div>","4","html-slider-response","29","900410","0.0-7.0-1.3","200","1","2025-08-06 13:16:34","36c45c0696341be0efffe67d72a12abb","102.221.201.129","Mozilla/5.0 (Windows NT 10.0; Win64; x64) AppleWebKit/537.36 (KHTML, like Gecko) Chrome/138.0.0.0 Safari/537.36 Edg/138.0.0.0","WebKit","Edge","138.0.0.0","Windows","10.0","https://app.prolific.com/","en-GB,en;q=0.9,en-US;q=0.8","66cf43db332889da5054c9e8","687a1a965b9f5b85a264363e","6893533145008204cb21f239","1","66cf43db332889da5054c9e8","1","2025-08-06T13:31:36.920Z","","","","AttribQ","","","","","","","","","","","50","","","","","","","","","","","","","","","","","","","","","","","","","","",""
"3189","","<div style=""width:500px;"">
  <p>How much control did you have over the ball?</p>
  </div>","0","html-slider-response","30","903601","0.0-7.0-2.3","200","1","2025-08-06 13:16:34","36c45c0696341be0efffe67d72a12abb","102.221.201.129","Mozilla/5.0 (Windows NT 10.0; Win64; x64) AppleWebKit/537.36 (KHTML, like Gecko) Chrome/138.0.0.0 Safari/537.36 Edg/138.0.0.0","WebKit","Edge","138.0.0.0","Windows","10.0","https://app.prolific.com/","en-GB,en;q=0.9,en-US;q=0.8","66cf43db332889da5054c9e8","687a1a965b9f5b85a264363e","6893533145008204cb21f239","1","66cf43db332889da5054c9e8","1","2025-08-06T13:31:40.111Z","","","","ControlQ","","","","","","","","","","","50","","","","","","","","","","","","","","","","","","","","","","","","","","",""
"3782","","<div style=""width:500px;"">
  <p>How would you describe your current emotional state?</p>
  </div>","25","html-slider-response","31","907385","0.0-7.0-3.3","200","1","2025-08-06 13:16:34","36c45c0696341be0efffe67d72a12abb","102.221.201.129","Mozilla/5.0 (Windows NT 10.0; Win64; x64) AppleWebKit/537.36 (KHTML, like Gecko) Chrome/138.0.0.0 Safari/537.36 Edg/138.0.0.0","WebKit","Edge","138.0.0.0","Windows","10.0","https://app.prolific.com/","en-GB,en;q=0.9,en-US;q=0.8","66cf43db332889da5054c9e8","687a1a965b9f5b85a264363e","6893533145008204cb21f239","1","66cf43db332889da5054c9e8","1","2025-08-06T13:31:43.895Z","","","","StressQ","","","","","","","","","","","50","","","","","","","","","","","","","","","","","","","","","","","","","","",""
"4173","","<div style=""width:500px;"">
  <p>What best describes how you currently feel?</p>
  </div>","90","html-slider-response","32","911561","0.0-7.0-4.3","200","1","2025-08-06 13:16:34","36c45c0696341be0efffe67d72a12abb","102.221.201.129","Mozilla/5.0 (Windows NT 10.0; Win64; x64) AppleWebKit/537.36 (KHTML, like Gecko) Chrome/138.0.0.0 Safari/537.36 Edg/138.0.0.0","WebKit","Edge","138.0.0.0","Windows","10.0","https://app.prolific.com/","en-GB,en;q=0.9,en-US;q=0.8","66cf43db332889da5054c9e8","687a1a965b9f5b85a264363e","6893533145008204cb21f239","1","66cf43db332889da5054c9e8","1","2025-08-06T13:31:48.071Z","","","","MotivationQ","","","","","","","","","","","50","","","","","","","","","","","","","","","","","","","","","","","","","","",""
"","","","","ctl-task-cpt","33","959218","0.0-7.0-0.4","200","1","2025-08-06 13:16:34","36c45c0696341be0efffe67d72a12abb","102.221.201.129","Mozilla/5.0 (Windows NT 10.0; Win64; x64) AppleWebKit/537.36 (KHTML, like Gecko) Chrome/138.0.0.0 Safari/537.36 Edg/138.0.0.0","WebKit","Edge","138.0.0.0","Windows","10.0","https://app.prolific.com/","en-GB,en;q=0.9,en-US;q=0.8","66cf43db332889da5054c9e8","687a1a965b9f5b85a264363e","6893533145008204cb21f239","1","66cf43db332889da5054c9e8","1","2025-08-06T13:32:35.729Z","","","","","","","","","","","","","","","","win-only","1","g1:NE,g2:SW","0.6","5","0","914063","1841.4","6852.8","44632.7","1","4","8","6","2","8","8","8","0","0.06060606060606061","1209.8","3000","115","[""down"",""left""]","{""num_key_presses"":12,""num_perfect"":8,""num_errors"":0,""num_randdir"":4,""num_randdir_good_moves"":1,""num_whilered"":0,""num_whileblue"":0,""num_blue"":1,""num_good_moves"":9}","[407.57142857142856,413.1808016640799,0.3,407.57142857142856,413.1808016640799,104.2,407.57142857142856,413.1808016640799,215.1,410.57142857142856,417.6808016640799,316.7,428.57142857142856,444.6808016640799,429.2,434.57142857142856,491.1808016640799,529.8,388.07142857142856,579.6808016640799,636.6,235.07142857142856,698.1808016640799,747.1,140.57142857142856,765.6808016640799,852.4,89.57142857142857,786.6808016640799,952.7,77.57142857142857,789.6808016640799,1052.9,76.07142857142857,786.6808016640799,1153.2,76.07142857142857,786.6808016640799,1257.8,76.07142857142857,786.6808016640799,1359.8,83.57142857142857,777.6808016640799,1469,182.57142857142856,764.1808016640799,1580.7,308.57142857142856,848.1808016640799,1684.7,398.57142857142856,960.6808016640799,1785.5,365.57142857142856,960.6808016640799,1896.9,365.57142857142856,960.6808016640799,1999.6,365.57142857142856,960.6808016640799,2102.8,365.57142857142856,960.6808016640799,2216.6,365.57142857142856,960.6808016640799,2317.6,365.57142857142856,960.6808016640799,2431.9,365.57142857142856,960.6808016640799,2535.3,365.57142857142856,960.6808016640799,2637,365.57142857142856,960.6808016640799,2742,365.57142857142856,960.6808016640799,2851,365.57142857142856,960.6808016640799,2952.3,365.57142857142856,960.6808016640799,3061.3,365.57142857142856,960.6808016640799,3166.1,365.57142857142856,960.6808016640799,3270.3,365.57142857142856,960.6808016640799,3370.3,365.57142857142856,960.6808016640799,3475.7,365.57142857142856,960.6808016640799,3580.4,365.57142857142856,960.6808016640799,3691.2,365.57142857142856,960.6808016640799,3796,365.57142857142856,960.6808016640799,3899,365.57142857142856,960.6808016640799,3999.1,365.57142857142856,960.6808016640799,4103.1,365.57142857142856,960.6808016640799,4205.8,365.57142857142856,960.6808016640799,4306,365.57142857142856,960.6808016640799,4409.5,365.57142857142856,960.6808016640799,4510.8,365.57142857142856,960.6808016640799,4615.1,365.57142857142856,960.6808016640799,4717.1,365.57142857142856,960.6808016640799,4818.4,365.57142857142856,960.6808016640799,4931.8]","[1372.1,1372.1,1000,0,372.1,""smooth"",""down"",""down"",""good_move"",7381.3,6008.6,2169.2,4826,386.1,""smooth"",""down"",""down"",""good_move"",10364.7,2983.2,2563.3,7381.5,419.9,""oops"",""down"",""up"",""bad_move"",12703.9,2338.4,1951.2,10365.5,387.2,""oops"",""down"",""right"",""bad_move"",15915.3,3210.7,2855.6,12704.6,355.1,""smooth"",""down"",""down"",""good_move"",19190.4,3274.7,2942,15915.7,332.7,""oops"",""down"",""left"",""good_move"",22475.3,3283.8,2988.4,19191.6,295.4,""smooth"",""down"",""down"",""good_move"",25465,2989.1,2629.2,22475.9,359.9,""smooth"",""left"",""left"",""good_move"",28347.9,2882.3,2600.7,25465.6,281.6,""smooth"",""left"",""left"",""good_move"",31467.2,3118.8,2819.1,28348.5,299.6,""oops"",""left"",""right"",""bad_move"",34181.6,2713.7,2387.4,31467.9,326.3,""smooth"",""left"",""left"",""good_move"",37641.8,3459.9,3133.7,34181.9,326.2,""smooth"",""left"",""left"",""good_move""]"
"4210","","<div style=""width:500px;"">
  <p>What determined the result of this run?</p>
  </div>","18","html-slider-response","34","963432","0.0-7.0-1.4","200","1","2025-08-06 13:16:34","36c45c0696341be0efffe67d72a12abb","102.221.201.129","Mozilla/5.0 (Windows NT 10.0; Win64; x64) AppleWebKit/537.36 (KHTML, like Gecko) Chrome/138.0.0.0 Safari/537.36 Edg/138.0.0.0","WebKit","Edge","138.0.0.0","Windows","10.0","https://app.prolific.com/","en-GB,en;q=0.9,en-US;q=0.8","66cf43db332889da5054c9e8","687a1a965b9f5b85a264363e","6893533145008204cb21f239","1","66cf43db332889da5054c9e8","1","2025-08-06T13:32:39.942Z","","","","AttribQ","","","","","","","","","","","50","","","","","","","","","","","","","","","","","","","","","","","","","","",""
"7570","","<div style=""width:500px;"">
  <p>How much control did you have over the ball?</p>
  </div>","5","html-slider-response","35","971005","0.0-7.0-2.4","200","1","2025-08-06 13:16:34","36c45c0696341be0efffe67d72a12abb","102.221.201.129","Mozilla/5.0 (Windows NT 10.0; Win64; x64) AppleWebKit/537.36 (KHTML, like Gecko) Chrome/138.0.0.0 Safari/537.36 Edg/138.0.0.0","WebKit","Edge","138.0.0.0","Windows","10.0","https://app.prolific.com/","en-GB,en;q=0.9,en-US;q=0.8","66cf43db332889da5054c9e8","687a1a965b9f5b85a264363e","6893533145008204cb21f239","1","66cf43db332889da5054c9e8","1","2025-08-06T13:32:47.516Z","","","","ControlQ","","","","","","","","","","","50","","","","","","","","","","","","","","","","","","","","","","","","","","",""
"4174","","<div style=""width:500px;"">
  <p>How would you describe your current emotional state?</p>
  </div>","12","html-slider-response","36","975184","0.0-7.0-3.4","200","1","2025-08-06 13:16:34","36c45c0696341be0efffe67d72a12abb","102.221.201.129","Mozilla/5.0 (Windows NT 10.0; Win64; x64) AppleWebKit/537.36 (KHTML, like Gecko) Chrome/138.0.0.0 Safari/537.36 Edg/138.0.0.0","WebKit","Edge","138.0.0.0","Windows","10.0","https://app.prolific.com/","en-GB,en;q=0.9,en-US;q=0.8","66cf43db332889da5054c9e8","687a1a965b9f5b85a264363e","6893533145008204cb21f239","1","66cf43db332889da5054c9e8","1","2025-08-06T13:32:51.694Z","","","","StressQ","","","","","","","","","","","50","","","","","","","","","","","","","","","","","","","","","","","","","","",""
"4821","","<div style=""width:500px;"">
  <p>What best describes how you currently feel?</p>
  </div>","91","html-slider-response","37","980009","0.0-7.0-4.4","200","1","2025-08-06 13:16:34","36c45c0696341be0efffe67d72a12abb","102.221.201.129","Mozilla/5.0 (Windows NT 10.0; Win64; x64) AppleWebKit/537.36 (KHTML, like Gecko) Chrome/138.0.0.0 Safari/537.36 Edg/138.0.0.0","WebKit","Edge","138.0.0.0","Windows","10.0","https://app.prolific.com/","en-GB,en;q=0.9,en-US;q=0.8","66cf43db332889da5054c9e8","687a1a965b9f5b85a264363e","6893533145008204cb21f239","1","66cf43db332889da5054c9e8","1","2025-08-06T13:32:56.519Z","","","","MotivationQ","","","","","","","","","","","50","","","","","","","","","","","","","","","","","","","","","","","","","","",""
"","","","","ctl-task-cpt","38","1034608","0.0-7.0-0.5","200","1","2025-08-06 13:16:34","36c45c0696341be0efffe67d72a12abb","102.221.201.129","Mozilla/5.0 (Windows NT 10.0; Win64; x64) AppleWebKit/537.36 (KHTML, like Gecko) Chrome/138.0.0.0 Safari/537.36 Edg/138.0.0.0","WebKit","Edge","138.0.0.0","Windows","10.0","https://app.prolific.com/","en-GB,en;q=0.9,en-US;q=0.8","66cf43db332889da5054c9e8","687a1a965b9f5b85a264363e","6893533145008204cb21f239","1","66cf43db332889da5054c9e8","1","2025-08-06T13:33:51.118Z","","","","","","","","","","","","","","","","win-only","1","g1:NE,g2:SW","0.5","6","0","982509.4","1092.3","6109.4","51590.6","1","4","4","6","2","-4","-5","3","8","0.022727272727272728","1350.8","3000","-1990","[""down"",""left""]","{""num_key_presses"":12,""num_perfect"":5,""num_errors"":1,""num_randdir"":6,""num_randdir_good_moves"":2,""num_whilered"":0,""num_whileblue"":1,""num_blue"":3,""num_good_moves"":7}","[413.57142857142856,407.1808016640799,0.3,413.57142857142856,405.6808016640799,101.7,413.57142857142856,405.6808016640799,205.1,413.57142857142856,410.1808016640799,315.9,410.57142857142856,471.6808016640799,431.1,407.57142857142856,509.1808016640799,531.3,371.57142857142856,558.6808016640799,638.4,307.07142857142856,620.1808016640799,748.4,248.57142857142856,666.6808016640799,850.9,157.07142857142856,708.6808016640799,955,137.57142857142856,731.1808016640799,1061.9,125.57142857142857,746.1808016640799,1164.3,71.57142857142857,767.1808016640799,1265.9,65.57142857142857,767.1808016640799,1371.4,65.57142857142857,767.1808016640799,1482.1,65.57142857142857,767.1808016640799,1586.5,89.57142857142857,764.1808016640799,1691.8,167.57142857142856,791.1808016640799,1796.5,197.57142857142856,831.6808016640799,1897.5,197.57142857142856,846.6808016640799,2001.2,197.57142857142856,846.6808016640799,2105.5,197.57142857142856,846.6808016640799,2215.3,197.57142857142856,846.6808016640799,2318.4,197.57142857142856,846.6808016640799,2421.9,197.57142857142856,846.6808016640799,2524.4,197.57142857142856,846.6808016640799,2625.8,197.57142857142856,846.6808016640799,2726,197.57142857142856,846.6808016640799,2829.1,197.57142857142856,846.6808016640799,2935,197.57142857142856,846.6808016640799,3035.3,197.57142857142856,846.6808016640799,3143.1,197.57142857142856,846.6808016640799,3244.9,197.57142857142856,846.6808016640799,3346.2,197.57142857142856,846.6808016640799,3447.9,197.57142857142856,846.6808016640799,3549.8,197.57142857142856,846.6808016640799,3661.3,197.57142857142856,846.6808016640799,3763.3,197.57142857142856,846.6808016640799,3866.4,197.57142857142856,846.6808016640799,3969.9,197.57142857142856,846.6808016640799,4080,197.57142857142856,846.6808016640799,4185.3,197.57142857142856,846.6808016640799,4289,197.57142857142856,846.6808016640799,4389.6,197.57142857142856,846.6808016640799,4490.2,197.57142857142856,846.6808016640799,4602,197.57142857142856,846.6808016640799,4706.2,197.57142857142856,846.6808016640799,4808.2,197.57142857142856,846.6808016640799,4910.6]","[1394.9,1394.9,1000,0,394.9,""smooth"",""down"",""down"",""good_move"",4197.1,2801.4,2450.3,1395.7,351.1,""smooth"",""down"",""down"",""good_move"",7479.2,3281.5,2925.6,4197.8,355.8,""oops"",""down"",""up"",""bad_move"",10423.1,2943,2614.4,7480.1,328.6,""oops"",""down"",""down"",""good_move"",13438,3014.5,2729.5,10423.5,285,""while_blue"",""down"",""right"",""bad_move"",19592.8,6154.4,2291.8,16888.8,412.2,""oops"",""down"",""down"",""good_move"",23314.3,3721.3,3378.9,19593,342.4,""smooth"",""left"",""left"",""good_move"",25937.4,2622.4,2198.1,23315,424.3,""smooth"",""left"",""left"",""good_move"",28896.7,2958.8,2615.6,25937.9,343.2,""smooth"",""left"",""left"",""good_move"",36519.9,7622.6,2749.2,33312,458.7,""oops"",""left"",""up"",""bad_move"",39581.4,3060.9,2601.5,36520.5,459.4,""oops"",""left"",""right"",""bad_move"",42347.5,2765.9,2402.5,39581.7,363.4,""oops"",""left"",""up"",""bad_move""]"
"5632","","<div style=""width:500px;"">
  <p>What determined the result of this run?</p>
  </div>","7","html-slider-response","39","1040242","0.0-7.0-1.5","200","1","2025-08-06 13:16:34","36c45c0696341be0efffe67d72a12abb","102.221.201.129","Mozilla/5.0 (Windows NT 10.0; Win64; x64) AppleWebKit/537.36 (KHTML, like Gecko) Chrome/138.0.0.0 Safari/537.36 Edg/138.0.0.0","WebKit","Edge","138.0.0.0","Windows","10.0","https://app.prolific.com/","en-GB,en;q=0.9,en-US;q=0.8","66cf43db332889da5054c9e8","687a1a965b9f5b85a264363e","6893533145008204cb21f239","1","66cf43db332889da5054c9e8","1","2025-08-06T13:33:56.752Z","","","","AttribQ","","","","","","","","","","","50","","","","","","","","","","","","","","","","","","","","","","","","","","",""
"4944","","<div style=""width:500px;"">
  <p>How much control did you have over the ball?</p>
  </div>","0","html-slider-response","40","1045187","0.0-7.0-2.5","200","1","2025-08-06 13:16:34","36c45c0696341be0efffe67d72a12abb","102.221.201.129","Mozilla/5.0 (Windows NT 10.0; Win64; x64) AppleWebKit/537.36 (KHTML, like Gecko) Chrome/138.0.0.0 Safari/537.36 Edg/138.0.0.0","WebKit","Edge","138.0.0.0","Windows","10.0","https://app.prolific.com/","en-GB,en;q=0.9,en-US;q=0.8","66cf43db332889da5054c9e8","687a1a965b9f5b85a264363e","6893533145008204cb21f239","1","66cf43db332889da5054c9e8","1","2025-08-06T13:34:01.697Z","","","","ControlQ","","","","","","","","","","","50","","","","","","","","","","","","","","","","","","","","","","","","","","",""
"5110","","<div style=""width:500px;"">
  <p>How would you describe your current emotional state?</p>
  </div>","36","html-slider-response","41","1050299","0.0-7.0-3.5","200","1","2025-08-06 13:16:34","36c45c0696341be0efffe67d72a12abb","102.221.201.129","Mozilla/5.0 (Windows NT 10.0; Win64; x64) AppleWebKit/537.36 (KHTML, like Gecko) Chrome/138.0.0.0 Safari/537.36 Edg/138.0.0.0","WebKit","Edge","138.0.0.0","Windows","10.0","https://app.prolific.com/","en-GB,en;q=0.9,en-US;q=0.8","66cf43db332889da5054c9e8","687a1a965b9f5b85a264363e","6893533145008204cb21f239","1","66cf43db332889da5054c9e8","1","2025-08-06T13:34:06.809Z","","","","StressQ","","","","","","","","","","","50","","","","","","","","","","","","","","","","","","","","","","","","","","",""
"4840","","<div style=""width:500px;"">
  <p>What best describes how you currently feel?</p>
  </div>","79","html-slider-response","42","1055141","0.0-7.0-4.5","200","1","2025-08-06 13:16:34","36c45c0696341be0efffe67d72a12abb","102.221.201.129","Mozilla/5.0 (Windows NT 10.0; Win64; x64) AppleWebKit/537.36 (KHTML, like Gecko) Chrome/138.0.0.0 Safari/537.36 Edg/138.0.0.0","WebKit","Edge","138.0.0.0","Windows","10.0","https://app.prolific.com/","en-GB,en;q=0.9,en-US;q=0.8","66cf43db332889da5054c9e8","687a1a965b9f5b85a264363e","6893533145008204cb21f239","1","66cf43db332889da5054c9e8","1","2025-08-06T13:34:11.652Z","","","","MotivationQ","","","","","","","","","","","50","","","","","","","","","","","","","","","","","","","","","","","","","","",""
"","","","","ctl-task-cpt","43","1092166","0.0-7.0-0.6","200","1","2025-08-06 13:16:34","36c45c0696341be0efffe67d72a12abb","102.221.201.129","Mozilla/5.0 (Windows NT 10.0; Win64; x64) AppleWebKit/537.36 (KHTML, like Gecko) Chrome/138.0.0.0 Safari/537.36 Edg/138.0.0.0","WebKit","Edge","138.0.0.0","Windows","10.0","https://app.prolific.com/","en-GB,en;q=0.9,en-US;q=0.8","66cf43db332889da5054c9e8","687a1a965b9f5b85a264363e","6893533145008204cb21f239","1","66cf43db332889da5054c9e8","1","2025-08-06T13:34:48.677Z","","","","","","","","","","","","","","","","win-only","2","g1:SE,g2:NW","0.4","7","0","1057643.7","1020.5","6023.9","34003.8","1","4","4","6","2","-4","-6","0","3","0","2284.6","3000","-1940","[""left"",""up""]","{""num_key_presses"":8,""num_perfect"":2,""num_errors"":2,""num_randdir"":4,""num_randdir_good_moves"":3,""num_whilered"":0,""num_whileblue"":2,""num_blue"":2,""num_good_moves"":6}","[416.57142857142856,416.1808016640799,0.3,416.57142857142856,416.1808016640799,100.5,416.57142857142856,416.1808016640799,207,422.57142857142856,450.6808016640799,312.2,443.57142857142856,551.1808016640799,413.5,461.57142857142856,606.6808016640799,526.5,478.07142857142856,635.1808016640799,633,500.57142857142856,654.6808016640799,734,527.5714285714286,669.6808016640799,839.5,548.5714285714286,677.1808016640799,942,571.0714285714286,690.6808016640799,1054.8,575.5714285714286,695.1808016640799,1156.9,569.5714285714286,693.6808016640799,1262.2,569.5714285714286,693.6808016640799,1374.5,575.5714285714286,641.1808016640799,1476.9,500.57142857142856,494.1808016640799,1587.3,-73.92857142857143,104.18080166407994,1691.8,-90.42857142857143,65.18080166407994,1795.8,-87.42857142857143,59.18080166407994,1897.6,20.57142857142857,101.18080166407994,1999.6,59.57142857142857,108.68080166407994,2100.7,59.57142857142857,107.18080166407994,2201.2,61.07142857142857,104.18080166407994,2302.2,61.07142857142857,104.18080166407994,2404.3,61.07142857142857,104.18080166407994,2506.4,61.07142857142857,104.18080166407994,2616.2,61.07142857142857,104.18080166407994,2717.5,64.07142857142857,137.18080166407992,2823.1,74.57142857142857,201.68080166407992,2927,101.57142857142857,312.6808016640799,3037,154.07142857142856,473.1808016640799,3139.3,211.07142857142856,618.6808016640799,3242,239.57142857142856,641.1808016640799,3344.1,292.07142857142856,639.6808016640799,3454.4,386.57142857142856,638.1808016640799,3558.8,482.57142857142856,558.6808016640799,3665.5,506.57142857142856,530.1808016640799,3767.6,506.57142857142856,530.1808016640799,3869.3,503.57142857142856,527.1808016640799,3975.1,499.07142857142856,518.1808016640799,4088.4,494.57142857142856,506.1808016640799,4204.8,494.57142857142856,503.1808016640799,4305.4,493.07142857142856,503.1808016640799,4405.7,493.07142857142856,503.1808016640799,4516.5,491.57142857142856,503.1808016640799,4621,491.57142857142856,503.1808016640799,4723.4,431.57142857142856,579.6808016640799,4837.2,358.07142857142856,659.1808016640799,4940.6]","[1860,1860,1000,0,860,""oops"",""left"",""up"",""good_move"",5268.5,3407.5,2853.1,1861,554.4,""while_blue"",""left"",""left"",""good_move"",8452.2,3182.6,2803.4,5269.7,379.1,""oops"",""left"",""up"",""good_move"",12131.9,3679.1,2837.7,8452.8,841.4,""smooth"",""left"",""left"",""good_move"",15354.2,3222,2494.8,12132.2,727.2,""while_blue"",""left"",""down"",""bad_move"",18659.6,3304.5,2872.1,15355.1,432.4,""smooth"",""left"",""left"",""good_move"",21682.1,3022.3,2526,18659.8,496.3,""oops"",""up"",""down"",""bad_move"",25710.2,4027.8,2639.1,21682.4,1388.7,""oops"",""up"",""up"",""good_move""]"
"8974","","<div style=""width:500px;"">
  <p>What determined the result of this run?</p>
  </div>","21","html-slider-response","44","1101144","0.0-7.0-1.6","200","1","2025-08-06 13:16:34","36c45c0696341be0efffe67d72a12abb","102.221.201.129","Mozilla/5.0 (Windows NT 10.0; Win64; x64) AppleWebKit/537.36 (KHTML, like Gecko) Chrome/138.0.0.0 Safari/537.36 Edg/138.0.0.0","WebKit","Edge","138.0.0.0","Windows","10.0","https://app.prolific.com/","en-GB,en;q=0.9,en-US;q=0.8","66cf43db332889da5054c9e8","687a1a965b9f5b85a264363e","6893533145008204cb21f239","1","66cf43db332889da5054c9e8","1","2025-08-06T13:34:57.654Z","","","","AttribQ","","","","","","","","","","","50","","","","","","","","","","","","","","","","","","","","","","","","","","",""
"5137","","<div style=""width:500px;"">
  <p>How much control did you have over the ball?</p>
  </div>","0","html-slider-response","45","1106284","0.0-7.0-2.6","200","1","2025-08-06 13:16:34","36c45c0696341be0efffe67d72a12abb","102.221.201.129","Mozilla/5.0 (Windows NT 10.0; Win64; x64) AppleWebKit/537.36 (KHTML, like Gecko) Chrome/138.0.0.0 Safari/537.36 Edg/138.0.0.0","WebKit","Edge","138.0.0.0","Windows","10.0","https://app.prolific.com/","en-GB,en;q=0.9,en-US;q=0.8","66cf43db332889da5054c9e8","687a1a965b9f5b85a264363e","6893533145008204cb21f239","1","66cf43db332889da5054c9e8","1","2025-08-06T13:35:02.794Z","","","","ControlQ","","","","","","","","","","","50","","","","","","","","","","","","","","","","","","","","","","","","","","",""
"4654","","<div style=""width:500px;"">
  <p>How would you describe your current emotional state?</p>
  </div>","0","html-slider-response","46","1110941","0.0-7.0-3.6","200","1","2025-08-06 13:16:34","36c45c0696341be0efffe67d72a12abb","102.221.201.129","Mozilla/5.0 (Windows NT 10.0; Win64; x64) AppleWebKit/537.36 (KHTML, like Gecko) Chrome/138.0.0.0 Safari/537.36 Edg/138.0.0.0","WebKit","Edge","138.0.0.0","Windows","10.0","https://app.prolific.com/","en-GB,en;q=0.9,en-US;q=0.8","66cf43db332889da5054c9e8","687a1a965b9f5b85a264363e","6893533145008204cb21f239","1","66cf43db332889da5054c9e8","1","2025-08-06T13:35:07.452Z","","","","StressQ","","","","","","","","","","","50","","","","","","","","","","","","","","","","","","","","","","","","","","",""
"5160","","<div style=""width:500px;"">
  <p>What best describes how you currently feel?</p>
  </div>","79","html-slider-response","47","1116105","0.0-7.0-4.6","200","1","2025-08-06 13:16:34","36c45c0696341be0efffe67d72a12abb","102.221.201.129","Mozilla/5.0 (Windows NT 10.0; Win64; x64) AppleWebKit/537.36 (KHTML, like Gecko) Chrome/138.0.0.0 Safari/537.36 Edg/138.0.0.0","WebKit","Edge","138.0.0.0","Windows","10.0","https://app.prolific.com/","en-GB,en;q=0.9,en-US;q=0.8","66cf43db332889da5054c9e8","687a1a965b9f5b85a264363e","6893533145008204cb21f239","1","66cf43db332889da5054c9e8","1","2025-08-06T13:35:12.616Z","","","","MotivationQ","","","","","","","","","","","50","","","","","","","","","","","","","","","","","","","","","","","","","","",""
"","","","","ctl-task-cpt","48","1180766","0.0-7.0-0.7","200","1","2025-08-06 13:16:34","36c45c0696341be0efffe67d72a12abb","102.221.201.129","Mozilla/5.0 (Windows NT 10.0; Win64; x64) AppleWebKit/537.36 (KHTML, like Gecko) Chrome/138.0.0.0 Safari/537.36 Edg/138.0.0.0","WebKit","Edge","138.0.0.0","Windows","10.0","https://app.prolific.com/","en-GB,en;q=0.9,en-US;q=0.8","66cf43db332889da5054c9e8","687a1a965b9f5b85a264363e","6893533145008204cb21f239","1","66cf43db332889da5054c9e8","1","2025-08-06T13:36:17.276Z","","","","","","","","","","","","","","","","win-only","0","g1:NW,g2:SE","0.3","8","0","1118611.3","14224.3","19231.3","61645.7","1","4","8","6","2","-8","-8","0","0","0","1201.3","3000","-1875","[""down"",""right""]","{""num_key_presses"":8,""num_perfect"":2,""num_errors"":0,""num_randdir"":6,""num_randdir_good_moves"":2,""num_whilered"":0,""num_whileblue"":0,""num_blue"":5,""num_good_moves"":4}","[415.07142857142856,428.1808016640799,1.2,415.07142857142856,428.1808016640799,102.6,415.07142857142856,428.1808016640799,207.2,415.07142857142856,428.1808016640799,309.4,410.57142857142856,441.6808016640799,417.9,412.07142857142856,518.1808016640799,539.3,413.57142857142856,536.1808016640799,643,439.07142857142856,611.1808016640799,747.8,511.07142857142856,651.6808016640799,853,692.5714285714286,726.6808016640799,953,724.0714285714286,734.1808016640799,1054.4,724.0714285714286,734.1808016640799,1161.1,724.0714285714286,734.1808016640799,1262.2,724.0714285714286,734.1808016640799,1368.2,721.0714285714286,734.1808016640799,1470.6,617.5714285714286,807.6808016640799,1581,383.57142857142856,896.1808016640799,1684.7,143.57142857142856,920.1808016640799,1787.4,143.57142857142856,908.1808016640799,1888.2,143.57142857142856,902.1808016640799,1992.8,143.57142857142856,902.1808016640799,2099.4,143.57142857142856,902.1808016640799,2200,143.57142857142856,902.1808016640799,2304.2,143.57142857142856,902.1808016640799,2410,143.57142857142856,902.1808016640799,2511.5,143.57142857142856,902.1808016640799,2616.6,143.57142857142856,902.1808016640799,2724.3,143.57142857142856,902.1808016640799,2837.1,143.57142857142856,902.1808016640799,2937.9,143.57142857142856,902.1808016640799,3042.4,143.57142857142856,902.1808016640799,3145.5,143.57142857142856,902.1808016640799,3245.5,143.57142857142856,902.1808016640799,3346.3,143.57142857142856,902.1808016640799,3448.4,143.57142857142856,902.1808016640799,3565.4,143.57142857142856,902.1808016640799,3686.1,143.57142857142856,902.1808016640799,3790.6,143.57142857142856,902.1808016640799,3893.5,143.57142857142856,902.1808016640799,4005.7,143.57142857142856,902.1808016640799,4109.8,143.57142857142856,902.1808016640799,4211.3,143.57142857142856,902.1808016640799,4313.5,143.57142857142856,902.1808016640799,4417.7,143.57142857142856,902.1808016640799,4521.6,143.57142857142856,902.1808016640799,4626.2,143.57142857142856,902.1808016640799,4728.8,143.57142857142856,902.1808016640799,4833.2,143.57142857142856,902.1808016640799,4937.2]","[1558.5,1558.5,1000,0,558.5,""oops"",""down"",""up"",""bad_move"",4782.3,3222.1,2852.7,1560.2,369.4,""smooth"",""down"",""down"",""good_move"",21148,16364.6,2448,18176.8,523.2,""smooth"",""down"",""down"",""good_move"",24279.7,3130.8,2271.7,21148.9,859.1,""oops"",""down"",""up"",""bad_move"",26897.3,2617.3,2083.4,24280,533.9,""oops"",""down"",""right"",""good_move"",33213.5,6315.3,2032.5,30823.7,357.3,""oops"",""down"",""right"",""good_move"",36549.8,3336.1,2918.3,33213.7,417.8,""oops"",""down"",""up"",""bad_move"",39373.2,2822.6,2046.1,36550.6,776.5,""oops"",""down"",""left"",""bad_move""]"
"3867","","<div style=""width:500px;"">
  <p>What determined the result of this run?</p>
  </div>","3","html-slider-response","49","1184636","0.0-7.0-1.7","200","1","2025-08-06 13:16:34","36c45c0696341be0efffe67d72a12abb","102.221.201.129","Mozilla/5.0 (Windows NT 10.0; Win64; x64) AppleWebKit/537.36 (KHTML, like Gecko) Chrome/138.0.0.0 Safari/537.36 Edg/138.0.0.0","WebKit","Edge","138.0.0.0","Windows","10.0","https://app.prolific.com/","en-GB,en;q=0.9,en-US;q=0.8","66cf43db332889da5054c9e8","687a1a965b9f5b85a264363e","6893533145008204cb21f239","1","66cf43db332889da5054c9e8","1","2025-08-06T13:36:21.147Z","","","","AttribQ","","","","","","","","","","","50","","","","","","","","","","","","","","","","","","","","","","","","","","",""
"3468","","<div style=""width:500px;"">
  <p>How much control did you have over the ball?</p>
  </div>","0","html-slider-response","50","1188110","0.0-7.0-2.7","200","1","2025-08-06 13:16:34","36c45c0696341be0efffe67d72a12abb","102.221.201.129","Mozilla/5.0 (Windows NT 10.0; Win64; x64) AppleWebKit/537.36 (KHTML, like Gecko) Chrome/138.0.0.0 Safari/537.36 Edg/138.0.0.0","WebKit","Edge","138.0.0.0","Windows","10.0","https://app.prolific.com/","en-GB,en;q=0.9,en-US;q=0.8","66cf43db332889da5054c9e8","687a1a965b9f5b85a264363e","6893533145008204cb21f239","1","66cf43db332889da5054c9e8","1","2025-08-06T13:36:24.621Z","","","","ControlQ","","","","","","","","","","","50","","","","","","","","","","","","","","","","","","","","","","","","","","",""
"4825","","<div style=""width:500px;"">
  <p>How would you describe your current emotional state?</p>
  </div>","46","html-slider-response","51","1192940","0.0-7.0-3.7","200","1","2025-08-06 13:16:34","36c45c0696341be0efffe67d72a12abb","102.221.201.129","Mozilla/5.0 (Windows NT 10.0; Win64; x64) AppleWebKit/537.36 (KHTML, like Gecko) Chrome/138.0.0.0 Safari/537.36 Edg/138.0.0.0","WebKit","Edge","138.0.0.0","Windows","10.0","https://app.prolific.com/","en-GB,en;q=0.9,en-US;q=0.8","66cf43db332889da5054c9e8","687a1a965b9f5b85a264363e","6893533145008204cb21f239","1","66cf43db332889da5054c9e8","1","2025-08-06T13:36:29.451Z","","","","StressQ","","","","","","","","","","","50","","","","","","","","","","","","","","","","","","","","","","","","","","",""
"5439","","<div style=""width:500px;"">
  <p>What best describes how you currently feel?</p>
  </div>","69","html-slider-response","52","1198384","0.0-7.0-4.7","200","1","2025-08-06 13:16:34","36c45c0696341be0efffe67d72a12abb","102.221.201.129","Mozilla/5.0 (Windows NT 10.0; Win64; x64) AppleWebKit/537.36 (KHTML, like Gecko) Chrome/138.0.0.0 Safari/537.36 Edg/138.0.0.0","WebKit","Edge","138.0.0.0","Windows","10.0","https://app.prolific.com/","en-GB,en;q=0.9,en-US;q=0.8","66cf43db332889da5054c9e8","687a1a965b9f5b85a264363e","6893533145008204cb21f239","1","66cf43db332889da5054c9e8","1","2025-08-06T13:36:34.894Z","","","","MotivationQ","","","","","","","","","","","50","","","","","","","","","","","","","","","","","","","","","","","","","","",""
"","","","","ctl-task-cpt","53","1222470","0.0-7.0-0.8","200","1","2025-08-06 13:16:34","36c45c0696341be0efffe67d72a12abb","102.221.201.129","Mozilla/5.0 (Windows NT 10.0; Win64; x64) AppleWebKit/537.36 (KHTML, like Gecko) Chrome/138.0.0.0 Safari/537.36 Edg/138.0.0.0","WebKit","Edge","138.0.0.0","Windows","10.0","https://app.prolific.com/","en-GB,en;q=0.9,en-US;q=0.8","66cf43db332889da5054c9e8","687a1a965b9f5b85a264363e","6893533145008204cb21f239","1","66cf43db332889da5054c9e8","1","2025-08-06T13:36:58.980Z","","","","","","","","","","","","","","","","win-only","3","g1:SW,g2:NE","0.4","9","0","1200889.6","864.7","5870.6","21064.4","1","4","4","6","2","4","4","4","0","0.030303030303030304","1513.7","3000","1240","[""up"",""right""]","{""num_key_presses"":6,""num_perfect"":4,""num_errors"":0,""num_randdir"":2,""num_randdir_good_moves"":2,""num_whilered"":0,""num_whileblue"":0,""num_blue"":0,""num_good_moves"":6}","[425.57142857142856,416.1808016640799,0.5,425.57142857142856,416.1808016640799,109.6,425.57142857142856,416.1808016640799,217.1,425.57142857142856,443.1808016640799,324.1,410.57142857142856,503.1808016640799,430.9,404.57142857142856,516.6808016640799,531.1,371.57142857142856,536.1808016640799,634.5,307.07142857142856,593.1808016640799,735.7,272.57142857142856,615.6808016640799,843.4,307.07142857142856,596.1808016640799,943.7,419.57142857142856,422.1808016640799,1044.1,580.0714285714286,230.18080166407992,1149.4,692.5714285714286,147.68080166407992,1250.1,733.0714285714286,117.68080166407994,1350.5,743.5714285714286,102.68080166407994,1456.4,743.5714285714286,102.68080166407994,1561.7,743.5714285714286,102.68080166407994,1664,707.5714285714286,182.18080166407992,1766.7,596.5714285714286,359.1808016640799,1872.9,518.5714285714286,470.1808016640799,1974.2,464.57142857142856,527.1808016640799,2075.2,454.07142857142856,533.1808016640799,2179.3,452.57142857142856,542.1808016640799,2283,452.57142857142856,557.1808016640799,2388.6,452.57142857142856,557.1808016640799,2493.8,452.57142857142856,557.1808016640799,2598.9,452.57142857142856,557.1808016640799,2710.9,452.57142857142856,557.1808016640799,2816.8,452.57142857142856,557.1808016640799,2932.3,452.57142857142856,557.1808016640799,3047.5,452.57142857142856,557.1808016640799,3148.2,452.57142857142856,557.1808016640799,3251,452.57142857142856,557.1808016640799,3354.4,452.57142857142856,557.1808016640799,3463.7,452.57142857142856,557.1808016640799,3566.3,452.57142857142856,557.1808016640799,3675.8,452.57142857142856,557.1808016640799,3777.5,452.57142857142856,557.1808016640799,3886.7,452.57142857142856,557.1808016640799,3987.8,452.57142857142856,557.1808016640799,4094.7,452.57142857142856,557.1808016640799,4196.4,452.57142857142856,557.1808016640799,4297.3,452.57142857142856,557.1808016640799,4399.5,452.57142857142856,557.1808016640799,4512.5,452.57142857142856,557.1808016640799,4615.6,452.57142857142856,557.1808016640799,4722.7,452.57142857142856,557.1808016640799,4825.7,452.57142857142856,557.1808016640799,4930]","[1251.9,1251.9,1000,0,251.9,""smooth"",""up"",""up"",""good_move"",3896.3,2643.8,1869.9,1252.5,773.9,""smooth"",""up"",""up"",""good_move"",6640.2,2743.3,2384.2,3896.9,359.1,""smooth"",""up"",""up"",""good_move"",8768.5,2127.7,1479.2,6640.8,648.5,""smooth"",""right"",""right"",""good_move"",11658.1,2888.4,2520.9,8769.7,367.5,""oops"",""right"",""right"",""good_move"",15051,3392.4,2759,11658.7,633.4,""oops"",""right"",""right"",""good_move""]"
"5266","","<div style=""width:500px;"">
  <p>What determined the result of this run?</p>
  </div>","78","html-slider-response","54","1227738","0.0-7.0-1.8","200","1","2025-08-06 13:16:34","36c45c0696341be0efffe67d72a12abb","102.221.201.129","Mozilla/5.0 (Windows NT 10.0; Win64; x64) AppleWebKit/537.36 (KHTML, like Gecko) Chrome/138.0.0.0 Safari/537.36 Edg/138.0.0.0","WebKit","Edge","138.0.0.0","Windows","10.0","https://app.prolific.com/","en-GB,en;q=0.9,en-US;q=0.8","66cf43db332889da5054c9e8","687a1a965b9f5b85a264363e","6893533145008204cb21f239","1","66cf43db332889da5054c9e8","1","2025-08-06T13:37:04.248Z","","","","AttribQ","","","","","","","","","","","50","","","","","","","","","","","","","","","","","","","","","","","","","","",""
"4742","","<div style=""width:500px;"">
  <p>How much control did you have over the ball?</p>
  </div>","85","html-slider-response","55","1232482","0.0-7.0-2.8","200","1","2025-08-06 13:16:34","36c45c0696341be0efffe67d72a12abb","102.221.201.129","Mozilla/5.0 (Windows NT 10.0; Win64; x64) AppleWebKit/537.36 (KHTML, like Gecko) Chrome/138.0.0.0 Safari/537.36 Edg/138.0.0.0","WebKit","Edge","138.0.0.0","Windows","10.0","https://app.prolific.com/","en-GB,en;q=0.9,en-US;q=0.8","66cf43db332889da5054c9e8","687a1a965b9f5b85a264363e","6893533145008204cb21f239","1","66cf43db332889da5054c9e8","1","2025-08-06T13:37:08.993Z","","","","ControlQ","","","","","","","","","","","50","","","","","","","","","","","","","","","","","","","","","","","","","","",""
"5030","","<div style=""width:500px;"">
  <p>How would you describe your current emotional state?</p>
  </div>","71","html-slider-response","56","1237518","0.0-7.0-3.8","200","1","2025-08-06 13:16:34","36c45c0696341be0efffe67d72a12abb","102.221.201.129","Mozilla/5.0 (Windows NT 10.0; Win64; x64) AppleWebKit/537.36 (KHTML, like Gecko) Chrome/138.0.0.0 Safari/537.36 Edg/138.0.0.0","WebKit","Edge","138.0.0.0","Windows","10.0","https://app.prolific.com/","en-GB,en;q=0.9,en-US;q=0.8","66cf43db332889da5054c9e8","687a1a965b9f5b85a264363e","6893533145008204cb21f239","1","66cf43db332889da5054c9e8","1","2025-08-06T13:37:14.028Z","","","","StressQ","","","","","","","","","","","50","","","","","","","","","","","","","","","","","","","","","","","","","","",""
"3726","","<div style=""width:500px;"">
  <p>What best describes how you currently feel?</p>
  </div>","90","html-slider-response","57","1241245","0.0-7.0-4.8","200","1","2025-08-06 13:16:34","36c45c0696341be0efffe67d72a12abb","102.221.201.129","Mozilla/5.0 (Windows NT 10.0; Win64; x64) AppleWebKit/537.36 (KHTML, like Gecko) Chrome/138.0.0.0 Safari/537.36 Edg/138.0.0.0","WebKit","Edge","138.0.0.0","Windows","10.0","https://app.prolific.com/","en-GB,en;q=0.9,en-US;q=0.8","66cf43db332889da5054c9e8","687a1a965b9f5b85a264363e","6893533145008204cb21f239","1","66cf43db332889da5054c9e8","1","2025-08-06T13:37:17.755Z","","","","MotivationQ","","","","","","","","","","","50","","","","","","","","","","","","","","","","","","","","","","","","","","",""
"","","","","ctl-task-cpt","58","1276341","0.0-7.0-0.9","200","1","2025-08-06 13:16:34","36c45c0696341be0efffe67d72a12abb","102.221.201.129","Mozilla/5.0 (Windows NT 10.0; Win64; x64) AppleWebKit/537.36 (KHTML, like Gecko) Chrome/138.0.0.0 Safari/537.36 Edg/138.0.0.0","WebKit","Edge","138.0.0.0","Windows","10.0","https://app.prolific.com/","en-GB,en;q=0.9,en-US;q=0.8","66cf43db332889da5054c9e8","687a1a965b9f5b85a264363e","6893533145008204cb21f239","1","66cf43db332889da5054c9e8","1","2025-08-06T13:37:52.852Z","","","","","","","","","","","","","","","","win-only","2","g1:SE,g2:NW","0.5","10","0","1243746.8","1050.4","6056.6","32073.1","1","4","8","6","2","8","8","12","4","0.09090909090909091","2498.1","3000","1335","[""left"",""up""]","{""num_key_presses"":10,""num_perfect"":5,""num_errors"":0,""num_randdir"":5,""num_randdir_good_moves"":3,""num_whilered"":0,""num_whileblue"":0,""num_blue"":0,""num_good_moves"":8}","[418.07142857142856,428.1808016640799,0.6,418.07142857142856,428.1808016640799,102,418.07142857142856,428.1808016640799,213,416.57142857142856,425.1808016640799,318.7,416.57142857142856,425.1808016640799,422,416.57142857142856,425.1808016640799,523,416.57142857142856,425.1808016640799,628.1,419.57142857142856,443.1808016640799,733.1,428.57142857142856,449.1808016640799,833.2,422.57142857142856,422.1808016640799,940.9,413.57142857142856,402.6808016640799,1045.5,386.57142857142856,377.1808016640799,1146,338.57142857142856,347.1808016640799,1251.7,320.57142857142856,339.6808016640799,1357.6,314.57142857142856,338.1808016640799,1473.7,314.57142857142856,338.1808016640799,1577.8,335.57142857142856,366.6808016640799,1687.8,395.57142857142856,464.1808016640799,1799.4,470.57142857142856,533.1808016640799,1900.5,521.5714285714286,615.6808016640799,2008.5,518.5714285714286,644.1808016640799,2112.3,257.57142857142856,323.1808016640799,2213.7,98.57142857142857,74.18080166407994,2320.5,86.57142857142857,26.180801664079937,2424.4,86.57142857142857,26.180801664079937,2527.2,86.57142857142857,26.180801664079937,2633.7,89.57142857142857,32.18080166407994,2737.9,140.57142857142856,293.1808016640799,2851,145.07142857142856,479.1808016640799,2957,130.07142857142856,518.1808016640799,3061.7,130.07142857142856,518.1808016640799,3162.7,130.07142857142856,518.1808016640799,3266.5,130.07142857142856,518.1808016640799,3371.6,130.07142857142856,518.1808016640799,3472.7,130.07142857142856,518.1808016640799,3573.3,130.07142857142856,518.1808016640799,3673.3,130.07142857142856,518.1808016640799,3775,130.07142857142856,518.1808016640799,3875.9,130.07142857142856,518.1808016640799,3982.1,130.07142857142856,518.1808016640799,4083.1,130.07142857142856,518.1808016640799,4184.4,130.07142857142856,518.1808016640799,4286,130.07142857142856,518.1808016640799,4389.6,130.07142857142856,518.1808016640799,4496.9,130.07142857142856,518.1808016640799,4601.1,130.07142857142856,518.1808016640799,4705,130.07142857142856,518.1808016640799,4813.9,130.07142857142856,518.1808016640799,4923.4]","[1042.9,1042.9,1000,0,42.9,""smooth"",""up"",""up"",""good_move"",3617.2,2573.2,2160.6,1044,412.6,""oops"",""up"",""left"",""good_move"",6299.9,2682.1,2293.3,3617.9,388.8,""oops"",""up"",""up"",""good_move"",9108.6,2808.3,2452,6300.3,356.3,""smooth"",""up"",""up"",""good_move"",11793,2683.9,2348.1,9109.1,335.8,""oops"",""left"",""down"",""bad_move"",14475.4,2681.4,2363.7,11794,317.7,""smooth"",""left"",""left"",""good_move"",17477.2,3000.7,2670.5,14476.5,330.2,""oops"",""left"",""down"",""bad_move"",20439,2961,2599.3,17478,361.7,""smooth"",""left"",""left"",""good_move"",23228.8,2789,2436.4,20439.8,352.6,""smooth"",""up"",""up"",""good_move"",25857.6,2628,2245.1,23229.6,382.9,""oops"",""up"",""up"",""good_move""]"
"4480","","<div style=""width:500px;"">
  <p>What determined the result of this run?</p>
  </div>","89","html-slider-response","59","1280825","0.0-7.0-1.9","200","1","2025-08-06 13:16:34","36c45c0696341be0efffe67d72a12abb","102.221.201.129","Mozilla/5.0 (Windows NT 10.0; Win64; x64) AppleWebKit/537.36 (KHTML, like Gecko) Chrome/138.0.0.0 Safari/537.36 Edg/138.0.0.0","WebKit","Edge","138.0.0.0","Windows","10.0","https://app.prolific.com/","en-GB,en;q=0.9,en-US;q=0.8","66cf43db332889da5054c9e8","687a1a965b9f5b85a264363e","6893533145008204cb21f239","1","66cf43db332889da5054c9e8","1","2025-08-06T13:37:57.335Z","","","","AttribQ","","","","","","","","","","","50","","","","","","","","","","","","","","","","","","","","","","","","","","",""
"4046","","<div style=""width:500px;"">
  <p>How much control did you have over the ball?</p>
  </div>","100","html-slider-response","60","1284875","0.0-7.0-2.9","200","1","2025-08-06 13:16:34","36c45c0696341be0efffe67d72a12abb","102.221.201.129","Mozilla/5.0 (Windows NT 10.0; Win64; x64) AppleWebKit/537.36 (KHTML, like Gecko) Chrome/138.0.0.0 Safari/537.36 Edg/138.0.0.0","WebKit","Edge","138.0.0.0","Windows","10.0","https://app.prolific.com/","en-GB,en;q=0.9,en-US;q=0.8","66cf43db332889da5054c9e8","687a1a965b9f5b85a264363e","6893533145008204cb21f239","1","66cf43db332889da5054c9e8","1","2025-08-06T13:38:01.386Z","","","","ControlQ","","","","","","","","","","","50","","","","","","","","","","","","","","","","","","","","","","","","","","",""
"4279","","<div style=""width:500px;"">
  <p>How would you describe your current emotional state?</p>
  </div>","0","html-slider-response","61","1289157","0.0-7.0-3.9","200","1","2025-08-06 13:16:34","36c45c0696341be0efffe67d72a12abb","102.221.201.129","Mozilla/5.0 (Windows NT 10.0; Win64; x64) AppleWebKit/537.36 (KHTML, like Gecko) Chrome/138.0.0.0 Safari/537.36 Edg/138.0.0.0","WebKit","Edge","138.0.0.0","Windows","10.0","https://app.prolific.com/","en-GB,en;q=0.9,en-US;q=0.8","66cf43db332889da5054c9e8","687a1a965b9f5b85a264363e","6893533145008204cb21f239","1","66cf43db332889da5054c9e8","1","2025-08-06T13:38:05.667Z","","","","StressQ","","","","","","","","","","","50","","","","","","","","","","","","","","","","","","","","","","","","","","",""
"5292","","<div style=""width:500px;"">
  <p>What best describes how you currently feel?</p>
  </div>","91","html-slider-response","62","1294453","0.0-7.0-4.9","200","1","2025-08-06 13:16:34","36c45c0696341be0efffe67d72a12abb","102.221.201.129","Mozilla/5.0 (Windows NT 10.0; Win64; x64) AppleWebKit/537.36 (KHTML, like Gecko) Chrome/138.0.0.0 Safari/537.36 Edg/138.0.0.0","WebKit","Edge","138.0.0.0","Windows","10.0","https://app.prolific.com/","en-GB,en;q=0.9,en-US;q=0.8","66cf43db332889da5054c9e8","687a1a965b9f5b85a264363e","6893533145008204cb21f239","1","66cf43db332889da5054c9e8","1","2025-08-06T13:38:10.963Z","","","","MotivationQ","","","","","","","","","","","50","","","","","","","","","","","","","","","","","","","","","","","","","","",""
"","","","","ctl-task-cpt","63","1349309","0.0-7.0-0.10","200","1","2025-08-06 13:16:34","36c45c0696341be0efffe67d72a12abb","102.221.201.129","Mozilla/5.0 (Windows NT 10.0; Win64; x64) AppleWebKit/537.36 (KHTML, like Gecko) Chrome/138.0.0.0 Safari/537.36 Edg/138.0.0.0","WebKit","Edge","138.0.0.0","Windows","10.0","https://app.prolific.com/","en-GB,en;q=0.9,en-US;q=0.8","66cf43db332889da5054c9e8","687a1a965b9f5b85a264363e","6893533145008204cb21f239","1","66cf43db332889da5054c9e8","1","2025-08-06T13:39:05.819Z","","","","","","","","","","","","","","","","win-only","3","g1:SW,g2:NE","0.6","11","0","1296954.8","1258.8","6261.4","51819","1","4","8","6","2","8","6","18","12","0.13636363636363635","1675.2","3000","855","[""up"",""right""]","{""num_key_presses"":14,""num_perfect"":8,""num_errors"":2,""num_randdir"":4,""num_randdir_good_moves"":1,""num_whilered"":0,""num_whileblue"":0,""num_blue"":2,""num_good_moves"":9}","[418.07142857142856,410.1808016640799,0.8,418.07142857142856,410.1808016640799,110.2,418.07142857142856,410.1808016640799,220.7,418.07142857142856,410.1808016640799,326.5,418.07142857142856,434.1808016640799,434.9,415.07142857142856,480.6808016640799,538.3,389.57142857142856,512.1808016640799,642.9,359.57142857142856,497.1808016640799,745.3,347.57142857142856,447.6808016640799,850.8,365.57142857142856,419.1808016640799,953.1,386.57142857142856,440.1808016640799,1063,536.5714285714286,420.6808016640799,1163.1,676.0714285714286,209.18080166407992,1268,692.5714285714286,155.18080166407992,1372.1,698.5714285714286,146.18080166407992,1481.4,755.5714285714286,68.18080166407994,1583.1,760.0714285714286,53.18080166407994,1697.4,760.0714285714286,53.18080166407994,1800.1,746.5714285714286,74.18080166407994,1914.4,674.5714285714286,221.18080166407992,2019.6,569.5714285714286,492.6808016640799,2126.9,553.0714285714286,548.1808016640799,2240.7,553.0714285714286,548.1808016640799,2350.8,553.0714285714286,548.1808016640799,2452.2,553.0714285714286,548.1808016640799,2554.9,553.0714285714286,548.1808016640799,2662.3,553.0714285714286,548.1808016640799,2773.2,553.0714285714286,548.1808016640799,2880.3,553.0714285714286,548.1808016640799,2982.4,553.0714285714286,548.1808016640799,3084.2,553.0714285714286,548.1808016640799,3188.4,553.0714285714286,548.1808016640799,3307.2,553.0714285714286,548.1808016640799,3410.8,553.0714285714286,548.1808016640799,3510.9,553.0714285714286,548.1808016640799,3616.2,553.0714285714286,548.1808016640799,3720.4,553.0714285714286,548.1808016640799,3827.1,553.0714285714286,548.1808016640799,3934.6,553.0714285714286,548.1808016640799,4052.2,553.0714285714286,548.1808016640799,4152.3,553.0714285714286,548.1808016640799,4254.3,553.0714285714286,548.1808016640799,4373.8,553.0714285714286,548.1808016640799,4475.2,553.0714285714286,548.1808016640799,4586.2,553.0714285714286,548.1808016640799,4695.3,553.0714285714286,548.1808016640799,4797,553.0714285714286,548.1808016640799,4903.2]","[674.2,674.2,1000,0,-325.8,""error"",""-"",""-"",""no_move"",2097.9,1423.4,2154.2,1682.6,-1738.8,""error"",""-"",""-"",""no_move"",6748.5,4649.5,3223.2,3105.8,419.5,""smooth"",""up"",""up"",""good_move"",13723.5,6974.4,2653.9,10554.8,514.9,""smooth"",""up"",""up"",""good_move"",16850.5,3126.5,2718.6,13724,407.9,""oops"",""up"",""down"",""bad_move"",19429.1,2577.7,2139.3,16851.4,438.4,""oops"",""up"",""right"",""good_move"",22050.3,2620.9,2240,19429.4,380.9,""smooth"",""right"",""right"",""good_move"",24686.4,2635.5,2281.2,22050.9,354.3,""smooth"",""right"",""right"",""good_move"",28001.2,3314.6,2960.9,24686.6,353.7,""oops"",""up"",""down"",""bad_move"",31412,3410.2,3084,28001.9,326.2,""smooth"",""up"",""up"",""good_move"",37468.1,6055.3,2587.8,34422.7,457.6,""smooth"",""up"",""up"",""good_move"",40083.2,2614.4,2225.4,37468.8,389,""oops"",""up"",""left"",""bad_move"",43133.9,3049.3,2682.2,40084.6,367.1,""smooth"",""up"",""up"",""good_move"",45402,2267.7,1975,43134.3,292.7,""smooth"",""right"",""right"",""good_move""]"
"5048","","<div style=""width:500px;"">
  <p>What determined the result of this run?</p>
  </div>","29","html-slider-response","64","1354358","0.0-7.0-1.10","200","1","2025-08-06 13:16:34","36c45c0696341be0efffe67d72a12abb","102.221.201.129","Mozilla/5.0 (Windows NT 10.0; Win64; x64) AppleWebKit/537.36 (KHTML, like Gecko) Chrome/138.0.0.0 Safari/537.36 Edg/138.0.0.0","WebKit","Edge","138.0.0.0","Windows","10.0","https://app.prolific.com/","en-GB,en;q=0.9,en-US;q=0.8","66cf43db332889da5054c9e8","687a1a965b9f5b85a264363e","6893533145008204cb21f239","1","66cf43db332889da5054c9e8","1","2025-08-06T13:39:10.869Z","","","","AttribQ","","","","","","","","","","","50","","","","","","","","","","","","","","","","","","","","","","","","","","",""
"3603","","<div style=""width:500px;"">
  <p>How much control did you have over the ball?</p>
  </div>","23","html-slider-response","65","1357964","0.0-7.0-2.10","200","1","2025-08-06 13:16:34","36c45c0696341be0efffe67d72a12abb","102.221.201.129","Mozilla/5.0 (Windows NT 10.0; Win64; x64) AppleWebKit/537.36 (KHTML, like Gecko) Chrome/138.0.0.0 Safari/537.36 Edg/138.0.0.0","WebKit","Edge","138.0.0.0","Windows","10.0","https://app.prolific.com/","en-GB,en;q=0.9,en-US;q=0.8","66cf43db332889da5054c9e8","687a1a965b9f5b85a264363e","6893533145008204cb21f239","1","66cf43db332889da5054c9e8","1","2025-08-06T13:39:14.474Z","","","","ControlQ","","","","","","","","","","","50","","","","","","","","","","","","","","","","","","","","","","","","","","",""
"6219","","<div style=""width:500px;"">
  <p>How would you describe your current emotional state?</p>
  </div>","61","html-slider-response","66","1364186","0.0-7.0-3.10","200","1","2025-08-06 13:16:34","36c45c0696341be0efffe67d72a12abb","102.221.201.129","Mozilla/5.0 (Windows NT 10.0; Win64; x64) AppleWebKit/537.36 (KHTML, like Gecko) Chrome/138.0.0.0 Safari/537.36 Edg/138.0.0.0","WebKit","Edge","138.0.0.0","Windows","10.0","https://app.prolific.com/","en-GB,en;q=0.9,en-US;q=0.8","66cf43db332889da5054c9e8","687a1a965b9f5b85a264363e","6893533145008204cb21f239","1","66cf43db332889da5054c9e8","1","2025-08-06T13:39:20.697Z","","","","StressQ","","","","","","","","","","","50","","","","","","","","","","","","","","","","","","","","","","","","","","",""
"4995","","<div style=""width:500px;"">
  <p>What best describes how you currently feel?</p>
  </div>","87","html-slider-response","67","1369185","0.0-7.0-4.10","200","1","2025-08-06 13:16:34","36c45c0696341be0efffe67d72a12abb","102.221.201.129","Mozilla/5.0 (Windows NT 10.0; Win64; x64) AppleWebKit/537.36 (KHTML, like Gecko) Chrome/138.0.0.0 Safari/537.36 Edg/138.0.0.0","WebKit","Edge","138.0.0.0","Windows","10.0","https://app.prolific.com/","en-GB,en;q=0.9,en-US;q=0.8","66cf43db332889da5054c9e8","687a1a965b9f5b85a264363e","6893533145008204cb21f239","1","66cf43db332889da5054c9e8","1","2025-08-06T13:39:25.695Z","","","","MotivationQ","","","","","","","","","","","50","","","","","","","","","","","","","","","","","","","","","","","","","","",""
"","","","","ctl-task-cpt","68","1417275","0.0-7.0-0.11","200","1","2025-08-06 13:16:34","36c45c0696341be0efffe67d72a12abb","102.221.201.129","Mozilla/5.0 (Windows NT 10.0; Win64; x64) AppleWebKit/537.36 (KHTML, like Gecko) Chrome/138.0.0.0 Safari/537.36 Edg/138.0.0.0","WebKit","Edge","138.0.0.0","Windows","10.0","https://app.prolific.com/","en-GB,en;q=0.9,en-US;q=0.8","66cf43db332889da5054c9e8","687a1a965b9f5b85a264363e","6893533145008204cb21f239","1","66cf43db332889da5054c9e8","1","2025-08-06T13:40:13.786Z","","","","","","","","","","","","","","","","win-only","0","g1:NW,g2:SE","0.7","12","0","1371687.6","1151.5","6163.9","45053","1","4","4","6","2","4","3","21","18","0.1590909090909091","1154.5","3000","1660","[""down"",""right""]","{""num_key_presses"":10,""num_perfect"":6,""num_errors"":1,""num_randdir"":3,""num_randdir_good_moves"":1,""num_whilered"":0,""num_whileblue"":1,""num_blue"":4,""num_good_moves"":8}","[413.57142857142856,410.1808016640799,0.8,413.57142857142856,408.6808016640799,110.4,413.57142857142856,408.6808016640799,211.9,413.57142857142856,408.6808016640799,315.9,413.57142857142856,408.6808016640799,416,424.07142857142856,486.6808016640799,521.4,436.07142857142856,566.1808016640799,624.6,494.57142857142856,647.1808016640799,736,671.5714285714286,683.1808016640799,837.7,703.0714285714286,684.6808016640799,938.2,812.5714285714286,731.1808016640799,1039.2,830.5714285714286,740.1808016640799,1147.5,830.5714285714286,740.1808016640799,1254.7,830.5714285714286,740.1808016640799,1354.8,827.5714285714286,738.6808016640799,1461.3,784.0714285714286,717.6808016640799,1564.9,623.5714285714286,674.1808016640799,1667.9,566.5714285714286,536.1808016640799,1768.4,539.5714285714286,458.1808016640799,1871,539.5714285714286,443.1808016640799,1977,539.5714285714286,443.1808016640799,2092.8,539.5714285714286,443.1808016640799,2194.1,539.5714285714286,443.1808016640799,2301.7,539.5714285714286,443.1808016640799,2401.8,539.5714285714286,443.1808016640799,2506.5,539.5714285714286,443.1808016640799,2617.7,539.5714285714286,443.1808016640799,2718.8,539.5714285714286,443.1808016640799,2821.6,539.5714285714286,443.1808016640799,2923.8,539.5714285714286,443.1808016640799,3038.3,539.5714285714286,443.1808016640799,3143.6,539.5714285714286,443.1808016640799,3247.8,539.5714285714286,443.1808016640799,3348.2,539.5714285714286,443.1808016640799,3453,539.5714285714286,443.1808016640799,3554.1,539.5714285714286,443.1808016640799,3654.8,539.5714285714286,443.1808016640799,3765.8,539.5714285714286,443.1808016640799,3866.4,539.5714285714286,443.1808016640799,3970,539.5714285714286,443.1808016640799,4073.9,539.5714285714286,443.1808016640799,4181.1,539.5714285714286,443.1808016640799,4298.2,539.5714285714286,443.1808016640799,4405.6,539.5714285714286,443.1808016640799,4518.2,539.5714285714286,443.1808016640799,4620.7,539.5714285714286,443.1808016640799,4721.2,539.5714285714286,443.1808016640799,4830.2,539.5714285714286,443.1808016640799,4931.5]","[1385.3,1385.3,1000,0,385.3,""smooth"",""down"",""down"",""good_move"",8285,6898.9,2906.9,5023.6,354.5,""smooth"",""down"",""down"",""good_move"",10976.2,2690.7,2270.2,8285.5,420.5,""smooth"",""down"",""down"",""good_move"",13673.1,2696.6,2359,10976.6,337.6,""oops"",""right"",""right"",""good_move"",19715.9,6041.9,2546,16803.7,366.2,""oops"",""right"",""up"",""bad_move"",22624.1,2907.7,2563.1,19716.4,344.6,""oops"",""right"",""up"",""bad_move"",25822.2,3197.7,2836.4,22624.5,361.3,""smooth"",""right"",""right"",""good_move"",29478.8,3656,3314.4,25822.8,341.6,""while_blue"",""right"",""right"",""good_move"",32195,2715.4,2211.3,29479.6,504.1,""smooth"",""down"",""down"",""good_move"",38514.5,6318.5,3201.5,34779.7,533.3,""smooth"",""down"",""down"",""good_move""]"
"3947","","<div style=""width:500px;"">
  <p>What determined the result of this run?</p>
  </div>","16","html-slider-response","69","1421225","0.0-7.0-1.11","200","1","2025-08-06 13:16:34","36c45c0696341be0efffe67d72a12abb","102.221.201.129","Mozilla/5.0 (Windows NT 10.0; Win64; x64) AppleWebKit/537.36 (KHTML, like Gecko) Chrome/138.0.0.0 Safari/537.36 Edg/138.0.0.0","WebKit","Edge","138.0.0.0","Windows","10.0","https://app.prolific.com/","en-GB,en;q=0.9,en-US;q=0.8","66cf43db332889da5054c9e8","687a1a965b9f5b85a264363e","6893533145008204cb21f239","1","66cf43db332889da5054c9e8","1","2025-08-06T13:40:17.736Z","","","","AttribQ","","","","","","","","","","","50","","","","","","","","","","","","","","","","","","","","","","","","","","",""
"3689","","<div style=""width:500px;"">
  <p>How much control did you have over the ball?</p>
  </div>","11","html-slider-response","70","1424918","0.0-7.0-2.11","200","1","2025-08-06 13:16:34","36c45c0696341be0efffe67d72a12abb","102.221.201.129","Mozilla/5.0 (Windows NT 10.0; Win64; x64) AppleWebKit/537.36 (KHTML, like Gecko) Chrome/138.0.0.0 Safari/537.36 Edg/138.0.0.0","WebKit","Edge","138.0.0.0","Windows","10.0","https://app.prolific.com/","en-GB,en;q=0.9,en-US;q=0.8","66cf43db332889da5054c9e8","687a1a965b9f5b85a264363e","6893533145008204cb21f239","1","66cf43db332889da5054c9e8","1","2025-08-06T13:40:21.428Z","","","","ControlQ","","","","","","","","","","","50","","","","","","","","","","","","","","","","","","","","","","","","","","",""
"7323","","<div style=""width:500px;"">
  <p>How would you describe your current emotional state?</p>
  </div>","38","html-slider-response","71","1432245","0.0-7.0-3.11","200","1","2025-08-06 13:16:34","36c45c0696341be0efffe67d72a12abb","102.221.201.129","Mozilla/5.0 (Windows NT 10.0; Win64; x64) AppleWebKit/537.36 (KHTML, like Gecko) Chrome/138.0.0.0 Safari/537.36 Edg/138.0.0.0","WebKit","Edge","138.0.0.0","Windows","10.0","https://app.prolific.com/","en-GB,en;q=0.9,en-US;q=0.8","66cf43db332889da5054c9e8","687a1a965b9f5b85a264363e","6893533145008204cb21f239","1","66cf43db332889da5054c9e8","1","2025-08-06T13:40:28.755Z","","","","StressQ","","","","","","","","","","","50","","","","","","","","","","","","","","","","","","","","","","","","","","",""
"4546","","<div style=""width:500px;"">
  <p>What best describes how you currently feel?</p>
  </div>","76","html-slider-response","72","1436793","0.0-7.0-4.11","200","1","2025-08-06 13:16:34","36c45c0696341be0efffe67d72a12abb","102.221.201.129","Mozilla/5.0 (Windows NT 10.0; Win64; x64) AppleWebKit/537.36 (KHTML, like Gecko) Chrome/138.0.0.0 Safari/537.36 Edg/138.0.0.0","WebKit","Edge","138.0.0.0","Windows","10.0","https://app.prolific.com/","en-GB,en;q=0.9,en-US;q=0.8","66cf43db332889da5054c9e8","687a1a965b9f5b85a264363e","6893533145008204cb21f239","1","66cf43db332889da5054c9e8","1","2025-08-06T13:40:33.304Z","","","","MotivationQ","","","","","","","","","","","50","","","","","","","","","","","","","","","","","","","","","","","","","","",""
"","","","","ctl-task-cpt","73","1490845","0.0-7.0-0.12","200","1","2025-08-06 13:16:34","36c45c0696341be0efffe67d72a12abb","102.221.201.129","Mozilla/5.0 (Windows NT 10.0; Win64; x64) AppleWebKit/537.36 (KHTML, like Gecko) Chrome/138.0.0.0 Safari/537.36 Edg/138.0.0.0","WebKit","Edge","138.0.0.0","Windows","10.0","https://app.prolific.com/","en-GB,en;q=0.9,en-US;q=0.8","66cf43db332889da5054c9e8","687a1a965b9f5b85a264363e","6893533145008204cb21f239","1","66cf43db332889da5054c9e8","1","2025-08-06T13:41:27.355Z","","","","","","","","","","","","","","","","win-only","2","g1:SE,g2:NW","0.8","13","0","1439296.6","1185.5","6225.1","51014.3","1","4","4","6","2","4","3","24","21","0.18181818181818182","1952.9","3000","2115","[""left"",""up""]","{""num_key_presses"":9,""num_perfect"":7,""num_errors"":1,""num_randdir"":1,""num_randdir_good_moves"":0,""num_whilered"":0,""num_whileblue"":0,""num_blue"":1,""num_good_moves"":7}","[416.57142857142856,423.6808016640799,0.4,416.57142857142856,423.6808016640799,111.5,416.57142857142856,423.6808016640799,233,416.57142857142856,428.1808016640799,346.5,350.57142857142856,536.1808016640799,455.4,289.07142857142856,602.1808016640799,567.2,289.07142857142856,602.1808016640799,686.3,343.07142857142856,596.1808016640799,803.3,493.07142857142856,590.1808016640799,918.3,530.5714285714286,606.6808016640799,1019.2,605.5714285714286,743.1808016640799,1125,605.5714285714286,725.1808016640799,1257.5,251.57142857142856,393.6808016640799,1374,214.07142857142856,237.68080166407992,1505.1,209.57142857142856,171.68080166407992,1614.4,134.57142857142856,105.68080166407994,1718.4,116.57142857142857,98.18080166407994,1845,113.57142857142857,96.68080166407994,1960,113.57142857142857,96.68080166407994,2072.2,127.07142857142857,119.18080166407994,2208,155.57142857142856,308.1808016640799,2333.8,155.57142857142856,485.1808016640799,2441.5,149.57142857142856,497.1808016640799,2554.1,149.57142857142856,497.1808016640799,2665.9,149.57142857142856,497.1808016640799,2787.2,149.57142857142856,497.1808016640799,2892.4,149.57142857142856,497.1808016640799,3017.3,149.57142857142856,497.1808016640799,3132.4,149.57142857142856,497.1808016640799,3237.4,149.57142857142856,497.1808016640799,3350.9,149.57142857142856,497.1808016640799,3480.1,149.57142857142856,497.1808016640799,3593.8,149.57142857142856,497.1808016640799,3711.2,149.57142857142856,497.1808016640799,3812.2,149.57142857142856,497.1808016640799,3915.5,149.57142857142856,497.1808016640799,4044.5,149.57142857142856,497.1808016640799,4165.5,149.57142857142856,497.1808016640799,4293.5,149.57142857142856,497.1808016640799,4404.1,149.57142857142856,497.1808016640799,4521,149.57142857142856,497.1808016640799,4635.6,149.57142857142856,497.1808016640799,4756.8,149.57142857142856,497.1808016640799,4876,149.57142857142856,497.1808016640799,4996.9]","[1522,1522,1000,0,522,""smooth"",""up"",""up"",""good_move"",8352.7,6830.2,3179,1522.5,3651.2,""oops"",""up"",""right"",""bad_move"",11194.8,2841.3,2167.9,8353.5,673.4,""smooth"",""up"",""up"",""good_move"",17856.6,6661.2,2678.8,11195.4,3982.5,""smooth"",""left"",""left"",""good_move"",26356.9,8499.4,2570.5,17857.5,5928.9,""smooth"",""left"",""left"",""good_move"",34527.8,8170.7,2075,26357.2,6095.6,""smooth"",""left"",""left"",""good_move"",34850.9,322.6,2318.9,34528.3,-1996.3,""error"",""-"",""-"",""no_move"",38776.2,3924.7,2496.4,35851.9,428,""smooth"",""left"",""left"",""good_move"",44589,5811.5,1289,42800.5,499.5,""smooth"",""up"",""up"",""good_move""]"
"4406","","<div style=""width:500px;"">
  <p>What determined the result of this run?</p>
  </div>","15","html-slider-response","74","1495255","0.0-7.0-1.12","200","1","2025-08-06 13:16:34","36c45c0696341be0efffe67d72a12abb","102.221.201.129","Mozilla/5.0 (Windows NT 10.0; Win64; x64) AppleWebKit/537.36 (KHTML, like Gecko) Chrome/138.0.0.0 Safari/537.36 Edg/138.0.0.0","WebKit","Edge","138.0.0.0","Windows","10.0","https://app.prolific.com/","en-GB,en;q=0.9,en-US;q=0.8","66cf43db332889da5054c9e8","687a1a965b9f5b85a264363e","6893533145008204cb21f239","1","66cf43db332889da5054c9e8","1","2025-08-06T13:41:31.765Z","","","","AttribQ","","","","","","","","","","","50","","","","","","","","","","","","","","","","","","","","","","","","","","",""
"5457","","<div style=""width:500px;"">
  <p>How much control did you have over the ball?</p>
  </div>","7","html-slider-response","75","1500715","0.0-7.0-2.12","200","1","2025-08-06 13:16:34","36c45c0696341be0efffe67d72a12abb","102.221.201.129","Mozilla/5.0 (Windows NT 10.0; Win64; x64) AppleWebKit/537.36 (KHTML, like Gecko) Chrome/138.0.0.0 Safari/537.36 Edg/138.0.0.0","WebKit","Edge","138.0.0.0","Windows","10.0","https://app.prolific.com/","en-GB,en;q=0.9,en-US;q=0.8","66cf43db332889da5054c9e8","687a1a965b9f5b85a264363e","6893533145008204cb21f239","1","66cf43db332889da5054c9e8","1","2025-08-06T13:41:37.226Z","","","","ControlQ","","","","","","","","","","","50","","","","","","","","","","","","","","","","","","","","","","","","","","",""
"4849","","<div style=""width:500px;"">
