"rt","response_timestamp","stimulus","response","trial_type","trial_index","time_elapsed","internal_node_id","run_id","condition","recorded_at","source_code_version","ip","user_agent","device","browser","browser_version","platform","platform_version","referer","accept_language","PROLIFIC_PID","STUDY_ID","SESSION_ID","BATCH","prolific_id","batch","realtime","success","question_order","question_id","eventType","responses","item_order","radio_event_ids","radio_event_times","key_event_times","mouse_event_times","straightlining","zigzagging","honeypot","view_history","slider_start","which_type","canvas_config","goals_layout","control_level","trial_number","tutorial_trial_number","trial_start_time","phase1_start_time","phase2_start_time","phase3_start_time","goal_1_value","goal_1_distance","goal_2_value","goal_2_distance","goal_selected","outcome","outcome_total","participant_final_score","participant_initial_score","participant_final_score_prop","goal_choice_rt","allocated_time","allocated_time_remaining","goal_direction","counts","mouse_movements","key_presses"
"1690","1753968675222","<p style='font-size:40px;line-height:1.25'><strong>Welcome to the experiment!</strong></p><p style='font-size:1.1em;line-height:1.25'>Thank you for participanting in our experiment again! You will be asked to play the Dysfunctional Ball Game again. We will briefly recap the rules before we start.</p><p style='font-size:1.1em;line-height:1.25'>Press <strong>Next</strong> to continue.</p>","0","custom-html-button-response","0","1692","0.0-0.0","113","1","2025-07-31 13:31:12","36c45c0696341be0efffe67d72a12abb","89.154.153.225","Mozilla/5.0 (Macintosh; Intel Mac OS X 10_15_7) AppleWebKit/537.36 (KHTML, like Gecko) Chrome/138.0.0.0 Safari/537.36","Macintosh","Chrome","138.0.0.0","OS X","10_15_7","https://app.prolific.com/","pt-PT,pt;q=0.9,en-US;q=0.8,en;q=0.7,ca;q=0.6,fr;q=0.5,de;q=0.4,it;q=0.3","66db15814e7818d8b9593ad5","683dba9a53627eb9ab41b36a","688b6fedd3204f2cd02ba5b1","0","66db15814e7818d8b9593ad5","0","2025-07-31T13:31:15.224Z","","","","","","","","","","","","","","","","","","","","","","","","","","","","","","","","","","","","","","","","","",""
"1154","","","","fullscreen","1","3852","0.0-1.0","113","1","2025-07-31 13:31:12","36c45c0696341be0efffe67d72a12abb","89.154.153.225","Mozilla/5.0 (Macintosh; Intel Mac OS X 10_15_7) AppleWebKit/537.36 (KHTML, like Gecko) Chrome/138.0.0.0 Safari/537.36","Macintosh","Chrome","138.0.0.0","OS X","10_15_7","https://app.prolific.com/","pt-PT,pt;q=0.9,en-US;q=0.8,en;q=0.7,ca;q=0.6,fr;q=0.5,de;q=0.4,it;q=0.3","66db15814e7818d8b9593ad5","683dba9a53627eb9ab41b36a","688b6fedd3204f2cd02ba5b1","0","66db15814e7818d8b9593ad5","0","","true","","","","","","","","","","","","","","","","","","","","","","","","","","","","","","","","","","","","","","","","",""
"1551","1753968678935"," <p style='font-size:1.1em;line-height:1.25'>Thank you for closing all other tabs.</p><p style='font-size:1.1em;line-height:1.25'>We will now invite you to fill in some questionnaires, before starting the game.<br>This will take about 5 minutes.<br></p><p style='font-size:1.1em;line-height:1.25'>Press the <strong>Next</strong> button to continue.</p>","0","custom-html-button-response","2","5404","0.0-2.0","113","1","2025-07-31 13:31:12","36c45c0696341be0efffe67d72a12abb","89.154.153.225","Mozilla/5.0 (Macintosh; Intel Mac OS X 10_15_7) AppleWebKit/537.36 (KHTML, like Gecko) Chrome/138.0.0.0 Safari/537.36","Macintosh","Chrome","138.0.0.0","OS X","10_15_7","https://app.prolific.com/","pt-PT,pt;q=0.9,en-US;q=0.8,en;q=0.7,ca;q=0.6,fr;q=0.5,de;q=0.4,it;q=0.3","66db15814e7818d8b9593ad5","683dba9a53627eb9ab41b36a","688b6fedd3204f2cd02ba5b1","0","66db15814e7818d8b9593ad5","0","2025-07-31T13:31:18.936Z","","","","","","","","","","","","","","","","","","","","","","","","","","","","","","","","","","","","","","","","","",""
"2663","","","{""assigned_sex"":""female""}","survey-multi-choice","3","8070","0.0-3.0-0.0","113","1","2025-07-31 13:31:12","36c45c0696341be0efffe67d72a12abb","89.154.153.225","Mozilla/5.0 (Macintosh; Intel Mac OS X 10_15_7) AppleWebKit/537.36 (KHTML, like Gecko) Chrome/138.0.0.0 Safari/537.36","Macintosh","Chrome","138.0.0.0","OS X","10_15_7","https://app.prolific.com/","pt-PT,pt;q=0.9,en-US;q=0.8,en;q=0.7,ca;q=0.6,fr;q=0.5,de;q=0.4,it;q=0.3","66db15814e7818d8b9593ad5","683dba9a53627eb9ab41b36a","688b6fedd3204f2cd02ba5b1","0","66db15814e7818d8b9593ad5","0","","","[0]","0","demographics","","","","","","","","","","","","","","","","","","","","","","","","","","","","","","","","","","","","","",""
"2939","1753968684542","<p style='font-size:1.1em;line-height:1.25'>In the following, we will perform a baseline assessment. This means that we will ask you a few questions relating to your experiences over the past month.<br></p><p style='font-size:1.1em;line-height:1.25'>Press the <strong>Next</strong> button to continue.</p>","0","custom-html-button-response","4","11011","0.0-4.0-0.0","113","1","2025-07-31 13:31:12","36c45c0696341be0efffe67d72a12abb","89.154.153.225","Mozilla/5.0 (Macintosh; Intel Mac OS X 10_15_7) AppleWebKit/537.36 (KHTML, like Gecko) Chrome/138.0.0.0 Safari/537.36","Macintosh","Chrome","138.0.0.0","OS X","10_15_7","https://app.prolific.com/","pt-PT,pt;q=0.9,en-US;q=0.8,en;q=0.7,ca;q=0.6,fr;q=0.5,de;q=0.4,it;q=0.3","66db15814e7818d8b9593ad5","683dba9a53627eb9ab41b36a","688b6fedd3204f2cd02ba5b1","0","66db15814e7818d8b9593ad5","0","2025-07-31T13:31:24.542Z","","","","","","","","","","","","","","","","","","","","","","","","","","","","","","","","","","","","","","","","","",""
"46184","","","","survey-template","5","57199","0.0-4.0-1.0","113","1","2025-07-31 13:31:12","36c45c0696341be0efffe67d72a12abb","89.154.153.225","Mozilla/5.0 (Macintosh; Intel Mac OS X 10_15_7) AppleWebKit/537.36 (KHTML, like Gecko) Chrome/138.0.0.0 Safari/537.36","Macintosh","Chrome","138.0.0.0","OS X","10_15_7","https://app.prolific.com/","pt-PT,pt;q=0.9,en-US;q=0.8,en;q=0.7,ca;q=0.6,fr;q=0.5,de;q=0.4,it;q=0.3","66db15814e7818d8b9593ad5","683dba9a53627eb9ab41b36a","688b6fedd3204f2cd02ba5b1","0","66db15814e7818d8b9593ad5","0","2025-07-31T13:32:10.731Z","","","","pss","{""Q01"":""2"",""Q02"":""2"",""Q03"":""3"",""Q04"":""2"",""Q05"":""3"",""Q06"":""1"",""Q07"":""1"",""Q08"":""2"",""Q09"":""1"",""Q10"":""1""}","[0,1,2,3,4,5,6,7,8,9]","[""Q01"",""Q02"",""Q03"",""Q04"",""Q05"",""Q06"",""Q07"",""Q08"",""Q09"",""Q10""]","[7802.299999999988,10746.799999999988,13060,17938.70000000001,22398.20000000001,27119,31181.70000000001,34845.399999999965,38664.5,42123]","[]","[0.29999999998835847,7802.299999999988,10746.799999999988,13060,17938.70000000001,22398.20000000001,27119,31181.70000000001,34845.399999999965,38664.5,42123,46180.59999999998]","0.4","0.5555555555555556","0","","","","","","","","","","","","","","","","","","","","","","","","","","","","",""
"2441","1753968733173","<p style='font-size:1.1em;line-height:1.25'>Thank you for your answers! Now we will ask you a few more questions relating to your feelings in the last 24 hours.<br></p><p style='font-size:1.1em;line-height:1.25'>Press the <strong>Next</strong> button to continue.</p>","0","custom-html-button-response","6","59643","0.0-4.0-2.0","113","1","2025-07-31 13:31:12","36c45c0696341be0efffe67d72a12abb","89.154.153.225","Mozilla/5.0 (Macintosh; Intel Mac OS X 10_15_7) AppleWebKit/537.36 (KHTML, like Gecko) Chrome/138.0.0.0 Safari/537.36","Macintosh","Chrome","138.0.0.0","OS X","10_15_7","https://app.prolific.com/","pt-PT,pt;q=0.9,en-US;q=0.8,en;q=0.7,ca;q=0.6,fr;q=0.5,de;q=0.4,it;q=0.3","66db15814e7818d8b9593ad5","683dba9a53627eb9ab41b36a","688b6fedd3204f2cd02ba5b1","0","66db15814e7818d8b9593ad5","0","2025-07-31T13:32:13.174Z","","","","","","","","","","","","","","","","","","","","","","","","","","","","","","","","","","","","","","","","","",""
"45647.59999999998","","","","survey-template","7","105295","0.0-4.0-3.0","113","1","2025-07-31 13:31:12","36c45c0696341be0efffe67d72a12abb","89.154.153.225","Mozilla/5.0 (Macintosh; Intel Mac OS X 10_15_7) AppleWebKit/537.36 (KHTML, like Gecko) Chrome/138.0.0.0 Safari/537.36","Macintosh","Chrome","138.0.0.0","OS X","10_15_7","https://app.prolific.com/","pt-PT,pt;q=0.9,en-US;q=0.8,en;q=0.7,ca;q=0.6,fr;q=0.5,de;q=0.4,it;q=0.3","66db15814e7818d8b9593ad5","683dba9a53627eb9ab41b36a","688b6fedd3204f2cd02ba5b1","0","66db15814e7818d8b9593ad5","0","2025-07-31T13:32:58.826Z","","","","drsp","{""Q01"":""1"",""Q02"":""1"",""Q03"":""1"",""Q04"":""2"",""Q05"":""0"",""Q06"":""1"",""Q07"":""0"",""Q08"":""0"",""Q09"":""0"",""Q10"":""0"",""Q11"":""1"",""Q12"":""1"",""Q13"":""5"",""Q14"":""1"",""Q15"":""0"",""Q16"":""0"",""Q17"":""0"",""Q18"":""2"",""Q19"":""0"",""Q20"":""0"",""Q21"":""0"",""Q22"":""0""}","[0,1,2,3,4,5,6,7,8,9,10,11,12,13,14,15,16,17,18,19,20,21]","[""Q01"",""Q02"",""Q03"",""Q04"",""Q05"",""Q06"",""Q07"",""Q08"",""Q09"",""Q10"",""Q11"",""Q12"",""Q13"",""Q14"",""Q15"",""Q16"",""Q17"",""Q18"",""Q19"",""Q20"",""Q21"",""Q22""]","[5364.399999999965,6353.099999999977,7246.200000000012,8627,10028.799999999988,13808.200000000012,15139.899999999965,15993.099999999977,17035.20000000001,18193.79999999999,19716.899999999965,22005.20000000001,23695.29999999999,31427,32251.20000000001,34185.79999999999,37233,38220.59999999998,40498.5,41679.5,42661.20000000001,44344.5]","[]","[0.20000000001164153,5364.399999999965,6353.099999999977,7246.200000000012,8627,10028.799999999988,13808.200000000012,15139.899999999965,15993.099999999977,17035.20000000001,18193.79999999999,19716.899999999965,22005.20000000001,23695.29999999999,28540.79999999999,30165.5,31427,32251.20000000001,33418.20000000001,34185.79999999999,36016.29999999999,37233,38220.59999999998,40498.5,41679.5,42661.20000000001,43561.899999999965,44344.5,45643.09999999998]","0.5454545454545454","0.23809523809523808","0","","","","","","","","","","","","","","","","","","","","","","","","","","","","",""
"12012.400000000023","","","","survey-template","8","117310","0.0-4.0-4.0","113","1","2025-07-31 13:31:12","36c45c0696341be0efffe67d72a12abb","89.154.153.225","Mozilla/5.0 (Macintosh; Intel Mac OS X 10_15_7) AppleWebKit/537.36 (KHTML, like Gecko) Chrome/138.0.0.0 Safari/537.36","Macintosh","Chrome","138.0.0.0","OS X","10_15_7","https://app.prolific.com/","pt-PT,pt;q=0.9,en-US;q=0.8,en;q=0.7,ca;q=0.6,fr;q=0.5,de;q=0.4,it;q=0.3","66db15814e7818d8b9593ad5","683dba9a53627eb9ab41b36a","688b6fedd3204f2cd02ba5b1","0","66db15814e7818d8b9593ad5","0","2025-07-31T13:33:10.841Z","","","","stress","{""Q01"":""1"",""Q02"":""3"",""Q03"":""0""}","[0,1,2]","[""Q01"",""Q02"",""Q03""]","[6471.599999999977,9244.900000000023,11245.200000000012]","[]","[6471.599999999977,9244.900000000023,11245.200000000012,12011.299999999988]","0.3333333333333333","0.5","0","","","","","","","","","","","","","","","","","","","","","","","","","","","","",""
"2580","","","","instructions","9","119892","0.0-5.0-0.0","113","1","2025-07-31 13:31:12","36c45c0696341be0efffe67d72a12abb","89.154.153.225","Mozilla/5.0 (Macintosh; Intel Mac OS X 10_15_7) AppleWebKit/537.36 (KHTML, like Gecko) Chrome/138.0.0.0 Safari/537.36","Macintosh","Chrome","138.0.0.0","OS X","10_15_7","https://app.prolific.com/","pt-PT,pt;q=0.9,en-US;q=0.8,en;q=0.7,ca;q=0.6,fr;q=0.5,de;q=0.4,it;q=0.3","66db15814e7818d8b9593ad5","683dba9a53627eb9ab41b36a","688b6fedd3204f2cd02ba5b1","0","66db15814e7818d8b9593ad5","0","","","","","","","","","","","","","","","[{""page_index"":0,""viewing_time"":2580}]","","","","","","","","","","","","","","","","","","","","","","","","","","","",""
"3227","","<p>Before you start with this game please answer the following three questions yourself. </p>
  <p>Through this game, we measure several aspects of your cognitive performance, such as reaction times, multi-tasking capabilities </p>
  <p>and the ability to assess the situation you are in.</p>
  <p></p>
  <p><b>How good do you usually are in such tasks?</b></p>","47","html-slider-response","10","123121","0.0-6.0-0.0","113","1","2025-07-31 13:31:12","36c45c0696341be0efffe67d72a12abb","89.154.153.225","Mozilla/5.0 (Macintosh; Intel Mac OS X 10_15_7) AppleWebKit/537.36 (KHTML, like Gecko) Chrome/138.0.0.0 Safari/537.36","Macintosh","Chrome","138.0.0.0","OS X","10_15_7","https://app.prolific.com/","pt-PT,pt;q=0.9,en-US;q=0.8,en;q=0.7,ca;q=0.6,fr;q=0.5,de;q=0.4,it;q=0.3","66db15814e7818d8b9593ad5","683dba9a53627eb9ab41b36a","688b6fedd3204f2cd02ba5b1","0","66db15814e7818d8b9593ad5","0","2025-07-31T13:33:16.652Z","","","","PreSkillQ","","","","","","","","","","","50","","","","","","","","","","","","","","","","","","","","","","","","","","",""
"4232","","<div style=""width:500px;"">
  <p>How well do you think you will perform in this task compared to other participants?</p>
  </div>","43","html-slider-response","11","127354","0.0-6.0-1.0","113","1","2025-07-31 13:31:12","36c45c0696341be0efffe67d72a12abb","89.154.153.225","Mozilla/5.0 (Macintosh; Intel Mac OS X 10_15_7) AppleWebKit/537.36 (KHTML, like Gecko) Chrome/138.0.0.0 Safari/537.36","Macintosh","Chrome","138.0.0.0","OS X","10_15_7","https://app.prolific.com/","pt-PT,pt;q=0.9,en-US;q=0.8,en;q=0.7,ca;q=0.6,fr;q=0.5,de;q=0.4,it;q=0.3","66db15814e7818d8b9593ad5","683dba9a53627eb9ab41b36a","688b6fedd3204f2cd02ba5b1","0","66db15814e7818d8b9593ad5","0","2025-07-31T13:33:20.886Z","","","","PrePerfQ","","","","","","","","","","","50","","","","","","","","","","","","","","","","","","","","","","","","","","",""
"8506","","<div style=""width:500px;"">
  <p>What best describes how you currently feel?</p>
  </div>","52","html-slider-response","12","135862","0.0-6.0-2.0","113","1","2025-07-31 13:31:12","36c45c0696341be0efffe67d72a12abb","89.154.153.225","Mozilla/5.0 (Macintosh; Intel Mac OS X 10_15_7) AppleWebKit/537.36 (KHTML, like Gecko) Chrome/138.0.0.0 Safari/537.36","Macintosh","Chrome","138.0.0.0","OS X","10_15_7","https://app.prolific.com/","pt-PT,pt;q=0.9,en-US;q=0.8,en;q=0.7,ca;q=0.6,fr;q=0.5,de;q=0.4,it;q=0.3","66db15814e7818d8b9593ad5","683dba9a53627eb9ab41b36a","688b6fedd3204f2cd02ba5b1","0","66db15814e7818d8b9593ad5","0","2025-07-31T13:33:29.393Z","","","","PreMotivationQ","","","","","","","","","","","50","","","","","","","","","","","","","","","","","","","","","","","","","","",""
"","","","","ctl-task-cpt","13","171306","0.0-7.0-0.0","113","1","2025-07-31 13:31:12","36c45c0696341be0efffe67d72a12abb","89.154.153.225","Mozilla/5.0 (Macintosh; Intel Mac OS X 10_15_7) AppleWebKit/537.36 (KHTML, like Gecko) Chrome/138.0.0.0 Safari/537.36","Macintosh","Chrome","138.0.0.0","OS X","10_15_7","https://app.prolific.com/","pt-PT,pt;q=0.9,en-US;q=0.8,en;q=0.7,ca;q=0.6,fr;q=0.5,de;q=0.4,it;q=0.3","66db15814e7818d8b9593ad5","683dba9a53627eb9ab41b36a","688b6fedd3204f2cd02ba5b1","0","66db15814e7818d8b9593ad5","0","2025-07-31T13:34:04.838Z","","","","","","","","","","","","","","","","win-only","2","g1:SE,g2:NW","1","1","0","138631.4","1805.7","6806.1","32437.7","1","4","8","6","1","-1","-1","0","0","0","1418.5","3000","-3005","[""down"",""right""]","{""num_key_presses"":6,""num_perfect"":6,""num_errors"":0,""num_randdir"":0,""num_randdir_good_moves"":0,""num_whilered"":0,""num_whileblue"":0,""num_blue"":2,""num_good_moves"":3}","[737,721.796875,0.3,737,721.796875,100.6,737,721.796875,205.8,737,721.796875,310.1,1075,635.796875,410.4,1195,621.796875,516.3,1197,621.796875,619.9,1197,621.796875,720,1197,621.796875,820.1,1189,651.796875,920.3,1277,1237.796875,1020.8,1327,1343.796875,1125.9,1331,1357.796875,1229.9,1331,1357.796875,1329.9,1331,1357.796875,1430.3,1331,1357.796875,1530.7,1463,1279.796875,1635.8,1805,1151.796875,1740.3,1805,1151.796875,1840.8,1805,1151.796875,1940.9,1805,1151.796875,2041.6,1805,1151.796875,2145.4,1805,1151.796875,2250.8,1805,1151.796875,2350.9,1805,1151.796875,2455.8,1805,1151.796875,2555.8,1805,1151.796875,2660.1,1805,1151.796875,2765.9,1805,1151.796875,2866.4,1805,1151.796875,2970.3,1805,1151.796875,3075.8,1805,1151.796875,3180.3,1805,1151.796875,3285.2,1805,1151.796875,3391,1805,1151.796875,3495.6,1805,1151.796875,3600.2,1805,1151.796875,3700.5,1805,1151.796875,3800.6,1805,1151.796875,3901.2,1805,1151.796875,4005.7,1805,1151.796875,4110,1805,1151.796875,4215.3,1805,1151.796875,4315.4,1805,1151.796875,4415.8,1805,1151.796875,4515.8,1805,1151.796875,4615.9,1805,1151.796875,4720.1,1805,1151.796875,4825.9,1805,1151.796875,4929.7]","[1366.4,1366.4,1000,0.1,366.3,""smooth"",""up"",""up"",""bad_move"",4340.2,2973.3,2611,1366.9,362.3,""smooth"",""up"",""up"",""bad_move"",6977.8,2637.3,2274.7,4340.7,362.5,""smooth"",""up"",""up"",""bad_move"",10481.4,3503.4,2612.9,6978,890.5,""smooth"",""right"",""right"",""good_move"",13043.4,2561.5,2246.1,10481.9,315.4,""smooth"",""down"",""down"",""good_move"",22718.7,9674.6,2021.4,20344.3,353,""smooth"",""down"",""down"",""good_move""]"
"3192","","<div style=""width:500px;"">
  <p>What determined the result of this run?</p>
  </div>","33","html-slider-response","14","174501","0.0-7.0-1.0","113","1","2025-07-31 13:31:12","36c45c0696341be0efffe67d72a12abb","89.154.153.225","Mozilla/5.0 (Macintosh; Intel Mac OS X 10_15_7) AppleWebKit/537.36 (KHTML, like Gecko) Chrome/138.0.0.0 Safari/537.36","Macintosh","Chrome","138.0.0.0","OS X","10_15_7","https://app.prolific.com/","pt-PT,pt;q=0.9,en-US;q=0.8,en;q=0.7,ca;q=0.6,fr;q=0.5,de;q=0.4,it;q=0.3","66db15814e7818d8b9593ad5","683dba9a53627eb9ab41b36a","688b6fedd3204f2cd02ba5b1","0","66db15814e7818d8b9593ad5","0","2025-07-31T13:34:08.032Z","","","","AttribQ","","","","","","","","","","","50","","","","","","","","","","","","","","","","","","","","","","","","","","",""
"1985","","<div style=""width:500px;"">
  <p>How much control did you have over the ball?</p>
  </div>","26","html-slider-response","15","176487","0.0-7.0-2.0","113","1","2025-07-31 13:31:12","36c45c0696341be0efffe67d72a12abb","89.154.153.225","Mozilla/5.0 (Macintosh; Intel Mac OS X 10_15_7) AppleWebKit/537.36 (KHTML, like Gecko) Chrome/138.0.0.0 Safari/537.36","Macintosh","Chrome","138.0.0.0","OS X","10_15_7","https://app.prolific.com/","pt-PT,pt;q=0.9,en-US;q=0.8,en;q=0.7,ca;q=0.6,fr;q=0.5,de;q=0.4,it;q=0.3","66db15814e7818d8b9593ad5","683dba9a53627eb9ab41b36a","688b6fedd3204f2cd02ba5b1","0","66db15814e7818d8b9593ad5","0","2025-07-31T13:34:10.018Z","","","","ControlQ","","","","","","","","","","","50","","","","","","","","","","","","","","","","","","","","","","","","","","",""
"3691","","<div style=""width:500px;"">
  <p>How would you describe your current emotional state?</p>
  </div>","29","html-slider-response","16","180179","0.0-7.0-3.0","113","1","2025-07-31 13:31:12","36c45c0696341be0efffe67d72a12abb","89.154.153.225","Mozilla/5.0 (Macintosh; Intel Mac OS X 10_15_7) AppleWebKit/537.36 (KHTML, like Gecko) Chrome/138.0.0.0 Safari/537.36","Macintosh","Chrome","138.0.0.0","OS X","10_15_7","https://app.prolific.com/","pt-PT,pt;q=0.9,en-US;q=0.8,en;q=0.7,ca;q=0.6,fr;q=0.5,de;q=0.4,it;q=0.3","66db15814e7818d8b9593ad5","683dba9a53627eb9ab41b36a","688b6fedd3204f2cd02ba5b1","0","66db15814e7818d8b9593ad5","0","2025-07-31T13:34:13.710Z","","","","StressQ","","","","","","","","","","","50","","","","","","","","","","","","","","","","","","","","","","","","","","",""
"2988","","<div style=""width:500px;"">
  <p>What best describes how you currently feel?</p>
  </div>","55","html-slider-response","17","183169","0.0-7.0-4.0","113","1","2025-07-31 13:31:12","36c45c0696341be0efffe67d72a12abb","89.154.153.225","Mozilla/5.0 (Macintosh; Intel Mac OS X 10_15_7) AppleWebKit/537.36 (KHTML, like Gecko) Chrome/138.0.0.0 Safari/537.36","Macintosh","Chrome","138.0.0.0","OS X","10_15_7","https://app.prolific.com/","pt-PT,pt;q=0.9,en-US;q=0.8,en;q=0.7,ca;q=0.6,fr;q=0.5,de;q=0.4,it;q=0.3","66db15814e7818d8b9593ad5","683dba9a53627eb9ab41b36a","688b6fedd3204f2cd02ba5b1","0","66db15814e7818d8b9593ad5","0","2025-07-31T13:34:16.700Z","","","","MotivationQ","","","","","","","","","","","50","","","","","","","","","","","","","","","","","","","","","","","","","","",""
"","","","","ctl-task-cpt","18","213963","0.0-7.0-0.1","113","1","2025-07-31 13:31:12","36c45c0696341be0efffe67d72a12abb","89.154.153.225","Mozilla/5.0 (Macintosh; Intel Mac OS X 10_15_7) AppleWebKit/537.36 (KHTML, like Gecko) Chrome/138.0.0.0 Safari/537.36","Macintosh","Chrome","138.0.0.0","OS X","10_15_7","https://app.prolific.com/","pt-PT,pt;q=0.9,en-US;q=0.8,en;q=0.7,ca;q=0.6,fr;q=0.5,de;q=0.4,it;q=0.3","66db15814e7818d8b9593ad5","683dba9a53627eb9ab41b36a","688b6fedd3204f2cd02ba5b1","0","66db15814e7818d8b9593ad5","0","2025-07-31T13:34:47.494Z","","","","","","","","","","","","","","","","win-only","3","g1:SW,g2:NE","0.9","2","0","185936.5","1082.6","6087.2","27787","1","4","4","6","2","4","4","4","0","0.030303030303030304","1500.3","3000","1030","[""up"",""right""]","{""num_key_presses"":6,""num_perfect"":5,""num_errors"":0,""num_randdir"":1,""num_randdir_good_moves"":1,""num_whilered"":0,""num_whileblue"":0,""num_blue"":2,""num_good_moves"":6}","[727,709.796875,0.2,727,709.796875,102.8,727,709.796875,203.4,727,709.796875,309.1,727,709.796875,413.1,727,709.796875,513.5,727,709.796875,618.3,727,709.796875,724.5,727,709.796875,824.5,727,709.796875,928.6,1059,365.796875,1035.8,1195,277.796875,1138.7,1249,239.796875,1238.8,1397,87.796875,1343.6,1397,87.796875,1444,1397,87.796875,1550.7,1397,87.796875,1653.6,1603,377.796875,1760.4,1969,717.796875,1864.7,1969,717.796875,1968.6,1969,717.796875,2071.5,1969,717.796875,2173.1,1969,717.796875,2274.4,1969,717.796875,2378.6,1969,717.796875,2478.7,1969,717.796875,2579.1,1969,717.796875,2684.1,1969,717.796875,2788.6,1969,717.796875,2888.6,1969,717.796875,2989.5,1969,717.796875,3094,1969,717.796875,3194.6,1969,717.796875,3294.8,1969,717.796875,3398.7,1969,717.796875,3498.8,1969,717.796875,3599.4,1969,717.796875,3704.3,1969,717.796875,3804.3,1969,717.796875,3908.7,1969,717.796875,4009.1,1969,717.796875,4109.1,1969,717.796875,4214.1,1969,717.796875,4319.9,1969,717.796875,4423.8,1969,717.796875,4524,1969,717.796875,4628.2,1969,717.796875,4729.6,1969,717.796875,4833.8,1969,717.796875,4933.8]","[1342.3,1342.3,1000,0,342.3,""oops"",""up"",""up"",""good_move"",4019.1,2676.6,2344.4,1342.5,332.2,""smooth"",""up"",""up"",""good_move"",6550.2,2530.9,2237.9,4019.3,293,""smooth"",""right"",""right"",""good_move"",8974.5,2423.8,2101.8,6550.8,322,""smooth"",""right"",""right"",""good_move"",18534.5,9559.9,3142,14998.3,394.3,""smooth"",""up"",""up"",""good_move"",21610,3075.2,2769.7,18534.8,305.5,""smooth"",""right"",""right"",""good_move""]"
"4297","","<div style=""width:500px;"">
  <p>What determined the result of this run?</p>
  </div>","56","html-slider-response","19","218261","0.0-7.0-1.1","113","1","2025-07-31 13:31:12","36c45c0696341be0efffe67d72a12abb","89.154.153.225","Mozilla/5.0 (Macintosh; Intel Mac OS X 10_15_7) AppleWebKit/537.36 (KHTML, like Gecko) Chrome/138.0.0.0 Safari/537.36","Macintosh","Chrome","138.0.0.0","OS X","10_15_7","https://app.prolific.com/","pt-PT,pt;q=0.9,en-US;q=0.8,en;q=0.7,ca;q=0.6,fr;q=0.5,de;q=0.4,it;q=0.3","66db15814e7818d8b9593ad5","683dba9a53627eb9ab41b36a","688b6fedd3204f2cd02ba5b1","0","66db15814e7818d8b9593ad5","0","2025-07-31T13:34:51.793Z","","","","AttribQ","","","","","","","","","","","50","","","","","","","","","","","","","","","","","","","","","","","","","","",""
"3196","","<div style=""width:500px;"">
  <p>How much control did you have over the ball?</p>
  </div>","68","html-slider-response","20","221459","0.0-7.0-2.1","113","1","2025-07-31 13:31:12","36c45c0696341be0efffe67d72a12abb","89.154.153.225","Mozilla/5.0 (Macintosh; Intel Mac OS X 10_15_7) AppleWebKit/537.36 (KHTML, like Gecko) Chrome/138.0.0.0 Safari/537.36","Macintosh","Chrome","138.0.0.0","OS X","10_15_7","https://app.prolific.com/","pt-PT,pt;q=0.9,en-US;q=0.8,en;q=0.7,ca;q=0.6,fr;q=0.5,de;q=0.4,it;q=0.3","66db15814e7818d8b9593ad5","683dba9a53627eb9ab41b36a","688b6fedd3204f2cd02ba5b1","0","66db15814e7818d8b9593ad5","0","2025-07-31T13:34:54.990Z","","","","ControlQ","","","","","","","","","","","50","","","","","","","","","","","","","","","","","","","","","","","","","","",""
"3077","","<div style=""width:500px;"">
  <p>How would you describe your current emotional state?</p>
  </div>","34","html-slider-response","21","224538","0.0-7.0-3.1","113","1","2025-07-31 13:31:12","36c45c0696341be0efffe67d72a12abb","89.154.153.225","Mozilla/5.0 (Macintosh; Intel Mac OS X 10_15_7) AppleWebKit/537.36 (KHTML, like Gecko) Chrome/138.0.0.0 Safari/537.36","Macintosh","Chrome","138.0.0.0","OS X","10_15_7","https://app.prolific.com/","pt-PT,pt;q=0.9,en-US;q=0.8,en;q=0.7,ca;q=0.6,fr;q=0.5,de;q=0.4,it;q=0.3","66db15814e7818d8b9593ad5","683dba9a53627eb9ab41b36a","688b6fedd3204f2cd02ba5b1","0","66db15814e7818d8b9593ad5","0","2025-07-31T13:34:58.069Z","","","","StressQ","","","","","","","","","","","50","","","","","","","","","","","","","","","","","","","","","","","","","","",""
"1720","","<div style=""width:500px;"">
  <p>What best describes how you currently feel?</p>
  </div>","58","html-slider-response","22","226259","0.0-7.0-4.1","113","1","2025-07-31 13:31:12","36c45c0696341be0efffe67d72a12abb","89.154.153.225","Mozilla/5.0 (Macintosh; Intel Mac OS X 10_15_7) AppleWebKit/537.36 (KHTML, like Gecko) Chrome/138.0.0.0 Safari/537.36","Macintosh","Chrome","138.0.0.0","OS X","10_15_7","https://app.prolific.com/","pt-PT,pt;q=0.9,en-US;q=0.8,en;q=0.7,ca;q=0.6,fr;q=0.5,de;q=0.4,it;q=0.3","66db15814e7818d8b9593ad5","683dba9a53627eb9ab41b36a","688b6fedd3204f2cd02ba5b1","0","66db15814e7818d8b9593ad5","0","2025-07-31T13:34:59.790Z","","","","MotivationQ","","","","","","","","","","","50","","","","","","","","","","","","","","","","","","","","","","","","","","",""
"","","","","ctl-task-cpt","23","252312","0.0-7.0-0.2","113","1","2025-07-31 13:31:12","36c45c0696341be0efffe67d72a12abb","89.154.153.225","Mozilla/5.0 (Macintosh; Intel Mac OS X 10_15_7) AppleWebKit/537.36 (KHTML, like Gecko) Chrome/138.0.0.0 Safari/537.36","Macintosh","Chrome","138.0.0.0","OS X","10_15_7","https://app.prolific.com/","pt-PT,pt;q=0.9,en-US;q=0.8,en;q=0.7,ca;q=0.6,fr;q=0.5,de;q=0.4,it;q=0.3","66db15814e7818d8b9593ad5","683dba9a53627eb9ab41b36a","688b6fedd3204f2cd02ba5b1","0","66db15814e7818d8b9593ad5","0","2025-07-31T13:35:25.843Z","","","","","","","","","","","","","","","","win-only","1","g1:NE,g2:SW","0.8","3","0","229027.7","1146","6146.6","23040.9","1","4","4","6","1","1","0","4","4","0.030303030303030304","2175.8","3000","1425","[""up"",""right""]","{""num_key_presses"":6,""num_perfect"":4,""num_errors"":1,""num_randdir"":1,""num_randdir_good_moves"":0,""num_whilered"":0,""num_whileblue"":1,""num_blue"":1,""num_good_moves"":5}","[733,721.796875,0.1,733,721.796875,104.4,733,721.796875,206,733,721.796875,309.9,733,721.796875,414.6,733,721.796875,515.2,733,721.796875,616.1,733,721.796875,719.6,733,721.796875,825.1,733,721.796875,931,733,721.796875,1035.3,755,705.796875,1139.8,1049,467.796875,1244.7,591,895.796875,1349.7,489,1005.796875,1454.7,1125,377.796875,1554.9,1601,139.796875,1655.2,1551,139.796875,1755.8,1551,139.796875,1860.3,1459,177.796875,1965.1,1393,179.796875,2069.5,1393,179.796875,2170.3,1393,179.796875,2274.8,1393,179.796875,2375.4,1665,559.796875,2479.3,1777,697.796875,2580.3,1777,697.796875,2685.4,1777,697.796875,2790.6,1777,697.796875,2890.8,1777,697.796875,2990.8,1777,697.796875,3094.7,1777,697.796875,3195.2,1777,697.796875,3300.4,1777,697.796875,3405,1777,697.796875,3504.9,1777,697.796875,3610,1777,697.796875,3714.8,1777,697.796875,3819.4,1777,697.796875,3924.6,1777,697.796875,4024.8,1777,697.796875,4124.8,1777,697.796875,4225,1777,697.796875,4330,1777,697.796875,4435.2,1777,697.796875,4539.7,1777,697.796875,4644.8,1777,697.796875,4745,1777,697.796875,4845.1,1777,697.796875,4949.5]","[1349.4,1349.4,1000,0,349.4,""oops"",""up"",""left"",""bad_move"",4016.8,2667.1,2354.5,1349.7,312.6,""smooth"",""right"",""right"",""good_move"",6825.1,2808,2481.7,4017.1,326.3,""smooth"",""right"",""right"",""good_move"",10042.6,3217.2,2923.9,6825.4,293.3,""smooth"",""right"",""right"",""good_move"",13689.6,3646.8,3329.4,10042.8,317.4,""smooth"",""up"",""up"",""good_move"",16807.3,3117.3,2809.3,13690,308,""while_blue"",""up"",""up"",""good_move""]"
"2328","","<div style=""width:500px;"">
  <p>What determined the result of this run?</p>
  </div>","89","html-slider-response","24","254642","0.0-7.0-1.2","113","1","2025-07-31 13:31:12","36c45c0696341be0efffe67d72a12abb","89.154.153.225","Mozilla/5.0 (Macintosh; Intel Mac OS X 10_15_7) AppleWebKit/537.36 (KHTML, like Gecko) Chrome/138.0.0.0 Safari/537.36","Macintosh","Chrome","138.0.0.0","OS X","10_15_7","https://app.prolific.com/","pt-PT,pt;q=0.9,en-US;q=0.8,en;q=0.7,ca;q=0.6,fr;q=0.5,de;q=0.4,it;q=0.3","66db15814e7818d8b9593ad5","683dba9a53627eb9ab41b36a","688b6fedd3204f2cd02ba5b1","0","66db15814e7818d8b9593ad5","0","2025-07-31T13:35:28.173Z","","","","AttribQ","","","","","","","","","","","50","","","","","","","","","","","","","","","","","","","","","","","","","","",""
"3150","","<div style=""width:500px;"">
  <p>How much control did you have over the ball?</p>
  </div>","58","html-slider-response","25","257793","0.0-7.0-2.2","113","1","2025-07-31 13:31:12","36c45c0696341be0efffe67d72a12abb","89.154.153.225","Mozilla/5.0 (Macintosh; Intel Mac OS X 10_15_7) AppleWebKit/537.36 (KHTML, like Gecko) Chrome/138.0.0.0 Safari/537.36","Macintosh","Chrome","138.0.0.0","OS X","10_15_7","https://app.prolific.com/","pt-PT,pt;q=0.9,en-US;q=0.8,en;q=0.7,ca;q=0.6,fr;q=0.5,de;q=0.4,it;q=0.3","66db15814e7818d8b9593ad5","683dba9a53627eb9ab41b36a","688b6fedd3204f2cd02ba5b1","0","66db15814e7818d8b9593ad5","0","2025-07-31T13:35:31.324Z","","","","ControlQ","","","","","","","","","","","50","","","","","","","","","","","","","","","","","","","","","","","","","","",""
"2652","","<div style=""width:500px;"">
  <p>How would you describe your current emotional state?</p>
  </div>","40","html-slider-response","26","260447","0.0-7.0-3.2","113","1","2025-07-31 13:31:12","36c45c0696341be0efffe67d72a12abb","89.154.153.225","Mozilla/5.0 (Macintosh; Intel Mac OS X 10_15_7) AppleWebKit/537.36 (KHTML, like Gecko) Chrome/138.0.0.0 Safari/537.36","Macintosh","Chrome","138.0.0.0","OS X","10_15_7","https://app.prolific.com/","pt-PT,pt;q=0.9,en-US;q=0.8,en;q=0.7,ca;q=0.6,fr;q=0.5,de;q=0.4,it;q=0.3","66db15814e7818d8b9593ad5","683dba9a53627eb9ab41b36a","688b6fedd3204f2cd02ba5b1","0","66db15814e7818d8b9593ad5","0","2025-07-31T13:35:33.978Z","","","","StressQ","","","","","","","","","","","50","","","","","","","","","","","","","","","","","","","","","","","","","","",""
"2155","","<div style=""width:500px;"">
  <p>What best describes how you currently feel?</p>
  </div>","56","html-slider-response","27","262603","0.0-7.0-4.2","113","1","2025-07-31 13:31:12","36c45c0696341be0efffe67d72a12abb","89.154.153.225","Mozilla/5.0 (Macintosh; Intel Mac OS X 10_15_7) AppleWebKit/537.36 (KHTML, like Gecko) Chrome/138.0.0.0 Safari/537.36","Macintosh","Chrome","138.0.0.0","OS X","10_15_7","https://app.prolific.com/","pt-PT,pt;q=0.9,en-US;q=0.8,en;q=0.7,ca;q=0.6,fr;q=0.5,de;q=0.4,it;q=0.3","66db15814e7818d8b9593ad5","683dba9a53627eb9ab41b36a","688b6fedd3204f2cd02ba5b1","0","66db15814e7818d8b9593ad5","0","2025-07-31T13:35:36.134Z","","","","MotivationQ","","","","","","","","","","","50","","","","","","","","","","","","","","","","","","","","","","","","","","",""
"","","","","ctl-task-cpt","28","311976","0.0-7.0-0.3","113","1","2025-07-31 13:31:12","36c45c0696341be0efffe67d72a12abb","89.154.153.225","Mozilla/5.0 (Macintosh; Intel Mac OS X 10_15_7) AppleWebKit/537.36 (KHTML, like Gecko) Chrome/138.0.0.0 Safari/537.36","Macintosh","Chrome","138.0.0.0","OS X","10_15_7","https://app.prolific.com/","pt-PT,pt;q=0.9,en-US;q=0.8,en;q=0.7,ca;q=0.6,fr;q=0.5,de;q=0.4,it;q=0.3","66db15814e7818d8b9593ad5","683dba9a53627eb9ab41b36a","688b6fedd3204f2cd02ba5b1","0","66db15814e7818d8b9593ad5","0","2025-07-31T13:36:25.508Z","","","","","","","","","","","","","","","","win-only","1","g1:NE,g2:SW","0.7","4","0","265372.5","998.2","6000.7","46365.7","1","4","8","6","2","8","8","12","4","0.09090909090909091","1483.2","3000","50","[""down"",""left""]","{""num_key_presses"":8,""num_perfect"":6,""num_errors"":0,""num_randdir"":2,""num_randdir_good_moves"":1,""num_whilered"":0,""num_whileblue"":0,""num_blue"":6,""num_good_moves"":7}","[723,729.796875,0.1,723,729.796875,102.6,723,729.796875,202.7,723,729.796875,302.6,723,729.796875,402.6,723,729.796875,508.5,723,729.796875,612.3,723,729.796875,712.3,723,729.796875,812.9,679,777.796875,917.5,235,1339.796875,1017.9,217,1349.796875,1124.5,227,1325.796875,1227.7,209,1303.796875,1328,209,1303.796875,1433.3,209,1303.796875,1537.1,209,1303.796875,1637.3,817,1255.796875,1742.7,1577,1317.796875,1842.9,1577,1317.796875,1944.9,1577,1317.796875,2047.3,1577,1317.796875,2147.6,1577,1317.796875,2248.8,1577,1317.796875,2352.5,1577,1317.796875,2452.7,1577,1317.796875,2558.5,1577,1317.796875,2658.6,1577,1317.796875,2762,1577,1317.796875,2863.1,1577,1317.796875,2967.4,1577,1317.796875,3067.6,1577,1317.796875,3167.8,1577,1317.796875,3274.3,1577,1317.796875,3377.7,1577,1317.796875,3477.9,1577,1317.796875,3583.8,1577,1317.796875,3687.3,1577,1317.796875,3793.7,1577,1317.796875,3897,1577,1317.796875,3997,1577,1317.796875,4098.1,1577,1317.796875,4202.5,1577,1317.796875,4303.7,1577,1317.796875,4404.2,1577,1317.796875,4507.1,1577,1317.796875,4611.9,1577,1317.796875,4713,1577,1317.796875,4818.5,1577,1317.796875,4922.6]","[1324.9,1324.9,1000,0,324.9,""smooth"",""down"",""down"",""good_move"",3742.9,2417.6,2113.4,1325.3,304.2,""smooth"",""down"",""down"",""good_move"",6408,2664.9,2323.8,3743.1,341.1,""smooth"",""left"",""left"",""good_move"",12627.1,6218.8,2038.1,10185.1,403.9,""smooth"",""left"",""left"",""good_move"",18110.1,5482.8,2075.5,15695.2,339.4,""oops"",""left"",""up"",""bad_move"",24717.5,6607,2208.1,22100.2,409.2,""smooth"",""down"",""down"",""good_move"",37249.5,12531.7,2741.1,34040.7,467.7,""oops"",""left"",""down"",""good_move"",40275.6,3026,2631.5,37249.6,394.5,""smooth"",""left"",""left"",""good_move""]"
"2317","","<div style=""width:500px;"">
  <p>What determined the result of this run?</p>
  </div>","34","html-slider-response","29","314295","0.0-7.0-1.3","113","1","2025-07-31 13:31:12","36c45c0696341be0efffe67d72a12abb","89.154.153.225","Mozilla/5.0 (Macintosh; Intel Mac OS X 10_15_7) AppleWebKit/537.36 (KHTML, like Gecko) Chrome/138.0.0.0 Safari/537.36","Macintosh","Chrome","138.0.0.0","OS X","10_15_7","https://app.prolific.com/","pt-PT,pt;q=0.9,en-US;q=0.8,en;q=0.7,ca;q=0.6,fr;q=0.5,de;q=0.4,it;q=0.3","66db15814e7818d8b9593ad5","683dba9a53627eb9ab41b36a","688b6fedd3204f2cd02ba5b1","0","66db15814e7818d8b9593ad5","0","2025-07-31T13:36:27.826Z","","","","AttribQ","","","","","","","","","","","50","","","","","","","","","","","","","","","","","","","","","","","","","","",""
"3636","","<div style=""width:500px;"">
  <p>How much control did you have over the ball?</p>
  </div>","42","html-slider-response","30","317931","0.0-7.0-2.3","113","1","2025-07-31 13:31:12","36c45c0696341be0efffe67d72a12abb","89.154.153.225","Mozilla/5.0 (Macintosh; Intel Mac OS X 10_15_7) AppleWebKit/537.36 (KHTML, like Gecko) Chrome/138.0.0.0 Safari/537.36","Macintosh","Chrome","138.0.0.0","OS X","10_15_7","https://app.prolific.com/","pt-PT,pt;q=0.9,en-US;q=0.8,en;q=0.7,ca;q=0.6,fr;q=0.5,de;q=0.4,it;q=0.3","66db15814e7818d8b9593ad5","683dba9a53627eb9ab41b36a","688b6fedd3204f2cd02ba5b1","0","66db15814e7818d8b9593ad5","0","2025-07-31T13:36:31.463Z","","","","ControlQ","","","","","","","","","","","50","","","","","","","","","","","","","","","","","","","","","","","","","","",""
"2193","","<div style=""width:500px;"">
  <p>How would you describe your current emotional state?</p>
  </div>","41","html-slider-response","31","320125","0.0-7.0-3.3","113","1","2025-07-31 13:31:12","36c45c0696341be0efffe67d72a12abb","89.154.153.225","Mozilla/5.0 (Macintosh; Intel Mac OS X 10_15_7) AppleWebKit/537.36 (KHTML, like Gecko) Chrome/138.0.0.0 Safari/537.36","Macintosh","Chrome","138.0.0.0","OS X","10_15_7","https://app.prolific.com/","pt-PT,pt;q=0.9,en-US;q=0.8,en;q=0.7,ca;q=0.6,fr;q=0.5,de;q=0.4,it;q=0.3","66db15814e7818d8b9593ad5","683dba9a53627eb9ab41b36a","688b6fedd3204f2cd02ba5b1","0","66db15814e7818d8b9593ad5","0","2025-07-31T13:36:33.656Z","","","","StressQ","","","","","","","","","","","50","","","","","","","","","","","","","","","","","","","","","","","","","","",""
"3062","","<div style=""width:500px;"">
  <p>What best describes how you currently feel?</p>
  </div>","59","html-slider-response","32","323188","0.0-7.0-4.3","113","1","2025-07-31 13:31:12","36c45c0696341be0efffe67d72a12abb","89.154.153.225","Mozilla/5.0 (Macintosh; Intel Mac OS X 10_15_7) AppleWebKit/537.36 (KHTML, like Gecko) Chrome/138.0.0.0 Safari/537.36","Macintosh","Chrome","138.0.0.0","OS X","10_15_7","https://app.prolific.com/","pt-PT,pt;q=0.9,en-US;q=0.8,en;q=0.7,ca;q=0.6,fr;q=0.5,de;q=0.4,it;q=0.3","66db15814e7818d8b9593ad5","683dba9a53627eb9ab41b36a","688b6fedd3204f2cd02ba5b1","0","66db15814e7818d8b9593ad5","0","2025-07-31T13:36:36.719Z","","","","MotivationQ","","","","","","","","","","","50","","","","","","","","","","","","","","","","","","","","","","","","","","",""
"","","","","ctl-task-cpt","33","347732","0.0-7.0-0.4","113","1","2025-07-31 13:31:12","36c45c0696341be0efffe67d72a12abb","89.154.153.225","Mozilla/5.0 (Macintosh; Intel Mac OS X 10_15_7) AppleWebKit/537.36 (KHTML, like Gecko) Chrome/138.0.0.0 Safari/537.36","Macintosh","Chrome","138.0.0.0","OS X","10_15_7","https://app.prolific.com/","pt-PT,pt;q=0.9,en-US;q=0.8,en;q=0.7,ca;q=0.6,fr;q=0.5,de;q=0.4,it;q=0.3","66db15814e7818d8b9593ad5","683dba9a53627eb9ab41b36a","688b6fedd3204f2cd02ba5b1","0","66db15814e7818d8b9593ad5","0","2025-07-31T13:37:01.263Z","","","","","","","","","","","","","","","","win-only","2","g1:SE,g2:NW","0.6","5","0","325956.6","1017.2","6021.8","21536","1","4","4","6","1","1","1","13","12","0.09848484848484848","1691.1","3000","1120","[""down"",""right""]","{""num_key_presses"":6,""num_perfect"":3,""num_errors"":0,""num_randdir"":3,""num_randdir_good_moves"":2,""num_whilered"":0,""num_whileblue"":0,""num_blue"":0,""num_good_moves"":5}","[725,717.796875,0.1,725,717.796875,104.2,725,717.796875,209.2,725,717.796875,309.5,725,717.796875,414.7,725,717.796875,519.5,725,717.796875,620.1,725,717.796875,723.6,739,735.796875,829.3,1293,1271.796875,935.7,1379,1355.796875,1038.5,1405,1317.796875,1139.2,1425,1295.796875,1244.1,1425,1295.796875,1347.1,1425,1295.796875,1449.5,1425,1295.796875,1549.6,1425,1295.796875,1650.2,1425,1295.796875,1754.2,1425,1295.796875,1859.2,1837,991.796875,1959.2,1981,909.796875,2064.2,1981,909.796875,2169.9,1981,909.796875,2274.1,1981,909.796875,2379.9,1981,909.796875,2484.2,1981,909.796875,2589,1981,909.796875,2694.7,1981,909.796875,2799.5,1981,909.796875,2903.5,1981,909.796875,3004.6,1981,909.796875,3108.7,1981,909.796875,3213.5,1981,909.796875,3313.8,1981,909.796875,3414,1981,909.796875,3520.9,1981,909.796875,3623.2,1981,909.796875,3725.3,1981,909.796875,3829.1,1981,909.796875,3929.7,1981,909.796875,4034.3,1981,909.796875,4139.2,1981,909.796875,4243.7,1981,909.796875,4344.1,1981,909.796875,4444.5,1981,909.796875,4548.4,1981,909.796875,4652.5,1981,909.796875,4753.7,1981,909.796875,4854.1,1981,909.796875,4954.1]","[1337.8,1337.8,1000,0,337.8,""smooth"",""down"",""down"",""good_move"",4305.8,2967.7,2645.1,1338.1,322.6,""smooth"",""right"",""right"",""good_move"",6692.5,2386.3,2069.1,4306.2,317.2,""oops"",""down"",""up"",""bad_move"",9255.2,2562.3,2205.7,6692.9,356.6,""oops"",""down"",""right"",""good_move"",12456.4,3200.9,2910.1,9255.5,290.8,""oops"",""down"",""down"",""good_move"",15421,2964.2,2671.1,12456.8,293.1,""smooth"",""down"",""down"",""good_move""]"
"2588","","<div style=""width:500px;"">
  <p>What determined the result of this run?</p>
  </div>","39","html-slider-response","34","350321","0.0-7.0-1.4","113","1","2025-07-31 13:31:12","36c45c0696341be0efffe67d72a12abb","89.154.153.225","Mozilla/5.0 (Macintosh; Intel Mac OS X 10_15_7) AppleWebKit/537.36 (KHTML, like Gecko) Chrome/138.0.0.0 Safari/537.36","Macintosh","Chrome","138.0.0.0","OS X","10_15_7","https://app.prolific.com/","pt-PT,pt;q=0.9,en-US;q=0.8,en;q=0.7,ca;q=0.6,fr;q=0.5,de;q=0.4,it;q=0.3","66db15814e7818d8b9593ad5","683dba9a53627eb9ab41b36a","688b6fedd3204f2cd02ba5b1","0","66db15814e7818d8b9593ad5","0","2025-07-31T13:37:03.852Z","","","","AttribQ","","","","","","","","","","","50","","","","","","","","","","","","","","","","","","","","","","","","","","",""
"2184","","<div style=""width:500px;"">
  <p>How much control did you have over the ball?</p>
  </div>","56","html-slider-response","35","352505","0.0-7.0-2.4","113","1","2025-07-31 13:31:12","36c45c0696341be0efffe67d72a12abb","89.154.153.225","Mozilla/5.0 (Macintosh; Intel Mac OS X 10_15_7) AppleWebKit/537.36 (KHTML, like Gecko) Chrome/138.0.0.0 Safari/537.36","Macintosh","Chrome","138.0.0.0","OS X","10_15_7","https://app.prolific.com/","pt-PT,pt;q=0.9,en-US;q=0.8,en;q=0.7,ca;q=0.6,fr;q=0.5,de;q=0.4,it;q=0.3","66db15814e7818d8b9593ad5","683dba9a53627eb9ab41b36a","688b6fedd3204f2cd02ba5b1","0","66db15814e7818d8b9593ad5","0","2025-07-31T13:37:06.037Z","","","","ControlQ","","","","","","","","","","","50","","","","","","","","","","","","","","","","","","","","","","","","","","",""
"2975","","<div style=""width:500px;"">
  <p>How would you describe your current emotional state?</p>
  </div>","43","html-slider-response","36","355481","0.0-7.0-3.4","113","1","2025-07-31 13:31:12","36c45c0696341be0efffe67d72a12abb","89.154.153.225","Mozilla/5.0 (Macintosh; Intel Mac OS X 10_15_7) AppleWebKit/537.36 (KHTML, like Gecko) Chrome/138.0.0.0 Safari/537.36","Macintosh","Chrome","138.0.0.0","OS X","10_15_7","https://app.prolific.com/","pt-PT,pt;q=0.9,en-US;q=0.8,en;q=0.7,ca;q=0.6,fr;q=0.5,de;q=0.4,it;q=0.3","66db15814e7818d8b9593ad5","683dba9a53627eb9ab41b36a","688b6fedd3204f2cd02ba5b1","0","66db15814e7818d8b9593ad5","0","2025-07-31T13:37:09.012Z","","","","StressQ","","","","","","","","","","","50","","","","","","","","","","","","","","","","","","","","","","","","","","",""
"2439","","<div style=""width:500px;"">
  <p>What best describes how you currently feel?</p>
  </div>","55","html-slider-response","37","357921","0.0-7.0-4.4","113","1","2025-07-31 13:31:12","36c45c0696341be0efffe67d72a12abb","89.154.153.225","Mozilla/5.0 (Macintosh; Intel Mac OS X 10_15_7) AppleWebKit/537.36 (KHTML, like Gecko) Chrome/138.0.0.0 Safari/537.36","Macintosh","Chrome","138.0.0.0","OS X","10_15_7","https://app.prolific.com/","pt-PT,pt;q=0.9,en-US;q=0.8,en;q=0.7,ca;q=0.6,fr;q=0.5,de;q=0.4,it;q=0.3","66db15814e7818d8b9593ad5","683dba9a53627eb9ab41b36a","688b6fedd3204f2cd02ba5b1","0","66db15814e7818d8b9593ad5","0","2025-07-31T13:37:11.452Z","","","","MotivationQ","","","","","","","","","","","50","","","","","","","","","","","","","","","","","","","","","","","","","","",""
"","","","","ctl-task-cpt","38","401817","0.0-7.0-0.5","113","1","2025-07-31 13:31:12","36c45c0696341be0efffe67d72a12abb","89.154.153.225","Mozilla/5.0 (Macintosh; Intel Mac OS X 10_15_7) AppleWebKit/537.36 (KHTML, like Gecko) Chrome/138.0.0.0 Safari/537.36","Macintosh","Chrome","138.0.0.0","OS X","10_15_7","https://app.prolific.com/","pt-PT,pt;q=0.9,en-US;q=0.8,en;q=0.7,ca;q=0.6,fr;q=0.5,de;q=0.4,it;q=0.3","66db15814e7818d8b9593ad5","683dba9a53627eb9ab41b36a","688b6fedd3204f2cd02ba5b1","0","66db15814e7818d8b9593ad5","0","2025-07-31T13:37:55.348Z","","","","","","","","","","","","","","","","win-only","2","g1:SE,g2:NW","0.5","6","0","360689.6","1129.9","6130.9","40885.6","1","4","8","6","2","-8","-9","4","13","0.030303030303030304","1347.4","3000","-3005","[""left"",""up""]","{""num_key_presses"":9,""num_perfect"":4,""num_errors"":1,""num_randdir"":4,""num_randdir_good_moves"":1,""num_whilered"":0,""num_whileblue"":0,""num_blue"":2,""num_good_moves"":5}","[733,729.796875,0.1,733,729.796875,100.5,733,729.796875,200.5,733,729.796875,300.8,733,729.796875,405.3,733,729.796875,505.6,733,729.796875,610.1,733,729.796875,710.2,733,729.796875,810.4,671,687.796875,916,243,241.796875,1021.1,209,191.796875,1126.4,209,191.796875,1226.5,209,191.796875,1331.3,209,191.796875,1435.7,213,191.796875,1541.4,1247,563.796875,1646.2,1303,601.796875,1746.3,1303,601.796875,1850.7,1303,601.796875,1950.7,1303,601.796875,2055.5,1303,601.796875,2156.1,1303,601.796875,2260.2,1303,601.796875,2360.2,1303,601.796875,2460.4,1303,601.796875,2565.4,1303,601.796875,2665.5,1303,601.796875,2765.9,1303,601.796875,2871,1303,601.796875,2971.3,1303,601.796875,3076,1303,601.796875,3180.1,1303,601.796875,3281.3,1303,601.796875,3385.2,1303,601.796875,3485.8,1303,601.796875,3586.3,1303,601.796875,3691.1,1303,601.796875,3791.2,1303,601.796875,3896.2,1303,601.796875,4000.7,1303,601.796875,4107.3,1303,601.796875,4210.1,1303,601.796875,4310.1,1303,601.796875,4410.2,1303,601.796875,4510.2,1303,601.796875,4610.4,1303,601.796875,4716.4,1303,601.796875,4820.9,1303,601.796875,4921.3]","[5051,5051,2553.4,2009.3,488.3,""oops"",""up"",""left"",""good_move"",8102.3,3050.8,2698.8,5051.5,352.1,""smooth"",""up"",""up"",""good_move"",14802.1,6699.4,2908.7,11549.4,344,""smooth"",""up"",""up"",""good_move"",18334,3531.8,3181.2,14802.2,350.6,""smooth"",""left"",""left"",""good_move"",21527.9,3193.6,2871.6,18334.3,322,""oops"",""left"",""right"",""bad_move"",24409.2,2880.9,2527,21528.3,353.9,""oops"",""left"",""right"",""bad_move"",27172.7,2763.3,2397.8,24409.4,365.5,""smooth"",""up"",""up"",""good_move"",27688.6,515.6,2565.9,27173,-2050.3,""error"",""-"",""-"",""no_move"",31152.6,3463.8,2127.6,28689.8,335.2,""oops"",""left"",""down"",""bad_move""]"
"2245","","<div style=""width:500px;"">
  <p>What determined the result of this run?</p>
  </div>","29","html-slider-response","39","404063","0.0-7.0-1.5","113","1","2025-07-31 13:31:12","36c45c0696341be0efffe67d72a12abb","89.154.153.225","Mozilla/5.0 (Macintosh; Intel Mac OS X 10_15_7) AppleWebKit/537.36 (KHTML, like Gecko) Chrome/138.0.0.0 Safari/537.36","Macintosh","Chrome","138.0.0.0","OS X","10_15_7","https://app.prolific.com/","pt-PT,pt;q=0.9,en-US;q=0.8,en;q=0.7,ca;q=0.6,fr;q=0.5,de;q=0.4,it;q=0.3","66db15814e7818d8b9593ad5","683dba9a53627eb9ab41b36a","688b6fedd3204f2cd02ba5b1","0","66db15814e7818d8b9593ad5","0","2025-07-31T13:37:57.594Z","","","","AttribQ","","","","","","","","","","","50","","","","","","","","","","","","","","","","","","","","","","","","","","",""
"1570","","<div style=""width:500px;"">
  <p>How much control did you have over the ball?</p>
  </div>","23","html-slider-response","40","405634","0.0-7.0-2.5","113","1","2025-07-31 13:31:12","36c45c0696341be0efffe67d72a12abb","89.154.153.225","Mozilla/5.0 (Macintosh; Intel Mac OS X 10_15_7) AppleWebKit/537.36 (KHTML, like Gecko) Chrome/138.0.0.0 Safari/537.36","Macintosh","Chrome","138.0.0.0","OS X","10_15_7","https://app.prolific.com/","pt-PT,pt;q=0.9,en-US;q=0.8,en;q=0.7,ca;q=0.6,fr;q=0.5,de;q=0.4,it;q=0.3","66db15814e7818d8b9593ad5","683dba9a53627eb9ab41b36a","688b6fedd3204f2cd02ba5b1","0","66db15814e7818d8b9593ad5","0","2025-07-31T13:37:59.165Z","","","","ControlQ","","","","","","","","","","","50","","","","","","","","","","","","","","","","","","","","","","","","","","",""
"2367","","<div style=""width:500px;"">
  <p>How would you describe your current emotional state?</p>
  </div>","60","html-slider-response","41","408002","0.0-7.0-3.5","113","1","2025-07-31 13:31:12","36c45c0696341be0efffe67d72a12abb","89.154.153.225","Mozilla/5.0 (Macintosh; Intel Mac OS X 10_15_7) AppleWebKit/537.36 (KHTML, like Gecko) Chrome/138.0.0.0 Safari/537.36","Macintosh","Chrome","138.0.0.0","OS X","10_15_7","https://app.prolific.com/","pt-PT,pt;q=0.9,en-US;q=0.8,en;q=0.7,ca;q=0.6,fr;q=0.5,de;q=0.4,it;q=0.3","66db15814e7818d8b9593ad5","683dba9a53627eb9ab41b36a","688b6fedd3204f2cd02ba5b1","0","66db15814e7818d8b9593ad5","0","2025-07-31T13:38:01.534Z","","","","StressQ","","","","","","","","","","","50","","","","","","","","","","","","","","","","","","","","","","","","","","",""
"3038","","<div style=""width:500px;"">
  <p>What best describes how you currently feel?</p>
  </div>","57","html-slider-response","42","411041","0.0-7.0-4.5","113","1","2025-07-31 13:31:12","36c45c0696341be0efffe67d72a12abb","89.154.153.225","Mozilla/5.0 (Macintosh; Intel Mac OS X 10_15_7) AppleWebKit/537.36 (KHTML, like Gecko) Chrome/138.0.0.0 Safari/537.36","Macintosh","Chrome","138.0.0.0","OS X","10_15_7","https://app.prolific.com/","pt-PT,pt;q=0.9,en-US;q=0.8,en;q=0.7,ca;q=0.6,fr;q=0.5,de;q=0.4,it;q=0.3","66db15814e7818d8b9593ad5","683dba9a53627eb9ab41b36a","688b6fedd3204f2cd02ba5b1","0","66db15814e7818d8b9593ad5","0","2025-07-31T13:38:04.572Z","","","","MotivationQ","","","","","","","","","","","50","","","","","","","","","","","","","","","","","","","","","","","","","","",""
"","","","","ctl-task-cpt","43","447147","0.0-7.0-0.6","113","1","2025-07-31 13:31:12","36c45c0696341be0efffe67d72a12abb","89.154.153.225","Mozilla/5.0 (Macintosh; Intel Mac OS X 10_15_7) AppleWebKit/537.36 (KHTML, like Gecko) Chrome/138.0.0.0 Safari/537.36","Macintosh","Chrome","138.0.0.0","OS X","10_15_7","https://app.prolific.com/","pt-PT,pt;q=0.9,en-US;q=0.8,en;q=0.7,ca;q=0.6,fr;q=0.5,de;q=0.4,it;q=0.3","66db15814e7818d8b9593ad5","683dba9a53627eb9ab41b36a","688b6fedd3204f2cd02ba5b1","0","66db15814e7818d8b9593ad5","0","2025-07-31T13:38:40.678Z","","","","","","","","","","","","","","","","win-only","1","g1:NE,g2:SW","0.4","7","0","413810.4","1122.4","6125.5","33095.8","1","4","8","6","2","-8","-8","0","4","0","1434.1","3000","-3000","[""down"",""left""]","{""num_key_presses"":8,""num_perfect"":4,""num_errors"":0,""num_randdir"":4,""num_randdir_good_moves"":1,""num_whilered"":0,""num_whileblue"":0,""num_blue"":1,""num_good_moves"":5}","[731,727.796875,0.1,731,727.796875,103.1,731,727.796875,203.6,731,727.796875,308.2,731,727.796875,408.4,731,727.796875,513.1,731,727.796875,618.6,663,759.796875,723.5,417,961.796875,827.8,415,961.796875,928.7,413,965.796875,1032.8,201,1179.796875,1133.5,175,1231.796875,1238.4,175,1231.796875,1343.3,175,1231.796875,1443.4,175,1231.796875,1548.2,175,1231.796875,1648.2,1101,1047.796875,1748.7,1207,1017.796875,1853,1207,1017.796875,1953,1207,1017.796875,2053.7,1207,1017.796875,2158.1,1207,1017.796875,2258.4,1207,1017.796875,2363.5,1207,1017.796875,2468.1,1207,1017.796875,2573.1,1207,1017.796875,2673.2,1207,1017.796875,2773.3,1207,1017.796875,2873.3,1207,1017.796875,2978.3,1207,1017.796875,3078.6,1207,1017.796875,3183.6,1207,1017.796875,3287.9,1207,1017.796875,3393.4,1207,1017.796875,3498.3,1207,1017.796875,3598.3,1207,1017.796875,3698.4,1207,1017.796875,3803.6,1207,1017.796875,3903.6,1207,1017.796875,4007.7,1207,1017.796875,4108,1207,1017.796875,4212.9,1207,1017.796875,4314.7,1207,1017.796875,4417.9,1207,1017.796875,4518.2,1207,1017.796875,4618.5,1207,1017.796875,4718.7,1207,1017.796875,4823.1,1207,1017.796875,4927.8]","[1336.8,1336.8,1000,0,336.8,""smooth"",""down"",""down"",""good_move"",5038.3,3701.2,3372.6,1337.1,328.6,""oops"",""down"",""up"",""bad_move"",8363.8,3325.2,3007.5,5038.6,317.7,""smooth"",""left"",""left"",""good_move"",11347.2,2982.9,2642.2,8364.3,340.7,""oops"",""left"",""down"",""good_move"",13811.2,2463.7,2089.8,11347.5,373.9,""oops"",""left"",""up"",""bad_move"",19799.9,5988.2,1950.7,17465,384.2,""smooth"",""down"",""down"",""good_move"",22346.6,2546.4,2147.6,19800.2,398.8,""smooth"",""down"",""down"",""good_move"",24617.3,2270.4,1907.3,22346.9,363.1,""oops"",""down"",""right"",""bad_move""]"
"2339","","<div style=""width:500px;"">
  <p>What determined the result of this run?</p>
  </div>","19","html-slider-response","44","449486","0.0-7.0-1.6","113","1","2025-07-31 13:31:12","36c45c0696341be0efffe67d72a12abb","89.154.153.225","Mozilla/5.0 (Macintosh; Intel Mac OS X 10_15_7) AppleWebKit/537.36 (KHTML, like Gecko) Chrome/138.0.0.0 Safari/537.36","Macintosh","Chrome","138.0.0.0","OS X","10_15_7","https://app.prolific.com/","pt-PT,pt;q=0.9,en-US;q=0.8,en;q=0.7,ca;q=0.6,fr;q=0.5,de;q=0.4,it;q=0.3","66db15814e7818d8b9593ad5","683dba9a53627eb9ab41b36a","688b6fedd3204f2cd02ba5b1","0","66db15814e7818d8b9593ad5","0","2025-07-31T13:38:43.017Z","","","","AttribQ","","","","","","","","","","","50","","","","","","","","","","","","","","","","","","","","","","","","","","",""
"2846","","<div style=""width:500px;"">
  <p>How much control did you have over the ball?</p>
  </div>","12","html-slider-response","45","452333","0.0-7.0-2.6","113","1","2025-07-31 13:31:12","36c45c0696341be0efffe67d72a12abb","89.154.153.225","Mozilla/5.0 (Macintosh; Intel Mac OS X 10_15_7) AppleWebKit/537.36 (KHTML, like Gecko) Chrome/138.0.0.0 Safari/537.36","Macintosh","Chrome","138.0.0.0","OS X","10_15_7","https://app.prolific.com/","pt-PT,pt;q=0.9,en-US;q=0.8,en;q=0.7,ca;q=0.6,fr;q=0.5,de;q=0.4,it;q=0.3","66db15814e7818d8b9593ad5","683dba9a53627eb9ab41b36a","688b6fedd3204f2cd02ba5b1","0","66db15814e7818d8b9593ad5","0","2025-07-31T13:38:45.864Z","","","","ControlQ","","","","","","","","","","","50","","","","","","","","","","","","","","","","","","","","","","","","","","",""
"1746","","<div style=""width:500px;"">
  <p>How would you describe your current emotional state?</p>
  </div>","63","html-slider-response","46","454080","0.0-7.0-3.6","113","1","2025-07-31 13:31:12","36c45c0696341be0efffe67d72a12abb","89.154.153.225","Mozilla/5.0 (Macintosh; Intel Mac OS X 10_15_7) AppleWebKit/537.36 (KHTML, like Gecko) Chrome/138.0.0.0 Safari/537.36","Macintosh","Chrome","138.0.0.0","OS X","10_15_7","https://app.prolific.com/","pt-PT,pt;q=0.9,en-US;q=0.8,en;q=0.7,ca;q=0.6,fr;q=0.5,de;q=0.4,it;q=0.3","66db15814e7818d8b9593ad5","683dba9a53627eb9ab41b36a","688b6fedd3204f2cd02ba5b1","0","66db15814e7818d8b9593ad5","0","2025-07-31T13:38:47.611Z","","","","StressQ","","","","","","","","","","","50","","","","","","","","","","","","","","","","","","","","","","","","","","",""
"2336","","<div style=""width:500px;"">
  <p>What best describes how you currently feel?</p>
  </div>","57","html-slider-response","47","456416","0.0-7.0-4.6","113","1","2025-07-31 13:31:12","36c45c0696341be0efffe67d72a12abb","89.154.153.225","Mozilla/5.0 (Macintosh; Intel Mac OS X 10_15_7) AppleWebKit/537.36 (KHTML, like Gecko) Chrome/138.0.0.0 Safari/537.36","Macintosh","Chrome","138.0.0.0","OS X","10_15_7","https://app.prolific.com/","pt-PT,pt;q=0.9,en-US;q=0.8,en;q=0.7,ca;q=0.6,fr;q=0.5,de;q=0.4,it;q=0.3","66db15814e7818d8b9593ad5","683dba9a53627eb9ab41b36a","688b6fedd3204f2cd02ba5b1","0","66db15814e7818d8b9593ad5","0","2025-07-31T13:38:49.948Z","","","","MotivationQ","","","","","","","","","","","50","","","","","","","","","","","","","","","","","","","","","","","","","","",""
"","","","","ctl-task-cpt","48","508036","0.0-7.0-0.7","113","1","2025-07-31 13:31:12","36c45c0696341be0efffe67d72a12abb","89.154.153.225","Mozilla/5.0 (Macintosh; Intel Mac OS X 10_15_7) AppleWebKit/537.36 (KHTML, like Gecko) Chrome/138.0.0.0 Safari/537.36","Macintosh","Chrome","138.0.0.0","OS X","10_15_7","https://app.prolific.com/","pt-PT,pt;q=0.9,en-US;q=0.8,en;q=0.7,ca;q=0.6,fr;q=0.5,de;q=0.4,it;q=0.3","66db15814e7818d8b9593ad5","683dba9a53627eb9ab41b36a","688b6fedd3204f2cd02ba5b1","0","66db15814e7818d8b9593ad5","0","2025-07-31T13:39:41.567Z","","","","","","","","","","","","","","","","win-only","0","g1:NW,g2:SE","0.3","8","0","459185.3","1153.8","6155.9","48610.1","1","4","4","6","2","-4","-4","0","0","0","2536.1","3000","-3000","[""down"",""right""]","{""num_key_presses"":8,""num_perfect"":3,""num_errors"":0,""num_randdir"":5,""num_randdir_good_moves"":3,""num_whilered"":0,""num_whileblue"":0,""num_blue"":5,""num_good_moves"":6}","[739,727.796875,0.2,739,727.796875,101.5,739,727.796875,207,739,727.796875,312.1,755,737.796875,416.7,757,739.796875,516.9,757,739.796875,621.7,769,747.796875,726.9,837,803.796875,832.6,683,699.796875,936.9,453,381.796875,1037.1,453,377.796875,1141.6,441,371.796875,1241.6,283,297.796875,1342.3,167,169.796875,1446.6,163,157.796875,1546.8,169,157.796875,1647,169,157.796875,1751.3,167,157.796875,1852.3,589,553.796875,1957.1,1407,1461.796875,2061.6,1423,1485.796875,2162.2,1421,1451.796875,2267,1391,1335.796875,2371.6,1391,1335.796875,2476.7,1391,1335.796875,2581.6,1391,1335.796875,2687.3,1609,1157.796875,2787.4,1795,1007.796875,2891.7,1795,1007.796875,2992.2,1795,1007.796875,3097.4,1795,1007.796875,3202,1795,1007.796875,3306.9,1795,1007.796875,3411.8,1795,1007.796875,3511.9,1795,1007.796875,3616.8,1795,1007.796875,3716.8,1795,1007.796875,3821.5,1795,1007.796875,3921.6,1795,1007.796875,4027,1795,1007.796875,4127.2,1795,1007.796875,4227.4,1795,1007.796875,4332.3,1795,1007.796875,4436.9,1795,1007.796875,4541.7,1795,1007.796875,4641.9,1795,1007.796875,4747.1,1795,1007.796875,4847.3,1795,1007.796875,4947.3]","[1307.7,1307.7,1000,0,307.7,""oops"",""down"",""down"",""good_move"",10924.3,9616.3,2782.7,7709.7,431.9,""oops"",""down"",""right"",""good_move"",17325.5,6401,2133.1,14799.5,392.9,""oops"",""down"",""right"",""good_move"",20097.5,2771.7,2414.6,17325.8,357.1,""smooth"",""down"",""down"",""good_move"",23427.7,3329.8,2972.6,20097.9,357.2,""smooth"",""down"",""down"",""good_move"",30132.2,6704.3,2762.3,27039.6,330.3,""oops"",""right"",""left"",""bad_move"",32908.2,2775.6,2330.2,30132.6,445.4,""oops"",""right"",""left"",""bad_move"",39971.3,7062.9,2883.8,36735.1,352.4,""smooth"",""right"",""right"",""good_move""]"
"1986","","<div style=""width:500px;"">
  <p>What determined the result of this run?</p>
  </div>","28","html-slider-response","49","510023","0.0-7.0-1.7","113","1","2025-07-31 13:31:12","36c45c0696341be0efffe67d72a12abb","89.154.153.225","Mozilla/5.0 (Macintosh; Intel Mac OS X 10_15_7) AppleWebKit/537.36 (KHTML, like Gecko) Chrome/138.0.0.0 Safari/537.36","Macintosh","Chrome","138.0.0.0","OS X","10_15_7","https://app.prolific.com/","pt-PT,pt;q=0.9,en-US;q=0.8,en;q=0.7,ca;q=0.6,fr;q=0.5,de;q=0.4,it;q=0.3","66db15814e7818d8b9593ad5","683dba9a53627eb9ab41b36a","688b6fedd3204f2cd02ba5b1","0","66db15814e7818d8b9593ad5","0","2025-07-31T13:39:43.554Z","","","","AttribQ","","","","","","","","","","","50","","","","","","","","","","","","","","","","","","","","","","","","","","",""
"1993","","<div style=""width:500px;"">
  <p>How much control did you have over the ball?</p>
  </div>","31","html-slider-response","50","512017","0.0-7.0-2.7","113","1","2025-07-31 13:31:12","36c45c0696341be0efffe67d72a12abb","89.154.153.225","Mozilla/5.0 (Macintosh; Intel Mac OS X 10_15_7) AppleWebKit/537.36 (KHTML, like Gecko) Chrome/138.0.0.0 Safari/537.36","Macintosh","Chrome","138.0.0.0","OS X","10_15_7","https://app.prolific.com/","pt-PT,pt;q=0.9,en-US;q=0.8,en;q=0.7,ca;q=0.6,fr;q=0.5,de;q=0.4,it;q=0.3","66db15814e7818d8b9593ad5","683dba9a53627eb9ab41b36a","688b6fedd3204f2cd02ba5b1","0","66db15814e7818d8b9593ad5","0","2025-07-31T13:39:45.548Z","","","","ControlQ","","","","","","","","","","","50","","","","","","","","","","","","","","","","","","","","","","","","","","",""
"2296","","<div style=""width:500px;"">
  <p>How would you describe your current emotional state?</p>
  </div>","67","html-slider-response","51","514314","0.0-7.0-3.7","113","1","2025-07-31 13:31:12","36c45c0696341be0efffe67d72a12abb","89.154.153.225","Mozilla/5.0 (Macintosh; Intel Mac OS X 10_15_7) AppleWebKit/537.36 (KHTML, like Gecko) Chrome/138.0.0.0 Safari/537.36","Macintosh","Chrome","138.0.0.0","OS X","10_15_7","https://app.prolific.com/","pt-PT,pt;q=0.9,en-US;q=0.8,en;q=0.7,ca;q=0.6,fr;q=0.5,de;q=0.4,it;q=0.3","66db15814e7818d8b9593ad5","683dba9a53627eb9ab41b36a","688b6fedd3204f2cd02ba5b1","0","66db15814e7818d8b9593ad5","0","2025-07-31T13:39:47.845Z","","","","StressQ","","","","","","","","","","","50","","","","","","","","","","","","","","","","","","","","","","","","","","",""
"1969","","<div style=""width:500px;"">
  <p>What best describes how you currently feel?</p>
  </div>","67","html-slider-response","52","516284","0.0-7.0-4.7","113","1","2025-07-31 13:31:12","36c45c0696341be0efffe67d72a12abb","89.154.153.225","Mozilla/5.0 (Macintosh; Intel Mac OS X 10_15_7) AppleWebKit/537.36 (KHTML, like Gecko) Chrome/138.0.0.0 Safari/537.36","Macintosh","Chrome","138.0.0.0","OS X","10_15_7","https://app.prolific.com/","pt-PT,pt;q=0.9,en-US;q=0.8,en;q=0.7,ca;q=0.6,fr;q=0.5,de;q=0.4,it;q=0.3","66db15814e7818d8b9593ad5","683dba9a53627eb9ab41b36a","688b6fedd3204f2cd02ba5b1","0","66db15814e7818d8b9593ad5","0","2025-07-31T13:39:49.815Z","","","","MotivationQ","","","","","","","","","","","50","","","","","","","","","","","","","","","","","","","","","","","","","","",""
"","","","","ctl-task-cpt","53","560595","0.0-7.0-0.8","113","1","2025-07-31 13:31:12","36c45c0696341be0efffe67d72a12abb","89.154.153.225","Mozilla/5.0 (Macintosh; Intel Mac OS X 10_15_7) AppleWebKit/537.36 (KHTML, like Gecko) Chrome/138.0.0.0 Safari/537.36","Macintosh","Chrome","138.0.0.0","OS X","10_15_7","https://app.prolific.com/","pt-PT,pt;q=0.9,en-US;q=0.8,en;q=0.7,ca;q=0.6,fr;q=0.5,de;q=0.4,it;q=0.3","66db15814e7818d8b9593ad5","683dba9a53627eb9ab41b36a","688b6fedd3204f2cd02ba5b1","0","66db15814e7818d8b9593ad5","0","2025-07-31T13:40:34.126Z","","","","","","","","","","","","","","","","win-only","3","g1:SW,g2:NE","0.4","9","0","519053.2","1217.6","6221.3","41300.4","1","4","4","6","2","-4","-5","0","0","0","1093","3000","-3000","[""up"",""right""]","{""num_key_presses"":9,""num_perfect"":4,""num_errors"":1,""num_randdir"":4,""num_randdir_good_moves"":1,""num_whilered"":0,""num_whileblue"":1,""num_blue"":3,""num_good_moves"":5}","[735,725.796875,0.2,735,725.796875,102.6,735,725.796875,202.6,735,725.796875,302.6,735,725.796875,402.8,735,725.796875,508.4,735,725.796875,608.4,869,599.796875,712.7,1265,233.796875,813.4,1265,233.796875,918.1,1265,233.796875,1018.6,1265,233.796875,1123.3,1265,233.796875,1223.5,1363,247.796875,1327.9,1807,447.796875,1432.8,1807,447.796875,1533.3,1807,447.796875,1638.7,1807,447.796875,1742.9,1807,447.796875,1843.5,1807,447.796875,1948.7,1807,447.796875,2053.6,1807,447.796875,2157.9,1807,447.796875,2258.5,1807,447.796875,2363.3,1807,447.796875,2467.5,1807,447.796875,2568.2,1807,447.796875,2673.5,1807,447.796875,2778,1807,447.796875,2878.5,1807,447.796875,2983,1807,447.796875,3083,1807,447.796875,3183.2,1807,447.796875,3288.5,1807,447.796875,3388.6,1807,447.796875,3488.6,1807,447.796875,3592.9,1807,447.796875,3698.2,1807,447.796875,3798.5,1807,447.796875,3903.1,1807,447.796875,4008.4,1807,447.796875,4112.9,1807,447.796875,4213.2,1807,447.796875,4318.8,1807,447.796875,4422.9,1807,447.796875,4525.9,1807,447.796875,4628.2,1807,447.796875,4728.3,1807,447.796875,4833,1807,447.796875,4938.3]","[1274,1274,1000,0,274,""smooth"",""up"",""up"",""good_move"",4908.3,3634,3342.9,1274.3,291.1,""smooth"",""up"",""up"",""good_move"",8074.1,3165.5,2840.1,4908.6,325.4,""oops"",""right"",""left"",""bad_move"",11083.9,3009.5,2690.2,8074.4,319.3,""while_blue"",""up"",""down"",""bad_move"",17192.5,6108.3,2243.7,14529.1,419.7,""oops"",""right"",""left"",""bad_move"",20462.4,3269.6,2807.6,17192.8,462,""smooth"",""up"",""up"",""good_move"",23516.3,3053.7,2641.4,20462.7,412.3,""oops"",""up"",""right"",""good_move"",26260,2743.3,2378.2,23516.7,365.1,""oops"",""up"",""down"",""bad_move"",29215.4,2955.2,2627.5,26260.2,327.7,""smooth"",""right"",""right"",""good_move""]"
"5211","","<div style=""width:500px;"">
  <p>What determined the result of this run?</p>
  </div>","21","html-slider-response","54","565807","0.0-7.0-1.8","113","1","2025-07-31 13:31:12","36c45c0696341be0efffe67d72a12abb","89.154.153.225","Mozilla/5.0 (Macintosh; Intel Mac OS X 10_15_7) AppleWebKit/537.36 (KHTML, like Gecko) Chrome/138.0.0.0 Safari/537.36","Macintosh","Chrome","138.0.0.0","OS X","10_15_7","https://app.prolific.com/","pt-PT,pt;q=0.9,en-US;q=0.8,en;q=0.7,ca;q=0.6,fr;q=0.5,de;q=0.4,it;q=0.3","66db15814e7818d8b9593ad5","683dba9a53627eb9ab41b36a","688b6fedd3204f2cd02ba5b1","0","66db15814e7818d8b9593ad5","0","2025-07-31T13:40:39.339Z","","","","AttribQ","","","","","","","","","","","50","","","","","","","","","","","","","","","","","","","","","","","","","","",""
"7343","","<div style=""width:500px;"">
  <p>How much control did you have over the ball?</p>
  </div>","14","html-slider-response","55","573152","0.0-7.0-2.8","113","1","2025-07-31 13:31:12","36c45c0696341be0efffe67d72a12abb","89.154.153.225","Mozilla/5.0 (Macintosh; Intel Mac OS X 10_15_7) AppleWebKit/537.36 (KHTML, like Gecko) Chrome/138.0.0.0 Safari/537.36","Macintosh","Chrome","138.0.0.0","OS X","10_15_7","https://app.prolific.com/","pt-PT,pt;q=0.9,en-US;q=0.8,en;q=0.7,ca;q=0.6,fr;q=0.5,de;q=0.4,it;q=0.3","66db15814e7818d8b9593ad5","683dba9a53627eb9ab41b36a","688b6fedd3204f2cd02ba5b1","0","66db15814e7818d8b9593ad5","0","2025-07-31T13:40:46.683Z","","","","ControlQ","","","","","","","","","","","50","","","","","","","","","","","","","","","","","","","","","","","","","","",""
"1818","","<div style=""width:500px;"">
  <p>How would you describe your current emotional state?</p>
  </div>","71","html-slider-response","56","574970","0.0-7.0-3.8","113","1","2025-07-31 13:31:12","36c45c0696341be0efffe67d72a12abb","89.154.153.225","Mozilla/5.0 (Macintosh; Intel Mac OS X 10_15_7) AppleWebKit/537.36 (KHTML, like Gecko) Chrome/138.0.0.0 Safari/537.36","Macintosh","Chrome","138.0.0.0","OS X","10_15_7","https://app.prolific.com/","pt-PT,pt;q=0.9,en-US;q=0.8,en;q=0.7,ca;q=0.6,fr;q=0.5,de;q=0.4,it;q=0.3","66db15814e7818d8b9593ad5","683dba9a53627eb9ab41b36a","688b6fedd3204f2cd02ba5b1","0","66db15814e7818d8b9593ad5","0","2025-07-31T13:40:48.501Z","","","","StressQ","","","","","","","","","","","50","","","","","","","","","","","","","","","","","","","","","","","","","","",""
"1650","","<div style=""width:500px;"">
  <p>What best describes how you currently feel?</p>
  </div>","61","html-slider-response","57","576621","0.0-7.0-4.8","113","1","2025-07-31 13:31:12","36c45c0696341be0efffe67d72a12abb","89.154.153.225","Mozilla/5.0 (Macintosh; Intel Mac OS X 10_15_7) AppleWebKit/537.36 (KHTML, like Gecko) Chrome/138.0.0.0 Safari/537.36","Macintosh","Chrome","138.0.0.0","OS X","10_15_7","https://app.prolific.com/","pt-PT,pt;q=0.9,en-US;q=0.8,en;q=0.7,ca;q=0.6,fr;q=0.5,de;q=0.4,it;q=0.3","66db15814e7818d8b9593ad5","683dba9a53627eb9ab41b36a","688b6fedd3204f2cd02ba5b1","0","66db15814e7818d8b9593ad5","0","2025-07-31T13:40:50.152Z","","","","MotivationQ","","","","","","","","","","","50","","","","","","","","","","","","","","","","","","","","","","","","","","",""
"","","","","ctl-task-cpt","58","605366","0.0-7.0-0.9","113","1","2025-07-31 13:31:12","36c45c0696341be0efffe67d72a12abb","89.154.153.225","Mozilla/5.0 (Macintosh; Intel Mac OS X 10_15_7) AppleWebKit/537.36 (KHTML, like Gecko) Chrome/138.0.0.0 Safari/537.36","Macintosh","Chrome","138.0.0.0","OS X","10_15_7","https://app.prolific.com/","pt-PT,pt;q=0.9,en-US;q=0.8,en;q=0.7,ca;q=0.6,fr;q=0.5,de;q=0.4,it;q=0.3","66db15814e7818d8b9593ad5","683dba9a53627eb9ab41b36a","688b6fedd3204f2cd02ba5b1","0","66db15814e7818d8b9593ad5","0","2025-07-31T13:41:18.897Z","","","","","","","","","","","","","","","","win-only","2","g1:SE,g2:NW","0.5","10","0","579390.1","891.2","5895.7","25735.6","1","4","8","6","2","-8","-8","0","0","0","1052.1","3000","-3005","[""left"",""up""]","{""num_key_presses"":7,""num_perfect"":4,""num_errors"":0,""num_randdir"":3,""num_randdir_good_moves"":1,""num_whilered"":0,""num_whileblue"":0,""num_blue"":0,""num_good_moves"":5}","[715,735.796875,0.1,715,735.796875,104,715,735.796875,205.1,715,735.796875,305.1,715,735.796875,409.4,355,361.796875,514,267,271.796875,614.1,247,233.796875,719.1,229,211.796875,819.8,229,211.796875,924.2,229,211.796875,1024.2,229,211.796875,1124.3,229,211.796875,1224.4,399,369.796875,1324.6,563,551.796875,1426.1,563,551.796875,1529.1,563,551.796875,1630,563,551.796875,1734.3,563,551.796875,1839.5,563,551.796875,1939.5,563,551.796875,2044.3,563,551.796875,2144.4,563,551.796875,2244.8,563,551.796875,2349.9,563,551.796875,2453.9,563,551.796875,2554,563,551.796875,2654.4,563,551.796875,2759.6,563,551.796875,2864.2,563,551.796875,2964.5,563,551.796875,3069.3,563,551.796875,3169.9,563,551.796875,3274.3,563,551.796875,3374.3,563,551.796875,3474.7,563,551.796875,3574.7,563,551.796875,3679.3,563,551.796875,3780,563,551.796875,3884.9,563,551.796875,3989.1,563,551.796875,4089.2,563,551.796875,4189.4,563,551.796875,4289.5,563,551.796875,4389.5,563,551.796875,4489.5,563,551.796875,4590,563,551.796875,4694.5,563,551.796875,4794.7,563,551.796875,4899,563,551.796875,4999.1]","[1363.3,1363.4,1000,0,363.4,""oops"",""up"",""down"",""bad_move"",4229.5,2865.8,2483,1363.7,382.8,""smooth"",""left"",""left"",""good_move"",6920.5,2690.7,2300.9,4229.8,389.8,""smooth"",""left"",""left"",""good_move"",9613.1,2692.5,2307.8,6920.6,384.7,""smooth"",""up"",""up"",""good_move"",12612.8,2999.5,2656.2,9613.3,343.3,""oops"",""up"",""up"",""good_move"",14762,2149,1586.8,12613,562.2,""oops"",""up"",""right"",""bad_move"",17177.5,2415.3,2067.2,14762.2,348.1,""smooth"",""up"",""up"",""good_move""]"
"2424","","<div style=""width:500px;"">
  <p>What determined the result of this run?</p>
  </div>","31","html-slider-response","59","607791","0.0-7.0-1.9","113","1","2025-07-31 13:31:12","36c45c0696341be0efffe67d72a12abb","89.154.153.225","Mozilla/5.0 (Macintosh; Intel Mac OS X 10_15_7) AppleWebKit/537.36 (KHTML, like Gecko) Chrome/138.0.0.0 Safari/537.36","Macintosh","Chrome","138.0.0.0","OS X","10_15_7","https://app.prolific.com/","pt-PT,pt;q=0.9,en-US;q=0.8,en;q=0.7,ca;q=0.6,fr;q=0.5,de;q=0.4,it;q=0.3","66db15814e7818d8b9593ad5","683dba9a53627eb9ab41b36a","688b6fedd3204f2cd02ba5b1","0","66db15814e7818d8b9593ad5","0","2025-07-31T13:41:21.322Z","","","","AttribQ","","","","","","","","","","","50","","","","","","","","","","","","","","","","","","","","","","","","","","",""
"3206","","<div style=""width:500px;"">
  <p>How much control did you have over the ball?</p>
  </div>","21","html-slider-response","60","610997","0.0-7.0-2.9","113","1","2025-07-31 13:31:12","36c45c0696341be0efffe67d72a12abb","89.154.153.225","Mozilla/5.0 (Macintosh; Intel Mac OS X 10_15_7) AppleWebKit/537.36 (KHTML, like Gecko) Chrome/138.0.0.0 Safari/537.36","Macintosh","Chrome","138.0.0.0","OS X","10_15_7","https://app.prolific.com/","pt-PT,pt;q=0.9,en-US;q=0.8,en;q=0.7,ca;q=0.6,fr;q=0.5,de;q=0.4,it;q=0.3","66db15814e7818d8b9593ad5","683dba9a53627eb9ab41b36a","688b6fedd3204f2cd02ba5b1","0","66db15814e7818d8b9593ad5","0","2025-07-31T13:41:24.529Z","","","","ControlQ","","","","","","","","","","","50","","","","","","","","","","","","","","","","","","","","","","","","","","",""
"1921","","<div style=""width:500px;"">
  <p>How would you describe your current emotional state?</p>
  </div>","82","html-slider-response","61","612919","0.0-7.0-3.9","113","1","2025-07-31 13:31:12","36c45c0696341be0efffe67d72a12abb","89.154.153.225","Mozilla/5.0 (Macintosh; Intel Mac OS X 10_15_7) AppleWebKit/537.36 (KHTML, like Gecko) Chrome/138.0.0.0 Safari/537.36","Macintosh","Chrome","138.0.0.0","OS X","10_15_7","https://app.prolific.com/","pt-PT,pt;q=0.9,en-US;q=0.8,en;q=0.7,ca;q=0.6,fr;q=0.5,de;q=0.4,it;q=0.3","66db15814e7818d8b9593ad5","683dba9a53627eb9ab41b36a","688b6fedd3204f2cd02ba5b1","0","66db15814e7818d8b9593ad5","0","2025-07-31T13:41:26.450Z","","","","StressQ","","","","","","","","","","","50","","","","","","","","","","","","","","","","","","","","","","","","","","",""
"2352","","<div style=""width:500px;"">
  <p>What best describes how you currently feel?</p>
  </div>","47","html-slider-response","62","615271","0.0-7.0-4.9","113","1","2025-07-31 13:31:12","36c45c0696341be0efffe67d72a12abb","89.154.153.225","Mozilla/5.0 (Macintosh; Intel Mac OS X 10_15_7) AppleWebKit/537.36 (KHTML, like Gecko) Chrome/138.0.0.0 Safari/537.36","Macintosh","Chrome","138.0.0.0","OS X","10_15_7","https://app.prolific.com/","pt-PT,pt;q=0.9,en-US;q=0.8,en;q=0.7,ca;q=0.6,fr;q=0.5,de;q=0.4,it;q=0.3","66db15814e7818d8b9593ad5","683dba9a53627eb9ab41b36a","688b6fedd3204f2cd02ba5b1","0","66db15814e7818d8b9593ad5","0","2025-07-31T13:41:28.802Z","","","","MotivationQ","","","","","","","","","","","50","","","","","","","","","","","","","","","","","","","","","","","","","","",""
"","","","","ctl-task-cpt","63","645951","0.0-7.0-0.10","113","1","2025-07-31 13:31:12","36c45c0696341be0efffe67d72a12abb","89.154.153.225","Mozilla/5.0 (Macintosh; Intel Mac OS X 10_15_7) AppleWebKit/537.36 (KHTML, like Gecko) Chrome/138.0.0.0 Safari/537.36","Macintosh","Chrome","138.0.0.0","OS X","10_15_7","https://app.prolific.com/","pt-PT,pt;q=0.9,en-US;q=0.8,en;q=0.7,ca;q=0.6,fr;q=0.5,de;q=0.4,it;q=0.3","66db15814e7818d8b9593ad5","683dba9a53627eb9ab41b36a","688b6fedd3204f2cd02ba5b1","0","66db15814e7818d8b9593ad5","0","2025-07-31T13:41:59.482Z","","","","","","","","","","","","","","","","win-only","2","g1:SE,g2:NW","0.6","11","0","618040.6","1306.4","6311.2","27670.7","1","4","8","6","2","-8","-8","0","0","0","1215","3000","-3000","[""left"",""up""]","{""num_key_presses"":6,""num_perfect"":3,""num_errors"":0,""num_randdir"":3,""num_randdir_good_moves"":0,""num_whilered"":0,""num_whileblue"":0,""num_blue"":1,""num_good_moves"":3}","[737,717.796875,0.2,737,717.796875,104.7,737,717.796875,208.6,737,717.796875,309.1,737,717.796875,409.8,737,717.796875,514.7,737,717.796875,619.4,737,717.796875,724,357,369.796875,824.1,177,205.796875,925,153,125.796875,1029.3,153,125.796875,1129.6,153,125.796875,1235.5,153,125.796875,1338.8,241,185.796875,1439.5,729,601.796875,1544.2,729,601.796875,1644.3,729,601.796875,1744.6,729,601.796875,1849.3,729,601.796875,1954.1,729,601.796875,2058.9,729,601.796875,2159,729,601.796875,2259.1,729,601.796875,2359.3,729,601.796875,2464.1,729,601.796875,2564.1,729,601.796875,2668.6,729,601.796875,2769.7,729,601.796875,2874.8,729,601.796875,2978.7,729,601.796875,3079.1,729,601.796875,3184.3,729,601.796875,3288.6,729,601.796875,3389.6,729,601.796875,3489.9,729,601.796875,3593.8,729,601.796875,3694,729,601.796875,3794.1,729,601.796875,3894.6,729,601.796875,3994.6,729,601.796875,4094.6,729,601.796875,4199.3,729,601.796875,4299.5,729,601.796875,4404.6,729,601.796875,4509.2,729,601.796875,4614.2,729,601.796875,4714.3,729,601.796875,4814.3,729,601.796875,4918.8]","[1338.8,1338.8,1000,0,338.8,""smooth"",""up"",""up"",""good_move"",3960.1,2621.1,2298.3,1339,322.8,""smooth"",""up"",""up"",""good_move"",9512.1,5552,1762,7324.1,426.1,""oops"",""left"",""right"",""bad_move"",12204.6,2692.1,1729.9,9512.5,962.2,""oops"",""up"",""down"",""bad_move"",15388.6,3183.5,2780.9,12205.1,402.6,""oops"",""left"",""right"",""bad_move"",18455.9,3067,2748,15388.9,319,""smooth"",""up"",""up"",""good_move""]"
"3056","","<div style=""width:500px;"">
  <p>What determined the result of this run?</p>
  </div>","19","html-slider-response","64","649008","0.0-7.0-1.10","113","1","2025-07-31 13:31:12","36c45c0696341be0efffe67d72a12abb","89.154.153.225","Mozilla/5.0 (Macintosh; Intel Mac OS X 10_15_7) AppleWebKit/537.36 (KHTML, like Gecko) Chrome/138.0.0.0 Safari/537.36","Macintosh","Chrome","138.0.0.0","OS X","10_15_7","https://app.prolific.com/","pt-PT,pt;q=0.9,en-US;q=0.8,en;q=0.7,ca;q=0.6,fr;q=0.5,de;q=0.4,it;q=0.3","66db15814e7818d8b9593ad5","683dba9a53627eb9ab41b36a","688b6fedd3204f2cd02ba5b1","0","66db15814e7818d8b9593ad5","0","2025-07-31T13:42:02.539Z","","","","AttribQ","","","","","","","","","","","50","","","","","","","","","","","","","","","","","","","","","","","","","","",""
"1492","","<div style=""width:500px;"">
  <p>How much control did you have over the ball?</p>
  </div>","6","html-slider-response","65","650501","0.0-7.0-2.10","113","1","2025-07-31 13:31:12","36c45c0696341be0efffe67d72a12abb","89.154.153.225","Mozilla/5.0 (Macintosh; Intel Mac OS X 10_15_7) AppleWebKit/537.36 (KHTML, like Gecko) Chrome/138.0.0.0 Safari/537.36","Macintosh","Chrome","138.0.0.0","OS X","10_15_7","https://app.prolific.com/","pt-PT,pt;q=0.9,en-US;q=0.8,en;q=0.7,ca;q=0.6,fr;q=0.5,de;q=0.4,it;q=0.3","66db15814e7818d8b9593ad5","683dba9a53627eb9ab41b36a","688b6fedd3204f2cd02ba5b1","0","66db15814e7818d8b9593ad5","0","2025-07-31T13:42:04.032Z","","","","ControlQ","","","","","","","","","","","50","","","","","","","","","","","","","","","","","","","","","","","","","","",""
"2478","","<div style=""width:500px;"">
  <p>How would you describe your current emotional state?</p>
  </div>","74","html-slider-response","66","652980","0.0-7.0-3.10","113","1","2025-07-31 13:31:12","36c45c0696341be0efffe67d72a12abb","89.154.153.225","Mozilla/5.0 (Macintosh; Intel Mac OS X 10_15_7) AppleWebKit/537.36 (KHTML, like Gecko) Chrome/138.0.0.0 Safari/537.36","Macintosh","Chrome","138.0.0.0","OS X","10_15_7","https://app.prolific.com/","pt-PT,pt;q=0.9,en-US;q=0.8,en;q=0.7,ca;q=0.6,fr;q=0.5,de;q=0.4,it;q=0.3","66db15814e7818d8b9593ad5","683dba9a53627eb9ab41b36a","688b6fedd3204f2cd02ba5b1","0","66db15814e7818d8b9593ad5","0","2025-07-31T13:42:06.511Z","","","","StressQ","","","","","","","","","","","50","","","","","","","","","","","","","","","","","","","","","","","","","","",""
"2631","","<div style=""width:500px;"">
  <p>What best describes how you currently feel?</p>
  </div>","46","html-slider-response","67","655612","0.0-7.0-4.10","113","1","2025-07-31 13:31:12","36c45c0696341be0efffe67d72a12abb","89.154.153.225","Mozilla/5.0 (Macintosh; Intel Mac OS X 10_15_7) AppleWebKit/537.36 (KHTML, like Gecko) Chrome/138.0.0.0 Safari/537.36","Macintosh","Chrome","138.0.0.0","OS X","10_15_7","https://app.prolific.com/","pt-PT,pt;q=0.9,en-US;q=0.8,en;q=0.7,ca;q=0.6,fr;q=0.5,de;q=0.4,it;q=0.3","66db15814e7818d8b9593ad5","683dba9a53627eb9ab41b36a","688b6fedd3204f2cd02ba5b1","0","66db15814e7818d8b9593ad5","0","2025-07-31T13:42:09.143Z","","","","MotivationQ","","","","","","","","","","","50","","","","","","","","","","","","","","","","","","","","","","","","","","",""
"","","","","ctl-task-cpt","68","684078","0.0-7.0-0.11","113","1","2025-07-31 13:31:12","36c45c0696341be0efffe67d72a12abb","89.154.153.225","Mozilla/5.0 (Macintosh; Intel Mac OS X 10_15_7) AppleWebKit/537.36 (KHTML, like Gecko) Chrome/138.0.0.0 Safari/537.36","Macintosh","Chrome","138.0.0.0","OS X","10_15_7","https://app.prolific.com/","pt-PT,pt;q=0.9,en-US;q=0.8,en;q=0.7,ca;q=0.6,fr;q=0.5,de;q=0.4,it;q=0.3","66db15814e7818d8b9593ad5","683dba9a53627eb9ab41b36a","688b6fedd3204f2cd02ba5b1","0","66db15814e7818d8b9593ad5","0","2025-07-31T13:42:37.609Z","","","","","","","","","","","","","","","","win-only","0","g1:NW,g2:SE","0.7","12","0","658380.7","1026.3","6030.2","25455.9","1","4","4","6","2","4","4","4","0","0.030303030303030304","1698.8","3000","745","[""down"",""right""]","{""num_key_presses"":6,""num_perfect"":4,""num_errors"":0,""num_randdir"":2,""num_randdir_good_moves"":2,""num_whilered"":0,""num_whileblue"":0,""num_blue"":1,""num_good_moves"":6}","[725,725.796875,0.2,725,725.796875,104.9,725,725.796875,209.4,725,725.796875,309.6,725,725.796875,409.7,725,725.796875,514,725,725.796875,614,725,725.796875,714,1015,1043.796875,814.3,1125,1175.796875,914.3,1125,1175.796875,1014.3,1465,1369.796875,1114.7,1537,1435.796875,1219,1537,1435.796875,1319.3,1537,1435.796875,1424.4,1445,1375.796875,1529.7,1445,1375.796875,1633.9,1445,1375.796875,1734.3,1445,1375.796875,1834.9,1503,1315.796875,1939.2,1503,1315.796875,2039.5,1503,1315.796875,2139.6,1503,1315.796875,2244.5,1503,1315.796875,2344.9,1503,1315.796875,2444.9,1503,1315.796875,2549.1,1503,1315.796875,2649.7,1503,1315.796875,2749.9,1503,1315.796875,2853.8,1503,1315.796875,2954.6,1503,1315.796875,3060.3,1503,1315.796875,3164.1,1503,1315.796875,3264.7,1503,1315.796875,3370.3,1503,1315.796875,3473.9,1503,1315.796875,3574.8,1503,1315.796875,3679.1,1503,1315.796875,3779.4,1503,1315.796875,3879.7,1503,1315.796875,3985,1503,1315.796875,4088.8,1503,1315.796875,4189.6,1503,1315.796875,4289.6,1503,1315.796875,4394.6,1503,1315.796875,4499.7,1503,1315.796875,4604.5,1503,1315.796875,4704.7,1503,1315.796875,4809.7,1503,1315.796875,4914.3]","[1372.1,1372.1,1000,0,372.1,""smooth"",""down"",""down"",""good_move"",3818.6,2446.3,2098.5,1372.3,347.8,""smooth"",""right"",""right"",""good_move"",10705.2,6886.3,2489.5,7765.8,449.9,""oops"",""down"",""right"",""good_move"",14228.4,3523.1,3131.3,10705.4,391.7,""oops"",""down"",""right"",""good_move"",16821.6,2593,2208,14228.6,385.1,""smooth"",""down"",""down"",""good_move"",19337.5,2515.5,2174,16822,341.5,""smooth"",""down"",""down"",""good_move""]"
"3046","","<div style=""width:500px;"">
  <p>What determined the result of this run?</p>
  </div>","30","html-slider-response","69","687126","0.0-7.0-1.11","113","1","2025-07-31 13:31:12","36c45c0696341be0efffe67d72a12abb","89.154.153.225","Mozilla/5.0 (Macintosh; Intel Mac OS X 10_15_7) AppleWebKit/537.36 (KHTML, like Gecko) Chrome/138.0.0.0 Safari/537.36","Macintosh","Chrome","138.0.0.0","OS X","10_15_7","https://app.prolific.com/","pt-PT,pt;q=0.9,en-US;q=0.8,en;q=0.7,ca;q=0.6,fr;q=0.5,de;q=0.4,it;q=0.3","66db15814e7818d8b9593ad5","683dba9a53627eb9ab41b36a","688b6fedd3204f2cd02ba5b1","0","66db15814e7818d8b9593ad5","0","2025-07-31T13:42:40.657Z","","","","AttribQ","","","","","","","","","","","50","","","","","","","","","","","","","","","","","","","","","","","","","","",""
"1562","","<div style=""width:500px;"">
  <p>How much control did you have over the ball?</p>
  </div>","32","html-slider-response","70","688689","0.0-7.0-2.11","113","1","2025-07-31 13:31:12","36c45c0696341be0efffe67d72a12abb","89.154.153.225","Mozilla/5.0 (Macintosh; Intel Mac OS X 10_15_7) AppleWebKit/537.36 (KHTML, like Gecko) Chrome/138.0.0.0 Safari/537.36","Macintosh","Chrome","138.0.0.0","OS X","10_15_7","https://app.prolific.com/","pt-PT,pt;q=0.9,en-US;q=0.8,en;q=0.7,ca;q=0.6,fr;q=0.5,de;q=0.4,it;q=0.3","66db15814e7818d8b9593ad5","683dba9a53627eb9ab41b36a","688b6fedd3204f2cd02ba5b1","0","66db15814e7818d8b9593ad5","0","2025-07-31T13:42:42.220Z","","","","ControlQ","","","","","","","","","","","50","","","","","","","","","","","","","","","","","","","","","","","","","","",""
"2360","","<div style=""width:500px;"">
  <p>How would you describe your current emotional state?</p>
  </div>","66","html-slider-response","71","691049","0.0-7.0-3.11","113","1","2025-07-31 13:31:12","36c45c0696341be0efffe67d72a12abb","89.154.153.225","Mozilla/5.0 (Macintosh; Intel Mac OS X 10_15_7) AppleWebKit/537.36 (KHTML, like Gecko) Chrome/138.0.0.0 Safari/537.36","Macintosh","Chrome","138.0.0.0","OS X","10_15_7","https://app.prolific.com/","pt-PT,pt;q=0.9,en-US;q=0.8,en;q=0.7,ca;q=0.6,fr;q=0.5,de;q=0.4,it;q=0.3","66db15814e7818d8b9593ad5","683dba9a53627eb9ab41b36a","688b6fedd3204f2cd02ba5b1","0","66db15814e7818d8b9593ad5","0","2025-07-31T13:42:44.580Z","","","","StressQ","","","","","","","","","","","50","","","","","","","","","","","","","","","","","","","","","","","","","","",""
"1514","","<div style=""width:500px;"">
  <p>What best describes how you currently feel?</p>
  </div>","41","html-slider-response","72","692564","0.0-7.0-4.11","113","1","2025-07-31 13:31:12","36c45c0696341be0efffe67d72a12abb","89.154.153.225","Mozilla/5.0 (Macintosh; Intel Mac OS X 10_15_7) AppleWebKit/537.36 (KHTML, like Gecko) Chrome/138.0.0.0 Safari/537.36","Macintosh","Chrome","138.0.0.0","OS X","10_15_7","https://app.prolific.com/","pt-PT,pt;q=0.9,en-US;q=0.8,en;q=0.7,ca;q=0.6,fr;q=0.5,de;q=0.4,it;q=0.3","66db15814e7818d8b9593ad5","683dba9a53627eb9ab41b36a","688b6fedd3204f2cd02ba5b1","0","66db15814e7818d8b9593ad5","0","2025-07-31T13:42:46.095Z","","","","MotivationQ","","","","","","","","","","","50","","","","","","","","","","","","","","","","","","","","","","","","","","",""
"","","","","ctl-task-cpt","73","737993","0.0-7.0-0.12","113","1","2025-07-31 13:31:12","36c45c0696341be0efffe67d72a12abb","89.154.153.225","Mozilla/5.0 (Macintosh; Intel Mac OS X 10_15_7) AppleWebKit/537.36 (KHTML, like Gecko) Chrome/138.0.0.0 Safari/537.36","Macintosh","Chrome","138.0.0.0","OS X","10_15_7","https://app.prolific.com/","pt-PT,pt;q=0.9,en-US;q=0.8,en;q=0.7,ca;q=0.6,fr;q=0.5,de;q=0.4,it;q=0.3","66db15814e7818d8b9593ad5","683dba9a53627eb9ab41b36a","688b6fedd3204f2cd02ba5b1","0","66db15814e7818d8b9593ad5","0","2025-07-31T13:43:31.524Z","","","","","","","","","","","","","","","","win-only","3","g1:SW,g2:NE","0.8","13","0","695331.1","1214.2","6216.2","42420.3","1","4","8","6","2","-8","-8","0","4","0","1494.5","3000","-2995","[""up"",""right""]","{""num_key_presses"":7,""num_perfect"":6,""num_errors"":0,""num_randdir"":1,""num_randdir_good_moves"":0,""num_whilered"":0,""num_whileblue"":0,""num_blue"":4,""num_good_moves"":6}","[721,731.796875,0.1,721,731.796875,101.2,721,731.796875,201.5,721,731.796875,306.6,721,731.796875,411.2,721,731.796875,511.3,721,731.796875,611.8,721,731.796875,716.4,915,523.796875,816.8,1261,241.796875,921.7,1331,199.796875,1021.9,1363,181.796875,1126.1,1363,181.796875,1226.7,1363,181.796875,1331.5,1363,181.796875,1436,1363,181.796875,1541.1,1363,181.796875,1641.3,1381,377.796875,1746.2,1423,847.796875,1846.8,1423,847.796875,1951.1,1423,847.796875,2051.8,1423,847.796875,2155.8,1423,847.796875,2256.7,1423,847.796875,2361.1,1423,847.796875,2461.1,1423,847.796875,2566.8,1423,847.796875,2671,1423,847.796875,2771.1,1423,847.796875,2871.4,1423,847.796875,2976.1,1423,847.796875,3076.8,1423,847.796875,3181.6,1423,847.796875,3286.9,1423,847.796875,3391.8,1423,847.796875,3496.2,1423,847.796875,3596.5,1423,847.796875,3700.9,1423,847.796875,3801.2,1423,847.796875,3901.4,1423,847.796875,4006,1423,847.796875,4106.9,1423,847.796875,4210.9,1423,847.796875,4311.7,1423,847.796875,4411.9,1423,847.796875,4516.4,1423,847.796875,4616.4,1423,847.796875,4723.9,1423,847.796875,4825.8,1423,847.796875,4925.9]","[1309.5,1309.5,1000,0,309.5,""smooth"",""up"",""up"",""good_move"",4727.1,3417.2,3089.2,1309.9,328,""smooth"",""up"",""up"",""good_move"",8006.9,3279.6,2961.9,4727.3,317.7,""smooth"",""right"",""right"",""good_move"",13669.1,5661.8,2592.7,10644.3,432.1,""smooth"",""right"",""right"",""good_move"",20218.2,6549,2719.5,17109.1,389.6,""smooth"",""right"",""right"",""good_move"",30901.3,10682.9,2542.9,27768.8,589.6,""oops"",""up"",""down"",""bad_move"",33767.3,2865.8,2351.1,30901.6,514.7,""smooth"",""up"",""up"",""good_move""]"
"4348","","<div style=""width:500px;"">
  <p>What determined the result of this run?</p>
  </div>","32","html-slider-response","74","742342","0.0-7.0-1.12","113","1","2025-07-31 13:31:12","36c45c0696341be0efffe67d72a12abb","89.154.153.225","Mozilla/5.0 (Macintosh; Intel Mac OS X 10_15_7) AppleWebKit/537.36 (KHTML, like Gecko) Chrome/138.0.0.0 Safari/537.36","Macintosh","Chrome","138.0.0.0","OS X","10_15_7","https://app.prolific.com/","pt-PT,pt;q=0.9,en-US;q=0.8,en;q=0.7,ca;q=0.6,fr;q=0.5,de;q=0.4,it;q=0.3","66db15814e7818d8b9593ad5","683dba9a53627eb9ab41b36a","688b6fedd3204f2cd02ba5b1","0","66db15814e7818d8b9593ad5","0","2025-07-31T13:43:35.873Z","","","","AttribQ","","","","","","","","","","","50","","","","","","","","","","","","","","","","","","","","","","","","","","",""
"6509","","<div style=""width:500px;"">
  <p>How much control did you have over the ball?</p>
  </div>","26","html-slider-response","75","748851","0.0-7.0-2.12","113","1","2025-07-31 13:31:12","36c45c0696341be0efffe67d72a12abb","89.154.153.225","Mozilla/5.0 (Macintosh; Intel Mac OS X 10_15_7) AppleWebKit/537.36 (KHTML, like Gecko) Chrome/138.0.0.0 Safari/537.36","Macintosh","Chrome","138.0.0.0","OS X","10_15_7","https://app.prolific.com/","pt-PT,pt;q=0.9,en-US;q=0.8,en;q=0.7,ca;q=0.6,fr;q=0.5,de;q=0.4,it;q=0.3","66db15814e7818d8b9593ad5","683dba9a53627eb9ab41b36a","688b6fedd3204f2cd02ba5b1","0","66db15814e7818d8b9593ad5","0","2025-07-31T13:43:42.382Z","","","","ControlQ","","","","","","","","","","","50","","","","","","","","","","","","","","","","","","","","","","","","","","",""
"2297","","<div style=""width:500px;"">
  <p>How would you describe your current emotional state?</p>
  </div>","65","html-slider-response","76","751149","0.0-7.0-3.12","113","1","2025-07-31 13:31:12","36c45c0696341be0efffe67d72a12abb","89.154.153.225","Mozilla/5.0 (Macintosh; Intel Mac OS X 10_15_7) AppleWebKit/537.36 (KHTML, like Gecko) Chrome/138.0.0.0 Safari/537.36","Macintosh","Chrome","138.0.0.0","OS X","10_15_7","https://app.prolific.com/","pt-PT,pt;q=0.9,en-US;q=0.8,en;q=0.7,ca;q=0.6,fr;q=0.5,de;q=0.4,it;q=0.3","66db15814e7818d8b9593ad5","683dba9a53627eb9ab41b36a","688b6fedd3204f2cd02ba5b1","0","66db15814e7818d8b9593ad5","0","2025-07-31T13:43:44.680Z","","","","StressQ","","","","","","","","","","","50","","","","","","","","","","","","","","","","","","","","","","","","","","",""
"5706","","<div style=""width:500px;"">
  <p>What best describes how you currently feel?</p>
  </div>","39","html-slider-response","77","756855","0.0-7.0-4.12","113","1","2025-07-31 13:31:12","36c45c0696341be0efffe67d72a12abb","89.154.153.225","Mozilla/5.0 (Macintosh; Intel Mac OS X 10_15_7) AppleWebKit/537.36 (KHTML, like Gecko) Chrome/138.0.0.0 Safari/537.36","Macintosh","Chrome","138.0.0.0","OS X","10_15_7","https://app.prolific.com/","pt-PT,pt;q=0.9,en-US;q=0.8,en;q=0.7,ca;q=0.6,fr;q=0.5,de;q=0.4,it;q=0.3","66db15814e7818d8b9593ad5","683dba9a53627eb9ab41b36a","688b6fedd3204f2cd02ba5b1","0","66db15814e7818d8b9593ad5","0","2025-07-31T13:43:50.386Z","","","","MotivationQ","","","","","","","","","","","50","","","","","","","","","","","","","","","","","","","","","","","","","","",""
"","","","","ctl-task-cpt","78","794461","0.0-7.0-0.13","113","1","2025-07-31 13:31:12","36c45c0696341be0efffe67d72a12abb","89.154.153.225","Mozilla/5.0 (Macintosh; Intel Mac OS X 10_15_7) AppleWebKit/537.36 (KHTML, like Gecko) Chrome/138.0.0.0 Safari/537.36","Macintosh","Chrome","138.0.0.0","OS X","10_15_7","https://app.prolific.com/","pt-PT,pt;q=0.9,en-US;q=0.8,en;q=0.7,ca;q=0.6,fr;q=0.5,de;q=0.4,it;q=0.3","66db15814e7818d8b9593ad5","683dba9a53627eb9ab41b36a","688b6fedd3204f2cd02ba5b1","0","66db15814e7818d8b9593ad5","0","2025-07-31T13:44:27.992Z","","","","","","","","","","","","","","","","win-only","1","g1:NE,g2:SW","0.9","14","0","759622.4","3379.2","8380.7","34595.4","1","4","4","6","2","4","4","4","0","0.030303030303030304","1451.1","3000","130","[""down"",""left""]","{""num_key_presses"":6,""num_perfect"":5,""num_errors"":0,""num_randdir"":1,""num_randdir_good_moves"":1,""num_whilered"":0,""num_whileblue"":0,""num_blue"":3,""num_good_moves"":6}","[727,725.796875,0.1,727,725.796875,101.6,727,725.796875,206.2,727,725.796875,310.9,727,725.796875,411.7,727,725.796875,516.8,727,725.796875,621.7,633,885.796875,721.9,77,1663.796875,826.6,47,1679.796875,931.4,75,1605.796875,1031.7,135,1393.796875,1136.1,137,1371.796875,1237.1,137,1371.796875,1341.8,137,1371.796875,1441.9,137,1371.796875,1544.8,137,1371.796875,1646.8,137,1371.796875,1750.9,137,1371.796875,1851.1,137,1371.796875,1956.5,137,1371.796875,2056.8,137,1371.796875,2160.8,137,1371.796875,2261.2,137,1371.796875,2366.8,137,1371.796875,2470.8,137,1371.796875,2571.7,137,1371.796875,2671.9,137,1371.796875,2776.2,137,1371.796875,2876.7,137,1371.796875,2981.2,137,1371.796875,3081.8,137,1371.796875,3186.1,137,1371.796875,3286.1,137,1371.796875,3386.7,137,1371.796875,3486.8,137,1371.796875,3586.9,137,1371.796875,3690.8,137,1371.796875,3792,137,1371.796875,3896.3,137,1371.796875,3996.8,137,1371.796875,4096.8,137,1371.796875,4201.7,137,1371.796875,4301.8,137,1371.796875,4406.6,137,1371.796875,4506.6,137,1371.796875,4610.8,137,1371.796875,4710.8,137,1371.796875,4811,137,1371.796875,4916.2]","[1394.2,1394.2,1000,0,394.2,""smooth"",""down"",""down"",""good_move"",4644.7,3250.3,2604,1394.4,646.3,""smooth"",""left"",""left"",""good_move"",6986.6,2341.6,1929.8,4645,411.8,""oops"",""left"",""left"",""good_move"",20128,13141.3,2837,16865.4,425.6,""smooth"",""down"",""down"",""good_move"",23161.6,3033.4,2426.7,20128.2,606.7,""smooth"",""down"",""down"",""good_move"",26128.4,2966.7,2539.1,23161.7,427.6,""smooth"",""left"",""left"",""good_move""]"
"11074","","<div style=""width:500px;"">
  <p>What determined the result of this run?</p>
  </div>","19","html-slider-response","79","805535","0.0-7.0-1.13","113","1","2025-07-31 13:31:12","36c45c0696341be0efffe67d72a12abb","89.154.153.225","Mozilla/5.0 (Macintosh; Intel Mac OS X 10_15_7) AppleWebKit/537.36 (KHTML, like Gecko) Chrome/138.0.0.0 Safari/537.36","Macintosh","Chrome","138.0.0.0","OS X","10_15_7","https://app.prolific.com/","pt-PT,pt;q=0.9,en-US;q=0.8,en;q=0.7,ca;q=0.6,fr;q=0.5,de;q=0.4,it;q=0.3","66db15814e7818d8b9593ad5","683dba9a53627eb9ab41b36a","688b6fedd3204f2cd02ba5b1","0","66db15814e7818d8b9593ad5","0","2025-07-31T13:44:39.066Z","","","","AttribQ","","","","","","","","","","","50","","","","","","","","","","","","","","","","","","","","","","","","","","",""
"2033","","<div style=""width:500px;"">
  <p>How much control did you have over the ball?</p>
  </div>","24","html-slider-response","80","807569","0.0-7.0-2.13","113","1","2025-07-31 13:31:12","36c45c0696341be0efffe67d72a12abb","89.154.153.225","Mozilla/5.0 (Macintosh; Intel Mac OS X 10_15_7) AppleWebKit/537.36 (KHTML, like Gecko) Chrome/138.0.0.0 Safari/537.36","Macintosh","Chrome","138.0.0.0","OS X","10_15_7","https://app.prolific.com/","pt-PT,pt;q=0.9,en-US;q=0.8,en;q=0.7,ca;q=0.6,fr;q=0.5,de;q=0.4,it;q=0.3","66db15814e7818d8b9593ad5","683dba9a53627eb9ab41b36a","688b6fedd3204f2cd02ba5b1","0","66db15814e7818d8b9593ad5","0","2025-07-31T13:44:41.100Z","","","","ControlQ","","","","","","","","","","","50","","","","","","","","","","","","","","","","","","","","","","","","","","",""
"6162","","<div style=""width:500px;"">
  <p>How would you describe your current emotional state?</p>
  </div>","72","html-slider-response","81","813732","0.0-7.0-3.13","113","1","2025-07-31 13:31:12","36c45c0696341be0efffe67d72a12abb","89.154.153.225","Mozilla/5.0 (Macintosh; Intel Mac OS X 10_15_7) AppleWebKit/537.36 (KHTML, like Gecko) Chrome/138.0.0.0 Safari/537.36","Macintosh","Chrome","138.0.0.0","OS X","10_15_7","https://app.prolific.com/","pt-PT,pt;q=0.9,en-US;q=0.8,en;q=0.7,ca;q=0.6,fr;q=0.5,de;q=0.4,it;q=0.3","66db15814e7818d8b9593ad5","683dba9a53627eb9ab41b36a","688b6fedd3204f2cd02ba5b1","0","66db15814e7818d8b9593ad5","0","2025-07-31T13:44:47.263Z","","","","StressQ","","","","","","","","","","","50","","","","","","","","","","","","","","","","","","","","","","","","","","",""
"1802","","<div style=""width:500px;"">
  <p>What best describes how you currently feel?</p>
  </div>","32","html-slider-response","82","815534","0.0-7.0-4.13","113","1","2025-07-31 13:31:12","36c45c0696341be0efffe67d72a12abb","89.154.153.225","Mozilla/5.0 (Macintosh; Intel Mac OS X 10_15_7) AppleWebKit/537.36 (KHTML, like Gecko) Chrome/138.0.0.0 Safari/537.36","Macintosh","Chrome","138.0.0.0","OS X","10_15_7","https://app.prolific.com/","pt-PT,pt;q=0.9,en-US;q=0.8,en;q=0.7,ca;q=0.6,fr;q=0.5,de;q=0.4,it;q=0.3","66db15814e7818d8b9593ad5","683dba9a53627eb9ab41b36a","688b6fedd3204f2cd02ba5b1","0","66db15814e7818d8b9593ad5","0","2025-07-31T13:44:49.066Z","","","","MotivationQ","","","","","","","","","","","50","","","","","","","","","","","","","","","","","","","","","","","","","","",""
"","","","","ctl-task-cpt","83","847400","0.0-7.0-0.14","113","1","2025-07-31 13:31:12","36c45c0696341be0efffe67d72a12abb","89.154.153.225","Mozilla/5.0 (Macintosh; Intel Mac OS X 10_15_7) AppleWebKit/537.36 (KHTML, like Gecko) Chrome/138.0.0.0 Safari/537.36","Macintosh","Chrome","138.0.0.0","OS X","10_15_7","https://app.prolific.com/","pt-PT,pt;q=0.9,en-US;q=0.8,en;q=0.7,ca;q=0.6,fr;q=0.5,de;q=0.4,it;q=0.3","66db15814e7818d8b9593ad5","683dba9a53627eb9ab41b36a","688b6fedd3204f2cd02ba5b1","0","66db15814e7818d8b9593ad5","0","2025-07-31T13:45:20.931Z","","","","","","","","","","","","","","","","win-only","2","g1:SE,g2:NW","1","15","0","818301.8","4511.3","9515.5","28855.4","1","4","4","6","2","4","4","8","4","0.06060606060606061","1355.5","3000","580","[""left"",""up""]","{""num_key_presses"":6,""num_perfect"":6,""num_errors"":0,""num_randdir"":0,""num_randdir_good_moves"":0,""num_whilered"":0,""num_whileblue"":0,""num_blue"":1,""num_good_moves"":6}","[743,711.796875,0.2,743,711.796875,103.9,743,711.796875,204.9,743,711.796875,309.7,743,711.796875,415,743,711.796875,520,669,679.796875,624.1,587,579.796875,724.1,587,579.796875,824.2,459,459.796875,924.3,185,245.796875,1025.1,163,205.796875,1129.8,149,181.796875,1235,149,181.796875,1339.3,149,181.796875,1439.8,149,181.796875,1539.9,337,297.796875,1640.1,815,703.796875,1744.4,815,703.796875,1849,815,703.796875,1949.3,815,703.796875,2049.4,815,703.796875,2154.7,815,703.796875,2254.8,815,703.796875,2359.3,815,703.796875,2459.6,815,703.796875,2559.8,815,703.796875,2665,815,703.796875,2769.9,815,703.796875,2874.6,815,703.796875,2974.7,815,703.796875,3079.6,815,703.796875,3179.8,815,703.796875,3284.2,815,703.796875,3384.9,815,703.796875,3489.5,815,703.796875,3589.8,815,703.796875,3694.4,815,703.796875,3799.5,815,703.796875,3899.5,815,703.796875,4004.2,815,703.796875,4110,815,703.796875,4214.2,815,703.796875,4319.1,815,703.796875,4419.2,815,703.796875,4519.6,815,703.796875,4619.8,815,703.796875,4724.4,815,703.796875,4831.5,815,703.796875,4933.9]","[1362.8,1362.9,1000,0,362.9,""smooth"",""up"",""up"",""good_move"",8212.3,6849.2,2237,5540,435.3,""smooth"",""left"",""left"",""good_move"",10747.5,2534.8,2109.1,8212.7,425.7,""smooth"",""left"",""left"",""good_move"",13920.9,3173.3,2645,10747.7,528.2,""smooth"",""up"",""up"",""good_move"",16455.1,2533.9,2170.3,13921.2,363.6,""smooth"",""up"",""up"",""good_move"",19248.7,2793.4,2455.3,16455.3,338.1,""smooth"",""left"",""left"",""good_move""]"
"3340","","<div style=""width:500px;"">
  <p>What determined the result of this run?</p>
  </div>","42","html-slider-response","84","850741","0.0-7.0-1.14","113","1","2025-07-31 13:31:12","36c45c0696341be0efffe67d72a12abb","89.154.153.225","Mozilla/5.0 (Macintosh; Intel Mac OS X 10_15_7) AppleWebKit/537.36 (KHTML, like Gecko) Chrome/138.0.0.0 Safari/537.36","Macintosh","Chrome","138.0.0.0","OS X","10_15_7","https://app.prolific.com/","pt-PT,pt;q=0.9,en-US;q=0.8,en;q=0.7,ca;q=0.6,fr;q=0.5,de;q=0.4,it;q=0.3","66db15814e7818d8b9593ad5","683dba9a53627eb9ab41b36a","688b6fedd3204f2cd02ba5b1","0","66db15814e7818d8b9593ad5","0","2025-07-31T13:45:24.272Z","","","","AttribQ","","","","","","","","","","","50","","","","","","","","","","","","","","","","","","","","","","","","","","",""
"2401","","<div style=""width:500px;"">
  <p>How much control did you have over the ball?</p>
  </div>","57","html-slider-response","85","853142","0.0-7.0-2.14","113","1","2025-07-31 13:31:12","36c45c0696341be0efffe67d72a12abb","89.154.153.225","Mozilla/5.0 (Macintosh; Intel Mac OS X 10_15_7) AppleWebKit/537.36 (KHTML, like Gecko) Chrome/138.0.0.0 Safari/537.36","Macintosh","Chrome","138.0.0.0","OS X","10_15_7","https://app.prolific.com/","pt-PT,pt;q=0.9,en-US;q=0.8,en;q=0.7,ca;q=0.6,fr;q=0.5,de;q=0.4,it;q=0.3","66db15814e7818d8b9593ad5","683dba9a53627eb9ab41b36a","688b6fedd3204f2cd02ba5b1","0","66db15814e7818d8b9593ad5","0","2025-07-31T13:45:26.673Z","","","","ControlQ","","","","","","","","","","","50","","","","","","","","","","","","","","","","","","","","","","","","","","",""
"2574","","<div style=""width:500px;"">
  <p>How would you describe your current emotional state?</p>
