"rt","response_timestamp","stimulus","response","trial_type","trial_index","time_elapsed","internal_node_id","run_id","condition","recorded_at","source_code_version","ip","user_agent","device","browser","browser_version","platform","platform_version","referer","accept_language","PROLIFIC_PID","STUDY_ID","SESSION_ID","BATCH","prolific_id","batch","realtime","success","question_order","question_id","eventType","responses","item_order","radio_event_ids","radio_event_times","key_event_times","mouse_event_times","straightlining","zigzagging","honeypot","view_history","slider_start","which_type","canvas_config","goals_layout","control_level","trial_number","tutorial_trial_number","trial_start_time","phase1_start_time","phase2_start_time","phase3_start_time","goal_1_value","goal_1_distance","goal_2_value","goal_2_distance","goal_selected","outcome","outcome_total","participant_final_score","participant_initial_score","participant_final_score_prop","goal_choice_rt","allocated_time","allocated_time_remaining","goal_direction","counts","mouse_movements","key_presses"
"7227","1754487039347","<p style='font-size:40px;line-height:1.25'><strong>Welcome to the experiment!</strong></p><p style='font-size:1.1em;line-height:1.25'>Thank you for participanting in our experiment again! You will be asked to play the Dysfunctional Ball Game again. We will briefly recap the rules before we start.</p><p style='font-size:1.1em;line-height:1.25'>Press <strong>Next</strong> to continue.</p>","0","custom-html-button-response","0","7230","0.0-0.0","203","1","2025-08-06 13:30:28","36c45c0696341be0efffe67d72a12abb","194.39.218.23","Mozilla/5.0 (Windows NT 10.0; Win64; x64) AppleWebKit/537.36 (KHTML, like Gecko) Chrome/138.0.0.0 Safari/537.36","WebKit","Chrome","138.0.0.0","Windows","10.0","https://app.prolific.com/","de-DE,de;q=0.9,en-US;q=0.8,en;q=0.7","66ebc8c5e5b772065830754d","6877649eabb845cf142cd221","689358e2a1afbdf1b646402e","1","66ebc8c5e5b772065830754d","1","2025-08-06T13:30:39.348Z","","","","","","","","","","","","","","","","","","","","","","","","","","","","","","","","","","","","","","","","","",""
"39668","","","","fullscreen","1","47901","0.0-1.0","203","1","2025-08-06 13:30:28","36c45c0696341be0efffe67d72a12abb","194.39.218.23","Mozilla/5.0 (Windows NT 10.0; Win64; x64) AppleWebKit/537.36 (KHTML, like Gecko) Chrome/138.0.0.0 Safari/537.36","WebKit","Chrome","138.0.0.0","Windows","10.0","https://app.prolific.com/","de-DE,de;q=0.9,en-US;q=0.8,en;q=0.7","66ebc8c5e5b772065830754d","6877649eabb845cf142cd221","689358e2a1afbdf1b646402e","1","66ebc8c5e5b772065830754d","1","","true","","","","","","","","","","","","","","","","","","","","","","","","","","","","","","","","","","","","","","","","",""
"3566","1754487083585"," <p style='font-size:1.1em;line-height:1.25'>Thank you for closing all other tabs.</p><p style='font-size:1.1em;line-height:1.25'>We will now invite you to fill in some questionnaires, before starting the game.<br>This will take about 5 minutes.<br></p><p style='font-size:1.1em;line-height:1.25'>Press the <strong>Next</strong> button to continue.</p>","0","custom-html-button-response","2","51468","0.0-2.0","203","1","2025-08-06 13:30:28","36c45c0696341be0efffe67d72a12abb","194.39.218.23","Mozilla/5.0 (Windows NT 10.0; Win64; x64) AppleWebKit/537.36 (KHTML, like Gecko) Chrome/138.0.0.0 Safari/537.36","WebKit","Chrome","138.0.0.0","Windows","10.0","https://app.prolific.com/","de-DE,de;q=0.9,en-US;q=0.8,en;q=0.7","66ebc8c5e5b772065830754d","6877649eabb845cf142cd221","689358e2a1afbdf1b646402e","1","66ebc8c5e5b772065830754d","1","2025-08-06T13:31:23.585Z","","","","","","","","","","","","","","","","","","","","","","","","","","","","","","","","","","","","","","","","","",""
"20748","","","{""assigned_sex"":""female""}","survey-multi-choice","3","72218","0.0-3.0-0.0","203","1","2025-08-06 13:30:28","36c45c0696341be0efffe67d72a12abb","194.39.218.23","Mozilla/5.0 (Windows NT 10.0; Win64; x64) AppleWebKit/537.36 (KHTML, like Gecko) Chrome/138.0.0.0 Safari/537.36","WebKit","Chrome","138.0.0.0","Windows","10.0","https://app.prolific.com/","de-DE,de;q=0.9,en-US;q=0.8,en;q=0.7","66ebc8c5e5b772065830754d","6877649eabb845cf142cd221","689358e2a1afbdf1b646402e","1","66ebc8c5e5b772065830754d","1","","","[0]","0","demographics","","","","","","","","","","","","","","","","","","","","","","","","","","","","","","","","","","","","","",""
"2769","1754487107105","<p style='font-size:1.1em;line-height:1.25'>In the following, we will perform a baseline assessment. This means that we will ask you a few questions relating to your experiences over the past month.<br></p><p style='font-size:1.1em;line-height:1.25'>Press the <strong>Next</strong> button to continue.</p>","0","custom-html-button-response","4","74988","0.0-4.0-0.0","203","1","2025-08-06 13:30:28","36c45c0696341be0efffe67d72a12abb","194.39.218.23","Mozilla/5.0 (Windows NT 10.0; Win64; x64) AppleWebKit/537.36 (KHTML, like Gecko) Chrome/138.0.0.0 Safari/537.36","WebKit","Chrome","138.0.0.0","Windows","10.0","https://app.prolific.com/","de-DE,de;q=0.9,en-US;q=0.8,en;q=0.7","66ebc8c5e5b772065830754d","6877649eabb845cf142cd221","689358e2a1afbdf1b646402e","1","66ebc8c5e5b772065830754d","1","2025-08-06T13:31:47.106Z","","","","","","","","","","","","","","","","","","","","","","","","","","","","","","","","","","","","","","","","","",""
"35677.699999999255","","","","survey-template","5","110669","0.0-4.0-1.0","203","1","2025-08-06 13:30:28","36c45c0696341be0efffe67d72a12abb","194.39.218.23","Mozilla/5.0 (Windows NT 10.0; Win64; x64) AppleWebKit/537.36 (KHTML, like Gecko) Chrome/138.0.0.0 Safari/537.36","WebKit","Chrome","138.0.0.0","Windows","10.0","https://app.prolific.com/","de-DE,de;q=0.9,en-US;q=0.8,en;q=0.7","66ebc8c5e5b772065830754d","6877649eabb845cf142cd221","689358e2a1afbdf1b646402e","1","66ebc8c5e5b772065830754d","1","2025-08-06T13:32:22.786Z","","","","pss","{""Q01"":""3"",""Q02"":""3"",""Q03"":""4"",""Q04"":""2"",""Q05"":""3"",""Q06"":""3"",""Q07"":""2"",""Q08"":""3"",""Q09"":""3"",""Q10"":""3""}","[0,1,2,3,4,5,6,7,8,9]","[""Q02"",""Q01"",""Q03"",""Q03"",""Q04"",""Q05"",""Q06"",""Q07"",""Q08"",""Q09"",""Q10""]","[8793,9992.39999999851,13450.099999997765,15082.5,17764.599999997765,20366.5,23355.099999997765,25544.5,28966.5,32691.099999997765,35141.099999997765]","[]","[0,5562.5,7205.300000000745,8418.89999999851,8793,9506.699999999255,9992.39999999851,12684.800000000745,13450.099999997765,15082.5,17764.599999997765,19056.599999997765,19970.800000000745,20366.5,22046.599999997765,23355.099999997765,25544.5,28644.5,28966.5,30090.099999997765,30726.599999997765,32691.099999997765,35141.099999997765,35675.39999999851]","0.5","0.4444444444444444","0","","","","","","","","","","","","","","","","","","","","","","","","","","","","",""
"3579","1754487146366","<p style='font-size:1.1em;line-height:1.25'>Thank you for your answers! Now we will ask you a few more questions relating to your feelings in the last 24 hours.<br></p><p style='font-size:1.1em;line-height:1.25'>Press the <strong>Next</strong> button to continue.</p>","0","custom-html-button-response","6","114249","0.0-4.0-2.0","203","1","2025-08-06 13:30:28","36c45c0696341be0efffe67d72a12abb","194.39.218.23","Mozilla/5.0 (Windows NT 10.0; Win64; x64) AppleWebKit/537.36 (KHTML, like Gecko) Chrome/138.0.0.0 Safari/537.36","WebKit","Chrome","138.0.0.0","Windows","10.0","https://app.prolific.com/","de-DE,de;q=0.9,en-US;q=0.8,en;q=0.7","66ebc8c5e5b772065830754d","6877649eabb845cf142cd221","689358e2a1afbdf1b646402e","1","66ebc8c5e5b772065830754d","1","2025-08-06T13:32:26.367Z","","","","","","","","","","","","","","","","","","","","","","","","","","","","","","","","","","","","","","","","","",""
"41632.60000000149","","","","survey-template","7","155885","0.0-4.0-3.0","203","1","2025-08-06 13:30:28","36c45c0696341be0efffe67d72a12abb","194.39.218.23","Mozilla/5.0 (Windows NT 10.0; Win64; x64) AppleWebKit/537.36 (KHTML, like Gecko) Chrome/138.0.0.0 Safari/537.36","WebKit","Chrome","138.0.0.0","Windows","10.0","https://app.prolific.com/","de-DE,de;q=0.9,en-US;q=0.8,en;q=0.7","66ebc8c5e5b772065830754d","6877649eabb845cf142cd221","689358e2a1afbdf1b646402e","1","66ebc8c5e5b772065830754d","1","2025-08-06T13:33:08.002Z","","","","drsp","{""Q01"":""2"",""Q02"":""2"",""Q03"":""2"",""Q04"":""3"",""Q05"":""3"",""Q06"":""3"",""Q07"":""3"",""Q08"":""2"",""Q09"":""3"",""Q10"":""3"",""Q11"":""3"",""Q12"":""3"",""Q13"":""5"",""Q14"":""2"",""Q15"":""3"",""Q16"":""2"",""Q17"":""2"",""Q18"":""2"",""Q19"":""2"",""Q20"":""3"",""Q21"":""3"",""Q22"":""2""}","[0,1,2,3,4,5,6,7,8,9,10,11,12,13,14,15,16,17,18,19,20,21]","[""Q01"",""Q02"",""Q03"",""Q05"",""Q04"",""Q06"",""Q07"",""Q08"",""Q09"",""Q10"",""Q11"",""Q12"",""Q13"",""Q14"",""Q15"",""Q16"",""Q17"",""Q18"",""Q19"",""Q20"",""Q20"",""Q21"",""Q22""]","[3843.89999999851,5697.699999999255,6882,9910,10734.5,12423.699999999255,12953.699999999255,15017.199999999255,15905.60000000149,17898,18227.800000000745,20038.10000000149,21780.60000000149,23728.5,25431.60000000149,28177.699999999255,29633.60000000149,30975.5,31541.699999999255,32866.199999999255,35655.800000000745,37585.800000000745,39961.800000000745]","[]","[0,3276.699999999255,3539.800000000745,3843.89999999851,5697.699999999255,6882,7911.5,8329.300000000745,9910,10734.5,12423.699999999255,12953.699999999255,15017.199999999255,15629.89999999851,15905.60000000149,16486.699999999255,17898,18227.800000000745,20038.10000000149,20917.89999999851,21404,21780.60000000149,23728.5,24735.199999999255,25101.39999999851,25431.60000000149,27249.89999999851,27867.89999999851,28177.699999999255,28638.699999999255,29075.89999999851,29633.60000000149,30975.5,31541.699999999255,32866.199999999255,35655.800000000745,36902.39999999851,37585.800000000745,39961.800000000745,41630]","0.5","0.3333333333333333","0","","","","","","","","","","","","","","","","","","","","","","","","","","","","",""
"7369.300000000745","","","","survey-template","8","163256","0.0-4.0-4.0","203","1","2025-08-06 13:30:28","36c45c0696341be0efffe67d72a12abb","194.39.218.23","Mozilla/5.0 (Windows NT 10.0; Win64; x64) AppleWebKit/537.36 (KHTML, like Gecko) Chrome/138.0.0.0 Safari/537.36","WebKit","Chrome","138.0.0.0","Windows","10.0","https://app.prolific.com/","de-DE,de;q=0.9,en-US;q=0.8,en;q=0.7","66ebc8c5e5b772065830754d","6877649eabb845cf142cd221","689358e2a1afbdf1b646402e","1","66ebc8c5e5b772065830754d","1","2025-08-06T13:33:15.373Z","","","","stress","{""Q01"":""4"",""Q02"":""3"",""Q03"":""3""}","[0,1,2]","[""Q01"",""Q02"",""Q03""]","[3086.39999999851,5523.39999999851,6798]","[]","[2708.099999997765,3086.39999999851,4562.099999997765,4938.5,5523.39999999851,6798,7368]","0.3333333333333333","0.5","0","","","","","","","","","","","","","","","","","","","","","","","","","","","","",""
"22993","","","","instructions","9","186250","0.0-5.0-0.0","203","1","2025-08-06 13:30:28","36c45c0696341be0efffe67d72a12abb","194.39.218.23","Mozilla/5.0 (Windows NT 10.0; Win64; x64) AppleWebKit/537.36 (KHTML, like Gecko) Chrome/138.0.0.0 Safari/537.36","WebKit","Chrome","138.0.0.0","Windows","10.0","https://app.prolific.com/","de-DE,de;q=0.9,en-US;q=0.8,en;q=0.7","66ebc8c5e5b772065830754d","6877649eabb845cf142cd221","689358e2a1afbdf1b646402e","1","66ebc8c5e5b772065830754d","1","","","","","","","","","","","","","","","[{""page_index"":0,""viewing_time"":22993}]","","","","","","","","","","","","","","","","","","","","","","","","","","","",""
"2134","","<p>Before you start with this game please answer the following three questions yourself. </p>
  <p>Through this game, we measure several aspects of your cognitive performance, such as reaction times, multi-tasking capabilities </p>
  <p>and the ability to assess the situation you are in.</p>
  <p></p>
  <p><b>How good do you usually are in such tasks?</b></p>","59","html-slider-response","10","188386","0.0-6.0-0.0","203","1","2025-08-06 13:30:28","36c45c0696341be0efffe67d72a12abb","194.39.218.23","Mozilla/5.0 (Windows NT 10.0; Win64; x64) AppleWebKit/537.36 (KHTML, like Gecko) Chrome/138.0.0.0 Safari/537.36","WebKit","Chrome","138.0.0.0","Windows","10.0","https://app.prolific.com/","de-DE,de;q=0.9,en-US;q=0.8,en;q=0.7","66ebc8c5e5b772065830754d","6877649eabb845cf142cd221","689358e2a1afbdf1b646402e","1","66ebc8c5e5b772065830754d","1","2025-08-06T13:33:40.503Z","","","","PreSkillQ","","","","","","","","","","","50","","","","","","","","","","","","","","","","","","","","","","","","","","",""
"2034","","<div style=""width:500px;"">
  <p>How well do you think you will perform in this task compared to other participants?</p>
  </div>","55","html-slider-response","11","190422","0.0-6.0-1.0","203","1","2025-08-06 13:30:28","36c45c0696341be0efffe67d72a12abb","194.39.218.23","Mozilla/5.0 (Windows NT 10.0; Win64; x64) AppleWebKit/537.36 (KHTML, like Gecko) Chrome/138.0.0.0 Safari/537.36","WebKit","Chrome","138.0.0.0","Windows","10.0","https://app.prolific.com/","de-DE,de;q=0.9,en-US;q=0.8,en;q=0.7","66ebc8c5e5b772065830754d","6877649eabb845cf142cd221","689358e2a1afbdf1b646402e","1","66ebc8c5e5b772065830754d","1","2025-08-06T13:33:42.539Z","","","","PrePerfQ","","","","","","","","","","","50","","","","","","","","","","","","","","","","","","","","","","","","","","",""
"2409","","<div style=""width:500px;"">
  <p>What best describes how you currently feel?</p>
  </div>","47","html-slider-response","12","192831","0.0-6.0-2.0","203","1","2025-08-06 13:30:28","36c45c0696341be0efffe67d72a12abb","194.39.218.23","Mozilla/5.0 (Windows NT 10.0; Win64; x64) AppleWebKit/537.36 (KHTML, like Gecko) Chrome/138.0.0.0 Safari/537.36","WebKit","Chrome","138.0.0.0","Windows","10.0","https://app.prolific.com/","de-DE,de;q=0.9,en-US;q=0.8,en;q=0.7","66ebc8c5e5b772065830754d","6877649eabb845cf142cd221","689358e2a1afbdf1b646402e","1","66ebc8c5e5b772065830754d","1","2025-08-06T13:33:44.949Z","","","","PreMotivationQ","","","","","","","","","","","50","","","","","","","","","","","","","","","","","","","","","","","","","","",""
"","","","","ctl-task-cpt","13","219120","0.0-7.0-0.0","203","1","2025-08-06 13:30:28","36c45c0696341be0efffe67d72a12abb","194.39.218.23","Mozilla/5.0 (Windows NT 10.0; Win64; x64) AppleWebKit/537.36 (KHTML, like Gecko) Chrome/138.0.0.0 Safari/537.36","WebKit","Chrome","138.0.0.0","Windows","10.0","https://app.prolific.com/","de-DE,de;q=0.9,en-US;q=0.8,en;q=0.7","66ebc8c5e5b772065830754d","6877649eabb845cf142cd221","689358e2a1afbdf1b646402e","1","66ebc8c5e5b772065830754d","1","2025-08-06T13:34:11.237Z","","","","","","","","","","","","","","","","win-only","1","g1:NE,g2:SW","1","1","0","199547.6","1371.5","6375.8","23281.6","1","4","8","6","2","8","8","8","0","0.06060606060606061","868.4","3000","820","[""down"",""left""]","{""num_key_presses"":6,""num_perfect"":6,""num_errors"":0,""num_randdir"":0,""num_randdir_good_moves"":0,""num_whilered"":0,""num_whileblue"":0,""num_blue"":0,""num_good_moves"":6}","[249.73484355917338,251.81608219778258,0.3,249.73484355917338,251.81608219778258,101,249.73484355917338,253.0160822454663,204.8,246.13484341612224,253.0160822454663,309.5,264.134844131378,232.61608143484312,409.6,220.9348424147642,251.81608219778258,514.9,85.33483702650432,387.41608758604247,620.5,55.334835834411415,436.6160895410748,725.1,51.73483569136027,457.016090351698,828.8,51.73483569136027,459.4160904470654,934,157.33483988752727,422.2160889688702,1034.3,386.534848995117,401.81608815824706,1139.1,388.9348490904844,395.8160879198285,1239.3,388.9348490904844,395.8160879198285,1339.6,388.9348490904844,395.8160879198285,1444.8,388.9348490904844,395.8160879198285,1544.8,388.9348490904844,395.8160879198285,1644.8,388.9348490904844,395.8160879198285,1749.9,388.9348490904844,395.8160879198285,1854.1,388.9348490904844,395.8160879198285,1954.6,388.9348490904844,395.8160879198285,2059.1,388.9348490904844,395.8160879198285,2159.6,388.9348490904844,395.8160879198285,2260.6,388.9348490904844,395.8160879198285,2364.6,388.9348490904844,395.8160879198285,2470.2,388.9348490904844,395.8160879198285,2574.8,388.9348490904844,395.8160879198285,2674.9,388.9348490904844,395.8160879198285,2779.2,388.9348490904844,395.8160879198285,2879.6,388.9348490904844,395.8160879198285,2983.8,388.9348490904844,395.8160879198285,3084,388.9348490904844,395.8160879198285,3184.1,388.9348490904844,395.8160879198285,3284.3,388.9348490904844,395.8160879198285,3389.1,388.9348490904844,395.8160879198285,3489.4,388.9348490904844,395.8160879198285,3590.1,388.9348490904844,395.8160879198285,3695.2,388.9348490904844,395.8160879198285,3799.1,388.9348490904844,395.8160879198285,3899.3,388.9348490904844,395.8160879198285,4005,388.9348490904844,395.8160879198285,4109.3,388.9348490904844,395.8160879198285,4209.8,388.9348490904844,395.8160879198285,4314.1,388.9348490904844,395.8160879198285,4418.8,388.9348490904844,395.8160879198285,4520.7,388.9348490904844,395.8160879198285,4624.3,388.9348490904844,395.8160879198285,4729.1,388.9348490904844,395.8160879198285,4829.4,388.9348490904844,395.8160879198285,4930]","[1329.7,1329.6,1000,0.1,329.6,""smooth"",""down"",""down"",""good_move"",4121.1,2791,2356,1330.2,434.9,""smooth"",""left"",""left"",""good_move"",7217.2,3095.8,2629.9,4121.4,465.9,""smooth"",""left"",""left"",""good_move"",10073.5,2856.1,2471.5,7217.4,384.6,""smooth"",""left"",""left"",""good_move"",13922.5,3848.7,3552,10073.8,296.7,""smooth"",""down"",""down"",""good_move"",16809,2886.3,2567.9,13922.7,318.4,""smooth"",""down"",""down"",""good_move""]"
"4584","","<div style=""width:500px;"">
  <p>What determined the result of this run?</p>
  </div>","61","html-slider-response","14","223706","0.0-7.0-1.0","203","1","2025-08-06 13:30:28","36c45c0696341be0efffe67d72a12abb","194.39.218.23","Mozilla/5.0 (Windows NT 10.0; Win64; x64) AppleWebKit/537.36 (KHTML, like Gecko) Chrome/138.0.0.0 Safari/537.36","WebKit","Chrome","138.0.0.0","Windows","10.0","https://app.prolific.com/","de-DE,de;q=0.9,en-US;q=0.8,en;q=0.7","66ebc8c5e5b772065830754d","6877649eabb845cf142cd221","689358e2a1afbdf1b646402e","1","66ebc8c5e5b772065830754d","1","2025-08-06T13:34:15.823Z","","","","AttribQ","","","","","","","","","","","50","","","","","","","","","","","","","","","","","","","","","","","","","","",""
"2250","","<div style=""width:500px;"">
  <p>How much control did you have over the ball?</p>
  </div>","84","html-slider-response","15","225958","0.0-7.0-2.0","203","1","2025-08-06 13:30:28","36c45c0696341be0efffe67d72a12abb","194.39.218.23","Mozilla/5.0 (Windows NT 10.0; Win64; x64) AppleWebKit/537.36 (KHTML, like Gecko) Chrome/138.0.0.0 Safari/537.36","WebKit","Chrome","138.0.0.0","Windows","10.0","https://app.prolific.com/","de-DE,de;q=0.9,en-US;q=0.8,en;q=0.7","66ebc8c5e5b772065830754d","6877649eabb845cf142cd221","689358e2a1afbdf1b646402e","1","66ebc8c5e5b772065830754d","1","2025-08-06T13:34:18.075Z","","","","ControlQ","","","","","","","","","","","50","","","","","","","","","","","","","","","","","","","","","","","","","","",""
"3597","","<div style=""width:500px;"">
  <p>How would you describe your current emotional state?</p>
  </div>","60","html-slider-response","16","229556","0.0-7.0-3.0","203","1","2025-08-06 13:30:28","36c45c0696341be0efffe67d72a12abb","194.39.218.23","Mozilla/5.0 (Windows NT 10.0; Win64; x64) AppleWebKit/537.36 (KHTML, like Gecko) Chrome/138.0.0.0 Safari/537.36","WebKit","Chrome","138.0.0.0","Windows","10.0","https://app.prolific.com/","de-DE,de;q=0.9,en-US;q=0.8,en;q=0.7","66ebc8c5e5b772065830754d","6877649eabb845cf142cd221","689358e2a1afbdf1b646402e","1","66ebc8c5e5b772065830754d","1","2025-08-06T13:34:21.673Z","","","","StressQ","","","","","","","","","","","50","","","","","","","","","","","","","","","","","","","","","","","","","","",""
"1867","","<div style=""width:500px;"">
  <p>What best describes how you currently feel?</p>
  </div>","62","html-slider-response","17","231424","0.0-7.0-4.0","203","1","2025-08-06 13:30:28","36c45c0696341be0efffe67d72a12abb","194.39.218.23","Mozilla/5.0 (Windows NT 10.0; Win64; x64) AppleWebKit/537.36 (KHTML, like Gecko) Chrome/138.0.0.0 Safari/537.36","WebKit","Chrome","138.0.0.0","Windows","10.0","https://app.prolific.com/","de-DE,de;q=0.9,en-US;q=0.8,en;q=0.7","66ebc8c5e5b772065830754d","6877649eabb845cf142cd221","689358e2a1afbdf1b646402e","1","66ebc8c5e5b772065830754d","1","2025-08-06T13:34:23.541Z","","","","MotivationQ","","","","","","","","","","","50","","","","","","","","","","","","","","","","","","","","","","","","","","",""
"","","","","ctl-task-cpt","18","265059","0.0-7.0-0.1","203","1","2025-08-06 13:30:28","36c45c0696341be0efffe67d72a12abb","194.39.218.23","Mozilla/5.0 (Windows NT 10.0; Win64; x64) AppleWebKit/537.36 (KHTML, like Gecko) Chrome/138.0.0.0 Safari/537.36","WebKit","Chrome","138.0.0.0","Windows","10.0","https://app.prolific.com/","de-DE,de;q=0.9,en-US;q=0.8,en;q=0.7","66ebc8c5e5b772065830754d","6877649eabb845cf142cd221","689358e2a1afbdf1b646402e","1","66ebc8c5e5b772065830754d","1","2025-08-06T13:34:57.176Z","","","","","","","","","","","","","","","","win-only","0","g1:NW,g2:SE","0.9","2","0","238137.9","1253.2","6255.5","30626.5","1","4","4","6","2","4","3","11","8","0.08333333333333333","901","3000","530","[""down"",""right""]","{""num_key_presses"":8,""num_perfect"":6,""num_errors"":1,""num_randdir"":1,""num_randdir_good_moves"":1,""num_whilered"":0,""num_whileblue"":1,""num_blue"":2,""num_good_moves"":7}","[190.56740308489117,185.36428523744854,0.3,190.56740308489117,185.36428523744854,102,190.56740308489117,184.61428523744854,202.8,190.56740308489117,184.61428523744854,307.1,183.06740308489117,203.36428523744854,407.9,225.81740308489117,275.36428523744854,512.9,321.06740308489117,325.61428523744854,618.3,321.06740308489117,325.61428523744854,723.1,321.06740308489117,325.61428523744854,827.6,321.06740308489117,325.61428523744854,929.2,328.56740308489117,319.61428523744854,1032.2,555.0674030848912,221.36428523744854,1132.8,580.5674030848912,211.61428523744854,1237.5,580.5674030848912,211.61428523744854,1342.4,580.5674030848912,211.61428523744854,1443,580.5674030848912,211.61428523744854,1548.5,580.5674030848912,211.61428523744854,1648.5,580.5674030848912,211.61428523744854,1752.1,580.5674030848912,211.61428523744854,1852.7,580.5674030848912,211.61428523744854,1958.3,580.5674030848912,211.61428523744854,2062.5,580.5674030848912,211.61428523744854,2162.6,580.5674030848912,211.61428523744854,2268.8,580.5674030848912,211.61428523744854,2372.4,580.5674030848912,211.61428523744854,2477.4,580.5674030848912,211.61428523744854,2577.9,580.5674030848912,211.61428523744854,2683,580.5674030848912,211.61428523744854,2787.4,580.5674030848912,211.61428523744854,2887.6,580.5674030848912,211.61428523744854,2992.9,580.5674030848912,211.61428523744854,3097.5,580.5674030848912,211.61428523744854,3197.5,580.5674030848912,211.61428523744854,3298,580.5674030848912,211.61428523744854,3402.8,580.5674030848912,211.61428523744854,3508.3,624.0674030848912,158.36428523744854,3612.6,624.8174030848912,154.61428523744854,3713.4,624.8174030848912,154.61428523744854,3817.2,498.06740308489117,153.86428523744854,3917.6,498.06740308489117,153.86428523744854,4023,498.06740308489117,153.86428523744854,4127.8,498.06740308489117,153.86428523744854,4232.8,498.06740308489117,153.86428523744854,4333.1,498.06740308489117,148.61428523744854,4437.6,498.06740308489117,148.61428523744854,4537.8,498.06740308489117,148.61428523744854,4642.6,498.06740308489117,148.61428523744854,4742.7,498.06740308489117,148.61428523744854,4847.7,498.06740308489117,148.61428523744854,4947.8]","[1403.2,1403.2,1000,0.1,403.1,""smooth"",""right"",""right"",""good_move"",4502.7,3099,2756.1,1403.7,342.9,""oops"",""right"",""right"",""good_move"",6971.8,2468.9,2115.4,4502.9,353.6,""smooth"",""down"",""down"",""good_move"",9717.7,2745.5,2411,6972.2,334.5,""smooth"",""down"",""down"",""good_move"",12740.1,3022.2,2708.4,9717.9,313.8,""while_blue"",""right"",""left"",""bad_move"",18748.9,6008.4,2010.9,16345.2,392.8,""smooth"",""right"",""right"",""good_move"",21635.5,2885.9,2539,18749.6,346.9,""smooth"",""right"",""right"",""good_move"",24283.3,2647.4,2314.3,21636,333,""smooth"",""down"",""down"",""good_move""]"
"2951","","<div style=""width:500px;"">
  <p>What determined the result of this run?</p>
  </div>","57","html-slider-response","19","268011","0.0-7.0-1.1","203","1","2025-08-06 13:30:28","36c45c0696341be0efffe67d72a12abb","194.39.218.23","Mozilla/5.0 (Windows NT 10.0; Win64; x64) AppleWebKit/537.36 (KHTML, like Gecko) Chrome/138.0.0.0 Safari/537.36","WebKit","Chrome","138.0.0.0","Windows","10.0","https://app.prolific.com/","de-DE,de;q=0.9,en-US;q=0.8,en;q=0.7","66ebc8c5e5b772065830754d","6877649eabb845cf142cd221","689358e2a1afbdf1b646402e","1","66ebc8c5e5b772065830754d","1","2025-08-06T13:35:00.128Z","","","","AttribQ","","","","","","","","","","","50","","","","","","","","","","","","","","","","","","","","","","","","","","",""
"33632","","<div style=""width:500px;"">
  <p>How much control did you have over the ball?</p>
  </div>","69","html-slider-response","20","301644","0.0-7.0-2.1","203","1","2025-08-06 13:30:28","36c45c0696341be0efffe67d72a12abb","194.39.218.23","Mozilla/5.0 (Windows NT 10.0; Win64; x64) AppleWebKit/537.36 (KHTML, like Gecko) Chrome/138.0.0.0 Safari/537.36","WebKit","Chrome","138.0.0.0","Windows","10.0","https://app.prolific.com/","de-DE,de;q=0.9,en-US;q=0.8,en;q=0.7","66ebc8c5e5b772065830754d","6877649eabb845cf142cd221","689358e2a1afbdf1b646402e","1","66ebc8c5e5b772065830754d","1","2025-08-06T13:35:33.761Z","","","","ControlQ","","","","","","","","","","","50","","","","","","","","","","","","","","","","","","","","","","","","","","",""
"2268","","<div style=""width:500px;"">
  <p>How would you describe your current emotional state?</p>
  </div>","65","html-slider-response","21","303914","0.0-7.0-3.1","203","1","2025-08-06 13:30:28","36c45c0696341be0efffe67d72a12abb","194.39.218.23","Mozilla/5.0 (Windows NT 10.0; Win64; x64) AppleWebKit/537.36 (KHTML, like Gecko) Chrome/138.0.0.0 Safari/537.36","WebKit","Chrome","138.0.0.0","Windows","10.0","https://app.prolific.com/","de-DE,de;q=0.9,en-US;q=0.8,en;q=0.7","66ebc8c5e5b772065830754d","6877649eabb845cf142cd221","689358e2a1afbdf1b646402e","1","66ebc8c5e5b772065830754d","1","2025-08-06T13:35:36.031Z","","","","StressQ","","","","","","","","","","","50","","","","","","","","","","","","","","","","","","","","","","","","","","",""
"1614","","<div style=""width:500px;"">
  <p>What best describes how you currently feel?</p>
  </div>","62","html-slider-response","22","305529","0.0-7.0-4.1","203","1","2025-08-06 13:30:28","36c45c0696341be0efffe67d72a12abb","194.39.218.23","Mozilla/5.0 (Windows NT 10.0; Win64; x64) AppleWebKit/537.36 (KHTML, like Gecko) Chrome/138.0.0.0 Safari/537.36","WebKit","Chrome","138.0.0.0","Windows","10.0","https://app.prolific.com/","de-DE,de;q=0.9,en-US;q=0.8,en;q=0.7","66ebc8c5e5b772065830754d","6877649eabb845cf142cd221","689358e2a1afbdf1b646402e","1","66ebc8c5e5b772065830754d","1","2025-08-06T13:35:37.646Z","","","","MotivationQ","","","","","","","","","","","50","","","","","","","","","","","","","","","","","","","","","","","","","","",""
"","","","","ctl-task-cpt","23","336008","0.0-7.0-0.2","203","1","2025-08-06 13:30:28","36c45c0696341be0efffe67d72a12abb","194.39.218.23","Mozilla/5.0 (Windows NT 10.0; Win64; x64) AppleWebKit/537.36 (KHTML, like Gecko) Chrome/138.0.0.0 Safari/537.36","WebKit","Chrome","138.0.0.0","Windows","10.0","https://app.prolific.com/","de-DE,de;q=0.9,en-US;q=0.8,en;q=0.7","66ebc8c5e5b772065830754d","6877649eabb845cf142cd221","689358e2a1afbdf1b646402e","1","66ebc8c5e5b772065830754d","1","2025-08-06T13:36:08.125Z","","","","","","","","","","","","","","","","win-only","1","g1:NE,g2:SW","0.8","3","0","312243.4","1009.4","6012.6","27470.9","1","4","8","6","2","-8","-9","2","11","0.015151515151515152","884.9","3000","-2980","[""down"",""left""]","{""num_key_presses"":7,""num_perfect"":5,""num_errors"":1,""num_randdir"":1,""num_randdir_good_moves"":0,""num_whilered"":0,""num_whileblue"":1,""num_blue"":1,""num_good_moves"":6}","[183.81740308489117,185.36428523744854,0.2,183.81740308489117,185.36428523744854,100.9,183.81740308489117,184.61428523744854,201,187.56740308489117,186.86428523744854,301.3,192.06740308489117,186.86428523744854,406.1,166.56740308489117,214.61428523744854,506.8,34.56740308489118,353.36428523744854,606.9,25.56740308489118,360.86428523744854,710.8,27.06740308489118,356.36428523744854,810.8,27.81740308489118,347.36428523744854,910.9,58.56740308489118,344.36428523744854,1015.8,445.56740308489117,239.36428523744854,1122.3,510.06740308489117,215.36428523744854,1227.7,510.06740308489117,214.61428523744854,1330.9,514.5674030848912,213.86428523744854,1431.1,514.5674030848912,213.86428523744854,1537.6,514.5674030848912,213.86428523744854,1641.3,514.5674030848912,213.86428523744854,1741.3,514.5674030848912,213.86428523744854,1845.8,514.5674030848912,213.86428523744854,1946.2,514.5674030848912,213.86428523744854,2046.4,514.5674030848912,213.86428523744854,2151.7,514.5674030848912,213.86428523744854,2255.9,514.5674030848912,213.86428523744854,2356.3,514.5674030848912,213.86428523744854,2461.1,514.5674030848912,208.61428523744854,2565.9,513.8174030848912,205.61428523744854,2666.6,511.56740308489117,190.61428523744854,2766.6,511.56740308489117,172.61428523744854,2872.2,511.56740308489117,172.61428523744854,2975.8,511.56740308489117,172.61428523744854,3076,511.56740308489117,172.61428523744854,3182.2,511.56740308489117,172.61428523744854,3286.4,511.56740308489117,172.61428523744854,3386.4,511.56740308489117,172.61428523744854,3490.8,511.56740308489117,172.61428523744854,3591.1,511.56740308489117,172.61428523744854,3691.3,511.56740308489117,172.61428523744854,3792.2,511.56740308489117,172.61428523744854,3896.9,511.56740308489117,172.61428523744854,3997.7,511.56740308489117,172.61428523744854,4100.9,511.56740308489117,172.61428523744854,4200.9,511.56740308489117,172.61428523744854,4301.5,510.81740308489117,171.86428523744854,4406.3,510.81740308489117,171.86428523744854,4511.2,510.81740308489117,171.86428523744854,4612,508.56740308489117,171.86428523744854,4715.8,508.56740308489117,171.86428523744854,4816.8,508.56740308489117,171.86428523744854,4920.9]","[1381.1,1381.1,1000,0,381.1,""smooth"",""left"",""left"",""good_move"",5132.8,3751.2,2666.1,1381.6,1085.1,""smooth"",""down"",""down"",""good_move"",8076.8,2943.6,2570.5,5133.2,373.1,""oops"",""left"",""right"",""bad_move"",10244.7,2167.5,1795.6,8077.3,371.9,""smooth"",""left"",""left"",""good_move"",13964.7,3719.7,3411.9,10245,307.8,""smooth"",""left"",""left"",""good_move"",16877.7,2912.7,2603.6,13965,309.1,""smooth"",""down"",""down"",""good_move"",19189.5,2311.7,2155.2,16877.9,156.5,""while_blue"",""left"",""down"",""good_move""]"
"3145","","<div style=""width:500px;"">
  <p>What determined the result of this run?</p>
  </div>","15","html-slider-response","24","339154","0.0-7.0-1.2","203","1","2025-08-06 13:30:28","36c45c0696341be0efffe67d72a12abb","194.39.218.23","Mozilla/5.0 (Windows NT 10.0; Win64; x64) AppleWebKit/537.36 (KHTML, like Gecko) Chrome/138.0.0.0 Safari/537.36","WebKit","Chrome","138.0.0.0","Windows","10.0","https://app.prolific.com/","de-DE,de;q=0.9,en-US;q=0.8,en;q=0.7","66ebc8c5e5b772065830754d","6877649eabb845cf142cd221","689358e2a1afbdf1b646402e","1","66ebc8c5e5b772065830754d","1","2025-08-06T13:36:11.271Z","","","","AttribQ","","","","","","","","","","","50","","","","","","","","","","","","","","","","","","","","","","","","","","",""
"1866","","<div style=""width:500px;"">
  <p>How much control did you have over the ball?</p>
  </div>","23","html-slider-response","25","341022","0.0-7.0-2.2","203","1","2025-08-06 13:30:28","36c45c0696341be0efffe67d72a12abb","194.39.218.23","Mozilla/5.0 (Windows NT 10.0; Win64; x64) AppleWebKit/537.36 (KHTML, like Gecko) Chrome/138.0.0.0 Safari/537.36","WebKit","Chrome","138.0.0.0","Windows","10.0","https://app.prolific.com/","de-DE,de;q=0.9,en-US;q=0.8,en;q=0.7","66ebc8c5e5b772065830754d","6877649eabb845cf142cd221","689358e2a1afbdf1b646402e","1","66ebc8c5e5b772065830754d","1","2025-08-06T13:36:13.139Z","","","","ControlQ","","","","","","","","","","","50","","","","","","","","","","","","","","","","","","","","","","","","","","",""
"2398","","<div style=""width:500px;"">
  <p>How would you describe your current emotional state?</p>
  </div>","87","html-slider-response","26","343420","0.0-7.0-3.2","203","1","2025-08-06 13:30:28","36c45c0696341be0efffe67d72a12abb","194.39.218.23","Mozilla/5.0 (Windows NT 10.0; Win64; x64) AppleWebKit/537.36 (KHTML, like Gecko) Chrome/138.0.0.0 Safari/537.36","WebKit","Chrome","138.0.0.0","Windows","10.0","https://app.prolific.com/","de-DE,de;q=0.9,en-US;q=0.8,en;q=0.7","66ebc8c5e5b772065830754d","6877649eabb845cf142cd221","689358e2a1afbdf1b646402e","1","66ebc8c5e5b772065830754d","1","2025-08-06T13:36:15.537Z","","","","StressQ","","","","","","","","","","","50","","","","","","","","","","","","","","","","","","","","","","","","","","",""
"2330","","<div style=""width:500px;"">
  <p>What best describes how you currently feel?</p>
  </div>","57","html-slider-response","27","345751","0.0-7.0-4.2","203","1","2025-08-06 13:30:28","36c45c0696341be0efffe67d72a12abb","194.39.218.23","Mozilla/5.0 (Windows NT 10.0; Win64; x64) AppleWebKit/537.36 (KHTML, like Gecko) Chrome/138.0.0.0 Safari/537.36","WebKit","Chrome","138.0.0.0","Windows","10.0","https://app.prolific.com/","de-DE,de;q=0.9,en-US;q=0.8,en;q=0.7","66ebc8c5e5b772065830754d","6877649eabb845cf142cd221","689358e2a1afbdf1b646402e","1","66ebc8c5e5b772065830754d","1","2025-08-06T13:36:17.868Z","","","","MotivationQ","","","","","","","","","","","50","","","","","","","","","","","","","","","","","","","","","","","","","","",""
"","","","","ctl-task-cpt","28","383889","0.0-7.0-0.3","203","1","2025-08-06 13:30:28","36c45c0696341be0efffe67d72a12abb","194.39.218.23","Mozilla/5.0 (Windows NT 10.0; Win64; x64) AppleWebKit/537.36 (KHTML, like Gecko) Chrome/138.0.0.0 Safari/537.36","WebKit","Chrome","138.0.0.0","Windows","10.0","https://app.prolific.com/","de-DE,de;q=0.9,en-US;q=0.8,en;q=0.7","66ebc8c5e5b772065830754d","6877649eabb845cf142cd221","689358e2a1afbdf1b646402e","1","66ebc8c5e5b772065830754d","1","2025-08-06T13:36:56.006Z","","","","","","","","","","","","","","","","win-only","1","g1:NE,g2:SW","0.7","4","0","352465.1","2192.7","7196.6","35120.4","1","4","4","6","2","-4","-5","0","2","0","857","3000","-3010","[""down"",""left""]","{""num_key_presses"":9,""num_perfect"":5,""num_errors"":1,""num_randdir"":3,""num_randdir_good_moves"":0,""num_whilered"":0,""num_whileblue"":0,""num_blue"":0,""num_good_moves"":5}","[180.81740308489117,181.61428523744854,0.3,180.81740308489117,181.61428523744854,103.3,181.56740308489117,181.61428523744854,207.7,199.56740308489117,180.86428523744854,312.6,204.06740308489117,170.36428523744854,418.4,93.81740308489118,284.36428523744854,522.8,60.81740308489118,318.86428523744854,627.6,54.81740308489118,329.36428523744854,734.1,48.81740308489118,334.61428523744854,838.5,48.06740308489118,335.36428523744854,939.5,184.56740308489117,298.61428523744854,1043.8,435.06740308489117,251.36428523744854,1144.2,463.56740308489117,238.61428523744854,1248.3,468.06740308489117,236.36428523744854,1348.7,468.06740308489117,236.36428523744854,1452.6,468.06740308489117,236.36428523744854,1554,468.06740308489117,236.36428523744854,1657.9,468.06740308489117,236.36428523744854,1757.9,468.06740308489117,236.36428523744854,1863.8,468.06740308489117,236.36428523744854,1968.8,468.06740308489117,236.36428523744854,2074,468.06740308489117,236.36428523744854,2174,468.06740308489117,236.36428523744854,2277.9,468.06740308489117,236.36428523744854,2382.5,468.06740308489117,236.36428523744854,2482.9,468.06740308489117,236.36428523744854,2583,468.06740308489117,236.36428523744854,2683,468.06740308489117,236.36428523744854,2783.8,468.06740308489117,236.36428523744854,2888.8,468.06740308489117,236.36428523744854,2992.8,468.06740308489117,236.36428523744854,3098.1,468.06740308489117,236.36428523744854,3198.3,468.06740308489117,236.36428523744854,3298.7,468.06740308489117,236.36428523744854,3402.7,468.06740308489117,236.36428523744854,3504.1,468.06740308489117,236.36428523744854,3608,468.06740308489117,236.36428523744854,3714,468.06740308489117,236.36428523744854,3814.6,468.06740308489117,236.36428523744854,3918.2,468.06740308489117,236.36428523744854,4023.7,468.06740308489117,236.36428523744854,4123.7,468.06740308489117,236.36428523744854,4223.7,468.06740308489117,236.36428523744854,4327.6,468.06740308489117,236.36428523744854,4427.9,468.06740308489117,236.36428523744854,4532.9,468.06740308489117,236.36428523744854,4633,445.56740308489117,197.36428523744854,4738.8,432.06740308489117,79.61428523744856,4843.3,432.06740308489117,68.36428523744856,4948.5]","[1407.3,1407.3,1000,0,407.3,""oops"",""down"",""up"",""bad_move"",3975.3,2567.4,2224,1407.9,343.4,""smooth"",""down"",""down"",""good_move"",6726.9,2751.4,2391.4,3975.5,360,""smooth"",""left"",""left"",""good_move"",10289,3561.8,3226.6,6727.2,335.2,""smooth"",""down"",""down"",""good_move"",13152.7,2863.5,2540.9,10289.3,322.5,""oops"",""left"",""right"",""bad_move"",15799.1,2646.1,2294.1,13153.1,352,""smooth"",""left"",""left"",""good_move"",18504.3,2704.8,2383.9,15799.5,320.9,""smooth"",""left"",""left"",""good_move"",21342.8,2838.3,2836.7,18504.5,1.6,""error"",""-"",""-"",""no_move"",25038.9,3695.9,2333.7,22343.6,361.6,""oops"",""down"",""up"",""bad_move""]"
"4299","","<div style=""width:500px;"">
  <p>What determined the result of this run?</p>
  </div>","30","html-slider-response","29","388190","0.0-7.0-1.3","203","1","2025-08-06 13:30:28","36c45c0696341be0efffe67d72a12abb","194.39.218.23","Mozilla/5.0 (Windows NT 10.0; Win64; x64) AppleWebKit/537.36 (KHTML, like Gecko) Chrome/138.0.0.0 Safari/537.36","WebKit","Chrome","138.0.0.0","Windows","10.0","https://app.prolific.com/","de-DE,de;q=0.9,en-US;q=0.8,en;q=0.7","66ebc8c5e5b772065830754d","6877649eabb845cf142cd221","689358e2a1afbdf1b646402e","1","66ebc8c5e5b772065830754d","1","2025-08-06T13:37:00.307Z","","","","AttribQ","","","","","","","","","","","50","","","","","","","","","","","","","","","","","","","","","","","","","","",""
"3873","","<div style=""width:500px;"">
  <p>How much control did you have over the ball?</p>
  </div>","5","html-slider-response","30","392063","0.0-7.0-2.3","203","1","2025-08-06 13:30:28","36c45c0696341be0efffe67d72a12abb","194.39.218.23","Mozilla/5.0 (Windows NT 10.0; Win64; x64) AppleWebKit/537.36 (KHTML, like Gecko) Chrome/138.0.0.0 Safari/537.36","WebKit","Chrome","138.0.0.0","Windows","10.0","https://app.prolific.com/","de-DE,de;q=0.9,en-US;q=0.8,en;q=0.7","66ebc8c5e5b772065830754d","6877649eabb845cf142cd221","689358e2a1afbdf1b646402e","1","66ebc8c5e5b772065830754d","1","2025-08-06T13:37:04.180Z","","","","ControlQ","","","","","","","","","","","50","","","","","","","","","","","","","","","","","","","","","","","","","","",""
"1632","","<div style=""width:500px;"">
  <p>How would you describe your current emotional state?</p>
  </div>","58","html-slider-response","31","393696","0.0-7.0-3.3","203","1","2025-08-06 13:30:28","36c45c0696341be0efffe67d72a12abb","194.39.218.23","Mozilla/5.0 (Windows NT 10.0; Win64; x64) AppleWebKit/537.36 (KHTML, like Gecko) Chrome/138.0.0.0 Safari/537.36","WebKit","Chrome","138.0.0.0","Windows","10.0","https://app.prolific.com/","de-DE,de;q=0.9,en-US;q=0.8,en;q=0.7","66ebc8c5e5b772065830754d","6877649eabb845cf142cd221","689358e2a1afbdf1b646402e","1","66ebc8c5e5b772065830754d","1","2025-08-06T13:37:05.813Z","","","","StressQ","","","","","","","","","","","50","","","","","","","","","","","","","","","","","","","","","","","","","","",""
"2089","","<div style=""width:500px;"">
  <p>What best describes how you currently feel?</p>
  </div>","58","html-slider-response","32","395785","0.0-7.0-4.3","203","1","2025-08-06 13:30:28","36c45c0696341be0efffe67d72a12abb","194.39.218.23","Mozilla/5.0 (Windows NT 10.0; Win64; x64) AppleWebKit/537.36 (KHTML, like Gecko) Chrome/138.0.0.0 Safari/537.36","WebKit","Chrome","138.0.0.0","Windows","10.0","https://app.prolific.com/","de-DE,de;q=0.9,en-US;q=0.8,en;q=0.7","66ebc8c5e5b772065830754d","6877649eabb845cf142cd221","689358e2a1afbdf1b646402e","1","66ebc8c5e5b772065830754d","1","2025-08-06T13:37:07.903Z","","","","MotivationQ","","","","","","","","","","","50","","","","","","","","","","","","","","","","","","","","","","","","","","",""
"","","","","ctl-task-cpt","33","438754","0.0-7.0-0.4","203","1","2025-08-06 13:30:28","36c45c0696341be0efffe67d72a12abb","194.39.218.23","Mozilla/5.0 (Windows NT 10.0; Win64; x64) AppleWebKit/537.36 (KHTML, like Gecko) Chrome/138.0.0.0 Safari/537.36","WebKit","Chrome","138.0.0.0","Windows","10.0","https://app.prolific.com/","de-DE,de;q=0.9,en-US;q=0.8,en;q=0.7","66ebc8c5e5b772065830754d","6877649eabb845cf142cd221","689358e2a1afbdf1b646402e","1","66ebc8c5e5b772065830754d","1","2025-08-06T13:37:50.871Z","","","","","","","","","","","","","","","","win-only","0","g1:NW,g2:SE","0.6","5","0","402500.1","1829.1","6831","39950.4","1","4","4","6","2","-4","-6","0","0","0","961.6","3000","-3015","[""down"",""right""]","{""num_key_presses"":10,""num_perfect"":4,""num_errors"":2,""num_randdir"":4,""num_randdir_good_moves"":2,""num_whilered"":0,""num_whileblue"":2,""num_blue"":3,""num_good_moves"":6}","[183.81740308489117,184.61428523744854,0.2,183.81740308489117,184.61428523744854,101.3,186.06740308489117,184.61428523744854,208.1,196.56740308489117,183.86428523744854,311.9,220.56740308489117,245.36428523744854,416.6,255.06740308489117,286.61428523744854,522.4,291.81740308489117,319.61428523744854,627.4,309.06740308489117,334.61428523744854,727.7,321.06740308489117,333.86428523744854,832.5,328.56740308489117,333.86428523744854,937.2,330.06740308489117,333.86428523744854,1042.8,336.81740308489117,316.61428523744854,1146.5,433.56740308489117,187.61428523744854,1251.9,487.56740308489117,158.36428523744854,1352.8,487.56740308489117,158.36428523744854,1457.7,487.56740308489117,158.36428523744854,1563.3,487.56740308489117,158.36428523744854,1666.7,487.56740308489117,158.36428523744854,1772.8,487.56740308489117,158.36428523744854,1877.4,487.56740308489117,154.61428523744854,1977.7,487.56740308489117,151.61428523744854,2081.4,492.06740308489117,146.36428523744854,2186.9,489.81740308489117,146.36428523744854,2292.9,489.81740308489117,147.86428523744854,2396.3,487.56740308489117,145.61428523744854,2496.5,490.56740308489117,139.61428523744854,2597.4,490.56740308489117,136.61428523744854,2697.4,490.56740308489117,136.61428523744854,2804.8,490.56740308489117,136.61428523744854,2906.6,490.56740308489117,136.61428523744854,3007.5,490.56740308489117,136.61428523744854,3111.8,490.56740308489117,136.61428523744854,3217.5,490.56740308489117,125.36428523744856,3321.3,489.81740308489117,123.86428523744856,3421.7,489.81740308489117,123.86428523744856,3522.6,489.81740308489117,123.86428523744856,3627.3,489.81740308489117,123.86428523744856,3732.2,489.81740308489117,123.86428523744856,3837.1,489.81740308489117,123.86428523744856,3942,489.81740308489117,123.86428523744856,4046.6,489.81740308489117,123.86428523744856,4148.1,489.81740308489117,112.61428523744856,4251.7,489.81740308489117,110.36428523744856,4356.5,489.81740308489117,130.61428523744854,4456.5,489.81740308489117,135.86428523744854,4556.7,489.81740308489117,135.86428523744854,4661.6,489.81740308489117,135.86428523744854,4766.5,489.81740308489117,135.86428523744854,4866.5,489.81740308489117,135.86428523744854,4972]","[5305.6,5305.6,2874,2009.5,422.1,""oops"",""right"",""up"",""bad_move"",8546.1,3240,2878.5,5306.1,361.5,""smooth"",""right"",""right"",""good_move"",11433.2,2886.7,2532.2,8546.5,354.5,""oops"",""down"",""down"",""good_move"",13705.4,2271.8,1902.1,11433.6,369.7,""smooth"",""down"",""down"",""good_move"",16889.7,3184.1,2832.9,13705.6,351.2,""oops"",""right"",""down"",""good_move"",19801.8,2911.7,2597,16890.1,314.7,""smooth"",""right"",""right"",""good_move"",22273.6,2471.5,2190.2,19802.1,281.3,""smooth"",""right"",""right"",""good_move"",25033.2,2759.2,2422.6,22274,336.6,""oops"",""down"",""up"",""bad_move"",27907.5,2874,2340.8,25033.5,533.2,""while_blue"",""down"",""left"",""bad_move"",31314.1,3406,2931.8,27908.1,474.2,""while_blue"",""down"",""up"",""bad_move""]"
"1710","","<div style=""width:500px;"">
  <p>What determined the result of this run?</p>
  </div>","61","html-slider-response","34","440465","0.0-7.0-1.4","203","1","2025-08-06 13:30:28","36c45c0696341be0efffe67d72a12abb","194.39.218.23","Mozilla/5.0 (Windows NT 10.0; Win64; x64) AppleWebKit/537.36 (KHTML, like Gecko) Chrome/138.0.0.0 Safari/537.36","WebKit","Chrome","138.0.0.0","Windows","10.0","https://app.prolific.com/","de-DE,de;q=0.9,en-US;q=0.8,en;q=0.7","66ebc8c5e5b772065830754d","6877649eabb845cf142cd221","689358e2a1afbdf1b646402e","1","66ebc8c5e5b772065830754d","1","2025-08-06T13:37:52.582Z","","","","AttribQ","","","","","","","","","","","50","","","","","","","","","","","","","","","","","","","","","","","","","","",""
"2029","","<div style=""width:500px;"">
  <p>How much control did you have over the ball?</p>
  </div>","16","html-slider-response","35","442495","0.0-7.0-2.4","203","1","2025-08-06 13:30:28","36c45c0696341be0efffe67d72a12abb","194.39.218.23","Mozilla/5.0 (Windows NT 10.0; Win64; x64) AppleWebKit/537.36 (KHTML, like Gecko) Chrome/138.0.0.0 Safari/537.36","WebKit","Chrome","138.0.0.0","Windows","10.0","https://app.prolific.com/","de-DE,de;q=0.9,en-US;q=0.8,en;q=0.7","66ebc8c5e5b772065830754d","6877649eabb845cf142cd221","689358e2a1afbdf1b646402e","1","66ebc8c5e5b772065830754d","1","2025-08-06T13:37:54.613Z","","","","ControlQ","","","","","","","","","","","50","","","","","","","","","","","","","","","","","","","","","","","","","","",""
"1710","","<div style=""width:500px;"">
  <p>How would you describe your current emotional state?</p>
  </div>","58","html-slider-response","36","444206","0.0-7.0-3.4","203","1","2025-08-06 13:30:28","36c45c0696341be0efffe67d72a12abb","194.39.218.23","Mozilla/5.0 (Windows NT 10.0; Win64; x64) AppleWebKit/537.36 (KHTML, like Gecko) Chrome/138.0.0.0 Safari/537.36","WebKit","Chrome","138.0.0.0","Windows","10.0","https://app.prolific.com/","de-DE,de;q=0.9,en-US;q=0.8,en;q=0.7","66ebc8c5e5b772065830754d","6877649eabb845cf142cd221","689358e2a1afbdf1b646402e","1","66ebc8c5e5b772065830754d","1","2025-08-06T13:37:56.323Z","","","","StressQ","","","","","","","","","","","50","","","","","","","","","","","","","","","","","","","","","","","","","","",""
"6093","","<div style=""width:500px;"">
  <p>What best describes how you currently feel?</p>
  </div>","73","html-slider-response","37","450300","0.0-7.0-4.4","203","1","2025-08-06 13:30:28","36c45c0696341be0efffe67d72a12abb","194.39.218.23","Mozilla/5.0 (Windows NT 10.0; Win64; x64) AppleWebKit/537.36 (KHTML, like Gecko) Chrome/138.0.0.0 Safari/537.36","WebKit","Chrome","138.0.0.0","Windows","10.0","https://app.prolific.com/","de-DE,de;q=0.9,en-US;q=0.8,en;q=0.7","66ebc8c5e5b772065830754d","6877649eabb845cf142cd221","689358e2a1afbdf1b646402e","1","66ebc8c5e5b772065830754d","1","2025-08-06T13:38:02.417Z","","","","MotivationQ","","","","","","","","","","","50","","","","","","","","","","","","","","","","","","","","","","","","","","",""
"","","","","ctl-task-cpt","38","475703","0.0-7.0-0.5","203","1","2025-08-06 13:30:28","36c45c0696341be0efffe67d72a12abb","194.39.218.23","Mozilla/5.0 (Windows NT 10.0; Win64; x64) AppleWebKit/537.36 (KHTML, like Gecko) Chrome/138.0.0.0 Safari/537.36","WebKit","Chrome","138.0.0.0","Windows","10.0","https://app.prolific.com/","de-DE,de;q=0.9,en-US;q=0.8,en;q=0.7","66ebc8c5e5b772065830754d","6877649eabb845cf142cd221","689358e2a1afbdf1b646402e","1","66ebc8c5e5b772065830754d","1","2025-08-06T13:38:27.821Z","","","","","","","","","","","","","","","","win-only","1","g1:NE,g2:SW","0.5","6","0","457014.3","1129.2","6130.6","22386.1","1","4","8","6","2","-8","-8","0","0","0","785.7","3000","-3015","[""down"",""left""]","{""num_key_presses"":5,""num_perfect"":1,""num_errors"":0,""num_randdir"":4,""num_randdir_good_moves"":2,""num_whilered"":0,""num_whileblue"":0,""num_blue"":0,""num_good_moves"":3}","[186.06740308489117,184.61428523744854,0.3,186.06740308489117,184.61428523744854,102.6,187.56740308489117,182.36428523744854,206.4,210.81740308489117,146.36428523744854,311.3,178.56740308489117,177.86428523744854,411.4,81.06740308489118,292.61428523744854,511.9,72.06740308489118,312.86428523744854,616.2,54.06740308489118,335.36428523744854,716.8,51.81740308489118,339.86428523744854,817.1,51.81740308489118,336.86428523744854,922.7,226.56740308489117,281.36428523744854,1027.3,346.56740308489117,248.36428523744854,1131.3,352.56740308489117,241.61428523744854,1231.8,369.06740308489117,237.86428523744854,1336.5,480.81740308489117,226.61428523744854,1442.3,489.06740308489117,224.36428523744854,1547.5,489.06740308489117,224.36428523744854,1652,489.06740308489117,224.36428523744854,1756.2,489.06740308489117,224.36428523744854,1856.5,489.06740308489117,224.36428523744854,1960.9,486.81740308489117,224.36428523744854,2061.7,486.81740308489117,224.36428523744854,2161.8,486.81740308489117,224.36428523744854,2261.9,486.81740308489117,224.36428523744854,2366.7,486.81740308489117,224.36428523744854,2471,486.81740308489117,224.36428523744854,2571.4,486.81740308489117,224.36428523744854,2672.6,445.56740308489117,222.86428523744854,2776.2,445.56740308489117,222.86428523744854,2876.4,441.81740308489117,222.86428523744854,2981.2,441.81740308489117,222.86428523744854,3081.5,441.81740308489117,221.36428523744854,3186.3,442.56740308489117,221.36428523744854,3286.5,442.56740308489117,221.36428523744854,3391,442.56740308489117,221.36428523744854,3492.5,442.56740308489117,221.36428523744854,3592.5,442.56740308489117,221.36428523744854,3696.3,442.56740308489117,221.36428523744854,3801.2,442.56740308489117,221.36428523744854,3901.8,442.56740308489117,221.36428523744854,4002.1,442.56740308489117,221.36428523744854,4107.2,442.56740308489117,221.36428523744854,4211.1,442.56740308489117,221.36428523744854,4313.1,442.56740308489117,221.36428523744854,4416.3,442.56740308489117,221.36428523744854,4522.4,442.56740308489117,221.36428523744854,4622.4,442.56740308489117,221.36428523744854,4726,442.56740308489117,221.36428523744854,4826,442.56740308489117,221.36428523744854,4926]","[1395.9,1395.9,1000,0,395.9,""oops"",""down"",""left"",""good_move"",4227.7,2831.6,2465.9,1396.2,365.7,""oops"",""down"",""up"",""bad_move"",6359,2130.7,1757.6,4228.3,373.1,""oops"",""down"",""down"",""good_move"",8659.7,2300.4,1948.7,6359.3,351.7,""oops"",""down"",""right"",""bad_move"",12204.4,3544,3192.3,8660.4,351.7,""smooth"",""down"",""down"",""good_move""]"
"5069","","<div style=""width:500px;"">
  <p>What determined the result of this run?</p>
  </div>","19","html-slider-response","39","480774","0.0-7.0-1.5","203","1","2025-08-06 13:30:28","36c45c0696341be0efffe67d72a12abb","194.39.218.23","Mozilla/5.0 (Windows NT 10.0; Win64; x64) AppleWebKit/537.36 (KHTML, like Gecko) Chrome/138.0.0.0 Safari/537.36","WebKit","Chrome","138.0.0.0","Windows","10.0","https://app.prolific.com/","de-DE,de;q=0.9,en-US;q=0.8,en;q=0.7","66ebc8c5e5b772065830754d","6877649eabb845cf142cd221","689358e2a1afbdf1b646402e","1","66ebc8c5e5b772065830754d","1","2025-08-06T13:38:32.891Z","","","","AttribQ","","","","","","","","","","","50","","","","","","","","","","","","","","","","","","","","","","","","","","",""
"4087","","<div style=""width:500px;"">
  <p>How much control did you have over the ball?</p>
  </div>","15","html-slider-response","40","484862","0.0-7.0-2.5","203","1","2025-08-06 13:30:28","36c45c0696341be0efffe67d72a12abb","194.39.218.23","Mozilla/5.0 (Windows NT 10.0; Win64; x64) AppleWebKit/537.36 (KHTML, like Gecko) Chrome/138.0.0.0 Safari/537.36","WebKit","Chrome","138.0.0.0","Windows","10.0","https://app.prolific.com/","de-DE,de;q=0.9,en-US;q=0.8,en;q=0.7","66ebc8c5e5b772065830754d","6877649eabb845cf142cd221","689358e2a1afbdf1b646402e","1","66ebc8c5e5b772065830754d","1","2025-08-06T13:38:36.979Z","","","","ControlQ","","","","","","","","","","","50","","","","","","","","","","","","","","","","","","","","","","","","","","",""
"3913","","<div style=""width:500px;"">
  <p>How would you describe your current emotional state?</p>
  </div>","65","html-slider-response","41","488776","0.0-7.0-3.5","203","1","2025-08-06 13:30:28","36c45c0696341be0efffe67d72a12abb","194.39.218.23","Mozilla/5.0 (Windows NT 10.0; Win64; x64) AppleWebKit/537.36 (KHTML, like Gecko) Chrome/138.0.0.0 Safari/537.36","WebKit","Chrome","138.0.0.0","Windows","10.0","https://app.prolific.com/","de-DE,de;q=0.9,en-US;q=0.8,en;q=0.7","66ebc8c5e5b772065830754d","6877649eabb845cf142cd221","689358e2a1afbdf1b646402e","1","66ebc8c5e5b772065830754d","1","2025-08-06T13:38:40.893Z","","","","StressQ","","","","","","","","","","","50","","","","","","","","","","","","","","","","","","","","","","","","","","",""
"4058","","<div style=""width:500px;"">
  <p>What best describes how you currently feel?</p>
  </div>","81","html-slider-response","42","492835","0.0-7.0-4.5","203","1","2025-08-06 13:30:28","36c45c0696341be0efffe67d72a12abb","194.39.218.23","Mozilla/5.0 (Windows NT 10.0; Win64; x64) AppleWebKit/537.36 (KHTML, like Gecko) Chrome/138.0.0.0 Safari/537.36","WebKit","Chrome","138.0.0.0","Windows","10.0","https://app.prolific.com/","de-DE,de;q=0.9,en-US;q=0.8,en;q=0.7","66ebc8c5e5b772065830754d","6877649eabb845cf142cd221","689358e2a1afbdf1b646402e","1","66ebc8c5e5b772065830754d","1","2025-08-06T13:38:44.952Z","","","","MotivationQ","","","","","","","","","","","50","","","","","","","","","","","","","","","","","","","","","","","","","","",""
"","","","","ctl-task-cpt","43","526119","0.0-7.0-0.6","203","1","2025-08-06 13:30:28","36c45c0696341be0efffe67d72a12abb","194.39.218.23","Mozilla/5.0 (Windows NT 10.0; Win64; x64) AppleWebKit/537.36 (KHTML, like Gecko) Chrome/138.0.0.0 Safari/537.36","WebKit","Chrome","138.0.0.0","Windows","10.0","https://app.prolific.com/","de-DE,de;q=0.9,en-US;q=0.8,en;q=0.7","66ebc8c5e5b772065830754d","6877649eabb845cf142cd221","689358e2a1afbdf1b646402e","1","66ebc8c5e5b772065830754d","1","2025-08-06T13:39:18.236Z","","","","","","","","","","","","","","","","win-only","3","g1:SW,g2:NE","0.4","7","0","499549.1","1335.6","6335.8","30265.6","1","4","8","6","2","8","7","7","0","0.05303030303030303","1072.5","3000","315","[""up"",""right""]","{""num_key_presses"":8,""num_perfect"":3,""num_errors"":1,""num_randdir"":4,""num_randdir_good_moves"":3,""num_whilered"":0,""num_whileblue"":1,""num_blue"":2,""num_good_moves"":7}","[184.56740308489117,186.86428523744854,0.2,184.56740308489117,186.86428523744854,100.1,184.56740308489117,186.86428523744854,204.7,180.06740308489117,229.61428523744854,306,135.81740308489117,283.61428523744854,410.9,102.06740308489118,312.86428523744854,515,219.06740308489117,152.36428523744854,615.7,279.06740308489117,48.864285237448556,715.7,288.06740308489117,34.614285237448556,819.9,309.81740308489117,32.364285237448556,925.1,333.06740308489117,40.614285237448556,1026,333.06740308489117,40.614285237448556,1130.3,333.06740308489117,41.364285237448556,1235,333.06740308489117,42.864285237448556,1335.9,399.81740308489117,103.61428523744856,1440.5,472.56740308489117,149.36428523744854,1545.7,474.06740308489117,150.86428523744854,1650.6,474.06740308489117,150.86428523744854,1755.1,474.06740308489117,150.86428523744854,1859.9,474.06740308489117,150.86428523744854,1961.1,474.06740308489117,150.86428523744854,2065.2,474.06740308489117,150.86428523744854,2170.6,474.06740308489117,150.86428523744854,2270.7,474.06740308489117,150.86428523744854,2376.3,474.06740308489117,150.86428523744854,2479.7,474.06740308489117,150.86428523744854,2580.1,474.06740308489117,150.86428523744854,2685.1,474.06740308489117,148.61428523744854,2790,472.56740308489117,147.86428523744854,2890.3,472.56740308489117,147.86428523744854,2995.1,472.56740308489117,147.86428523744854,3095.2,472.56740308489117,147.86428523744854,3195.8,472.56740308489117,147.86428523744854,3300.5,472.56740308489117,147.86428523744854,3405.7,472.56740308489117,147.86428523744854,3509.9,472.56740308489117,147.86428523744854,3610,472.56740308489117,147.86428523744854,3710.2,472.56740308489117,147.86428523744854,3810.7,472.56740308489117,147.86428523744854,3915.4,472.56740308489117,147.86428523744854,4019.9,472.56740308489117,147.86428523744854,4124.9,472.56740308489117,147.86428523744854,4225.2,472.56740308489117,147.86428523744854,4325.3,472.56740308489117,147.86428523744854,4425.4,472.56740308489117,147.86428523744854,4529.8,472.56740308489117,147.86428523744854,4634.6,472.56740308489117,147.86428523744854,4734.9,472.56740308489117,147.86428523744854,4840.4,472.56740308489117,147.86428523744854,4941.1]","[1383.8,1383.8,1000,0,383.8,""smooth"",""up"",""up"",""good_move"",3671.8,2287.8,1964.3,1384,323.5,""smooth"",""right"",""right"",""good_move"",6311.7,2639.5,2309.5,3672.2,330,""oops"",""up"",""right"",""good_move"",9567.8,3255.8,2896,6312,359.8,""oops"",""up"",""up"",""good_move"",15985.8,6417.6,2476.8,13135.1,373.9,""smooth"",""up"",""up"",""good_move"",19385.3,3399.4,2905.5,15986,493.9,""oops"",""right"",""left"",""bad_move"",21423.4,2037.5,1431.4,19385.9,606.1,""oops"",""right"",""right"",""good_move"",23831.6,2407.8,2126.8,21423.8,281,""while_blue"",""right"",""right"",""good_move""]"
"98640","","<div style=""width:500px;"">
  <p>What determined the result of this run?</p>
  </div>","71","html-slider-response","44","624760","0.0-7.0-1.6","203","1","2025-08-06 13:30:28","36c45c0696341be0efffe67d72a12abb","194.39.218.23","Mozilla/5.0 (Windows NT 10.0; Win64; x64) AppleWebKit/537.36 (KHTML, like Gecko) Chrome/138.0.0.0 Safari/537.36","WebKit","Chrome","138.0.0.0","Windows","10.0","https://app.prolific.com/","de-DE,de;q=0.9,en-US;q=0.8,en;q=0.7","66ebc8c5e5b772065830754d","6877649eabb845cf142cd221","689358e2a1afbdf1b646402e","1","66ebc8c5e5b772065830754d","1","2025-08-06T13:40:56.877Z","","","","AttribQ","","","","","","","","","","","50","","","","","","","","","","","","","","","","","","","","","","","","","","",""
"1137","","<div style=""width:500px;"">
  <p>How much control did you have over the ball?</p>
  </div>","66","html-slider-response","45","625898","0.0-7.0-2.6","203","1","2025-08-06 13:30:28","36c45c0696341be0efffe67d72a12abb","194.39.218.23","Mozilla/5.0 (Windows NT 10.0; Win64; x64) AppleWebKit/537.36 (KHTML, like Gecko) Chrome/138.0.0.0 Safari/537.36","WebKit","Chrome","138.0.0.0","Windows","10.0","https://app.prolific.com/","de-DE,de;q=0.9,en-US;q=0.8,en;q=0.7","66ebc8c5e5b772065830754d","6877649eabb845cf142cd221","689358e2a1afbdf1b646402e","1","66ebc8c5e5b772065830754d","1","2025-08-06T13:40:58.015Z","","","","ControlQ","","","","","","","","","","","50","","","","","","","","","","","","","","","","","","","","","","","","","","",""
"1761","","<div style=""width:500px;"">
  <p>How would you describe your current emotional state?</p>
  </div>","66","html-slider-response","46","627660","0.0-7.0-3.6","203","1","2025-08-06 13:30:28","36c45c0696341be0efffe67d72a12abb","194.39.218.23","Mozilla/5.0 (Windows NT 10.0; Win64; x64) AppleWebKit/537.36 (KHTML, like Gecko) Chrome/138.0.0.0 Safari/537.36","WebKit","Chrome","138.0.0.0","Windows","10.0","https://app.prolific.com/","de-DE,de;q=0.9,en-US;q=0.8,en;q=0.7","66ebc8c5e5b772065830754d","6877649eabb845cf142cd221","689358e2a1afbdf1b646402e","1","66ebc8c5e5b772065830754d","1","2025-08-06T13:40:59.777Z","","","","StressQ","","","","","","","","","","","50","","","","","","","","","","","","","","","","","","","","","","","","","","",""
"3404","","<div style=""width:500px;"">
  <p>What best describes how you currently feel?</p>
  </div>","67","html-slider-response","47","631065","0.0-7.0-4.6","203","1","2025-08-06 13:30:28","36c45c0696341be0efffe67d72a12abb","194.39.218.23","Mozilla/5.0 (Windows NT 10.0; Win64; x64) AppleWebKit/537.36 (KHTML, like Gecko) Chrome/138.0.0.0 Safari/537.36","WebKit","Chrome","138.0.0.0","Windows","10.0","https://app.prolific.com/","de-DE,de;q=0.9,en-US;q=0.8,en;q=0.7","66ebc8c5e5b772065830754d","6877649eabb845cf142cd221","689358e2a1afbdf1b646402e","1","66ebc8c5e5b772065830754d","1","2025-08-06T13:41:03.182Z","","","","MotivationQ","","","","","","","","","","","50","","","","","","","","","","","","","","","","","","","","","","","","","","",""
"","","","","ctl-task-cpt","48","668963","0.0-7.0-0.7","203","1","2025-08-06 13:30:28","36c45c0696341be0efffe67d72a12abb","194.39.218.23","Mozilla/5.0 (Windows NT 10.0; Win64; x64) AppleWebKit/537.36 (KHTML, like Gecko) Chrome/138.0.0.0 Safari/537.36","WebKit","Chrome","138.0.0.0","Windows","10.0","https://app.prolific.com/","de-DE,de;q=0.9,en-US;q=0.8,en;q=0.7","66ebc8c5e5b772065830754d","6877649eabb845cf142cd221","689358e2a1afbdf1b646402e","1","66ebc8c5e5b772065830754d","1","2025-08-06T13:41:41.080Z","","","","","","","","","","","","","","","","win-only","0","g1:NW,g2:SE","0.3","8","0","637778.6","1076.3","6080.4","34880.3","1","4","4","6","2","-4","-4","3","7","0.022727272727272728","906","3000","-3005","[""down"",""right""]","{""num_key_presses"":8,""num_perfect"":3,""num_errors"":0,""num_randdir"":5,""num_randdir_good_moves"":1,""num_whilered"":0,""num_whileblue"":0,""num_blue"":1,""num_good_moves"":4}","[183.06740308489117,186.86428523744854,0.3,183.06740308489117,186.86428523744854,100.3,183.06740308489117,186.86428523744854,205,183.06740308489117,186.86428523744854,309.5,174.81740308489117,206.36428523744854,414.4,169.56740308489117,212.36428523744854,514.7,243.06740308489117,271.61428523744854,619.1,333.06740308489117,354.86428523744854,719.2,339.06740308489117,368.36428523744854,824.1,342.06740308489117,368.36428523744854,924.6,342.81740308489117,365.36428523744854,1025,348.06740308489117,356.36428523744854,1129.1,420.06740308489117,330.86428523744854,1229.2,484.56740308489117,284.36428523744854,1329.3,489.81740308489117,271.61428523744854,1434.4,489.81740308489117,268.61428523744854,1535.9,489.81740308489117,268.61428523744854,1639.2,489.81740308489117,268.61428523744854,1739.3,489.81740308489117,268.61428523744854,1839.5,489.81740308489117,268.61428523744854,1940,489.81740308489117,268.61428523744854,2045,489.81740308489117,268.61428523744854,2148.9,489.81740308489117,268.61428523744854,2250,489.81740308489117,268.61428523744854,2354.4,489.81740308489117,268.61428523744854,2454.6,489.81740308489117,268.61428523744854,2554.7,489.81740308489117,268.61428523744854,2658.9,489.81740308489117,268.61428523744854,2759.3,489.81740308489117,268.61428523744854,2863.9,489.81740308489117,268.61428523744854,2964.4,489.81740308489117,268.61428523744854,3064.9,489.81740308489117,268.61428523744854,3169.4,489.81740308489117,268.61428523744854,3270.5,489.81740308489117,268.61428523744854,3374.5,489.81740308489117,268.61428523744854,3474.6,489.81740308489117,268.61428523744854,3579.1,489.81740308489117,268.61428523744854,3679.2,489.81740308489117,268.61428523744854,3784.5,489.81740308489117,268.61428523744854,3884.5,489.81740308489117,268.61428523744854,3985.1,489.81740308489117,268.61428523744854,4090.5,489.81740308489117,268.61428523744854,4195,489.81740308489117,268.61428523744854,4299.5,489.81740308489117,268.61428523744854,4404.5,489.81740308489117,268.61428523744854,4509,489.81740308489117,268.61428523744854,4609,489.81740308489117,268.61428523744854,4709.7,489.81740308489117,268.61428523744854,4814.1,489.81740308489117,268.61428523744854,4914.4]","[1337.8,1337.8,1000,0,337.8,""smooth"",""right"",""right"",""good_move"",4074.4,2736.3,2394.5,1338.1,341.8,""smooth"",""right"",""right"",""good_move"",6457.5,2383.1,2055.4,4074.5,327.7,""oops"",""down"",""left"",""bad_move"",9121.5,2663.7,2323.7,6457.8,340,""oops"",""down"",""right"",""good_move"",12673.8,3552.2,3231.5,9121.6,320.7,""oops"",""down"",""up"",""bad_move"",19714.2,7040.2,3053.2,16270.4,390.7,""oops"",""down"",""left"",""bad_move"",23073.8,3359.1,3001.2,19714.7,357.9,""oops"",""down"",""up"",""bad_move"",25994,2919.9,2552,23074.1,367.9,""smooth"",""down"",""down"",""good_move""]"
"1821","","<div style=""width:500px;"">
  <p>What determined the result of this run?</p>
  </div>","57","html-slider-response","49","670785","0.0-7.0-1.7","203","1","2025-08-06 13:30:28","36c45c0696341be0efffe67d72a12abb","194.39.218.23","Mozilla/5.0 (Windows NT 10.0; Win64; x64) AppleWebKit/537.36 (KHTML, like Gecko) Chrome/138.0.0.0 Safari/537.36","WebKit","Chrome","138.0.0.0","Windows","10.0","https://app.prolific.com/","de-DE,de;q=0.9,en-US;q=0.8,en;q=0.7","66ebc8c5e5b772065830754d","6877649eabb845cf142cd221","689358e2a1afbdf1b646402e","1","66ebc8c5e5b772065830754d","1","2025-08-06T13:41:42.902Z","","","","AttribQ","","","","","","","","","","","50","","","","","","","","","","","","","","","","","","","","","","","","","","",""
"1054","","<div style=""width:500px;"">
  <p>How much control did you have over the ball?</p>
  </div>","37","html-slider-response","50","671840","0.0-7.0-2.7","203","1","2025-08-06 13:30:28","36c45c0696341be0efffe67d72a12abb","194.39.218.23","Mozilla/5.0 (Windows NT 10.0; Win64; x64) AppleWebKit/537.36 (KHTML, like Gecko) Chrome/138.0.0.0 Safari/537.36","WebKit","Chrome","138.0.0.0","Windows","10.0","https://app.prolific.com/","de-DE,de;q=0.9,en-US;q=0.8,en;q=0.7","66ebc8c5e5b772065830754d","6877649eabb845cf142cd221","689358e2a1afbdf1b646402e","1","66ebc8c5e5b772065830754d","1","2025-08-06T13:41:43.957Z","","","","ControlQ","","","","","","","","","","","50","","","","","","","","","","","","","","","","","","","","","","","","","","",""
"1297","","<div style=""width:500px;"">
  <p>How would you describe your current emotional state?</p>
  </div>","60","html-slider-response","51","673137","0.0-7.0-3.7","203","1","2025-08-06 13:30:28","36c45c0696341be0efffe67d72a12abb","194.39.218.23","Mozilla/5.0 (Windows NT 10.0; Win64; x64) AppleWebKit/537.36 (KHTML, like Gecko) Chrome/138.0.0.0 Safari/537.36","WebKit","Chrome","138.0.0.0","Windows","10.0","https://app.prolific.com/","de-DE,de;q=0.9,en-US;q=0.8,en;q=0.7","66ebc8c5e5b772065830754d","6877649eabb845cf142cd221","689358e2a1afbdf1b646402e","1","66ebc8c5e5b772065830754d","1","2025-08-06T13:41:45.255Z","","","","StressQ","","","","","","","","","","","50","","","","","","","","","","","","","","","","","","","","","","","","","","",""
"2072","","<div style=""width:500px;"">
  <p>What best describes how you currently feel?</p>
  </div>","70","html-slider-response","52","675211","0.0-7.0-4.7","203","1","2025-08-06 13:30:28","36c45c0696341be0efffe67d72a12abb","194.39.218.23","Mozilla/5.0 (Windows NT 10.0; Win64; x64) AppleWebKit/537.36 (KHTML, like Gecko) Chrome/138.0.0.0 Safari/537.36","WebKit","Chrome","138.0.0.0","Windows","10.0","https://app.prolific.com/","de-DE,de;q=0.9,en-US;q=0.8,en;q=0.7","66ebc8c5e5b772065830754d","6877649eabb845cf142cd221","689358e2a1afbdf1b646402e","1","66ebc8c5e5b772065830754d","1","2025-08-06T13:41:47.328Z","","","","MotivationQ","","","","","","","","","","","50","","","","","","","","","","","","","","","","","","","","","","","","","","",""
"","","","","ctl-task-cpt","53","727365","0.0-7.0-0.8","203","1","2025-08-06 13:30:28","36c45c0696341be0efffe67d72a12abb","194.39.218.23","Mozilla/5.0 (Windows NT 10.0; Win64; x64) AppleWebKit/537.36 (KHTML, like Gecko) Chrome/138.0.0.0 Safari/537.36","WebKit","Chrome","138.0.0.0","Windows","10.0","https://app.prolific.com/","de-DE,de;q=0.9,en-US;q=0.8,en;q=0.7","66ebc8c5e5b772065830754d","6877649eabb845cf142cd221","689358e2a1afbdf1b646402e","1","66ebc8c5e5b772065830754d","1","2025-08-06T13:42:39.482Z","","","","","","","","","","","","","","","","win-only","0","g1:NW,g2:SE","0.4","9","0","681924.4","999","6000.6","49136","1","4","8","6","2","-8","-13","0","3","0","737.5","3000","-3015","[""down"",""right""]","{""num_key_presses"":13,""num_perfect"":2,""num_errors"":5,""num_randdir"":6,""num_randdir_good_moves"":4,""num_whilered"":0,""num_whileblue"":1,""num_blue"":3,""num_good_moves"":7}","[181.56740308489117,182.36428523744854,0.3,181.56740308489117,183.86428523744854,101.1,186.81740308489117,184.61428523744854,201.9,220.56740308489117,194.36428523744854,302.1,228.81740308489117,226.61428523744854,402.4,268.56740308489117,306.86428523744854,506.5,330.06740308489117,336.86428523744854,607,333.06740308489117,337.61428523744854,708.6,334.56740308489117,337.61428523744854,811.2,342.81740308489117,311.36428523744854,912.1,378.06740308489117,244.61428523744854,1012.1,405.06740308489117,198.86428523744854,1112.6,411.06740308489117,190.61428523744854,1216.3,411.06740308489117,190.61428523744854,1317.5,411.06740308489117,190.61428523744854,1422.2,411.06740308489117,190.61428523744854,1526.9,411.06740308489117,190.61428523744854,1632.7,411.06740308489117,190.61428523744854,1737.1,411.06740308489117,190.61428523744854,1841.8,411.06740308489117,190.61428523744854,1946.3,411.06740308489117,190.61428523744854,2046.9,411.06740308489117,190.61428523744854,2147.3,411.06740308489117,190.61428523744854,2251.5,411.06740308489117,190.61428523744854,2351.5,411.06740308489117,190.61428523744854,2456.4,411.06740308489117,190.61428523744854,2556.4,411.06740308489117,190.61428523744854,2656.6,411.06740308489117,190.61428523744854,2762.8,411.06740308489117,190.61428523744854,2863.1,415.56740308489117,185.36428523744854,2967.6,415.56740308489117,185.36428523744854,3071.9,415.56740308489117,185.36428523744854,3176.2,415.56740308489117,185.36428523744854,3276.2,415.56740308489117,185.36428523744854,3377.2,415.56740308489117,185.36428523744854,3481.8,415.56740308489117,185.36428523744854,3586.2,415.56740308489117,185.36428523744854,3687.6,415.56740308489117,185.36428523744854,3792.1,415.56740308489117,185.36428523744854,3896.4,415.56740308489117,185.36428523744854,3997,415.56740308489117,185.36428523744854,4102.7,415.56740308489117,185.36428523744854,4207.8,415.56740308489117,185.36428523744854,4313.1,415.56740308489117,185.36428523744854,4417.1,415.56740308489117,185.36428523744854,4521.7,415.56740308489117,185.36428523744854,4627,415.56740308489117,185.36428523744854,4732.8,415.56740308489117,185.36428523744854,4837,415.56740308489117,185.36428523744854,4942.4]","[1351.8,1351.8,1000,0,351.8,""oops"",""right"",""down"",""good_move"",4647.4,3295,2940.4,1352.4,354.6,""oops"",""right"",""down"",""good_move"",11087.5,6440,2574.9,8154.6,358,""smooth"",""right"",""right"",""good_move"",13687.7,2599.9,2225.1,11087.9,374.7,""oops"",""right"",""up"",""bad_move"",19265.2,5577.2,2332.1,16561.1,372,""oops"",""right"",""down"",""good_move"",22655.4,3389.9,3029,19265.5,360.9,""oops"",""right"",""right"",""good_move"",25567.6,2911.8,2536,22655.8,375.9,""smooth"",""right"",""right"",""good_move"",27767.5,2199.7,1850.2,25567.8,349.5,""oops"",""down"",""left"",""bad_move"",30871.9,3104.2,2801.9,27767.7,302.3,""while_blue"",""down"",""right"",""good_move"",32887.9,2015.6,2653.7,30872.3,-638.1,""error"",""-"",""-"",""no_move"",34176.4,1288.3,3569.8,33890.8,-3284.2,""error"",""-"",""-"",""no_move"",36463.9,2287.2,2262,35181.3,-979.4,""error"",""-"",""-"",""no_move"",39904.5,3440.5,2895.3,37465,-455.8,""error"",""-"",""-"",""no_move""]"
"2167","","<div style=""width:500px;"">
  <p>What determined the result of this run?</p>
  </div>","31","html-slider-response","54","729532","0.0-7.0-1.8","203","1","2025-08-06 13:30:28","36c45c0696341be0efffe67d72a12abb","194.39.218.23","Mozilla/5.0 (Windows NT 10.0; Win64; x64) AppleWebKit/537.36 (KHTML, like Gecko) Chrome/138.0.0.0 Safari/537.36","WebKit","Chrome","138.0.0.0","Windows","10.0","https://app.prolific.com/","de-DE,de;q=0.9,en-US;q=0.8,en;q=0.7","66ebc8c5e5b772065830754d","6877649eabb845cf142cd221","689358e2a1afbdf1b646402e","1","66ebc8c5e5b772065830754d","1","2025-08-06T13:42:41.650Z","","","","AttribQ","","","","","","","","","","","50","","","","","","","","","","","","","","","","","","","","","","","","","","",""
"3505","","<div style=""width:500px;"">
  <p>How much control did you have over the ball?</p>
  </div>","22","html-slider-response","55","733038","0.0-7.0-2.8","203","1","2025-08-06 13:30:28","36c45c0696341be0efffe67d72a12abb","194.39.218.23","Mozilla/5.0 (Windows NT 10.0; Win64; x64) AppleWebKit/537.36 (KHTML, like Gecko) Chrome/138.0.0.0 Safari/537.36","WebKit","Chrome","138.0.0.0","Windows","10.0","https://app.prolific.com/","de-DE,de;q=0.9,en-US;q=0.8,en;q=0.7","66ebc8c5e5b772065830754d","6877649eabb845cf142cd221","689358e2a1afbdf1b646402e","1","66ebc8c5e5b772065830754d","1","2025-08-06T13:42:45.156Z","","","","ControlQ","","","","","","","","","","","50","","","","","","","","","","","","","","","","","","","","","","","","","","",""
"2168","","<div style=""width:500px;"">
  <p>How would you describe your current emotional state?</p>
  </div>","100","html-slider-response","56","735207","0.0-7.0-3.8","203","1","2025-08-06 13:30:28","36c45c0696341be0efffe67d72a12abb","194.39.218.23","Mozilla/5.0 (Windows NT 10.0; Win64; x64) AppleWebKit/537.36 (KHTML, like Gecko) Chrome/138.0.0.0 Safari/537.36","WebKit","Chrome","138.0.0.0","Windows","10.0","https://app.prolific.com/","de-DE,de;q=0.9,en-US;q=0.8,en;q=0.7","66ebc8c5e5b772065830754d","6877649eabb845cf142cd221","689358e2a1afbdf1b646402e","1","66ebc8c5e5b772065830754d","1","2025-08-06T13:42:47.324Z","","","","StressQ","","","","","","","","","","","50","","","","","","","","","","","","","","","","","","","","","","","","","","",""
"3119","","<div style=""width:500px;"">
  <p>What best describes how you currently feel?</p>
  </div>","83","html-slider-response","57","738327","0.0-7.0-4.8","203","1","2025-08-06 13:30:28","36c45c0696341be0efffe67d72a12abb","194.39.218.23","Mozilla/5.0 (Windows NT 10.0; Win64; x64) AppleWebKit/537.36 (KHTML, like Gecko) Chrome/138.0.0.0 Safari/537.36","WebKit","Chrome","138.0.0.0","Windows","10.0","https://app.prolific.com/","de-DE,de;q=0.9,en-US;q=0.8,en;q=0.7","66ebc8c5e5b772065830754d","6877649eabb845cf142cd221","689358e2a1afbdf1b646402e","1","66ebc8c5e5b772065830754d","1","2025-08-06T13:42:50.444Z","","","","MotivationQ","","","","","","","","","","","50","","","","","","","","","","","","","","","","","","","","","","","","","","",""
"","","","","ctl-task-cpt","58","773709","0.0-7.0-0.9","203","1","2025-08-06 13:30:28","36c45c0696341be0efffe67d72a12abb","194.39.218.23","Mozilla/5.0 (Windows NT 10.0; Win64; x64) AppleWebKit/537.36 (KHTML, like Gecko) Chrome/138.0.0.0 Safari/537.36","WebKit","Chrome","138.0.0.0","Windows","10.0","https://app.prolific.com/","de-DE,de;q=0.9,en-US;q=0.8,en;q=0.7","66ebc8c5e5b772065830754d","6877649eabb845cf142cd221","689358e2a1afbdf1b646402e","1","66ebc8c5e5b772065830754d","1","2025-08-06T13:43:25.826Z","","","","","","","","","","","","","","","","win-only","3","g1:SW,g2:NE","0.5","10","0","745040.3","1623.4","6625.8","32365.8","1","4","4","6","2","4","3","3","0","0.022727272727272728","1090.4","3000","430","[""up"",""right""]","{""num_key_presses"":8,""num_perfect"":3,""num_errors"":1,""num_randdir"":4,""num_randdir_good_moves"":3,""num_whilered"":0,""num_whileblue"":1,""num_blue"":2,""num_good_moves"":7}","[183.81740308489117,184.61428523744854,0.2,183.81740308489117,184.61428523744854,102.9,183.81740308489117,184.61428523744854,203.1,190.56740308489117,184.61428523744854,307.1,201.06740308489117,176.36428523744854,407.1,157.56740308489117,215.36428523744854,507.3,207.06740308489117,161.36428523744854,612.7,294.81740308489117,51.864285237448556,712.7,333.06740308489117,-4.385714762551448,813.5,357.81740308489117,-22.385714762551448,917.3,351.81740308489117,18.864285237448552,1022.2,349.56740308489117,25.614285237448552,1122.4,349.56740308489117,25.614285237448552,1227.1,388.56740308489117,39.864285237448556,1327.7,549.0674030848912,71.36428523744856,1428.1,550.5674030848912,80.36428523744856,1533.5,550.5674030848912,80.36428523744856,1637,550.5674030848912,81.86428523744856,1737.4,549.8174030848912,84.86428523744856,1842.2,549.8174030848912,84.86428523744856,1943,549.8174030848912,84.86428523744856,2049,546.8174030848912,84.86428523744856,2152.2,546.8174030848912,84.86428523744856,2253.3,546.8174030848912,84.86428523744856,2357.9,546.8174030848912,84.86428523744856,2463.6,546.8174030848912,84.86428523744856,2567,543.8174030848912,82.61428523744856,2672.8,537.8174030848912,74.36428523744856,2772.9,537.8174030848912,74.36428523744856,2877.3,532.5674030848912,74.36428523744856,2978.1,528.8174030848912,84.86428523744856,3083.5,525.8174030848912,87.86428523744856,3187.2,522.8174030848912,86.36428523744856,3292.1,519.8174030848912,85.61428523744856,3393.6,516.8174030848912,80.36428523744856,3497.7,513.8174030848912,79.61428523744856,3598.6,510.81740308489117,78.86428523744856,3702.1,508.56740308489117,78.86428523744856,3807.3,508.56740308489117,78.86428523744856,3907.5,507.81740308489117,78.86428523744856,4012.4,507.81740308489117,78.86428523744856,4113.3,507.81740308489117,78.86428523744856,4217.1,507.81740308489117,78.86428523744856,4322.2,507.81740308489117,78.86428523744856,4422.6,507.81740308489117,78.86428523744856,4522.7,505.56740308489117,78.86428523744856,4623,504.81740308489117,78.86428523744856,4727.7,504.81740308489117,78.86428523744856,4828.9,501.81740308489117,78.86428523744856,4932.1]","[1378.4,1378.4,1000,0,378.4,""oops"",""up"",""right"",""good_move"",7194.4,5815.7,1993.2,4855.7,345.5,""oops"",""up"",""left"",""bad_move"",9682.4,2487.7,2130.7,7194.7,357,""while_blue"",""up"",""up"",""good_move"",13018.4,3335.6,2883.9,9682.8,451.7,""smooth"",""right"",""right"",""good_move"",16195.9,3177.2,2842.2,13018.7,335,""smooth"",""right"",""right"",""good_move"",20154.5,3958.3,3564.3,16196.2,394,""oops"",""up"",""up"",""good_move"",22930.3,2775.5,2447.1,20154.8,328.4,""oops"",""up"",""right"",""good_move"",25652.3,2721.6,2344.2,22930.7,377.4,""smooth"",""up"",""up"",""good_move""]"
"134228","","<div style=""width:500px;"">
  <p>What determined the result of this run?</p>
  </div>","63","html-slider-response","59","907939","0.0-7.0-1.9","203","1","2025-08-06 13:30:28","36c45c0696341be0efffe67d72a12abb","194.39.218.23","Mozilla/5.0 (Windows NT 10.0; Win64; x64) AppleWebKit/537.36 (KHTML, like Gecko) Chrome/138.0.0.0 Safari/537.36","WebKit","Chrome","138.0.0.0","Windows","10.0","https://app.prolific.com/","de-DE,de;q=0.9,en-US;q=0.8,en;q=0.7","66ebc8c5e5b772065830754d","6877649eabb845cf142cd221","689358e2a1afbdf1b646402e","1","66ebc8c5e5b772065830754d","1","2025-08-06T13:45:40.056Z","","","","AttribQ","","","","","","","","","","","50","","","","","","","","","","","","","","","","","","","","","","","","","","",""
"5976","","<div style=""width:500px;"">
  <p>How much control did you have over the ball?</p>
  </div>","6","html-slider-response","60","913916","0.0-7.0-2.9","203","1","2025-08-06 13:30:28","36c45c0696341be0efffe67d72a12abb","194.39.218.23","Mozilla/5.0 (Windows NT 10.0; Win64; x64) AppleWebKit/537.36 (KHTML, like Gecko) Chrome/138.0.0.0 Safari/537.36","WebKit","Chrome","138.0.0.0","Windows","10.0","https://app.prolific.com/","de-DE,de;q=0.9,en-US;q=0.8,en;q=0.7","66ebc8c5e5b772065830754d","6877649eabb845cf142cd221","689358e2a1afbdf1b646402e","1","66ebc8c5e5b772065830754d","1","2025-08-06T13:45:46.034Z","","","","ControlQ","","","","","","","","","","","50","","","","","","","","","","","","","","","","","","","","","","","","","","",""
"3766","","<div style=""width:500px;"">
  <p>How would you describe your current emotional state?</p>
  </div>","70","html-slider-response","61","917683","0.0-7.0-3.9","203","1","2025-08-06 13:30:28","36c45c0696341be0efffe67d72a12abb","194.39.218.23","Mozilla/5.0 (Windows NT 10.0; Win64; x64) AppleWebKit/537.36 (KHTML, like Gecko) Chrome/138.0.0.0 Safari/537.36","WebKit","Chrome","138.0.0.0","Windows","10.0","https://app.prolific.com/","de-DE,de;q=0.9,en-US;q=0.8,en;q=0.7","66ebc8c5e5b772065830754d","6877649eabb845cf142cd221","689358e2a1afbdf1b646402e","1","66ebc8c5e5b772065830754d","1","2025-08-06T13:45:49.800Z","","","","StressQ","","","","","","","","","","","50","","","","","","","","","","","","","","","","","","","","","","","","","","",""
"2460","","<div style=""width:500px;"">
  <p>What best describes how you currently feel?</p>
  </div>","65","html-slider-response","62","920145","0.0-7.0-4.9","203","1","2025-08-06 13:30:28","36c45c0696341be0efffe67d72a12abb","194.39.218.23","Mozilla/5.0 (Windows NT 10.0; Win64; x64) AppleWebKit/537.36 (KHTML, like Gecko) Chrome/138.0.0.0 Safari/537.36","WebKit","Chrome","138.0.0.0","Windows","10.0","https://app.prolific.com/","de-DE,de;q=0.9,en-US;q=0.8,en;q=0.7","66ebc8c5e5b772065830754d","6877649eabb845cf142cd221","689358e2a1afbdf1b646402e","1","66ebc8c5e5b772065830754d","1","2025-08-06T13:45:52.262Z","","","","MotivationQ","","","","","","","","","","","50","","","","","","","","","","","","","","","","","","","","","","","","","","",""
"","","","","ctl-task-cpt","63","953390","0.0-7.0-0.10","203","1","2025-08-06 13:30:28","36c45c0696341be0efffe67d72a12abb","194.39.218.23","Mozilla/5.0 (Windows NT 10.0; Win64; x64) AppleWebKit/537.36 (KHTML, like Gecko) Chrome/138.0.0.0 Safari/537.36","WebKit","Chrome","138.0.0.0","Windows","10.0","https://app.prolific.com/","de-DE,de;q=0.9,en-US;q=0.8,en;q=0.7","66ebc8c5e5b772065830754d","6877649eabb845cf142cd221","689358e2a1afbdf1b646402e","1","66ebc8c5e5b772065830754d","1","2025-08-06T13:46:25.507Z","","","","","","","","","","","","","","","","win-only","0","g1:NW,g2:SE","0.6","11","0","926858.3","1659.8","6660.6","30220.3","1","4","8","6","2","-8","-8","0","3","0","921.8","3000","-2830","[""down"",""right""]","{""num_key_presses"":6,""num_perfect"":3,""num_errors"":0,""num_randdir"":3,""num_randdir_good_moves"":0,""num_whilered"":0,""num_whileblue"":0,""num_blue"":1,""num_good_moves"":3}","[186.06740308489117,183.86428523744854,0.3,186.06740308489117,183.86428523744854,101.8,186.06740308489117,183.86428523744854,258.7,186.06740308489117,183.86428523744854,360.6,186.06740308489117,183.86428523744854,494.3,211.56740308489117,227.36428523744854,597.5,286.56740308489117,288.86428523744854,700.9,310.56740308489117,307.61428523744854,801.2,345.06740308489117,338.36428523744854,902.1,345.81740308489117,339.86428523744854,1006.1,348.06740308489117,328.61428523744854,1110.5,348.06740308489117,328.61428523744854,1211.5,348.06740308489117,328.61428523744854,1315.3,348.06740308489117,328.61428523744854,1418.3,348.06740308489117,328.61428523744854,1521.6,348.06740308489117,328.61428523744854,1626.3,348.06740308489117,328.61428523744854,1730.9,348.06740308489117,325.61428523744854,1831,375.06740308489117,212.36428523744854,1931,445.56740308489117,-10.385714762551448,2036.1,459.81740308489117,-50.135714762551444,2142,459.81740308489117,-50.135714762551444,2242.5,459.81740308489117,-50.135714762551444,2346.6,459.81740308489117,-50.135714762551444,2450.8,459.81740308489117,-50.135714762551444,2551,459.81740308489117,-50.135714762551444,2662.7,459.81740308489117,-50.135714762551444,2765.6,459.81740308489117,-50.135714762551444,2865.7,459.81740308489117,-50.135714762551444,2967.6,459.81740308489117,-50.135714762551444,3071.1,459.81740308489117,-50.135714762551444,3173.8,459.81740308489117,-50.135714762551444,3275.8,459.81740308489117,-50.135714762551444,3382,459.81740308489117,-50.135714762551444,3485.6,459.81740308489117,-50.135714762551444,3586.1,459.81740308489117,-50.135714762551444,3690.9,459.81740308489117,-50.135714762551444,3791.9,459.81740308489117,-50.135714762551444,3893.8,459.81740308489117,-50.135714762551444,3995.9,459.81740308489117,-50.135714762551444,4096,459.81740308489117,-50.135714762551444,4199.6,459.81740308489117,-50.135714762551444,4300.8,459.81740308489117,-50.135714762551444,4401.9,459.81740308489117,-50.135714762551444,4502,459.81740308489117,-50.135714762551444,4606.5,459.81740308489117,-50.135714762551444,4707.3,459.81740308489117,-50.135714762551444,4812.4,459.81740308489117,-50.135714762551444,4915.8]","[1518.1,1518.1,1000,0,518.1,""smooth"",""right"",""right"",""good_move"",4070.3,2551.5,2016.4,1518.8,535.1,""oops"",""down"",""left"",""bad_move"",6821.8,2751.2,2344.1,4070.6,407.1,""oops"",""down"",""left"",""bad_move"",13174.2,6352.1,2605.8,10074.9,493.5,""smooth"",""down"",""down"",""good_move"",16854.6,3680,3259,13174.6,421,""smooth"",""right"",""right"",""good_move"",20270,3415,3061.9,16855,353.1,""oops"",""right"",""up"",""bad_move""]"
"329954","","<div style=""width:500px;"">
  <p>What determined the result of this run?</p>
  </div>","62","html-slider-response","64","1283346","0.0-7.0-1.10","203","1","2025-08-06 13:30:28","36c45c0696341be0efffe67d72a12abb","194.39.218.23","Mozilla/5.0 (Windows NT 10.0; Win64; x64) AppleWebKit/537.36 (KHTML, like Gecko) Chrome/138.0.0.0 Safari/537.36","WebKit","Chrome","138.0.0.0","Windows","10.0","https://app.prolific.com/","de-DE,de;q=0.9,en-US;q=0.8,en;q=0.7","66ebc8c5e5b772065830754d","6877649eabb845cf142cd221","689358e2a1afbdf1b646402e","1","66ebc8c5e5b772065830754d","1","2025-08-06T13:51:55.464Z","","","","AttribQ","","","","","","","","","","","50","","","","","","","","","","","","","","","","","","","","","","","","","","",""
"1918","","<div style=""width:500px;"">
  <p>How much control did you have over the ball?</p>
  </div>","31","html-slider-response","65","1285265","0.0-7.0-2.10","203","1","2025-08-06 13:30:28","36c45c0696341be0efffe67d72a12abb","194.39.218.23","Mozilla/5.0 (Windows NT 10.0; Win64; x64) AppleWebKit/537.36 (KHTML, like Gecko) Chrome/138.0.0.0 Safari/537.36","WebKit","Chrome","138.0.0.0","Windows","10.0","https://app.prolific.com/","de-DE,de;q=0.9,en-US;q=0.8,en;q=0.7","66ebc8c5e5b772065830754d","6877649eabb845cf142cd221","689358e2a1afbdf1b646402e","1","66ebc8c5e5b772065830754d","1","2025-08-06T13:51:57.382Z","","","","ControlQ","","","","","","","","","","","50","","","","","","","","","","","","","","","","","","","","","","","","","","",""
"1283","","<div style=""width:500px;"">
  <p>How would you describe your current emotional state?</p>
  </div>","35","html-slider-response","66","1286549","0.0-7.0-3.10","203","1","2025-08-06 13:30:28","36c45c0696341be0efffe67d72a12abb","194.39.218.23","Mozilla/5.0 (Windows NT 10.0; Win64; x64) AppleWebKit/537.36 (KHTML, like Gecko) Chrome/138.0.0.0 Safari/537.36","WebKit","Chrome","138.0.0.0","Windows","10.0","https://app.prolific.com/","de-DE,de;q=0.9,en-US;q=0.8,en;q=0.7","66ebc8c5e5b772065830754d","6877649eabb845cf142cd221","689358e2a1afbdf1b646402e","1","66ebc8c5e5b772065830754d","1","2025-08-06T13:51:58.666Z","","","","StressQ","","","","","","","","","","","50","","","","","","","","","","","","","","","","","","","","","","","","","","",""
"2667","","<div style=""width:500px;"">
  <p>What best describes how you currently feel?</p>
  </div>","78","html-slider-response","67","1289217","0.0-7.0-4.10","203","1","2025-08-06 13:30:28","36c45c0696341be0efffe67d72a12abb","194.39.218.23","Mozilla/5.0 (Windows NT 10.0; Win64; x64) AppleWebKit/537.36 (KHTML, like Gecko) Chrome/138.0.0.0 Safari/537.36","WebKit","Chrome","138.0.0.0","Windows","10.0","https://app.prolific.com/","de-DE,de;q=0.9,en-US;q=0.8,en;q=0.7","66ebc8c5e5b772065830754d","6877649eabb845cf142cd221","689358e2a1afbdf1b646402e","1","66ebc8c5e5b772065830754d","1","2025-08-06T13:52:01.334Z","","","","MotivationQ","","","","","","","","","","","50","","","","","","","","","","","","","","","","","","","","","","","","","","",""
"","","","","ctl-task-cpt","68","1324037","0.0-7.0-0.11","203","1","2025-08-06 13:30:28","36c45c0696341be0efffe67d72a12abb","194.39.218.23","Mozilla/5.0 (Windows NT 10.0; Win64; x64) AppleWebKit/537.36 (KHTML, like Gecko) Chrome/138.0.0.0 Safari/537.36","WebKit","Chrome","138.0.0.0","Windows","10.0","https://app.prolific.com/","de-DE,de;q=0.9,en-US;q=0.8,en;q=0.7","66ebc8c5e5b772065830754d","6877649eabb845cf142cd221","689358e2a1afbdf1b646402e","1","66ebc8c5e5b772065830754d","1","2025-08-06T13:52:36.154Z","","","","","","","","","","","","","","","","win-only","0","g1:NW,g2:SE","0.7","12","0","1295930.6","1382.3","6386.5","31801.1","1","4","4","6","2","-4","-4","0","0","0","713.9","3000","-3015","[""down"",""right""]","{""num_key_presses"":9,""num_perfect"":6,""num_errors"":0,""num_randdir"":3,""num_randdir_good_moves"":0,""num_whilered"":0,""num_whileblue"":0,""num_blue"":0,""num_good_moves"":6}","[186.81740308489117,185.36428523744854,0.4,186.81740308489117,185.36428523744854,102.8,187.56740308489117,185.36428523744854,203.7,183.81740308489117,209.36428523744854,307.9,181.56740308489117,248.36428523744854,408,291.06740308489117,291.86428523744854,508,325.56740308489117,335.36428523744854,609.4,327.06740308489117,335.36428523744854,718.3,327.06740308489117,335.36428523744854,818.8,387.06740308489117,245.36428523744854,923,492.06740308489117,146.36428523744854,1023,492.06740308489117,146.36428523744854,1123.1,492.06740308489117,146.36428523744854,1225.2,492.06740308489117,146.36428523744854,1327.9,492.06740308489117,146.36428523744854,1428.5,492.06740308489117,146.36428523744854,1534.1,492.06740308489117,146.36428523744854,1638.3,492.06740308489117,146.36428523744854,1739.3,492.06740308489117,146.36428523744854,1843.2,492.06740308489117,146.36428523744854,1948.1,492.06740308489117,146.36428523744854,2049.1,492.06740308489117,146.36428523744854,2149.1,492.06740308489117,146.36428523744854,2253.9,492.06740308489117,146.36428523744854,2354.3,492.06740308489117,146.36428523744854,2458.4,492.06740308489117,146.36428523744854,2563.5,492.06740308489117,146.36428523744854,2663.7,492.06740308489117,146.36428523744854,2763.7,492.06740308489117,146.36428523744854,2864.4,492.06740308489117,146.36428523744854,2969,492.06740308489117,146.36428523744854,3073,492.06740308489117,146.36428523744854,3178.8,492.06740308489117,146.36428523744854,3279.4,492.06740308489117,146.36428523744854,3383,492.06740308489117,146.36428523744854,3483.1,492.06740308489117,146.36428523744854,3583.3,492.06740308489117,146.36428523744854,3683.8,492.06740308489117,146.36428523744854,3789.3,492.06740308489117,146.36428523744854,3893.5,492.06740308489117,146.36428523744854,3997.9,492.06740308489117,146.36428523744854,4099.1,492.06740308489117,146.36428523744854,4203.3,492.06740308489117,146.36428523744854,4303.8,492.06740308489117,146.36428523744854,4404.1,492.06740308489117,146.36428523744854,4508.9,492.06740308489117,146.36428523744854,4613.6,492.06740308489117,146.36428523744854,4718.2,492.06740308489117,146.36428523744854,4822.8,492.06740308489117,146.36428523744854,4923.9]","[1351.6,1351.6,1000,0,351.6,""smooth"",""right"",""right"",""good_move"",3634.3,2282.5,1961.2,1351.9,321.3,""oops"",""down"",""left"",""bad_move"",6896.2,3261.4,2893.9,3634.8,367.5,""oops"",""right"",""up"",""bad_move"",9599.3,2702.8,2382.3,6896.5,320.5,""smooth"",""right"",""right"",""good_move"",11729.6,2129.9,1752,9599.7,377.9,""oops"",""down"",""up"",""bad_move"",14423.6,2693.7,2366.5,11729.9,327.2,""smooth"",""right"",""right"",""good_move"",17377,2953,2644.4,14424,308.6,""smooth"",""down"",""down"",""good_move"",19831.6,2454.2,2129.5,17377.4,324.7,""smooth"",""down"",""down"",""good_move"",22776.5,2944.7,2675.2,19831.8,269.5,""smooth"",""down"",""down"",""good_move""]"
"5672","","<div style=""width:500px;"">
  <p>What determined the result of this run?</p>
  </div>","15","html-slider-response","69","1329710","0.0-7.0-1.11","203","1","2025-08-06 13:30:28","36c45c0696341be0efffe67d72a12abb","194.39.218.23","Mozilla/5.0 (Windows NT 10.0; Win64; x64) AppleWebKit/537.36 (KHTML, like Gecko) Chrome/138.0.0.0 Safari/537.36","WebKit","Chrome","138.0.0.0","Windows","10.0","https://app.prolific.com/","de-DE,de;q=0.9,en-US;q=0.8,en;q=0.7","66ebc8c5e5b772065830754d","6877649eabb845cf142cd221","689358e2a1afbdf1b646402e","1","66ebc8c5e5b772065830754d","1","2025-08-06T13:52:41.827Z","","","","AttribQ","","","","","","","","","","","50","","","","","","","","","","","","","","","","","","","","","","","","","","",""
"1269","","<div style=""width:500px;"">
  <p>How much control did you have over the ball?</p>
  </div>","23","html-slider-response","70","1330979","0.0-7.0-2.11","203","1","2025-08-06 13:30:28","36c45c0696341be0efffe67d72a12abb","194.39.218.23","Mozilla/5.0 (Windows NT 10.0; Win64; x64) AppleWebKit/537.36 (KHTML, like Gecko) Chrome/138.0.0.0 Safari/537.36","WebKit","Chrome","138.0.0.0","Windows","10.0","https://app.prolific.com/","de-DE,de;q=0.9,en-US;q=0.8,en;q=0.7","66ebc8c5e5b772065830754d","6877649eabb845cf142cd221","689358e2a1afbdf1b646402e","1","66ebc8c5e5b772065830754d","1","2025-08-06T13:52:43.096Z","","","","ControlQ","","","","","","","","","","","50","","","","","","","","","","","","","","","","","","","","","","","","","","",""
"2813","","<div style=""width:500px;"">
  <p>How would you describe your current emotional state?</p>
  </div>","75","html-slider-response","71","1333793","0.0-7.0-3.11","203","1","2025-08-06 13:30:28","36c45c0696341be0efffe67d72a12abb","194.39.218.23","Mozilla/5.0 (Windows NT 10.0; Win64; x64) AppleWebKit/537.36 (KHTML, like Gecko) Chrome/138.0.0.0 Safari/537.36","WebKit","Chrome","138.0.0.0","Windows","10.0","https://app.prolific.com/","de-DE,de;q=0.9,en-US;q=0.8,en;q=0.7","66ebc8c5e5b772065830754d","6877649eabb845cf142cd221","689358e2a1afbdf1b646402e","1","66ebc8c5e5b772065830754d","1","2025-08-06T13:52:45.910Z","","","","StressQ","","","","","","","","","","","50","","","","","","","","","","","","","","","","","","","","","","","","","","",""
"1522","","<div style=""width:500px;"">
  <p>What best describes how you currently feel?</p>
  </div>","72","html-slider-response","72","1335316","0.0-7.0-4.11","203","1","2025-08-06 13:30:28","36c45c0696341be0efffe67d72a12abb","194.39.218.23","Mozilla/5.0 (Windows NT 10.0; Win64; x64) AppleWebKit/537.36 (KHTML, like Gecko) Chrome/138.0.0.0 Safari/537.36","WebKit","Chrome","138.0.0.0","Windows","10.0","https://app.prolific.com/","de-DE,de;q=0.9,en-US;q=0.8,en;q=0.7","66ebc8c5e5b772065830754d","6877649eabb845cf142cd221","689358e2a1afbdf1b646402e","1","66ebc8c5e5b772065830754d","1","2025-08-06T13:52:47.433Z","","","","MotivationQ","","","","","","","","","","","50","","","","","","","","","","","","","","","","","","","","","","","","","","",""
"","","","","ctl-task-cpt","73","1369890","0.0-7.0-0.12","203","1","2025-08-06 13:30:28","36c45c0696341be0efffe67d72a12abb","194.39.218.23","Mozilla/5.0 (Windows NT 10.0; Win64; x64) AppleWebKit/537.36 (KHTML, like Gecko) Chrome/138.0.0.0 Safari/537.36","WebKit","Chrome","138.0.0.0","Windows","10.0","https://app.prolific.com/","de-DE,de;q=0.9,en-US;q=0.8,en;q=0.7","66ebc8c5e5b772065830754d","6877649eabb845cf142cd221","689358e2a1afbdf1b646402e","1","66ebc8c5e5b772065830754d","1","2025-08-06T13:53:22.007Z","","","","","","","","","","","","","","","","win-only","0","g1:NW,g2:SE","0.8","13","0","1342028.7","778.6","5781.8","31556.8","1","4","4","6","1","1","0","0","0","0","1989.8","3000","490","[""left"",""up""]","{""num_key_presses"":8,""num_perfect"":6,""num_errors"":1,""num_randdir"":1,""num_randdir_good_moves"":0,""num_whilered"":0,""num_whileblue"":1,""num_blue"":2,""num_good_moves"":6}","[181.56740308489117,182.36428523744854,0.3,181.56740308489117,182.36428523744854,102.2,181.56740308489117,182.36428523744854,202.9,186.06740308489117,181.61428523744854,307.5,219.81740308489117,212.36428523744854,411.8,276.06740308489117,282.86428523744854,517.4,291.81740308489117,303.86428523744854,622.5,307.56740308489117,314.36428523744854,722.8,312.06740308489117,314.36428523744854,826.9,312.06740308489117,314.36428523744854,927.6,319.56740308489117,319.61428523744854,1032,321.06740308489117,320.36428523744854,1132.1,238.56740308489117,221.36428523744854,1233.2,102.06740308489118,123.86428523744856,1337.5,91.56740308489118,98.36428523744856,1442.4,75.06740308489118,76.61428523744856,1542.4,63.81740308489118,60.864285237448556,1647.9,57.81740308489118,52.614285237448556,1751.7,52.56740308489118,48.864285237448556,1852.4,46.56740308489118,43.614285237448556,1952.8,46.56740308489118,43.614285237448556,2058.1,160.56740308489117,26.364285237448552,2162.8,411.81740308489117,12.864285237448552,2267.1,375.81740308489117,21.864285237448552,2371.8,375.81740308489117,21.864285237448552,2472.2,375.81740308489117,21.864285237448552,2576.7,375.81740308489117,21.864285237448552,2677.4,375.81740308489117,21.864285237448552,2782.9,375.81740308489117,21.864285237448552,2888.4,375.81740308489117,21.864285237448552,2992.1,375.81740308489117,21.864285237448552,3093,375.81740308489117,21.864285237448552,3194.6,375.81740308489117,21.864285237448552,3296.8,375.81740308489117,21.864285237448552,3397.2,375.81740308489117,21.864285237448552,3501.8,375.81740308489117,21.864285237448552,3602.3,375.81740308489117,21.864285237448552,3706.8,375.81740308489117,21.864285237448552,3807.9,375.81740308489117,21.864285237448552,3912,375.81740308489117,21.864285237448552,4017.4,375.81740308489117,21.864285237448552,4122.3,375.81740308489117,21.864285237448552,4222.8,375.81740308489117,21.864285237448552,4327.9,375.81740308489117,21.864285237448552,4428,375.81740308489117,21.864285237448552,4532.5,375.81740308489117,21.864285237448552,4637.1,375.81740308489117,21.864285237448552,4741.7,375.81740308489117,21.864285237448552,4842.3,375.81740308489117,21.864285237448552,4942.4]","[1378,1378,1000,0,378,""smooth"",""up"",""up"",""good_move"",4570.6,3192.2,2817.3,1378.4,374.9,""smooth"",""left"",""left"",""good_move"",7826,3254.9,2916,4571.1,338.9,""smooth"",""up"",""up"",""good_move"",11162.4,3336,3042.5,7826.4,293.5,""while_blue"",""left"",""right"",""bad_move"",13986.2,2823.4,2472.6,11162.8,350.8,""oops"",""left"",""right"",""bad_move"",16802.7,2816.3,2490,13986.4,326.3,""smooth"",""left"",""left"",""good_move"",23545.8,6742.9,2674.3,20519,352.5,""smooth"",""left"",""left"",""good_move"",25682.3,2136.1,1710.7,23546.2,425.4,""smooth"",""left"",""left"",""good_move""]"
"2134","","<div style=""width:500px;"">
  <p>What determined the result of this run?</p>
  </div>","64","html-slider-response","74","1372025","0.0-7.0-1.12","203","1","2025-08-06 13:30:28","36c45c0696341be0efffe67d72a12abb","194.39.218.23","Mozilla/5.0 (Windows NT 10.0; Win64; x64) AppleWebKit/537.36 (KHTML, like Gecko) Chrome/138.0.0.0 Safari/537.36","WebKit","Chrome","138.0.0.0","Windows","10.0","https://app.prolific.com/","de-DE,de;q=0.9,en-US;q=0.8,en;q=0.7","66ebc8c5e5b772065830754d","6877649eabb845cf142cd221","689358e2a1afbdf1b646402e","1","66ebc8c5e5b772065830754d","1","2025-08-06T13:53:24.142Z","","","","AttribQ","","","","","","","","","","","50","","","","","","","","","","","","","","","","","","","","","","","","","","",""
"1382","","<div style=""width:500px;"">
  <p>How much control did you have over the ball?</p>
  </div>","26","html-slider-response","75","1373407","0.0-7.0-2.12","203","1","2025-08-06 13:30:28","36c45c0696341be0efffe67d72a12abb","194.39.218.23","Mozilla/5.0 (Windows NT 10.0; Win64; x64) AppleWebKit/537.36 (KHTML, like Gecko) Chrome/138.0.0.0 Safari/537.36","WebKit","Chrome","138.0.0.0","Windows","10.0","https://app.prolific.com/","de-DE,de;q=0.9,en-US;q=0.8,en;q=0.7","66ebc8c5e5b772065830754d","6877649eabb845cf142cd221","689358e2a1afbdf1b646402e","1","66ebc8c5e5b772065830754d","1","2025-08-06T13:53:25.524Z","","","","ControlQ","","","","","","","","","","","50","","","","","","","","","","","","","","","","","","","","","","","","","","",""
"3853","","<div style=""width:500px;"">
  <p>How would you describe your current emotional state?</p>
