"rt","response_timestamp","stimulus","response","trial_type","trial_index","time_elapsed","internal_node_id","run_id","condition","recorded_at","source_code_version","ip","user_agent","device","browser","browser_version","platform","platform_version","referer","accept_language","PROLIFIC_PID","STUDY_ID","SESSION_ID","BATCH","prolific_id","batch","realtime","success","question_order","question_id","eventType","responses","item_order","radio_event_ids","radio_event_times","key_event_times","mouse_event_times","straightlining","zigzagging","honeypot","view_history","slider_start","which_type","canvas_config","goals_layout","control_level","trial_number","tutorial_trial_number","trial_start_time","phase1_start_time","phase2_start_time","phase3_start_time","goal_1_value","goal_1_distance","goal_2_value","goal_2_distance","goal_selected","outcome","outcome_total","participant_final_score","participant_initial_score","participant_final_score_prop","goal_choice_rt","allocated_time","allocated_time_remaining","goal_direction","counts","mouse_movements","key_presses"
"3836","1754517592853","<p style='font-size:40px;line-height:1.25'><strong>Welcome to the experiment!</strong></p><p style='font-size:1.1em;line-height:1.25'>Thank you for participanting in our experiment again! You will be asked to play the Dysfunctional Ball Game again. We will briefly recap the rules before we start.</p><p style='font-size:1.1em;line-height:1.25'>Press <strong>Next</strong> to continue.</p>","0","custom-html-button-response","0","3838","0.0-0.0","222","1","2025-08-06 21:59:46","36c45c0696341be0efffe67d72a12abb","173.21.92.193","Mozilla/5.0 (Windows NT 10.0; Win64; x64) AppleWebKit/537.36 (KHTML, like Gecko) Chrome/138.0.0.0 Safari/537.36","WebKit","Chrome","138.0.0.0","Windows","10.0","https://app.prolific.com/","en-US,en;q=0.9","66f4c82536b5c8271f53564c","6877649eabb845cf142cd221","6893d0424fa6c9372bbf8453","1","66f4c82536b5c8271f53564c","1","2025-08-06T21:59:52.854Z","","","","","","","","","","","","","","","","","","","","","","","","","","","","","","","","","","","","","","","","","",""
"7357","","","","fullscreen","1","12252","0.0-1.0","222","1","2025-08-06 21:59:46","36c45c0696341be0efffe67d72a12abb","173.21.92.193","Mozilla/5.0 (Windows NT 10.0; Win64; x64) AppleWebKit/537.36 (KHTML, like Gecko) Chrome/138.0.0.0 Safari/537.36","WebKit","Chrome","138.0.0.0","Windows","10.0","https://app.prolific.com/","en-US,en;q=0.9","66f4c82536b5c8271f53564c","6877649eabb845cf142cd221","6893d0424fa6c9372bbf8453","1","66f4c82536b5c8271f53564c","1","","true","","","","","","","","","","","","","","","","","","","","","","","","","","","","","","","","","","","","","","","","",""
"5631","1754517606901"," <p style='font-size:1.1em;line-height:1.25'>Thank you for closing all other tabs.</p><p style='font-size:1.1em;line-height:1.25'>We will now invite you to fill in some questionnaires, before starting the game.<br>This will take about 5 minutes.<br></p><p style='font-size:1.1em;line-height:1.25'>Press the <strong>Next</strong> button to continue.</p>","0","custom-html-button-response","2","17886","0.0-2.0","222","1","2025-08-06 21:59:46","36c45c0696341be0efffe67d72a12abb","173.21.92.193","Mozilla/5.0 (Windows NT 10.0; Win64; x64) AppleWebKit/537.36 (KHTML, like Gecko) Chrome/138.0.0.0 Safari/537.36","WebKit","Chrome","138.0.0.0","Windows","10.0","https://app.prolific.com/","en-US,en;q=0.9","66f4c82536b5c8271f53564c","6877649eabb845cf142cd221","6893d0424fa6c9372bbf8453","1","66f4c82536b5c8271f53564c","1","2025-08-06T22:00:06.902Z","","","","","","","","","","","","","","","","","","","","","","","","","","","","","","","","","","","","","","","","","",""
"3098","","","{""assigned_sex"":""female""}","survey-multi-choice","3","20987","0.0-3.0-0.0","222","1","2025-08-06 21:59:46","36c45c0696341be0efffe67d72a12abb","173.21.92.193","Mozilla/5.0 (Windows NT 10.0; Win64; x64) AppleWebKit/537.36 (KHTML, like Gecko) Chrome/138.0.0.0 Safari/537.36","WebKit","Chrome","138.0.0.0","Windows","10.0","https://app.prolific.com/","en-US,en;q=0.9","66f4c82536b5c8271f53564c","6877649eabb845cf142cd221","6893d0424fa6c9372bbf8453","1","66f4c82536b5c8271f53564c","1","","","[0]","0","demographics","","","","","","","","","","","","","","","","","","","","","","","","","","","","","","","","","","","","","",""
"7681","1754517617685","<p style='font-size:1.1em;line-height:1.25'>In the following, we will perform a baseline assessment. This means that we will ask you a few questions relating to your experiences over the past month.<br></p><p style='font-size:1.1em;line-height:1.25'>Press the <strong>Next</strong> button to continue.</p>","0","custom-html-button-response","4","28669","0.0-4.0-0.0","222","1","2025-08-06 21:59:46","36c45c0696341be0efffe67d72a12abb","173.21.92.193","Mozilla/5.0 (Windows NT 10.0; Win64; x64) AppleWebKit/537.36 (KHTML, like Gecko) Chrome/138.0.0.0 Safari/537.36","WebKit","Chrome","138.0.0.0","Windows","10.0","https://app.prolific.com/","en-US,en;q=0.9","66f4c82536b5c8271f53564c","6877649eabb845cf142cd221","6893d0424fa6c9372bbf8453","1","66f4c82536b5c8271f53564c","1","2025-08-06T22:00:17.685Z","","","","","","","","","","","","","","","","","","","","","","","","","","","","","","","","","","","","","","","","","",""
"40625.699999928474","","","","survey-template","5","69300","0.0-4.0-1.0","222","1","2025-08-06 21:59:46","36c45c0696341be0efffe67d72a12abb","173.21.92.193","Mozilla/5.0 (Windows NT 10.0; Win64; x64) AppleWebKit/537.36 (KHTML, like Gecko) Chrome/138.0.0.0 Safari/537.36","WebKit","Chrome","138.0.0.0","Windows","10.0","https://app.prolific.com/","en-US,en;q=0.9","66f4c82536b5c8271f53564c","6877649eabb845cf142cd221","6893d0424fa6c9372bbf8453","1","66f4c82536b5c8271f53564c","1","2025-08-06T22:00:58.316Z","","","","pss","{""Q01"":""4"",""Q02"":""4"",""Q03"":""4"",""Q04"":""4"",""Q05"":""4"",""Q06"":""4"",""Q07"":""4"",""Q08"":""4"",""Q09"":""4"",""Q10"":""4""}","[0,1,2,3,4,5,6,7,8,9]","[""Q01"",""Q03"",""Q02"",""Q04"",""Q05"",""Q06"",""Q07"",""Q08"",""Q09"",""Q10""]","[5288.199999928474,9135.100000023842,11235.799999952316,15862.399999976158,21471.199999928474,25785.600000023842,28938.5,32337.199999928474,35595.299999952316,38902.10000002384]","[]","[0.19999992847442627,3323.5,5288.199999928474,6734.600000023842,9135.100000023842,11235.799999952316,15862.399999976158,21471.199999928474,25785.600000023842,28938.5,31236.699999928474,32337.199999928474,35595.299999952316,38902.10000002384,40621.799999952316]","0.6","0.4444444444444444","0","","","","","","","","","","","","","","","","","","","","","","","","","","","","",""
"2567","1754517660884","<p style='font-size:1.1em;line-height:1.25'>Thank you for your answers! Now we will ask you a few more questions relating to your feelings in the last 24 hours.<br></p><p style='font-size:1.1em;line-height:1.25'>Press the <strong>Next</strong> button to continue.</p>","0","custom-html-button-response","6","71868","0.0-4.0-2.0","222","1","2025-08-06 21:59:46","36c45c0696341be0efffe67d72a12abb","173.21.92.193","Mozilla/5.0 (Windows NT 10.0; Win64; x64) AppleWebKit/537.36 (KHTML, like Gecko) Chrome/138.0.0.0 Safari/537.36","WebKit","Chrome","138.0.0.0","Windows","10.0","https://app.prolific.com/","en-US,en;q=0.9","66f4c82536b5c8271f53564c","6877649eabb845cf142cd221","6893d0424fa6c9372bbf8453","1","66f4c82536b5c8271f53564c","1","2025-08-06T22:01:00.884Z","","","","","","","","","","","","","","","","","","","","","","","","","","","","","","","","","","","","","","","","","",""
"60065.5","","","","survey-template","7","131936","0.0-4.0-3.0","222","1","2025-08-06 21:59:46","36c45c0696341be0efffe67d72a12abb","173.21.92.193","Mozilla/5.0 (Windows NT 10.0; Win64; x64) AppleWebKit/537.36 (KHTML, like Gecko) Chrome/138.0.0.0 Safari/537.36","WebKit","Chrome","138.0.0.0","Windows","10.0","https://app.prolific.com/","en-US,en;q=0.9","66f4c82536b5c8271f53564c","6877649eabb845cf142cd221","6893d0424fa6c9372bbf8453","1","66f4c82536b5c8271f53564c","1","2025-08-06T22:02:00.952Z","","","","drsp","{""Q01"":""5"",""Q02"":""5"",""Q03"":""5"",""Q04"":""5"",""Q05"":""0"",""Q06"":""0"",""Q07"":""2"",""Q08"":""5"",""Q09"":""5"",""Q10"":""5"",""Q11"":""5"",""Q12"":""0"",""Q13"":""5"",""Q14"":""0"",""Q15"":""4"",""Q16"":""0"",""Q17"":""5"",""Q18"":""0"",""Q19"":""0"",""Q20"":""5"",""Q21"":""5"",""Q22"":""5""}","[0,1,2,3,4,5,6,7,8,9,10,11,12,13,14,15,16,17,18,19,20,21]","[""Q01"",""Q02"",""Q03"",""Q04"",""Q05"",""Q06"",""Q07"",""Q08"",""Q09"",""Q10"",""Q11"",""Q12"",""Q13"",""Q14"",""Q15"",""Q16"",""Q17"",""Q18"",""Q20"",""Q21"",""Q22"",""Q19""]","[2662.1999999284744,4026.0999999046326,5670.899999976158,6864.599999904633,11207.899999976158,12554.699999928474,14745.799999952316,17329.5,20563.399999976158,23741.099999904633,24968.099999904633,29246.899999976158,31014.799999952316,33436.59999990463,37133.89999997616,40804.09999990463,43067.5,45256,49855.39999997616,52385.89999997616,54683.59999990463,58961]","[]","[0.09999990463256836,2662.1999999284744,4026.0999999046326,5670.899999976158,6864.599999904633,9208.099999904633,10370.699999928474,11207.899999976158,12554.699999928474,14745.799999952316,17329.5,20563.399999976158,22095.899999976158,23741.099999904633,24968.099999904633,27914,29246.899999976158,31014.799999952316,33436.59999990463,37133.89999997616,40804.09999990463,43067.5,45256,46547.59999990463,49855.39999997616,52385.89999997616,54683.59999990463,55720.199999928474,58961,60063.09999990463]","0.5909090909090909","0.3333333333333333","0","","","","","","","","","","","","","","","","","","","","","","","","","","","","",""
"5945.399999976158","","","","survey-template","8","137883","0.0-4.0-4.0","222","1","2025-08-06 21:59:46","36c45c0696341be0efffe67d72a12abb","173.21.92.193","Mozilla/5.0 (Windows NT 10.0; Win64; x64) AppleWebKit/537.36 (KHTML, like Gecko) Chrome/138.0.0.0 Safari/537.36","WebKit","Chrome","138.0.0.0","Windows","10.0","https://app.prolific.com/","en-US,en;q=0.9","66f4c82536b5c8271f53564c","6877649eabb845cf142cd221","6893d0424fa6c9372bbf8453","1","66f4c82536b5c8271f53564c","1","2025-08-06T22:02:06.899Z","","","","stress","{""Q01"":""5"",""Q02"":""5"",""Q03"":""5""}","[0,1,2]","[""Q01"",""Q02"",""Q03""]","[1925.1999999284744,3671.5,5234.600000023842]","[]","[1925.1999999284744,3671.5,5234.600000023842,5944.899999976158]","0.6666666666666666","1","0","","","","","","","","","","","","","","","","","","","","","","","","","","","","",""
"61195","","","","instructions","9","199079","0.0-5.0-0.0","222","1","2025-08-06 21:59:46","36c45c0696341be0efffe67d72a12abb","173.21.92.193","Mozilla/5.0 (Windows NT 10.0; Win64; x64) AppleWebKit/537.36 (KHTML, like Gecko) Chrome/138.0.0.0 Safari/537.36","WebKit","Chrome","138.0.0.0","Windows","10.0","https://app.prolific.com/","en-US,en;q=0.9","66f4c82536b5c8271f53564c","6877649eabb845cf142cd221","6893d0424fa6c9372bbf8453","1","66f4c82536b5c8271f53564c","1","","","","","","","","","","","","","","","[{""page_index"":0,""viewing_time"":61195}]","","","","","","","","","","","","","","","","","","","","","","","","","","","",""
"3024","","<p>Before you start with this game please answer the following three questions yourself. </p>
  <p>Through this game, we measure several aspects of your cognitive performance, such as reaction times, multi-tasking capabilities </p>
  <p>and the ability to assess the situation you are in.</p>
  <p></p>
  <p><b>How good do you usually are in such tasks?</b></p>","13","html-slider-response","10","202140","0.0-6.0-0.0","222","1","2025-08-06 21:59:46","36c45c0696341be0efffe67d72a12abb","173.21.92.193","Mozilla/5.0 (Windows NT 10.0; Win64; x64) AppleWebKit/537.36 (KHTML, like Gecko) Chrome/138.0.0.0 Safari/537.36","WebKit","Chrome","138.0.0.0","Windows","10.0","https://app.prolific.com/","en-US,en;q=0.9","66f4c82536b5c8271f53564c","6877649eabb845cf142cd221","6893d0424fa6c9372bbf8453","1","66f4c82536b5c8271f53564c","1","2025-08-06T22:03:11.156Z","","","","PreSkillQ","","","","","","","","","","","50","","","","","","","","","","","","","","","","","","","","","","","","","","",""
"5134","","<div style=""width:500px;"">
  <p>How well do you think you will perform in this task compared to other participants?</p>
  </div>","14","html-slider-response","11","207274","0.0-6.0-1.0","222","1","2025-08-06 21:59:46","36c45c0696341be0efffe67d72a12abb","173.21.92.193","Mozilla/5.0 (Windows NT 10.0; Win64; x64) AppleWebKit/537.36 (KHTML, like Gecko) Chrome/138.0.0.0 Safari/537.36","WebKit","Chrome","138.0.0.0","Windows","10.0","https://app.prolific.com/","en-US,en;q=0.9","66f4c82536b5c8271f53564c","6877649eabb845cf142cd221","6893d0424fa6c9372bbf8453","1","66f4c82536b5c8271f53564c","1","2025-08-06T22:03:16.290Z","","","","PrePerfQ","","","","","","","","","","","50","","","","","","","","","","","","","","","","","","","","","","","","","","",""
"3250","","<div style=""width:500px;"">
  <p>What best describes how you currently feel?</p>
  </div>","0","html-slider-response","12","210525","0.0-6.0-2.0","222","1","2025-08-06 21:59:46","36c45c0696341be0efffe67d72a12abb","173.21.92.193","Mozilla/5.0 (Windows NT 10.0; Win64; x64) AppleWebKit/537.36 (KHTML, like Gecko) Chrome/138.0.0.0 Safari/537.36","WebKit","Chrome","138.0.0.0","Windows","10.0","https://app.prolific.com/","en-US,en;q=0.9","66f4c82536b5c8271f53564c","6877649eabb845cf142cd221","6893d0424fa6c9372bbf8453","1","66f4c82536b5c8271f53564c","1","2025-08-06T22:03:19.542Z","","","","PreMotivationQ","","","","","","","","","","","50","","","","","","","","","","","","","","","","","","","","","","","","","","",""
"","","","","ctl-task-cpt","13","237380","0.0-7.0-0.0","222","1","2025-08-06 21:59:46","36c45c0696341be0efffe67d72a12abb","173.21.92.193","Mozilla/5.0 (Windows NT 10.0; Win64; x64) AppleWebKit/537.36 (KHTML, like Gecko) Chrome/138.0.0.0 Safari/537.36","WebKit","Chrome","138.0.0.0","Windows","10.0","https://app.prolific.com/","en-US,en;q=0.9","66f4c82536b5c8271f53564c","6877649eabb845cf142cd221","6893d0424fa6c9372bbf8453","1","66f4c82536b5c8271f53564c","1","2025-08-06T22:03:46.396Z","","","","","","","","","","","","","","","","win-only","2","g1:SE,g2:NW","1","1","0","214747.8","1264.2","6268.7","23824.3","1","4","8","6","2","8","8","8","0","0.06060606060606061","1352.7","3000","915","[""left"",""up""]","{""num_key_presses"":6,""num_perfect"":6,""num_errors"":0,""num_randdir"":0,""num_randdir_good_moves"":0,""num_whilered"":0,""num_whileblue"":0,""num_blue"":0,""num_good_moves"":6}","[459.8571428571429,465.7633928571429,0.6,459.8571428571429,465.7633928571429,107.3,459.8571428571429,465.7633928571429,207.4,459.8571428571429,465.7633928571429,308.5,459.8571428571429,465.7633928571429,408.5,459.8571428571429,465.7633928571429,513,459.8571428571429,465.7633928571429,617.1,340.8571428571429,294.7633928571429,723.7,260.8571428571429,102.76339285714286,826.8,260.8571428571429,102.76339285714286,932.2,260.8571428571429,102.76339285714286,1035.8,96.85714285714286,67.76339285714286,1144,95.85714285714286,67.76339285714286,1244.1,95.85714285714286,67.76339285714286,1359.4,95.85714285714286,67.76339285714286,1468.2,95.85714285714286,67.76339285714286,1576.5,95.85714285714286,67.76339285714286,1676.7,95.85714285714286,67.76339285714286,1783.5,95.85714285714286,67.76339285714286,1892.6,95.85714285714286,67.76339285714286,1993.1,95.85714285714286,67.76339285714286,2104.6,95.85714285714286,67.76339285714286,2207,95.85714285714286,67.76339285714286,2309.2,95.85714285714286,67.76339285714286,2411.5,95.85714285714286,67.76339285714286,2512,95.85714285714286,67.76339285714286,2617.3,95.85714285714286,67.76339285714286,2722.9,95.85714285714286,67.76339285714286,2831.1,95.85714285714286,67.76339285714286,2937.9,95.85714285714286,67.76339285714286,3042.1,95.85714285714286,67.76339285714286,3142.2,95.85714285714286,67.76339285714286,3246.5,95.85714285714286,67.76339285714286,3348.8,95.85714285714286,67.76339285714286,3456.5,95.85714285714286,67.76339285714286,3559,95.85714285714286,67.76339285714286,3659,95.85714285714286,67.76339285714286,3760.3,95.85714285714286,67.76339285714286,3860.5,95.85714285714286,67.76339285714286,3963.3,95.85714285714286,67.76339285714286,4071,95.85714285714286,67.76339285714286,4171,95.85714285714286,67.76339285714286,4274,95.85714285714286,67.76339285714286,4378,95.85714285714286,67.76339285714286,4486.1,95.85714285714286,67.76339285714286,4592.5,95.85714285714286,67.76339285714286,4692.7,95.85714285714286,67.76339285714286,4803.6,95.85714285714286,67.76339285714286,4904.6]","[1473.1,1473,1000,0.1,473,""smooth"",""up"",""up"",""good_move"",4756.3,3283,2905.1,1473.4,377.8,""smooth"",""up"",""up"",""good_move"",8228.6,3472.1,2736.9,4756.5,735.2,""smooth"",""left"",""left"",""good_move"",11675.2,3446.3,3053.6,8228.9,392.7,""smooth"",""left"",""left"",""good_move"",15103,3427.6,3106.9,11675.4,320.7,""smooth"",""up"",""up"",""good_move"",17407,2303.8,1573.4,15103.2,730.4,""smooth"",""left"",""left"",""good_move""]"
"5097","","<div style=""width:500px;"">
  <p>What determined the result of this run?</p>
  </div>","18","html-slider-response","14","242479","0.0-7.0-1.0","222","1","2025-08-06 21:59:46","36c45c0696341be0efffe67d72a12abb","173.21.92.193","Mozilla/5.0 (Windows NT 10.0; Win64; x64) AppleWebKit/537.36 (KHTML, like Gecko) Chrome/138.0.0.0 Safari/537.36","WebKit","Chrome","138.0.0.0","Windows","10.0","https://app.prolific.com/","en-US,en;q=0.9","66f4c82536b5c8271f53564c","6877649eabb845cf142cd221","6893d0424fa6c9372bbf8453","1","66f4c82536b5c8271f53564c","1","2025-08-06T22:03:51.495Z","","","","AttribQ","","","","","","","","","","","50","","","","","","","","","","","","","","","","","","","","","","","","","","",""
"3325","","<div style=""width:500px;"">
  <p>How much control did you have over the ball?</p>
  </div>","100","html-slider-response","15","245806","0.0-7.0-2.0","222","1","2025-08-06 21:59:46","36c45c0696341be0efffe67d72a12abb","173.21.92.193","Mozilla/5.0 (Windows NT 10.0; Win64; x64) AppleWebKit/537.36 (KHTML, like Gecko) Chrome/138.0.0.0 Safari/537.36","WebKit","Chrome","138.0.0.0","Windows","10.0","https://app.prolific.com/","en-US,en;q=0.9","66f4c82536b5c8271f53564c","6877649eabb845cf142cd221","6893d0424fa6c9372bbf8453","1","66f4c82536b5c8271f53564c","1","2025-08-06T22:03:54.822Z","","","","ControlQ","","","","","","","","","","","50","","","","","","","","","","","","","","","","","","","","","","","","","","",""
"3690","","<div style=""width:500px;"">
  <p>How would you describe your current emotional state?</p>
  </div>","68","html-slider-response","16","249496","0.0-7.0-3.0","222","1","2025-08-06 21:59:46","36c45c0696341be0efffe67d72a12abb","173.21.92.193","Mozilla/5.0 (Windows NT 10.0; Win64; x64) AppleWebKit/537.36 (KHTML, like Gecko) Chrome/138.0.0.0 Safari/537.36","WebKit","Chrome","138.0.0.0","Windows","10.0","https://app.prolific.com/","en-US,en;q=0.9","66f4c82536b5c8271f53564c","6877649eabb845cf142cd221","6893d0424fa6c9372bbf8453","1","66f4c82536b5c8271f53564c","1","2025-08-06T22:03:58.513Z","","","","StressQ","","","","","","","","","","","50","","","","","","","","","","","","","","","","","","","","","","","","","","",""
"4214","","<div style=""width:500px;"">
  <p>What best describes how you currently feel?</p>
  </div>","7","html-slider-response","17","253712","0.0-7.0-4.0","222","1","2025-08-06 21:59:46","36c45c0696341be0efffe67d72a12abb","173.21.92.193","Mozilla/5.0 (Windows NT 10.0; Win64; x64) AppleWebKit/537.36 (KHTML, like Gecko) Chrome/138.0.0.0 Safari/537.36","WebKit","Chrome","138.0.0.0","Windows","10.0","https://app.prolific.com/","en-US,en;q=0.9","66f4c82536b5c8271f53564c","6877649eabb845cf142cd221","6893d0424fa6c9372bbf8453","1","66f4c82536b5c8271f53564c","1","2025-08-06T22:04:02.728Z","","","","MotivationQ","","","","","","","","","","","50","","","","","","","","","","","","","","","","","","","","","","","","","","",""
"","","","","ctl-task-cpt","18","279462","0.0-7.0-0.1","222","1","2025-08-06 21:59:46","36c45c0696341be0efffe67d72a12abb","173.21.92.193","Mozilla/5.0 (Windows NT 10.0; Win64; x64) AppleWebKit/537.36 (KHTML, like Gecko) Chrome/138.0.0.0 Safari/537.36","WebKit","Chrome","138.0.0.0","Windows","10.0","https://app.prolific.com/","en-US,en;q=0.9","66f4c82536b5c8271f53564c","6877649eabb845cf142cd221","6893d0424fa6c9372bbf8453","1","66f4c82536b5c8271f53564c","1","2025-08-06T22:04:28.478Z","","","","","","","","","","","","","","","","win-only","1","g1:NE,g2:SW","0.9","2","0","257907.4","1116.3","6121.2","22738.9","1","4","4","6","2","4","4","12","8","0.09090909090909091","1150.1","3000","780","[""down"",""left""]","{""num_key_presses"":6,""num_perfect"":6,""num_errors"":0,""num_randdir"":0,""num_randdir_good_moves"":0,""num_whilered"":0,""num_whileblue"":0,""num_blue"":0,""num_good_moves"":6}","[463.8571428571429,462.7633928571429,0.1,463.8571428571429,462.7633928571429,103.7,463.8571428571429,462.7633928571429,204.8,463.8571428571429,462.7633928571429,305,463.8571428571429,462.7633928571429,406,463.8571428571429,462.7633928571429,516.8,172.85714285714286,702.7633928571429,622.5,134.85714285714286,771.7633928571429,724.1,134.85714285714286,771.7633928571429,825,113.85714285714286,788.7633928571429,925.6,89.85714285714286,806.7633928571429,1030.7,89.85714285714286,806.7633928571429,1139.3,89.85714285714286,806.7633928571429,1240.6,89.85714285714286,806.7633928571429,1346.1,89.85714285714286,806.7633928571429,1454.1,89.85714285714286,806.7633928571429,1558.8,89.85714285714286,806.7633928571429,1663.8,89.85714285714286,806.7633928571429,1764.5,89.85714285714286,806.7633928571429,1866.5,89.85714285714286,806.7633928571429,1972.8,89.85714285714286,806.7633928571429,2081,89.85714285714286,806.7633928571429,2183.9,89.85714285714286,806.7633928571429,2284.6,89.85714285714286,806.7633928571429,2390.3,89.85714285714286,806.7633928571429,2497.4,89.85714285714286,806.7633928571429,2606.6,89.85714285714286,806.7633928571429,2712.4,89.85714285714286,806.7633928571429,2812.8,89.85714285714286,806.7633928571429,2914.5,89.85714285714286,806.7633928571429,3026.1,89.85714285714286,806.7633928571429,3130.9,89.85714285714286,806.7633928571429,3230.9,89.85714285714286,806.7633928571429,3337.2,89.85714285714286,806.7633928571429,3440.4,89.85714285714286,806.7633928571429,3548.1,89.85714285714286,806.7633928571429,3648.2,89.85714285714286,806.7633928571429,3748.8,89.85714285714286,806.7633928571429,3849,89.85714285714286,806.7633928571429,3956.1,89.85714285714286,806.7633928571429,4063.9,89.85714285714286,806.7633928571429,4163.9,89.85714285714286,806.7633928571429,4267.5,89.85714285714286,806.7633928571429,4371.6,89.85714285714286,806.7633928571429,4472.1,89.85714285714286,806.7633928571429,4578.5,89.85714285714286,806.7633928571429,4678.7,89.85714285714286,806.7633928571429,4778.8,89.85714285714286,806.7633928571429,4882.3,89.85714285714286,806.7633928571429,4987.5]","[1329.3,1329.3,1000,0,329.3,""smooth"",""down"",""down"",""good_move"",4138.1,2808.5,2455.5,1329.6,353,""smooth"",""down"",""down"",""good_move"",7302.4,3164,2502.8,4138.4,661.2,""smooth"",""left"",""left"",""good_move"",10608.5,3305.9,2627.7,7302.6,678.2,""smooth"",""left"",""left"",""good_move"",13581.3,2972.3,2371.1,10609.1,601.2,""smooth"",""left"",""left"",""good_move"",16507.8,2926.3,2578,13581.5,348.3,""smooth"",""down"",""down"",""good_move""]"
"6177","","<div style=""width:500px;"">
  <p>What determined the result of this run?</p>
  </div>","8","html-slider-response","19","285641","0.0-7.0-1.1","222","1","2025-08-06 21:59:46","36c45c0696341be0efffe67d72a12abb","173.21.92.193","Mozilla/5.0 (Windows NT 10.0; Win64; x64) AppleWebKit/537.36 (KHTML, like Gecko) Chrome/138.0.0.0 Safari/537.36","WebKit","Chrome","138.0.0.0","Windows","10.0","https://app.prolific.com/","en-US,en;q=0.9","66f4c82536b5c8271f53564c","6877649eabb845cf142cd221","6893d0424fa6c9372bbf8453","1","66f4c82536b5c8271f53564c","1","2025-08-06T22:04:34.657Z","","","","AttribQ","","","","","","","","","","","50","","","","","","","","","","","","","","","","","","","","","","","","","","",""
"4422","","<div style=""width:500px;"">
  <p>How much control did you have over the ball?</p>
  </div>","99","html-slider-response","20","290064","0.0-7.0-2.1","222","1","2025-08-06 21:59:46","36c45c0696341be0efffe67d72a12abb","173.21.92.193","Mozilla/5.0 (Windows NT 10.0; Win64; x64) AppleWebKit/537.36 (KHTML, like Gecko) Chrome/138.0.0.0 Safari/537.36","WebKit","Chrome","138.0.0.0","Windows","10.0","https://app.prolific.com/","en-US,en;q=0.9","66f4c82536b5c8271f53564c","6877649eabb845cf142cd221","6893d0424fa6c9372bbf8453","1","66f4c82536b5c8271f53564c","1","2025-08-06T22:04:39.081Z","","","","ControlQ","","","","","","","","","","","50","","","","","","","","","","","","","","","","","","","","","","","","","","",""
"4479","","<div style=""width:500px;"">
  <p>How would you describe your current emotional state?</p>
  </div>","63","html-slider-response","21","294545","0.0-7.0-3.1","222","1","2025-08-06 21:59:46","36c45c0696341be0efffe67d72a12abb","173.21.92.193","Mozilla/5.0 (Windows NT 10.0; Win64; x64) AppleWebKit/537.36 (KHTML, like Gecko) Chrome/138.0.0.0 Safari/537.36","WebKit","Chrome","138.0.0.0","Windows","10.0","https://app.prolific.com/","en-US,en;q=0.9","66f4c82536b5c8271f53564c","6877649eabb845cf142cd221","6893d0424fa6c9372bbf8453","1","66f4c82536b5c8271f53564c","1","2025-08-06T22:04:43.561Z","","","","StressQ","","","","","","","","","","","50","","","","","","","","","","","","","","","","","","","","","","","","","","",""
"3621","","<div style=""width:500px;"">
  <p>What best describes how you currently feel?</p>
  </div>","10","html-slider-response","22","298166","0.0-7.0-4.1","222","1","2025-08-06 21:59:46","36c45c0696341be0efffe67d72a12abb","173.21.92.193","Mozilla/5.0 (Windows NT 10.0; Win64; x64) AppleWebKit/537.36 (KHTML, like Gecko) Chrome/138.0.0.0 Safari/537.36","WebKit","Chrome","138.0.0.0","Windows","10.0","https://app.prolific.com/","en-US,en;q=0.9","66f4c82536b5c8271f53564c","6877649eabb845cf142cd221","6893d0424fa6c9372bbf8453","1","66f4c82536b5c8271f53564c","1","2025-08-06T22:04:47.182Z","","","","MotivationQ","","","","","","","","","","","50","","","","","","","","","","","","","","","","","","","","","","","","","","",""
"","","","","ctl-task-cpt","23","345279","0.0-7.0-0.2","222","1","2025-08-06 21:59:46","36c45c0696341be0efffe67d72a12abb","173.21.92.193","Mozilla/5.0 (Windows NT 10.0; Win64; x64) AppleWebKit/537.36 (KHTML, like Gecko) Chrome/138.0.0.0 Safari/537.36","WebKit","Chrome","138.0.0.0","Windows","10.0","https://app.prolific.com/","en-US,en;q=0.9","66f4c82536b5c8271f53564c","6877649eabb845cf142cd221","6893d0424fa6c9372bbf8453","1","66f4c82536b5c8271f53564c","1","2025-08-06T22:05:34.295Z","","","","","","","","","","","","","","","","win-only","3","g1:SW,g2:NE","0.8","3","0","302362.1","1562.5","6571.7","44097.2","1","4","4","6","2","4","3","15","12","0.11363636363636363","1445.3","3000","750","[""up"",""right""]","{""num_key_presses"":9,""num_perfect"":7,""num_errors"":1,""num_randdir"":1,""num_randdir_good_moves"":0,""num_whilered"":0,""num_whileblue"":0,""num_blue"":3,""num_good_moves"":7}","[466.8571428571429,468.7633928571429,0.2,466.8571428571429,468.7633928571429,102.4,466.8571428571429,468.7633928571429,205.1,466.8571428571429,468.7633928571429,316.9,466.8571428571429,468.7633928571429,424.7,466.8571428571429,468.7633928571429,525.3,533.8571428571429,380.7633928571429,629.2,643.8571428571429,301.7633928571429,732.4,643.8571428571429,301.7633928571429,832.4,643.8571428571429,301.7633928571429,932.9,716.8571428571429,238.76339285714286,1033.8,823.8571428571429,112.76339285714286,1135.1,823.8571428571429,106.76339285714286,1237.6,823.8571428571429,104.76339285714286,1345.5,823.8571428571429,104.76339285714286,1452.7,823.8571428571429,104.76339285714286,1557.1,823.8571428571429,104.76339285714286,1662.7,823.8571428571429,104.76339285714286,1766.6,823.8571428571429,104.76339285714286,1869.4,823.8571428571429,104.76339285714286,1976.7,823.8571428571429,104.76339285714286,2079.3,823.8571428571429,104.76339285714286,2184.3,823.8571428571429,104.76339285714286,2295.4,823.8571428571429,104.76339285714286,2402.8,823.8571428571429,104.76339285714286,2511.8,823.8571428571429,104.76339285714286,2612,823.8571428571429,104.76339285714286,2715.8,823.8571428571429,104.76339285714286,2819.8,823.8571428571429,104.76339285714286,2928.2,823.8571428571429,104.76339285714286,3031.4,823.8571428571429,104.76339285714286,3134.7,823.8571428571429,104.76339285714286,3241.4,823.8571428571429,104.76339285714286,3342.9,823.8571428571429,104.76339285714286,3443,823.8571428571429,104.76339285714286,3543.2,823.8571428571429,104.76339285714286,3645.5,823.8571428571429,104.76339285714286,3749.4,823.8571428571429,104.76339285714286,3856.8,823.8571428571429,104.76339285714286,3962.2,823.8571428571429,104.76339285714286,4065.8,823.8571428571429,104.76339285714286,4166.7,823.8571428571429,104.76339285714286,4273.8,823.8571428571429,104.76339285714286,4378.5,823.8571428571429,104.76339285714286,4482.6,823.8571428571429,104.76339285714286,4589.3,823.8571428571429,104.76339285714286,4692.6,823.8571428571429,104.76339285714286,4792.9,823.8571428571429,104.76339285714286,4895.5,823.8571428571429,104.76339285714286,4999.4]","[364.5,364.5,1000,0,-635.5,""error"",""-"",""-"",""no_move"",8324.9,7960.2,2199.4,5748,377.5,""oops"",""right"",""down"",""bad_move"",15623.2,7298,2615.5,12652.2,355.5,""smooth"",""right"",""right"",""good_move"",18966.2,3342.7,2842.5,15623.5,500.2,""smooth"",""up"",""up"",""good_move"",22217.9,3251.5,2922.2,18966.4,329.3,""smooth"",""up"",""up"",""good_move"",28279.7,6061.6,2159,25741.6,379.2,""smooth"",""right"",""right"",""good_move"",31234.4,2954.5,2393.8,28279.9,560.7,""smooth"",""up"",""up"",""good_move"",34206.9,2972.2,2570.9,31234.7,401.3,""smooth"",""right"",""right"",""good_move"",37400.2,3193.1,2903.4,34207.1,289.7,""smooth"",""up"",""up"",""good_move""]"
"3435","","<div style=""width:500px;"">
  <p>What determined the result of this run?</p>
  </div>","66","html-slider-response","24","348716","0.0-7.0-1.2","222","1","2025-08-06 21:59:46","36c45c0696341be0efffe67d72a12abb","173.21.92.193","Mozilla/5.0 (Windows NT 10.0; Win64; x64) AppleWebKit/537.36 (KHTML, like Gecko) Chrome/138.0.0.0 Safari/537.36","WebKit","Chrome","138.0.0.0","Windows","10.0","https://app.prolific.com/","en-US,en;q=0.9","66f4c82536b5c8271f53564c","6877649eabb845cf142cd221","6893d0424fa6c9372bbf8453","1","66f4c82536b5c8271f53564c","1","2025-08-06T22:05:37.732Z","","","","AttribQ","","","","","","","","","","","50","","","","","","","","","","","","","","","","","","","","","","","","","","",""
"3513","","<div style=""width:500px;"">
  <p>How much control did you have over the ball?</p>
  </div>","81","html-slider-response","25","352230","0.0-7.0-2.2","222","1","2025-08-06 21:59:46","36c45c0696341be0efffe67d72a12abb","173.21.92.193","Mozilla/5.0 (Windows NT 10.0; Win64; x64) AppleWebKit/537.36 (KHTML, like Gecko) Chrome/138.0.0.0 Safari/537.36","WebKit","Chrome","138.0.0.0","Windows","10.0","https://app.prolific.com/","en-US,en;q=0.9","66f4c82536b5c8271f53564c","6877649eabb845cf142cd221","6893d0424fa6c9372bbf8453","1","66f4c82536b5c8271f53564c","1","2025-08-06T22:05:41.246Z","","","","ControlQ","","","","","","","","","","","50","","","","","","","","","","","","","","","","","","","","","","","","","","",""
"3072","","<div style=""width:500px;"">
  <p>How would you describe your current emotional state?</p>
  </div>","81","html-slider-response","26","355302","0.0-7.0-3.2","222","1","2025-08-06 21:59:46","36c45c0696341be0efffe67d72a12abb","173.21.92.193","Mozilla/5.0 (Windows NT 10.0; Win64; x64) AppleWebKit/537.36 (KHTML, like Gecko) Chrome/138.0.0.0 Safari/537.36","WebKit","Chrome","138.0.0.0","Windows","10.0","https://app.prolific.com/","en-US,en;q=0.9","66f4c82536b5c8271f53564c","6877649eabb845cf142cd221","6893d0424fa6c9372bbf8453","1","66f4c82536b5c8271f53564c","1","2025-08-06T22:05:44.319Z","","","","StressQ","","","","","","","","","","","50","","","","","","","","","","","","","","","","","","","","","","","","","","",""
"4484","","<div style=""width:500px;"">
  <p>What best describes how you currently feel?</p>
  </div>","18","html-slider-response","27","359788","0.0-7.0-4.2","222","1","2025-08-06 21:59:46","36c45c0696341be0efffe67d72a12abb","173.21.92.193","Mozilla/5.0 (Windows NT 10.0; Win64; x64) AppleWebKit/537.36 (KHTML, like Gecko) Chrome/138.0.0.0 Safari/537.36","WebKit","Chrome","138.0.0.0","Windows","10.0","https://app.prolific.com/","en-US,en;q=0.9","66f4c82536b5c8271f53564c","6877649eabb845cf142cd221","6893d0424fa6c9372bbf8453","1","66f4c82536b5c8271f53564c","1","2025-08-06T22:05:48.804Z","","","","MotivationQ","","","","","","","","","","","50","","","","","","","","","","","","","","","","","","","","","","","","","","",""
"","","","","ctl-task-cpt","28","409915","0.0-7.0-0.3","222","1","2025-08-06 21:59:46","36c45c0696341be0efffe67d72a12abb","173.21.92.193","Mozilla/5.0 (Windows NT 10.0; Win64; x64) AppleWebKit/537.36 (KHTML, like Gecko) Chrome/138.0.0.0 Safari/537.36","WebKit","Chrome","138.0.0.0","Windows","10.0","https://app.prolific.com/","en-US,en;q=0.9","66f4c82536b5c8271f53564c","6877649eabb845cf142cd221","6893d0424fa6c9372bbf8453","1","66f4c82536b5c8271f53564c","1","2025-08-06T22:06:38.931Z","","","","","","","","","","","","","","","","win-only","1","g1:NE,g2:SW","0.7","4","0","363984.4","1129.3","6136.1","47123","1","4","8","6","2","8","8","23","15","0.17424242424242425","1291.4","3000","490","[""down"",""left""]","{""num_key_presses"":8,""num_perfect"":5,""num_errors"":0,""num_randdir"":3,""num_randdir_good_moves"":2,""num_whilered"":0,""num_whileblue"":0,""num_blue"":5,""num_good_moves"":7}","[463.8571428571429,471.7633928571429,0.2,463.8571428571429,471.7633928571429,105.5,463.8571428571429,471.7633928571429,205.6,463.8571428571429,471.7633928571429,307.1,463.8571428571429,471.7633928571429,411.6,463.8571428571429,471.7633928571429,512,362.8571428571429,551.7633928571429,617,143.85714285714286,773.7633928571429,728.2,143.85714285714286,773.7633928571429,828.4,143.85714285714286,773.7633928571429,934.8,98.85714285714286,807.7633928571429,1040.4,86.85714285714286,810.7633928571429,1144.4,86.85714285714286,810.7633928571429,1251.3,86.85714285714286,810.7633928571429,1351.5,86.85714285714286,810.7633928571429,1459.9,86.85714285714286,810.7633928571429,1561,86.85714285714286,810.7633928571429,1668.3,86.85714285714286,810.7633928571429,1777.3,86.85714285714286,810.7633928571429,1881.1,86.85714285714286,810.7633928571429,1981.2,86.85714285714286,810.7633928571429,2089.2,86.85714285714286,810.7633928571429,2189.7,86.85714285714286,810.7633928571429,2291.1,86.85714285714286,810.7633928571429,2396.5,86.85714285714286,810.7633928571429,2497,86.85714285714286,810.7633928571429,2599.7,86.85714285714286,810.7633928571429,2706.2,86.85714285714286,810.7633928571429,2813.1,86.85714285714286,810.7633928571429,2913.1,86.85714285714286,810.7633928571429,3013.8,86.85714285714286,810.7633928571429,3114.5,86.85714285714286,810.7633928571429,3215.5,86.85714285714286,810.7633928571429,3322.6,86.85714285714286,810.7633928571429,3427.2,86.85714285714286,810.7633928571429,3532.9,86.85714285714286,810.7633928571429,3636.7,86.85714285714286,810.7633928571429,3739.3,86.85714285714286,810.7633928571429,3842.7,86.85714285714286,810.7633928571429,3943.8,86.85714285714286,810.7633928571429,4050.4,86.85714285714286,810.7633928571429,4156.1,86.85714285714286,810.7633928571429,4256.2,86.85714285714286,810.7633928571429,4357,86.85714285714286,810.7633928571429,4457.1,86.85714285714286,810.7633928571429,4562.5,86.85714285714286,810.7633928571429,4662.8,86.85714285714286,810.7633928571429,4771.1,86.85714285714286,810.7633928571429,4873,86.85714285714286,810.7633928571429,4973.2]","[8375.1,8375.1,2131.4,5784,459.7,""smooth"",""left"",""left"",""good_move"",11817.6,3442.1,2987.4,8375.5,454.7,""oops"",""down"",""down"",""good_move"",14425.8,2607.8,2139.4,11818,468.4,""smooth"",""down"",""down"",""good_move"",17981.5,3555.6,2740.7,14425.9,814.9,""smooth"",""left"",""left"",""good_move"",20829.7,2847.6,2470.9,17982.1,376.7,""oops"",""left"",""up"",""bad_move"",23598.5,2768.6,2416.5,20829.9,352.2,""smooth"",""left"",""left"",""good_move"",37487.7,13888.3,3029.2,34057.7,400.8,""oops"",""down"",""down"",""good_move"",40858.1,3370.1,2951.2,37488,418.9,""smooth"",""down"",""down"",""good_move""]"
"6128","","<div style=""width:500px;"">
  <p>What determined the result of this run?</p>
  </div>","3","html-slider-response","29","416043","0.0-7.0-1.3","222","1","2025-08-06 21:59:46","36c45c0696341be0efffe67d72a12abb","173.21.92.193","Mozilla/5.0 (Windows NT 10.0; Win64; x64) AppleWebKit/537.36 (KHTML, like Gecko) Chrome/138.0.0.0 Safari/537.36","WebKit","Chrome","138.0.0.0","Windows","10.0","https://app.prolific.com/","en-US,en;q=0.9","66f4c82536b5c8271f53564c","6877649eabb845cf142cd221","6893d0424fa6c9372bbf8453","1","66f4c82536b5c8271f53564c","1","2025-08-06T22:06:45.060Z","","","","AttribQ","","","","","","","","","","","50","","","","","","","","","","","","","","","","","","","","","","","","","","",""
"3275","","<div style=""width:500px;"">
  <p>How much control did you have over the ball?</p>
  </div>","69","html-slider-response","30","419319","0.0-7.0-2.3","222","1","2025-08-06 21:59:46","36c45c0696341be0efffe67d72a12abb","173.21.92.193","Mozilla/5.0 (Windows NT 10.0; Win64; x64) AppleWebKit/537.36 (KHTML, like Gecko) Chrome/138.0.0.0 Safari/537.36","WebKit","Chrome","138.0.0.0","Windows","10.0","https://app.prolific.com/","en-US,en;q=0.9","66f4c82536b5c8271f53564c","6877649eabb845cf142cd221","6893d0424fa6c9372bbf8453","1","66f4c82536b5c8271f53564c","1","2025-08-06T22:06:48.336Z","","","","ControlQ","","","","","","","","","","","50","","","","","","","","","","","","","","","","","","","","","","","","","","",""
"3866","","<div style=""width:500px;"">
  <p>How would you describe your current emotional state?</p>
  </div>","67","html-slider-response","31","423187","0.0-7.0-3.3","222","1","2025-08-06 21:59:46","36c45c0696341be0efffe67d72a12abb","173.21.92.193","Mozilla/5.0 (Windows NT 10.0; Win64; x64) AppleWebKit/537.36 (KHTML, like Gecko) Chrome/138.0.0.0 Safari/537.36","WebKit","Chrome","138.0.0.0","Windows","10.0","https://app.prolific.com/","en-US,en;q=0.9","66f4c82536b5c8271f53564c","6877649eabb845cf142cd221","6893d0424fa6c9372bbf8453","1","66f4c82536b5c8271f53564c","1","2025-08-06T22:06:52.203Z","","","","StressQ","","","","","","","","","","","50","","","","","","","","","","","","","","","","","","","","","","","","","","",""
"4014","","<div style=""width:500px;"">
  <p>What best describes how you currently feel?</p>
  </div>","20","html-slider-response","32","427202","0.0-7.0-4.3","222","1","2025-08-06 21:59:46","36c45c0696341be0efffe67d72a12abb","173.21.92.193","Mozilla/5.0 (Windows NT 10.0; Win64; x64) AppleWebKit/537.36 (KHTML, like Gecko) Chrome/138.0.0.0 Safari/537.36","WebKit","Chrome","138.0.0.0","Windows","10.0","https://app.prolific.com/","en-US,en;q=0.9","66f4c82536b5c8271f53564c","6877649eabb845cf142cd221","6893d0424fa6c9372bbf8453","1","66f4c82536b5c8271f53564c","1","2025-08-06T22:06:56.218Z","","","","MotivationQ","","","","","","","","","","","50","","","","","","","","","","","","","","","","","","","","","","","","","","",""
"","","","","ctl-task-cpt","33","482421","0.0-7.0-0.4","222","1","2025-08-06 21:59:46","36c45c0696341be0efffe67d72a12abb","173.21.92.193","Mozilla/5.0 (Windows NT 10.0; Win64; x64) AppleWebKit/537.36 (KHTML, like Gecko) Chrome/138.0.0.0 Safari/537.36","WebKit","Chrome","138.0.0.0","Windows","10.0","https://app.prolific.com/","en-US,en;q=0.9","66f4c82536b5c8271f53564c","6877649eabb845cf142cd221","6893d0424fa6c9372bbf8453","1","66f4c82536b5c8271f53564c","1","2025-08-06T22:07:51.438Z","","","","","","","","","","","","","","","","win-only","1","g1:NE,g2:SW","0.6","5","0","431397.7","1128.2","6130.2","52208","1","4","8","6","2","8","8","31","23","0.23484848484848486","1233.8","3000","15","[""down"",""left""]","{""num_key_presses"":10,""num_perfect"":6,""num_errors"":0,""num_randdir"":4,""num_randdir_good_moves"":2,""num_whilered"":0,""num_whileblue"":0,""num_blue"":5,""num_good_moves"":8}","[467.8571428571429,464.7633928571429,0.3,467.8571428571429,464.7633928571429,106.9,467.8571428571429,464.7633928571429,215.8,467.8571428571429,464.7633928571429,322,467.8571428571429,464.7633928571429,422,467.8571428571429,464.7633928571429,533.3,423.8571428571429,478.7633928571429,642.7,65.85714285714286,854.7633928571429,744.3,65.85714285714286,854.7633928571429,852.5,65.85714285714286,854.7633928571429,965.9,28.85714285714286,912.7633928571429,1067.1,28.85714285714286,912.7633928571429,1176.2,28.85714285714286,912.7633928571429,1277.2,28.85714285714286,912.7633928571429,1377.3,28.85714285714286,912.7633928571429,1482.6,28.85714285714286,912.7633928571429,1583.3,28.85714285714286,912.7633928571429,1691,28.85714285714286,912.7633928571429,1793.1,28.85714285714286,912.7633928571429,1897.5,28.85714285714286,912.7633928571429,1998.3,28.85714285714286,912.7633928571429,2098.4,28.85714285714286,912.7633928571429,2205.2,28.85714285714286,912.7633928571429,2315.4,28.85714285714286,912.7633928571429,2416.4,28.85714285714286,912.7633928571429,2517.4,28.85714285714286,912.7633928571429,2619.7,28.85714285714286,912.7633928571429,2721.3,28.85714285714286,912.7633928571429,2822.4,28.85714285714286,912.7633928571429,2923,28.85714285714286,912.7633928571429,3023,28.85714285714286,912.7633928571429,3170,28.85714285714286,912.7633928571429,3278.3,28.85714285714286,912.7633928571429,3379,28.85714285714286,912.7633928571429,3485.3,28.85714285714286,912.7633928571429,3593.8,28.85714285714286,912.7633928571429,3701.8,28.85714285714286,912.7633928571429,3808.4,28.85714285714286,912.7633928571429,3909.8,28.85714285714286,912.7633928571429,4012.5,28.85714285714286,912.7633928571429,4216.9,28.85714285714286,912.7633928571429,4327.3,28.85714285714286,912.7633928571429,4436.5,28.85714285714286,912.7633928571429,4544.7,28.85714285714286,912.7633928571429,4651.1,28.85714285714286,912.7633928571429,4751.3,28.85714285714286,912.7633928571429,4859.6,28.85714285714286,912.7633928571429,4960.1]","[5110.6,5110.6,2548,2013.5,549.1,""smooth"",""down"",""down"",""good_move"",12315.6,7204.5,2656.7,9216.8,442.1,""smooth"",""down"",""down"",""good_move"",16135.3,3819.5,3282.8,12315.8,536.7,""smooth"",""left"",""left"",""good_move"",19071.8,2936.3,2539.8,16135.5,396.5,""smooth"",""left"",""left"",""good_move"",21710,2637.9,2262.6,19072.1,375.3,""oops"",""left"",""up"",""bad_move"",27055.9,5345.3,1443.6,25234.6,377.7,""oops"",""left"",""right"",""bad_move"",30102.7,3045.6,2666.4,27057.2,379.2,""oops"",""down"",""left"",""good_move"",32215.6,2112.5,1698.4,30103.1,414.1,""smooth"",""down"",""down"",""good_move"",42372.4,10156.5,3098.6,38751.1,522.7,""oops"",""down"",""down"",""good_move"",45942.5,3569.3,3132.7,42373.2,436.6,""smooth"",""left"",""left"",""good_move""]"
"5672","","<div style=""width:500px;"">
  <p>What determined the result of this run?</p>
  </div>","1","html-slider-response","34","488094","0.0-7.0-1.4","222","1","2025-08-06 21:59:46","36c45c0696341be0efffe67d72a12abb","173.21.92.193","Mozilla/5.0 (Windows NT 10.0; Win64; x64) AppleWebKit/537.36 (KHTML, like Gecko) Chrome/138.0.0.0 Safari/537.36","WebKit","Chrome","138.0.0.0","Windows","10.0","https://app.prolific.com/","en-US,en;q=0.9","66f4c82536b5c8271f53564c","6877649eabb845cf142cd221","6893d0424fa6c9372bbf8453","1","66f4c82536b5c8271f53564c","1","2025-08-06T22:07:57.110Z","","","","AttribQ","","","","","","","","","","","50","","","","","","","","","","","","","","","","","","","","","","","","","","",""
"6097","","<div style=""width:500px;"">
  <p>How much control did you have over the ball?</p>
  </div>","40","html-slider-response","35","494192","0.0-7.0-2.4","222","1","2025-08-06 21:59:46","36c45c0696341be0efffe67d72a12abb","173.21.92.193","Mozilla/5.0 (Windows NT 10.0; Win64; x64) AppleWebKit/537.36 (KHTML, like Gecko) Chrome/138.0.0.0 Safari/537.36","WebKit","Chrome","138.0.0.0","Windows","10.0","https://app.prolific.com/","en-US,en;q=0.9","66f4c82536b5c8271f53564c","6877649eabb845cf142cd221","6893d0424fa6c9372bbf8453","1","66f4c82536b5c8271f53564c","1","2025-08-06T22:08:03.209Z","","","","ControlQ","","","","","","","","","","","50","","","","","","","","","","","","","","","","","","","","","","","","","","",""
"3993","","<div style=""width:500px;"">
  <p>How would you describe your current emotional state?</p>
  </div>","76","html-slider-response","36","498186","0.0-7.0-3.4","222","1","2025-08-06 21:59:46","36c45c0696341be0efffe67d72a12abb","173.21.92.193","Mozilla/5.0 (Windows NT 10.0; Win64; x64) AppleWebKit/537.36 (KHTML, like Gecko) Chrome/138.0.0.0 Safari/537.36","WebKit","Chrome","138.0.0.0","Windows","10.0","https://app.prolific.com/","en-US,en;q=0.9","66f4c82536b5c8271f53564c","6877649eabb845cf142cd221","6893d0424fa6c9372bbf8453","1","66f4c82536b5c8271f53564c","1","2025-08-06T22:08:07.202Z","","","","StressQ","","","","","","","","","","","50","","","","","","","","","","","","","","","","","","","","","","","","","","",""
"4436","","<div style=""width:500px;"">
  <p>What best describes how you currently feel?</p>
  </div>","31","html-slider-response","37","502624","0.0-7.0-4.4","222","1","2025-08-06 21:59:46","36c45c0696341be0efffe67d72a12abb","173.21.92.193","Mozilla/5.0 (Windows NT 10.0; Win64; x64) AppleWebKit/537.36 (KHTML, like Gecko) Chrome/138.0.0.0 Safari/537.36","WebKit","Chrome","138.0.0.0","Windows","10.0","https://app.prolific.com/","en-US,en;q=0.9","66f4c82536b5c8271f53564c","6877649eabb845cf142cd221","6893d0424fa6c9372bbf8453","1","66f4c82536b5c8271f53564c","1","2025-08-06T22:08:11.640Z","","","","MotivationQ","","","","","","","","","","","50","","","","","","","","","","","","","","","","","","","","","","","","","","",""
"","","","","ctl-task-cpt","38","547528","0.0-7.0-0.5","222","1","2025-08-06 21:59:46","36c45c0696341be0efffe67d72a12abb","173.21.92.193","Mozilla/5.0 (Windows NT 10.0; Win64; x64) AppleWebKit/537.36 (KHTML, like Gecko) Chrome/138.0.0.0 Safari/537.36","WebKit","Chrome","138.0.0.0","Windows","10.0","https://app.prolific.com/","en-US,en;q=0.9","66f4c82536b5c8271f53564c","6877649eabb845cf142cd221","6893d0424fa6c9372bbf8453","1","66f4c82536b5c8271f53564c","1","2025-08-06T22:08:56.544Z","","","","","","","","","","","","","","","","win-only","1","g1:NE,g2:SW","0.5","6","0","506820.7","1057.1","6058.2","41881.8","1","4","4","6","2","-4","-5","26","31","0.19696969696969696","1297.7","3000","-2155","[""down"",""left""]","{""num_key_presses"":10,""num_perfect"":5,""num_errors"":1,""num_randdir"":4,""num_randdir_good_moves"":1,""num_whilered"":0,""num_whileblue"":1,""num_blue"":3,""num_good_moves"":7}","[465.8571428571429,457.7633928571429,0.2,465.8571428571429,457.7633928571429,107.7,465.8571428571429,457.7633928571429,209.9,465.8571428571429,457.7633928571429,315.3,465.8571428571429,457.7633928571429,421.5,465.8571428571429,457.7633928571429,524.4,326.8571428571429,593.7633928571429,629.3,71.85714285714286,907.7633928571429,738.7,71.85714285714286,906.7633928571429,839.8,84.85714285714286,898.7633928571429,947.1,102.85714285714286,868.7633928571429,1048.1,103.85714285714286,863.7633928571429,1156.5,103.85714285714286,863.7633928571429,1257.7,103.85714285714286,863.7633928571429,1364,103.85714285714286,863.7633928571429,1470.9,103.85714285714286,863.7633928571429,1571.4,103.85714285714286,863.7633928571429,1676.5,103.85714285714286,863.7633928571429,1818.1,103.85714285714286,863.7633928571429,1922.6,103.85714285714286,863.7633928571429,2023.4,103.85714285714286,863.7633928571429,2127.7,103.85714285714286,863.7633928571429,2229.6,103.85714285714286,863.7633928571429,2335,103.85714285714286,863.7633928571429,2435.5,103.85714285714286,863.7633928571429,2536.6,103.85714285714286,863.7633928571429,2642.1,103.85714285714286,863.7633928571429,2743.8,103.85714285714286,863.7633928571429,2844.3,103.85714285714286,863.7633928571429,2951.6,103.85714285714286,863.7633928571429,3051.9,103.85714285714286,863.7633928571429,3157.9,103.85714285714286,863.7633928571429,3262.2,103.85714285714286,863.7633928571429,3370,103.85714285714286,863.7633928571429,3471.4,103.85714285714286,863.7633928571429,3574.3,103.85714285714286,863.7633928571429,3674.7,103.85714285714286,863.7633928571429,3780.7,103.85714285714286,863.7633928571429,3885.8,103.85714285714286,863.7633928571429,3986.5,103.85714285714286,863.7633928571429,4090.6,103.85714285714286,863.7633928571429,4190.7,103.85714285714286,863.7633928571429,4292.5,103.85714285714286,863.7633928571429,4392.7,103.85714285714286,863.7633928571429,4502.4,103.85714285714286,863.7633928571429,4603.4,103.85714285714286,863.7633928571429,4704.8,103.85714285714286,863.7633928571429,4811.8,103.85714285714286,863.7633928571429,4918.8]","[1378.5,1378.5,1000,0,378.5,""oops"",""left"",""down"",""good_move"",3833.7,2454.8,1989.7,1378.9,465.1,""smooth"",""left"",""left"",""good_move"",13042,9208,2376.7,10245,420.3,""smooth"",""left"",""left"",""good_move"",15872.3,2829.5,2332.9,13042.8,496.6,""smooth"",""down"",""down"",""good_move"",18934.8,3062.2,2659.4,15872.6,402.8,""oops"",""left"",""right"",""bad_move"",21918.1,2983,2352.4,18935.1,630.6,""smooth"",""down"",""down"",""good_move"",24589.2,2670.8,2271.7,21918.4,399.1,""oops"",""left"",""up"",""bad_move"",27880.6,3291,2888.5,24589.6,402.5,""while_blue"",""left"",""left"",""good_move"",30857.6,2975.9,2501.2,27881.7,474.7,""oops"",""left"",""up"",""bad_move"",33270.6,2412.6,2028.3,30858,384.3,""smooth"",""left"",""left"",""good_move""]"
"3381","","<div style=""width:500px;"">
  <p>What determined the result of this run?</p>
  </div>","0","html-slider-response","39","550911","0.0-7.0-1.5","222","1","2025-08-06 21:59:46","36c45c0696341be0efffe67d72a12abb","173.21.92.193","Mozilla/5.0 (Windows NT 10.0; Win64; x64) AppleWebKit/537.36 (KHTML, like Gecko) Chrome/138.0.0.0 Safari/537.36","WebKit","Chrome","138.0.0.0","Windows","10.0","https://app.prolific.com/","en-US,en;q=0.9","66f4c82536b5c8271f53564c","6877649eabb845cf142cd221","6893d0424fa6c9372bbf8453","1","66f4c82536b5c8271f53564c","1","2025-08-06T22:08:59.927Z","","","","AttribQ","","","","","","","","","","","50","","","","","","","","","","","","","","","","","","","","","","","","","","",""
"3990","","<div style=""width:500px;"">
  <p>How much control did you have over the ball?</p>
  </div>","27","html-slider-response","40","554901","0.0-7.0-2.5","222","1","2025-08-06 21:59:46","36c45c0696341be0efffe67d72a12abb","173.21.92.193","Mozilla/5.0 (Windows NT 10.0; Win64; x64) AppleWebKit/537.36 (KHTML, like Gecko) Chrome/138.0.0.0 Safari/537.36","WebKit","Chrome","138.0.0.0","Windows","10.0","https://app.prolific.com/","en-US,en;q=0.9","66f4c82536b5c8271f53564c","6877649eabb845cf142cd221","6893d0424fa6c9372bbf8453","1","66f4c82536b5c8271f53564c","1","2025-08-06T22:09:03.917Z","","","","ControlQ","","","","","","","","","","","50","","","","","","","","","","","","","","","","","","","","","","","","","","",""
"3883","","<div style=""width:500px;"">
  <p>How would you describe your current emotional state?</p>
  </div>","74","html-slider-response","41","558785","0.0-7.0-3.5","222","1","2025-08-06 21:59:46","36c45c0696341be0efffe67d72a12abb","173.21.92.193","Mozilla/5.0 (Windows NT 10.0; Win64; x64) AppleWebKit/537.36 (KHTML, like Gecko) Chrome/138.0.0.0 Safari/537.36","WebKit","Chrome","138.0.0.0","Windows","10.0","https://app.prolific.com/","en-US,en;q=0.9","66f4c82536b5c8271f53564c","6877649eabb845cf142cd221","6893d0424fa6c9372bbf8453","1","66f4c82536b5c8271f53564c","1","2025-08-06T22:09:07.801Z","","","","StressQ","","","","","","","","","","","50","","","","","","","","","","","","","","","","","","","","","","","","","","",""
"4563","","<div style=""width:500px;"">
  <p>What best describes how you currently feel?</p>
  </div>","19","html-slider-response","42","563349","0.0-7.0-4.5","222","1","2025-08-06 21:59:46","36c45c0696341be0efffe67d72a12abb","173.21.92.193","Mozilla/5.0 (Windows NT 10.0; Win64; x64) AppleWebKit/537.36 (KHTML, like Gecko) Chrome/138.0.0.0 Safari/537.36","WebKit","Chrome","138.0.0.0","Windows","10.0","https://app.prolific.com/","en-US,en;q=0.9","66f4c82536b5c8271f53564c","6877649eabb845cf142cd221","6893d0424fa6c9372bbf8453","1","66f4c82536b5c8271f53564c","1","2025-08-06T22:09:12.365Z","","","","MotivationQ","","","","","","","","","","","50","","","","","","","","","","","","","","","","","","","","","","","","","","",""
"","","","","ctl-task-cpt","43","602324","0.0-7.0-0.6","222","1","2025-08-06 21:59:46","36c45c0696341be0efffe67d72a12abb","173.21.92.193","Mozilla/5.0 (Windows NT 10.0; Win64; x64) AppleWebKit/537.36 (KHTML, like Gecko) Chrome/138.0.0.0 Safari/537.36","WebKit","Chrome","138.0.0.0","Windows","10.0","https://app.prolific.com/","en-US,en;q=0.9","66f4c82536b5c8271f53564c","6877649eabb845cf142cd221","6893d0424fa6c9372bbf8453","1","66f4c82536b5c8271f53564c","1","2025-08-06T22:09:51.340Z","","","","","","","","","","","","","","","","win-only","0","g1:NW,g2:SE","0.4","7","0","567545.1","1078.6","6086.5","35962.5","1","4","8","6","2","-8","-8","18","26","0.13636363636363635","1453.1","3000","-2020","[""down"",""right""]","{""num_key_presses"":10,""num_perfect"":4,""num_errors"":0,""num_randdir"":6,""num_randdir_good_moves"":2,""num_whilered"":0,""num_whileblue"":0,""num_blue"":0,""num_good_moves"":6}","[465.8571428571429,455.7633928571429,0.2,465.8571428571429,455.7633928571429,102.1,465.8571428571429,455.7633928571429,202.6,465.8571428571429,455.7633928571429,308.6,465.8571428571429,455.7633928571429,411.5,465.8571428571429,455.7633928571429,511.9,465.8571428571429,455.7633928571429,612.7,546.8571428571429,547.7633928571429,720.2,705.8571428571429,810.7633928571429,827.1,705.8571428571429,810.7633928571429,927.2,705.8571428571429,810.7633928571429,1034,705.8571428571429,810.7633928571429,1135.8,799.8571428571429,820.7633928571429,1243.6,805.8571428571429,822.7633928571429,1344.2,805.8571428571429,822.7633928571429,1452.2,805.8571428571429,822.7633928571429,1567.4,805.8571428571429,822.7633928571429,1669.4,805.8571428571429,822.7633928571429,1777.6,805.8571428571429,822.7633928571429,1882.3,805.8571428571429,822.7633928571429,1986,805.8571428571429,822.7633928571429,2092.2,805.8571428571429,822.7633928571429,2200.5,805.8571428571429,822.7633928571429,2302,805.8571428571429,822.7633928571429,2411.8,805.8571428571429,822.7633928571429,2519.2,805.8571428571429,822.7633928571429,2619.4,805.8571428571429,822.7633928571429,2727.9,805.8571428571429,822.7633928571429,2834,805.8571428571429,822.7633928571429,2936.4,805.8571428571429,822.7633928571429,3042.5,805.8571428571429,822.7633928571429,3151.7,805.8571428571429,822.7633928571429,3251.8,805.8571428571429,822.7633928571429,3352.5,805.8571428571429,822.7633928571429,3461.5,805.8571428571429,822.7633928571429,3561.6,805.8571428571429,822.7633928571429,3661.9,805.8571428571429,822.7633928571429,3762.1,805.8571428571429,822.7633928571429,3862.3,805.8571428571429,822.7633928571429,3967.4,805.8571428571429,822.7633928571429,4069.6,805.8571428571429,822.7633928571429,4177.4,805.8571428571429,822.7633928571429,4277.5,805.8571428571429,822.7633928571429,4388.4,805.8571428571429,822.7633928571429,4488.8,805.8571428571429,822.7633928571429,4594.4,805.8571428571429,822.7633928571429,4694.6,805.8571428571429,822.7633928571429,4800.3,805.8571428571429,822.7633928571429,4908.3]","[1405.6,1405.6,1000,0,405.6,""oops"",""right"",""up"",""bad_move"",4697,3291,2813.6,1406,477.4,""smooth"",""right"",""right"",""good_move"",7723,3025.5,2597,4697.5,428.5,""oops"",""right"",""up"",""bad_move"",10438.6,2715.3,2279.1,7723.3,436.2,""oops"",""right"",""right"",""good_move"",13004.1,2565.3,2177.4,10438.8,387.9,""oops"",""down"",""left"",""bad_move"",15957.2,2952,2603.6,13005.3,348.4,""smooth"",""down"",""down"",""good_move"",18745.3,2787.7,2394.1,15957.6,393.6,""oops"",""down"",""up"",""bad_move"",21770.4,3025,2661.9,18745.4,363.1,""smooth"",""down"",""down"",""good_move"",24389,2618.4,2017.2,21770.6,601.2,""smooth"",""down"",""down"",""good_move"",27009.5,2620.4,2233.1,24389.1,387.3,""oops"",""down"",""down"",""good_move""]"
"4050","","<div style=""width:500px;"">
  <p>What determined the result of this run?</p>
  </div>","0","html-slider-response","44","606375","0.0-7.0-1.6","222","1","2025-08-06 21:59:46","36c45c0696341be0efffe67d72a12abb","173.21.92.193","Mozilla/5.0 (Windows NT 10.0; Win64; x64) AppleWebKit/537.36 (KHTML, like Gecko) Chrome/138.0.0.0 Safari/537.36","WebKit","Chrome","138.0.0.0","Windows","10.0","https://app.prolific.com/","en-US,en;q=0.9","66f4c82536b5c8271f53564c","6877649eabb845cf142cd221","6893d0424fa6c9372bbf8453","1","66f4c82536b5c8271f53564c","1","2025-08-06T22:09:55.391Z","","","","AttribQ","","","","","","","","","","","50","","","","","","","","","","","","","","","","","","","","","","","","","","",""
"4823","","<div style=""width:500px;"">
  <p>How much control did you have over the ball?</p>
  </div>","26","html-slider-response","45","611200","0.0-7.0-2.6","222","1","2025-08-06 21:59:46","36c45c0696341be0efffe67d72a12abb","173.21.92.193","Mozilla/5.0 (Windows NT 10.0; Win64; x64) AppleWebKit/537.36 (KHTML, like Gecko) Chrome/138.0.0.0 Safari/537.36","WebKit","Chrome","138.0.0.0","Windows","10.0","https://app.prolific.com/","en-US,en;q=0.9","66f4c82536b5c8271f53564c","6877649eabb845cf142cd221","6893d0424fa6c9372bbf8453","1","66f4c82536b5c8271f53564c","1","2025-08-06T22:10:00.216Z","","","","ControlQ","","","","","","","","","","","50","","","","","","","","","","","","","","","","","","","","","","","","","","",""
"5555","","<div style=""width:500px;"">
  <p>How would you describe your current emotional state?</p>
  </div>","73","html-slider-response","46","616756","0.0-7.0-3.6","222","1","2025-08-06 21:59:46","36c45c0696341be0efffe67d72a12abb","173.21.92.193","Mozilla/5.0 (Windows NT 10.0; Win64; x64) AppleWebKit/537.36 (KHTML, like Gecko) Chrome/138.0.0.0 Safari/537.36","WebKit","Chrome","138.0.0.0","Windows","10.0","https://app.prolific.com/","en-US,en;q=0.9","66f4c82536b5c8271f53564c","6877649eabb845cf142cd221","6893d0424fa6c9372bbf8453","1","66f4c82536b5c8271f53564c","1","2025-08-06T22:10:05.772Z","","","","StressQ","","","","","","","","","","","50","","","","","","","","","","","","","","","","","","","","","","","","","","",""
"7010","","<div style=""width:500px;"">
  <p>What best describes how you currently feel?</p>
  </div>","15","html-slider-response","47","623768","0.0-7.0-4.6","222","1","2025-08-06 21:59:46","36c45c0696341be0efffe67d72a12abb","173.21.92.193","Mozilla/5.0 (Windows NT 10.0; Win64; x64) AppleWebKit/537.36 (KHTML, like Gecko) Chrome/138.0.0.0 Safari/537.36","WebKit","Chrome","138.0.0.0","Windows","10.0","https://app.prolific.com/","en-US,en;q=0.9","66f4c82536b5c8271f53564c","6877649eabb845cf142cd221","6893d0424fa6c9372bbf8453","1","66f4c82536b5c8271f53564c","1","2025-08-06T22:10:12.784Z","","","","MotivationQ","","","","","","","","","","","50","","","","","","","","","","","","","","","","","","","","","","","","","","",""
"","","","","ctl-task-cpt","48","655480","0.0-7.0-0.7","222","1","2025-08-06 21:59:46","36c45c0696341be0efffe67d72a12abb","173.21.92.193","Mozilla/5.0 (Windows NT 10.0; Win64; x64) AppleWebKit/537.36 (KHTML, like Gecko) Chrome/138.0.0.0 Safari/537.36","WebKit","Chrome","138.0.0.0","Windows","10.0","https://app.prolific.com/","en-US,en;q=0.9","66f4c82536b5c8271f53564c","6877649eabb845cf142cd221","6893d0424fa6c9372bbf8453","1","66f4c82536b5c8271f53564c","1","2025-08-06T22:10:44.497Z","","","","","","","","","","","","","","","","win-only","2","g1:SE,g2:NW","0.3","8","0","627964.3","1977.6","6981.3","28699.9","1","4","4","6","1","1","1","19","18","0.14393939393939395","1376.5","3000","1785","[""down"",""right""]","{""num_key_presses"":4,""num_perfect"":3,""num_errors"":0,""num_randdir"":1,""num_randdir_good_moves"":1,""num_whilered"":0,""num_whileblue"":0,""num_blue"":3,""num_good_moves"":4}","[461.8571428571429,449.7633928571429,0.3,461.8571428571429,449.7633928571429,103.3,461.8571428571429,449.7633928571429,204,461.8571428571429,449.7633928571429,308.1,461.8571428571429,449.7633928571429,416.2,461.8571428571429,449.7633928571429,524.1,461.8571428571429,449.7633928571429,632.2,667.8571428571429,604.7633928571429,733.1,725.8571428571429,738.7633928571429,837.6,724.8571428571429,745.7633928571429,937.6,760.8571428571429,763.7633928571429,1041.4,801.8571428571429,793.7633928571429,1142.6,802.8571428571429,793.7633928571429,1243.9,802.8571428571429,793.7633928571429,1353.5,802.8571428571429,793.7633928571429,1458,802.8571428571429,793.7633928571429,1565.4,802.8571428571429,793.7633928571429,1667.7,802.8571428571429,793.7633928571429,1770.5,802.8571428571429,793.7633928571429,1875.6,802.8571428571429,793.7633928571429,1984.6,802.8571428571429,793.7633928571429,2098.3,802.8571428571429,793.7633928571429,2200.5,802.8571428571429,793.7633928571429,2301,802.8571428571429,793.7633928571429,2408.1,802.8571428571429,793.7633928571429,2509.2,802.8571428571429,793.7633928571429,2617.3,802.8571428571429,793.7633928571429,2720.5,802.8571428571429,793.7633928571429,2824.2,802.8571428571429,793.7633928571429,2925.1,802.8571428571429,793.7633928571429,3025.5,802.8571428571429,793.7633928571429,3131.9,802.8571428571429,793.7633928571429,3232.9,802.8571428571429,793.7633928571429,3341,802.8571428571429,793.7633928571429,3443,802.8571428571429,793.7633928571429,3548.7,802.8571428571429,793.7633928571429,3649.7,802.8571428571429,793.7633928571429,3751,802.8571428571429,793.7633928571429,3858.7,802.8571428571429,793.7633928571429,3959.1,802.8571428571429,793.7633928571429,4064.2,802.8571428571429,793.7633928571429,4166.1,802.8571428571429,793.7633928571429,4268.5,802.8571428571429,793.7633928571429,4369,802.8571428571429,793.7633928571429,4470.2,802.8571428571429,793.7633928571429,4571.4,802.8571428571429,793.7633928571429,4675.3,802.8571428571429,793.7633928571429,4775.6,802.8571428571429,793.7633928571429,4878.6,802.8571428571429,793.7633928571429,4983.1]","[1445.3,1445.3,1000,0,445.3,""oops"",""right"",""down"",""good_move"",3839.4,2393.8,2016.5,1445.6,377.3,""smooth"",""right"",""right"",""good_move"",10906.9,7066.9,3345.9,6905.1,655.9,""smooth"",""right"",""right"",""good_move"",21585.8,10678.6,2720.8,18469.3,395.7,""smooth"",""down"",""down"",""good_move""]"
"5389","","<div style=""width:500px;"">
  <p>What determined the result of this run?</p>
  </div>","2","html-slider-response","49","660870","0.0-7.0-1.7","222","1","2025-08-06 21:59:46","36c45c0696341be0efffe67d72a12abb","173.21.92.193","Mozilla/5.0 (Windows NT 10.0; Win64; x64) AppleWebKit/537.36 (KHTML, like Gecko) Chrome/138.0.0.0 Safari/537.36","WebKit","Chrome","138.0.0.0","Windows","10.0","https://app.prolific.com/","en-US,en;q=0.9","66f4c82536b5c8271f53564c","6877649eabb845cf142cd221","6893d0424fa6c9372bbf8453","1","66f4c82536b5c8271f53564c","1","2025-08-06T22:10:49.887Z","","","","AttribQ","","","","","","","","","","","50","","","","","","","","","","","","","","","","","","","","","","","","","","",""
"3968","","<div style=""width:500px;"">
  <p>How much control did you have over the ball?</p>
  </div>","100","html-slider-response","50","664840","0.0-7.0-2.7","222","1","2025-08-06 21:59:46","36c45c0696341be0efffe67d72a12abb","173.21.92.193","Mozilla/5.0 (Windows NT 10.0; Win64; x64) AppleWebKit/537.36 (KHTML, like Gecko) Chrome/138.0.0.0 Safari/537.36","WebKit","Chrome","138.0.0.0","Windows","10.0","https://app.prolific.com/","en-US,en;q=0.9","66f4c82536b5c8271f53564c","6877649eabb845cf142cd221","6893d0424fa6c9372bbf8453","1","66f4c82536b5c8271f53564c","1","2025-08-06T22:10:53.856Z","","","","ControlQ","","","","","","","","","","","50","","","","","","","","","","","","","","","","","","","","","","","","","","",""
"4124","","<div style=""width:500px;"">
  <p>How would you describe your current emotional state?</p>
  </div>","67","html-slider-response","51","668965","0.0-7.0-3.7","222","1","2025-08-06 21:59:46","36c45c0696341be0efffe67d72a12abb","173.21.92.193","Mozilla/5.0 (Windows NT 10.0; Win64; x64) AppleWebKit/537.36 (KHTML, like Gecko) Chrome/138.0.0.0 Safari/537.36","WebKit","Chrome","138.0.0.0","Windows","10.0","https://app.prolific.com/","en-US,en;q=0.9","66f4c82536b5c8271f53564c","6877649eabb845cf142cd221","6893d0424fa6c9372bbf8453","1","66f4c82536b5c8271f53564c","1","2025-08-06T22:10:57.982Z","","","","StressQ","","","","","","","","","","","50","","","","","","","","","","","","","","","","","","","","","","","","","","",""
"5276","","<div style=""width:500px;"">
  <p>What best describes how you currently feel?</p>
  </div>","25","html-slider-response","52","674243","0.0-7.0-4.7","222","1","2025-08-06 21:59:46","36c45c0696341be0efffe67d72a12abb","173.21.92.193","Mozilla/5.0 (Windows NT 10.0; Win64; x64) AppleWebKit/537.36 (KHTML, like Gecko) Chrome/138.0.0.0 Safari/537.36","WebKit","Chrome","138.0.0.0","Windows","10.0","https://app.prolific.com/","en-US,en;q=0.9","66f4c82536b5c8271f53564c","6877649eabb845cf142cd221","6893d0424fa6c9372bbf8453","1","66f4c82536b5c8271f53564c","1","2025-08-06T22:11:03.259Z","","","","MotivationQ","","","","","","","","","","","50","","","","","","","","","","","","","","","","","","","","","","","","","","",""
"","","","","ctl-task-cpt","53","727123","0.0-7.0-0.8","222","1","2025-08-06 21:59:46","36c45c0696341be0efffe67d72a12abb","173.21.92.193","Mozilla/5.0 (Windows NT 10.0; Win64; x64) AppleWebKit/537.36 (KHTML, like Gecko) Chrome/138.0.0.0 Safari/537.36","WebKit","Chrome","138.0.0.0","Windows","10.0","https://app.prolific.com/","en-US,en;q=0.9","66f4c82536b5c8271f53564c","6877649eabb845cf142cd221","6893d0424fa6c9372bbf8453","1","66f4c82536b5c8271f53564c","1","2025-08-06T22:11:56.139Z","","","","","","","","","","","","","","","","win-only","3","g1:SW,g2:NE","0.4","9","0","678439.4","2566.7","7576.1","49869.7","1","4","4","6","2","-4","-5","14","19","0.10606060606060606","1870.3","3000","-2005","[""up"",""right""]","{""num_key_presses"":12,""num_perfect"":5,""num_errors"":1,""num_randdir"":6,""num_randdir_good_moves"":2,""num_whilered"":0,""num_whileblue"":0,""num_blue"":2,""num_good_moves"":7}","[457.8571428571429,460.7633928571429,0.3,457.8571428571429,460.7633928571429,101.3,457.8571428571429,460.7633928571429,202.8,457.8571428571429,460.7633928571429,309.5,457.8571428571429,460.7633928571429,411,457.8571428571429,460.7633928571429,520.9,457.8571428571429,460.7633928571429,628.7,457.8571428571429,460.7633928571429,735.1,457.8571428571429,460.7633928571429,844.1,457.8571428571429,460.7633928571429,951.4,564.8571428571429,323.7633928571429,1053.9,994.8571428571429,-125.23660714285714,1158.6,1037.857142857143,-121.23660714285714,1261.1,1016.8571428571429,-102.23660714285714,1364.9,921.8571428571429,-49.23660714285714,1470.6,859.8571428571429,12.763392857142861,1572.4,848.8571428571429,33.76339285714286,1677.5,846.8571428571429,39.76339285714286,1778.6,846.8571428571429,39.76339285714286,1886.4,846.8571428571429,39.76339285714286,1988,846.8571428571429,39.76339285714286,2101,846.8571428571429,39.76339285714286,2202.4,846.8571428571429,39.76339285714286,2304.7,846.8571428571429,39.76339285714286,2410.5,846.8571428571429,39.76339285714286,2518.4,846.8571428571429,39.76339285714286,2620.8,846.8571428571429,39.76339285714286,2723.5,846.8571428571429,39.76339285714286,2835.1,846.8571428571429,39.76339285714286,2950.7,846.8571428571429,39.76339285714286,3051.1,846.8571428571429,39.76339285714286,3154,846.8571428571429,39.76339285714286,3260.3,846.8571428571429,39.76339285714286,3361,846.8571428571429,39.76339285714286,3469.2,846.8571428571429,39.76339285714286,3577.7,846.8571428571429,39.76339285714286,3681.2,846.8571428571429,39.76339285714286,3787.1,846.8571428571429,39.76339285714286,3889.8,846.8571428571429,39.76339285714286,3995.1,846.8571428571429,39.76339285714286,4101.2,846.8571428571429,39.76339285714286,4207.7,846.8571428571429,39.76339285714286,4317.6,846.8571428571429,39.76339285714286,4423.3,846.8571428571429,39.76339285714286,4523.5,846.8571428571429,39.76339285714286,4624.2,846.8571428571429,39.76339285714286,4952.7]","[355.7,355.7,1000,0,-644.3,""error"",""-"",""-"",""no_move"",3498.8,3142.9,1746.8,1358.4,393.6,""oops"",""right"",""up"",""good_move"",9818.5,6319.4,1978.3,7428.5,411.7,""smooth"",""right"",""right"",""good_move"",13163.3,3344.4,2924.6,9818.9,419.8,""smooth"",""right"",""right"",""good_move"",17028.2,3864.8,3424.6,13163.5,440.2,""oops"",""up"",""down"",""bad_move"",19688.2,2659.7,2152.5,17028.5,507.2,""oops"",""up"",""right"",""good_move"",22124.5,2436.1,1928.4,19688.4,507.7,""oops"",""up"",""down"",""bad_move"",24906.1,2781.3,2427,22124.8,354.3,""smooth"",""up"",""up"",""good_move"",27481.5,2575.1,2256.1,24906.4,319,""smooth"",""up"",""up"",""good_move"",30360,2878.2,2538.9,27481.8,339.3,""oops"",""up"",""left"",""bad_move"",37081,6720.8,2635.5,34117.6,328,""oops"",""up"",""left"",""bad_move"",39741.9,2660.6,2209.4,37081.3,451.2,""smooth"",""up"",""up"",""good_move""]"
"8479","","<div style=""width:500px;"">
  <p>What determined the result of this run?</p>
  </div>","1","html-slider-response","54","735603","0.0-7.0-1.8","222","1","2025-08-06 21:59:46","36c45c0696341be0efffe67d72a12abb","173.21.92.193","Mozilla/5.0 (Windows NT 10.0; Win64; x64) AppleWebKit/537.36 (KHTML, like Gecko) Chrome/138.0.0.0 Safari/537.36","WebKit","Chrome","138.0.0.0","Windows","10.0","https://app.prolific.com/","en-US,en;q=0.9","66f4c82536b5c8271f53564c","6877649eabb845cf142cd221","6893d0424fa6c9372bbf8453","1","66f4c82536b5c8271f53564c","1","2025-08-06T22:12:04.620Z","","","","AttribQ","","","","","","","","","","","50","","","","","","","","","","","","","","","","","","","","","","","","","","",""
"4685","","<div style=""width:500px;"">
  <p>How much control did you have over the ball?</p>
  </div>","19","html-slider-response","55","740290","0.0-7.0-2.8","222","1","2025-08-06 21:59:46","36c45c0696341be0efffe67d72a12abb","173.21.92.193","Mozilla/5.0 (Windows NT 10.0; Win64; x64) AppleWebKit/537.36 (KHTML, like Gecko) Chrome/138.0.0.0 Safari/537.36","WebKit","Chrome","138.0.0.0","Windows","10.0","https://app.prolific.com/","en-US,en;q=0.9","66f4c82536b5c8271f53564c","6877649eabb845cf142cd221","6893d0424fa6c9372bbf8453","1","66f4c82536b5c8271f53564c","1","2025-08-06T22:12:09.306Z","","","","ControlQ","","","","","","","","","","","50","","","","","","","","","","","","","","","","","","","","","","","","","","",""
"5639","","<div style=""width:500px;"">
  <p>How would you describe your current emotional state?</p>
  </div>","70","html-slider-response","56","745930","0.0-7.0-3.8","222","1","2025-08-06 21:59:46","36c45c0696341be0efffe67d72a12abb","173.21.92.193","Mozilla/5.0 (Windows NT 10.0; Win64; x64) AppleWebKit/537.36 (KHTML, like Gecko) Chrome/138.0.0.0 Safari/537.36","WebKit","Chrome","138.0.0.0","Windows","10.0","https://app.prolific.com/","en-US,en;q=0.9","66f4c82536b5c8271f53564c","6877649eabb845cf142cd221","6893d0424fa6c9372bbf8453","1","66f4c82536b5c8271f53564c","1","2025-08-06T22:12:14.946Z","","","","StressQ","","","","","","","","","","","50","","","","","","","","","","","","","","","","","","","","","","","","","","",""
"5374","","<div style=""width:500px;"">
  <p>What best describes how you currently feel?</p>
  </div>","22","html-slider-response","57","751305","0.0-7.0-4.8","222","1","2025-08-06 21:59:46","36c45c0696341be0efffe67d72a12abb","173.21.92.193","Mozilla/5.0 (Windows NT 10.0; Win64; x64) AppleWebKit/537.36 (KHTML, like Gecko) Chrome/138.0.0.0 Safari/537.36","WebKit","Chrome","138.0.0.0","Windows","10.0","https://app.prolific.com/","en-US,en;q=0.9","66f4c82536b5c8271f53564c","6877649eabb845cf142cd221","6893d0424fa6c9372bbf8453","1","66f4c82536b5c8271f53564c","1","2025-08-06T22:12:20.321Z","","","","MotivationQ","","","","","","","","","","","50","","","","","","","","","","","","","","","","","","","","","","","","","","",""
"","","","","ctl-task-cpt","58","792297","0.0-7.0-0.9","222","1","2025-08-06 21:59:46","36c45c0696341be0efffe67d72a12abb","173.21.92.193","Mozilla/5.0 (Windows NT 10.0; Win64; x64) AppleWebKit/537.36 (KHTML, like Gecko) Chrome/138.0.0.0 Safari/537.36","WebKit","Chrome","138.0.0.0","Windows","10.0","https://app.prolific.com/","en-US,en;q=0.9","66f4c82536b5c8271f53564c","6877649eabb845cf142cd221","6893d0424fa6c9372bbf8453","1","66f4c82536b5c8271f53564c","1","2025-08-06T22:13:01.313Z","","","","","","","","","","","","","","","","win-only","3","g1:SW,g2:NE","0.5","10","0","755501.2","1169.5","6178","37981.8","1","4","8","6","2","8","7","21","14","0.1590909090909091","1836.3","3000","1280","[""up"",""right""]","{""num_key_presses"":8,""num_perfect"":5,""num_errors"":1,""num_randdir"":2,""num_randdir_good_moves"":2,""num_whilered"":0,""num_whileblue"":1,""num_blue"":4,""num_good_moves"":7}","[454.8571428571429,470.7633928571429,0.1,454.8571428571429,470.7633928571429,106.6,454.8571428571429,470.7633928571429,210.7,454.8571428571429,470.7633928571429,321.8,454.8571428571429,470.7633928571429,429.3,454.8571428571429,470.7633928571429,529.6,454.8571428571429,470.7633928571429,632.3,407.8571428571429,575.7633928571429,739.6,361.8571428571429,670.7633928571429,841.8,241.85714285714286,752.7633928571429,954.8,243.85714285714286,745.7633928571429,1057,1045.857142857143,53.76339285714286,1173.2,1062.857142857143,40.76339285714286,1278.3,995.8571428571429,71.76339285714286,1380.9,901.8571428571429,119.76339285714286,1482.6,849.8571428571429,92.76339285714286,1591.6,833.8571428571429,88.76339285714286,1702.4,833.8571428571429,88.76339285714286,1806.6,833.8571428571429,88.76339285714286,1906.6,833.8571428571429,88.76339285714286,2007.4,833.8571428571429,88.76339285714286,2111.6,833.8571428571429,88.76339285714286,2212.7,833.8571428571429,88.76339285714286,2322.8,833.8571428571429,88.76339285714286,2439.7,833.8571428571429,88.76339285714286,2545.8,833.8571428571429,88.76339285714286,2645.9,833.8571428571429,88.76339285714286,2756.6,833.8571428571429,88.76339285714286,2861.7,833.8571428571429,88.76339285714286,2969.4,833.8571428571429,88.76339285714286,3070,833.8571428571429,88.76339285714286,3172.2,833.8571428571429,88.76339285714286,3278.6,833.8571428571429,88.76339285714286,3385.3,833.8571428571429,88.76339285714286,3491.8,833.8571428571429,88.76339285714286,3599.6,833.8571428571429,88.76339285714286,3703.6,833.8571428571429,88.76339285714286,3811.3,833.8571428571429,88.76339285714286,3912.3,833.8571428571429,88.76339285714286,4020.5,833.8571428571429,88.76339285714286,4123.1,833.8571428571429,88.76339285714286,4223.8,833.8571428571429,88.76339285714286,4338.1,833.8571428571429,88.76339285714286,4447.6,833.8571428571429,88.76339285714286,4552.4,833.8571428571429,88.76339285714286,4652.5,833.8571428571429,88.76339285714286,4758.5,833.8571428571429,88.76339285714286,4859.1,833.8571428571429,88.76339285714286,4959.5]","[4129.9,4129.9,1726.7,2021.6,381.6,""smooth"",""right"",""right"",""good_move"",13182.4,9051.9,1906.7,10812,463.7,""smooth"",""up"",""up"",""good_move"",16244,3061.4,2669.6,13182.6,391.8,""smooth"",""right"",""right"",""good_move"",19032.7,2788.4,2398.6,16244.3,389.8,""smooth"",""up"",""up"",""good_move"",22498.6,3465.6,3055.4,19033,410.2,""smooth"",""right"",""right"",""good_move"",25107,2608.1,2295.5,22498.9,312.6,""while_blue"",""up"",""left"",""bad_move"",28716.8,3609.2,3232.2,25107.6,377,""oops"",""right"",""up"",""good_move"",31668.3,2950.9,2613.1,28717.4,337.8,""oops"",""right"",""right"",""good_move""]"
"7257","","<div style=""width:500px;"">
  <p>What determined the result of this run?</p>
  </div>","25","html-slider-response","59","799555","0.0-7.0-1.9","222","1","2025-08-06 21:59:46","36c45c0696341be0efffe67d72a12abb","173.21.92.193","Mozilla/5.0 (Windows NT 10.0; Win64; x64) AppleWebKit/537.36 (KHTML, like Gecko) Chrome/138.0.0.0 Safari/537.36","WebKit","Chrome","138.0.0.0","Windows","10.0","https://app.prolific.com/","en-US,en;q=0.9","66f4c82536b5c8271f53564c","6877649eabb845cf142cd221","6893d0424fa6c9372bbf8453","1","66f4c82536b5c8271f53564c","1","2025-08-06T22:13:08.571Z","","","","AttribQ","","","","","","","","","","","50","","","","","","","","","","","","","","","","","","","","","","","","","","",""
"3217","","<div style=""width:500px;"">
  <p>How much control did you have over the ball?</p>
  </div>","84","html-slider-response","60","802773","0.0-7.0-2.9","222","1","2025-08-06 21:59:46","36c45c0696341be0efffe67d72a12abb","173.21.92.193","Mozilla/5.0 (Windows NT 10.0; Win64; x64) AppleWebKit/537.36 (KHTML, like Gecko) Chrome/138.0.0.0 Safari/537.36","WebKit","Chrome","138.0.0.0","Windows","10.0","https://app.prolific.com/","en-US,en;q=0.9","66f4c82536b5c8271f53564c","6877649eabb845cf142cd221","6893d0424fa6c9372bbf8453","1","66f4c82536b5c8271f53564c","1","2025-08-06T22:13:11.789Z","","","","ControlQ","","","","","","","","","","","50","","","","","","","","","","","","","","","","","","","","","","","","","","",""
"3551","","<div style=""width:500px;"">
  <p>How would you describe your current emotional state?</p>
  </div>","76","html-slider-response","61","806325","0.0-7.0-3.9","222","1","2025-08-06 21:59:46","36c45c0696341be0efffe67d72a12abb","173.21.92.193","Mozilla/5.0 (Windows NT 10.0; Win64; x64) AppleWebKit/537.36 (KHTML, like Gecko) Chrome/138.0.0.0 Safari/537.36","WebKit","Chrome","138.0.0.0","Windows","10.0","https://app.prolific.com/","en-US,en;q=0.9","66f4c82536b5c8271f53564c","6877649eabb845cf142cd221","6893d0424fa6c9372bbf8453","1","66f4c82536b5c8271f53564c","1","2025-08-06T22:13:15.342Z","","","","StressQ","","","","","","","","","","","50","","","","","","","","","","","","","","","","","","","","","","","","","","",""
"3478","","<div style=""width:500px;"">
  <p>What best describes how you currently feel?</p>
  </div>","19","html-slider-response","62","809805","0.0-7.0-4.9","222","1","2025-08-06 21:59:46","36c45c0696341be0efffe67d72a12abb","173.21.92.193","Mozilla/5.0 (Windows NT 10.0; Win64; x64) AppleWebKit/537.36 (KHTML, like Gecko) Chrome/138.0.0.0 Safari/537.36","WebKit","Chrome","138.0.0.0","Windows","10.0","https://app.prolific.com/","en-US,en;q=0.9","66f4c82536b5c8271f53564c","6877649eabb845cf142cd221","6893d0424fa6c9372bbf8453","1","66f4c82536b5c8271f53564c","1","2025-08-06T22:13:18.821Z","","","","MotivationQ","","","","","","","","","","","50","","","","","","","","","","","","","","","","","","","","","","","","","","",""
"","","","","ctl-task-cpt","63","841631","0.0-7.0-0.10","222","1","2025-08-06 21:59:46","36c45c0696341be0efffe67d72a12abb","173.21.92.193","Mozilla/5.0 (Windows NT 10.0; Win64; x64) AppleWebKit/537.36 (KHTML, like Gecko) Chrome/138.0.0.0 Safari/537.36","WebKit","Chrome","138.0.0.0","Windows","10.0","https://app.prolific.com/","en-US,en;q=0.9","66f4c82536b5c8271f53564c","6877649eabb845cf142cd221","6893d0424fa6c9372bbf8453","1","66f4c82536b5c8271f53564c","1","2025-08-06T22:13:50.647Z","","","","","","","","","","","","","","","","win-only","3","g1:SW,g2:NE","0.6","11","0","814001.3","1037.5","6041.5","28805.4","1","4","8","6","2","-8","-8","13","21","0.09848484848484848","1138.9","3000","-2060","[""up"",""right""]","{""num_key_presses"":5,""num_perfect"":3,""num_errors"":0,""num_randdir"":2,""num_randdir_good_moves"":1,""num_whilered"":0,""num_whileblue"":0,""num_blue"":1,""num_good_moves"":4}","[471.8571428571429,466.7633928571429,0.1,471.8571428571429,466.7633928571429,100.4,471.8571428571429,466.7633928571429,210.3,471.8571428571429,466.7633928571429,316.9,471.8571428571429,466.7633928571429,417.7,471.8571428571429,466.7633928571429,517.8,738.8571428571429,240.76339285714286,619.6,806.8571428571429,188.76339285714286,721.2,812.8571428571429,165.76339285714286,822.8,845.8571428571429,115.76339285714286,930.3,847.8571428571429,112.76339285714286,1034.2,847.8571428571429,112.76339285714286,1136.1,847.8571428571429,112.76339285714286,1242.8,847.8571428571429,112.76339285714286,1353.7,847.8571428571429,112.76339285714286,1463,847.8571428571429,112.76339285714286,1566.6,847.8571428571429,112.76339285714286,1676.7,847.8571428571429,112.76339285714286,1777.2,847.8571428571429,112.76339285714286,1878.2,847.8571428571429,112.76339285714286,1978.2,847.8571428571429,112.76339285714286,2080.2,847.8571428571429,112.76339285714286,2184.5,847.8571428571429,112.76339285714286,2286.3,847.8571428571429,112.76339285714286,2387.1,847.8571428571429,112.76339285714286,2489.6,847.8571428571429,112.76339285714286,2593.7,847.8571428571429,112.76339285714286,2700.1,847.8571428571429,112.76339285714286,2800.7,847.8571428571429,112.76339285714286,2901,847.8571428571429,112.76339285714286,3009.3,847.8571428571429,112.76339285714286,3114.3,847.8571428571429,112.76339285714286,3218.4,847.8571428571429,112.76339285714286,3327.5,847.8571428571429,112.76339285714286,3429.6,847.8571428571429,112.76339285714286,3534.4,847.8571428571429,112.76339285714286,3641,847.8571428571429,112.76339285714286,3743.9,847.8571428571429,112.76339285714286,3844.2,847.8571428571429,112.76339285714286,3950.6,847.8571428571429,112.76339285714286,4052.9,847.8571428571429,112.76339285714286,4153.9,847.8571428571429,112.76339285714286,4254.5,847.8571428571429,112.76339285714286,4356.6,847.8571428571429,112.76339285714286,4459.8,847.8571428571429,112.76339285714286,4570.8,847.8571428571429,112.76339285714286,4675.7,847.8571428571429,112.76339285714286,4776,847.8571428571429,112.76339285714286,4878.6,847.8571428571429,112.76339285714286,4987.4]","[1421.6,1421.6,1000,0,421.6,""smooth"",""right"",""right"",""good_move"",7248.8,5826.8,2975.3,1422,2851.5,""smooth"",""right"",""right"",""good_move"",10742.1,3493.1,3140.2,7249.1,352.8,""smooth"",""up"",""up"",""good_move"",13275.5,2533,2141.7,10742.5,391.3,""oops"",""up"",""left"",""bad_move"",19855.3,6579.3,2799.4,16597.3,458.6,""oops"",""up"",""right"",""good_move""]"
"5979","","<div style=""width:500px;"">
  <p>What determined the result of this run?</p>
  </div>","9","html-slider-response","64","847611","0.0-7.0-1.10","222","1","2025-08-06 21:59:46","36c45c0696341be0efffe67d72a12abb","173.21.92.193","Mozilla/5.0 (Windows NT 10.0; Win64; x64) AppleWebKit/537.36 (KHTML, like Gecko) Chrome/138.0.0.0 Safari/537.36","WebKit","Chrome","138.0.0.0","Windows","10.0","https://app.prolific.com/","en-US,en;q=0.9","66f4c82536b5c8271f53564c","6877649eabb845cf142cd221","6893d0424fa6c9372bbf8453","1","66f4c82536b5c8271f53564c","1","2025-08-06T22:13:56.627Z","","","","AttribQ","","","","","","","","","","","50","","","","","","","","","","","","","","","","","","","","","","","","","","",""
"5730","","<div style=""width:500px;"">
  <p>How much control did you have over the ball?</p>
  </div>","11","html-slider-response","65","853342","0.0-7.0-2.10","222","1","2025-08-06 21:59:46","36c45c0696341be0efffe67d72a12abb","173.21.92.193","Mozilla/5.0 (Windows NT 10.0; Win64; x64) AppleWebKit/537.36 (KHTML, like Gecko) Chrome/138.0.0.0 Safari/537.36","WebKit","Chrome","138.0.0.0","Windows","10.0","https://app.prolific.com/","en-US,en;q=0.9","66f4c82536b5c8271f53564c","6877649eabb845cf142cd221","6893d0424fa6c9372bbf8453","1","66f4c82536b5c8271f53564c","1","2025-08-06T22:14:02.358Z","","","","ControlQ","","","","","","","","","","","50","","","","","","","","","","","","","","","","","","","","","","","","","","",""
"6564","","<div style=""width:500px;"">
  <p>How would you describe your current emotional state?</p>
  </div>","71","html-slider-response","66","859908","0.0-7.0-3.10","222","1","2025-08-06 21:59:46","36c45c0696341be0efffe67d72a12abb","173.21.92.193","Mozilla/5.0 (Windows NT 10.0; Win64; x64) AppleWebKit/537.36 (KHTML, like Gecko) Chrome/138.0.0.0 Safari/537.36","WebKit","Chrome","138.0.0.0","Windows","10.0","https://app.prolific.com/","en-US,en;q=0.9","66f4c82536b5c8271f53564c","6877649eabb845cf142cd221","6893d0424fa6c9372bbf8453","1","66f4c82536b5c8271f53564c","1","2025-08-06T22:14:08.924Z","","","","StressQ","","","","","","","","","","","50","","","","","","","","","","","","","","","","","","","","","","","","","","",""
"3268","","<div style=""width:500px;"">
  <p>What best describes how you currently feel?</p>
  </div>","12","html-slider-response","67","863178","0.0-7.0-4.10","222","1","2025-08-06 21:59:46","36c45c0696341be0efffe67d72a12abb","173.21.92.193","Mozilla/5.0 (Windows NT 10.0; Win64; x64) AppleWebKit/537.36 (KHTML, like Gecko) Chrome/138.0.0.0 Safari/537.36","WebKit","Chrome","138.0.0.0","Windows","10.0","https://app.prolific.com/","en-US,en;q=0.9","66f4c82536b5c8271f53564c","6877649eabb845cf142cd221","6893d0424fa6c9372bbf8453","1","66f4c82536b5c8271f53564c","1","2025-08-06T22:14:12.194Z","","","","MotivationQ","","","","","","","","","","","50","","","","","","","","","","","","","","","","","","","","","","","","","","",""
"","","","","ctl-task-cpt","68","888850","0.0-7.0-0.11","222","1","2025-08-06 21:59:46","36c45c0696341be0efffe67d72a12abb","173.21.92.193","Mozilla/5.0 (Windows NT 10.0; Win64; x64) AppleWebKit/537.36 (KHTML, like Gecko) Chrome/138.0.0.0 Safari/537.36","WebKit","Chrome","138.0.0.0","Windows","10.0","https://app.prolific.com/","en-US,en;q=0.9","66f4c82536b5c8271f53564c","6877649eabb845cf142cd221","6893d0424fa6c9372bbf8453","1","66f4c82536b5c8271f53564c","1","2025-08-06T22:14:37.866Z","","","","","","","","","","","","","","","","win-only","3","g1:SW,g2:NE","0.7","12","0","867373.7","1078","6087.6","22646.7","1","4","4","6","1","1","1","14","13","0.10606060606060606","2019.2","3000","865","[""down"",""left""]","{""num_key_presses"":6,""num_perfect"":4,""num_errors"":0,""num_randdir"":2,""num_randdir_good_moves"":1,""num_whilered"":0,""num_whileblue"":0,""num_blue"":0,""num_good_moves"":5}","[458.8571428571429,466.7633928571429,0.3,458.8571428571429,466.7633928571429,107.6,458.8571428571429,466.7633928571429,213.2,458.8571428571429,466.7633928571429,314.2,458.8571428571429,466.7633928571429,421.4,458.8571428571429,466.7633928571429,529.4,579.8571428571429,316.7633928571429,636,782.8571428571429,128.76339285714286,737.5,786.8571428571429,128.76339285714286,843.7,815.8571428571429,96.76339285714286,948.2,807.8571428571429,107.76339285714286,1054.7,699.8571428571429,195.76339285714286,1164.9,709.8571428571429,187.76339285714286,1271.1,471.8571428571429,462.7633928571429,1376.3,57.85714285714286,949.7633928571429,1477.4,77.85714285714286,931.7633928571429,1583.8,80.85714285714286,930.7633928571429,1689.7,89.85714285714286,873.7633928571429,1796.5,89.85714285714286,862.7633928571429,1902.3,89.85714285714286,862.7633928571429,2004.7,89.85714285714286,862.7633928571429,2110.7,89.85714285714286,862.7633928571429,2216.6,89.85714285714286,862.7633928571429,2325.2,89.85714285714286,862.7633928571429,2435.3,89.85714285714286,862.7633928571429,2543.6,89.85714285714286,862.7633928571429,2645.7,89.85714285714286,862.7633928571429,2745.7,89.85714285714286,862.7633928571429,2851.3,89.85714285714286,862.7633928571429,2952.8,89.85714285714286,862.7633928571429,3054.4,89.85714285714286,862.7633928571429,3165.3,89.85714285714286,862.7633928571429,3270.2,89.85714285714286,862.7633928571429,3370.3,89.85714285714286,862.7633928571429,3470.6,89.85714285714286,862.7633928571429,3571.2,89.85714285714286,862.7633928571429,3676.4,89.85714285714286,862.7633928571429,3781.3,89.85714285714286,862.7633928571429,3886.4,89.85714285714286,862.7633928571429,3986.9,89.85714285714286,862.7633928571429,4087.2,89.85714285714286,862.7633928571429,4193,89.85714285714286,862.7633928571429,4297.5,89.85714285714286,862.7633928571429,4399.6,89.85714285714286,862.7633928571429,4504,89.85714285714286,862.7633928571429,4608.8,89.85714285714286,862.7633928571429,4714.5,89.85714285714286,862.7633928571429,4824.5,89.85714285714286,862.7633928571429,4930]","[1438.7,1438.7,1000,0,438.7,""smooth"",""down"",""down"",""good_move"",4360.9,2921.9,2477.1,1439,444.8,""smooth"",""left"",""left"",""good_move"",7428.6,3067.4,2732.3,4361.2,335.1,""oops"",""left"",""up"",""bad_move"",10681.2,3252.3,2556.6,7428.9,695.7,""smooth"",""left"",""left"",""good_move"",13812.6,3131.1,2397.1,10681.5,734,""oops"",""down"",""down"",""good_move"",16428.4,2615.6,2249.1,13812.9,366.5,""smooth"",""down"",""down"",""good_move""]"
"4545","","<div style=""width:500px;"">
  <p>What determined the result of this run?</p>
  </div>","5","html-slider-response","69","893396","0.0-7.0-1.11","222","1","2025-08-06 21:59:46","36c45c0696341be0efffe67d72a12abb","173.21.92.193","Mozilla/5.0 (Windows NT 10.0; Win64; x64) AppleWebKit/537.36 (KHTML, like Gecko) Chrome/138.0.0.0 Safari/537.36","WebKit","Chrome","138.0.0.0","Windows","10.0","https://app.prolific.com/","en-US,en;q=0.9","66f4c82536b5c8271f53564c","6877649eabb845cf142cd221","6893d0424fa6c9372bbf8453","1","66f4c82536b5c8271f53564c","1","2025-08-06T22:14:42.412Z","","","","AttribQ","","","","","","","","","","","50","","","","","","","","","","","","","","","","","","","","","","","","","","",""
"8422","","<div style=""width:500px;"">
  <p>How much control did you have over the ball?</p>
  </div>","72","html-slider-response","70","901819","0.0-7.0-2.11","222","1","2025-08-06 21:59:46","36c45c0696341be0efffe67d72a12abb","173.21.92.193","Mozilla/5.0 (Windows NT 10.0; Win64; x64) AppleWebKit/537.36 (KHTML, like Gecko) Chrome/138.0.0.0 Safari/537.36","WebKit","Chrome","138.0.0.0","Windows","10.0","https://app.prolific.com/","en-US,en;q=0.9","66f4c82536b5c8271f53564c","6877649eabb845cf142cd221","6893d0424fa6c9372bbf8453","1","66f4c82536b5c8271f53564c","1","2025-08-06T22:14:50.836Z","","","","ControlQ","","","","","","","","","","","50","","","","","","","","","","","","","","","","","","","","","","","","","","",""
"4210","","<div style=""width:500px;"">
  <p>How would you describe your current emotional state?</p>
  </div>","80","html-slider-response","71","906031","0.0-7.0-3.11","222","1","2025-08-06 21:59:46","36c45c0696341be0efffe67d72a12abb","173.21.92.193","Mozilla/5.0 (Windows NT 10.0; Win64; x64) AppleWebKit/537.36 (KHTML, like Gecko) Chrome/138.0.0.0 Safari/537.36","WebKit","Chrome","138.0.0.0","Windows","10.0","https://app.prolific.com/","en-US,en;q=0.9","66f4c82536b5c8271f53564c","6877649eabb845cf142cd221","6893d0424fa6c9372bbf8453","1","66f4c82536b5c8271f53564c","1","2025-08-06T22:14:55.047Z","","","","StressQ","","","","","","","","","","","50","","","","","","","","","","","","","","","","","","","","","","","","","","",""
"5280","","<div style=""width:500px;"">
  <p>What best describes how you currently feel?</p>
  </div>","12","html-slider-response","72","911312","0.0-7.0-4.11","222","1","2025-08-06 21:59:46","36c45c0696341be0efffe67d72a12abb","173.21.92.193","Mozilla/5.0 (Windows NT 10.0; Win64; x64) AppleWebKit/537.36 (KHTML, like Gecko) Chrome/138.0.0.0 Safari/537.36","WebKit","Chrome","138.0.0.0","Windows","10.0","https://app.prolific.com/","en-US,en;q=0.9","66f4c82536b5c8271f53564c","6877649eabb845cf142cd221","6893d0424fa6c9372bbf8453","1","66f4c82536b5c8271f53564c","1","2025-08-06T22:15:00.328Z","","","","MotivationQ","","","","","","","","","","","50","","","","","","","","","","","","","","","","","","","","","","","","","","",""
"","","","","ctl-task-cpt","73","942133","0.0-7.0-0.12","222","1","2025-08-06 21:59:46","36c45c0696341be0efffe67d72a12abb","173.21.92.193","Mozilla/5.0 (Windows NT 10.0; Win64; x64) AppleWebKit/537.36 (KHTML, like Gecko) Chrome/138.0.0.0 Safari/537.36","WebKit","Chrome","138.0.0.0","Windows","10.0","https://app.prolific.com/","en-US,en;q=0.9","66f4c82536b5c8271f53564c","6877649eabb845cf142cd221","6893d0424fa6c9372bbf8453","1","66f4c82536b5c8271f53564c","1","2025-08-06T22:15:31.149Z","","","","","","","","","","","","","","","","win-only","1","g1:NE,g2:SW","0.8","13","0","915508.3","930.1","5933.1","27815.4","1","4","8","6","2","8","7","21","14","0.1590909090909091","1100","3000","1230","[""down"",""left""]","{""num_key_presses"":8,""num_perfect"":5,""num_errors"":1,""num_randdir"":2,""num_randdir_good_moves"":1,""num_whilered"":0,""num_whileblue"":1,""num_blue"":1,""num_good_moves"":7}","[459.8571428571429,468.7633928571429,0.2,459.8571428571429,468.7633928571429,100,459.8571428571429,468.7633928571429,205.7,459.8571428571429,468.7633928571429,319.9,459.8571428571429,468.7633928571429,421,459.8571428571429,468.7633928571429,536.1,309.8571428571429,611.7633928571429,638.6,80.85714285714286,837.7633928571429,755.5,82.85714285714286,837.7633928571429,860.3,84.85714285714286,836.7633928571429,971.3,84.85714285714286,836.7633928571429,1076.1,84.85714285714286,836.7633928571429,1178.5,84.85714285714286,836.7633928571429,1286.1,84.85714285714286,836.7633928571429,1388,84.85714285714286,836.7633928571429,1507.1,84.85714285714286,836.7633928571429,1607.8,84.85714285714286,836.7633928571429,1716.2,84.85714285714286,836.7633928571429,1817.9,84.85714285714286,836.7633928571429,1937,84.85714285714286,836.7633928571429,2053.9,84.85714285714286,836.7633928571429,2170.5,84.85714285714286,836.7633928571429,2274.2,84.85714285714286,836.7633928571429,2376.1,84.85714285714286,836.7633928571429,2477.7,84.85714285714286,836.7633928571429,2582.8,84.85714285714286,836.7633928571429,2683,84.85714285714286,836.7633928571429,2783.4,84.85714285714286,836.7633928571429,2892.3,84.85714285714286,836.7633928571429,2999.6,84.85714285714286,836.7633928571429,3099.8,84.85714285714286,836.7633928571429,3202.2,84.85714285714286,836.7633928571429,3310.6,84.85714285714286,836.7633928571429,3411.4,84.85714285714286,836.7633928571429,3512.1,84.85714285714286,836.7633928571429,3615,84.85714285714286,836.7633928571429,3717.7,84.85714285714286,836.7633928571429,3818,84.85714285714286,836.7633928571429,3918,84.85714285714286,836.7633928571429,4026.2,84.85714285714286,836.7633928571429,4130.3,84.85714285714286,836.7633928571429,4235.2,84.85714285714286,836.7633928571429,4354.1,84.85714285714286,836.7633928571429,4456.4,84.85714285714286,836.7633928571429,4559.7,84.85714285714286,836.7633928571429,4667.6,84.85714285714286,836.7633928571429,4773.7,84.85714285714286,836.7633928571429,4886.5,84.85714285714286,836.7633928571429,4990.4]","[1397.3,1397.3,1000,0,397.3,""smooth"",""down"",""down"",""good_move"",4434.3,3036.6,2597.3,1397.8,439.2,""smooth"",""down"",""down"",""good_move"",8053.5,3619,3201.3,4434.5,417.7,""smooth"",""left"",""left"",""good_move"",10847.2,2793.4,2338.3,8053.8,455.1,""smooth"",""left"",""left"",""good_move"",12866.6,2019.1,1629.4,10847.5,389.7,""smooth"",""left"",""left"",""good_move"",15348.4,2481.6,2162.4,12866.9,319.1,""oops"",""down"",""right"",""bad_move"",18222.4,2873.5,2445.1,15348.9,428.4,""oops"",""down"",""left"",""good_move"",21739.7,3517,3159.9,18222.7,357.1,""while_blue"",""down"",""down"",""good_move""]"
"5627","","<div style=""width:500px;"">
  <p>What determined the result of this run?</p>
  </div>","5","html-slider-response","74","947761","0.0-7.0-1.12","222","1","2025-08-06 21:59:46","36c45c0696341be0efffe67d72a12abb","173.21.92.193","Mozilla/5.0 (Windows NT 10.0; Win64; x64) AppleWebKit/537.36 (KHTML, like Gecko) Chrome/138.0.0.0 Safari/537.36","WebKit","Chrome","138.0.0.0","Windows","10.0","https://app.prolific.com/","en-US,en;q=0.9","66f4c82536b5c8271f53564c","6877649eabb845cf142cd221","6893d0424fa6c9372bbf8453","1","66f4c82536b5c8271f53564c","1","2025-08-06T22:15:36.777Z","","","","AttribQ","","","","","","","","","","","50","","","","","","","","","","","","","","","","","","","","","","","","","","",""
"5413","","<div style=""width:500px;"">
  <p>How much control did you have over the ball?</p>
  </div>","92","html-slider-response","75","953175","0.0-7.0-2.12","222","1","2025-08-06 21:59:46","36c45c0696341be0efffe67d72a12abb","173.21.92.193","Mozilla/5.0 (Windows NT 10.0; Win64; x64) AppleWebKit/537.36 (KHTML, like Gecko) Chrome/138.0.0.0 Safari/537.36","WebKit","Chrome","138.0.0.0","Windows","10.0","https://app.prolific.com/","en-US,en;q=0.9","66f4c82536b5c8271f53564c","6877649eabb845cf142cd221","6893d0424fa6c9372bbf8453","1","66f4c82536b5c8271f53564c","1","2025-08-06T22:15:42.191Z","","","","ControlQ","","","","","","","","","","","50","","","","","","","","","","","","","","","","","","","","","","","","","","",""
"5417","","<div style=""width:500px;"">
  <p>How would you describe your current emotional state?</p>
  </div>","76","html-slider-response","76","958594","0.0-7.0-3.12","222","1","2025-08-06 21:59:46","36c45c0696341be0efffe67d72a12abb","173.21.92.193","Mozilla/5.0 (Windows NT 10.0; Win64; x64) AppleWebKit/537.36 (KHTML, like Gecko) Chrome/138.0.0.0 Safari/537.36","WebKit","Chrome","138.0.0.0","Windows","10.0","https://app.prolific.com/","en-US,en;q=0.9","66f4c82536b5c8271f53564c","6877649eabb845cf142cd221","6893d0424fa6c9372bbf8453","1","66f4c82536b5c8271f53564c","1","2025-08-06T22:15:47.610Z","","","","StressQ","","","","","","","","","","","50","","","","","","","","","","","","","","","","","","","","","","","","","","",""
"4094","","<div style=""width:500px;"">
  <p>What best describes how you currently feel?</p>
  </div>","5","html-slider-response","77","962690","0.0-7.0-4.12","222","1","2025-08-06 21:59:46","36c45c0696341be0efffe67d72a12abb","173.21.92.193","Mozilla/5.0 (Windows NT 10.0; Win64; x64) AppleWebKit/537.36 (KHTML, like Gecko) Chrome/138.0.0.0 Safari/537.36","WebKit","Chrome","138.0.0.0","Windows","10.0","https://app.prolific.com/","en-US,en;q=0.9","66f4c82536b5c8271f53564c","6877649eabb845cf142cd221","6893d0424fa6c9372bbf8453","1","66f4c82536b5c8271f53564c","1","2025-08-06T22:15:51.707Z","","","","MotivationQ","","","","","","","","","","","50","","","","","","","","","","","","","","","","","","","","","","","","","","",""
