"rt","response_timestamp","stimulus","response","trial_type","trial_index","time_elapsed","internal_node_id","run_id","condition","recorded_at","source_code_version","ip","user_agent","device","browser","browser_version","platform","platform_version","referer","accept_language","PROLIFIC_PID","STUDY_ID","SESSION_ID","BATCH","prolific_id","batch","realtime","success","question_order","question_id","eventType","responses","item_order","radio_event_ids","radio_event_times","key_event_times","mouse_event_times","straightlining","zigzagging","honeypot","view_history","slider_start","which_type","canvas_config","goals_layout","control_level","trial_number","tutorial_trial_number","trial_start_time","phase1_start_time","phase2_start_time","phase3_start_time","goal_1_value","goal_1_distance","goal_2_value","goal_2_distance","goal_selected","outcome","outcome_total","participant_final_score","participant_initial_score","participant_final_score_prop","goal_choice_rt","allocated_time","allocated_time_remaining","goal_direction","counts","mouse_movements","key_presses"
"5939","1754502765266","<p style='font-size:40px;line-height:1.25'><strong>Welcome to the experiment!</strong></p><p style='font-size:1.1em;line-height:1.25'>Thank you for participanting in our experiment again! You will be asked to play the Dysfunctional Ball Game again. We will briefly recap the rules before we start.</p><p style='font-size:1.1em;line-height:1.25'>Press <strong>Next</strong> to continue.</p>","0","custom-html-button-response","0","5948","0.0-0.0","213","1","2025-08-06 17:52:37","36c45c0696341be0efffe67d72a12abb","94.10.147.75","Mozilla/5.0 (Windows NT 10.0; Win64; x64) AppleWebKit/537.36 (KHTML, like Gecko) Chrome/138.0.0.0 Safari/537.36 Edg/138.0.0.0","WebKit","Edge","138.0.0.0","Windows","10.0","https://app.prolific.com/","en-GB,en;q=0.9,en-US;q=0.8","6702f60844f21087e0840e3d","6877649eabb845cf142cd221","6893950736c74074d78aa3cf","1","6702f60844f21087e0840e3d","1","2025-08-06T17:52:45.268Z","","","","","","","","","","","","","","","","","","","","","","","","","","","","","","","","","","","","","","","","","",""
"15908","","","","fullscreen","1","22872","0.0-1.0","213","1","2025-08-06 17:52:37","36c45c0696341be0efffe67d72a12abb","94.10.147.75","Mozilla/5.0 (Windows NT 10.0; Win64; x64) AppleWebKit/537.36 (KHTML, like Gecko) Chrome/138.0.0.0 Safari/537.36 Edg/138.0.0.0","WebKit","Edge","138.0.0.0","Windows","10.0","https://app.prolific.com/","en-GB,en;q=0.9,en-US;q=0.8","6702f60844f21087e0840e3d","6877649eabb845cf142cd221","6893950736c74074d78aa3cf","1","6702f60844f21087e0840e3d","1","","true","","","","","","","","","","","","","","","","","","","","","","","","","","","","","","","","","","","","","","","","",""
"5382","1754502787576"," <p style='font-size:1.1em;line-height:1.25'>Thank you for closing all other tabs.</p><p style='font-size:1.1em;line-height:1.25'>We will now invite you to fill in some questionnaires, before starting the game.<br>This will take about 5 minutes.<br></p><p style='font-size:1.1em;line-height:1.25'>Press the <strong>Next</strong> button to continue.</p>","0","custom-html-button-response","2","28256","0.0-2.0","213","1","2025-08-06 17:52:37","36c45c0696341be0efffe67d72a12abb","94.10.147.75","Mozilla/5.0 (Windows NT 10.0; Win64; x64) AppleWebKit/537.36 (KHTML, like Gecko) Chrome/138.0.0.0 Safari/537.36 Edg/138.0.0.0","WebKit","Edge","138.0.0.0","Windows","10.0","https://app.prolific.com/","en-GB,en;q=0.9,en-US;q=0.8","6702f60844f21087e0840e3d","6877649eabb845cf142cd221","6893950736c74074d78aa3cf","1","6702f60844f21087e0840e3d","1","2025-08-06T17:53:07.576Z","","","","","","","","","","","","","","","","","","","","","","","","","","","","","","","","","","","","","","","","","",""
"39146","","","{""assigned_sex"":""female""}","survey-multi-choice","3","67405","0.0-3.0-0.0","213","1","2025-08-06 17:52:37","36c45c0696341be0efffe67d72a12abb","94.10.147.75","Mozilla/5.0 (Windows NT 10.0; Win64; x64) AppleWebKit/537.36 (KHTML, like Gecko) Chrome/138.0.0.0 Safari/537.36 Edg/138.0.0.0","WebKit","Edge","138.0.0.0","Windows","10.0","https://app.prolific.com/","en-GB,en;q=0.9,en-US;q=0.8","6702f60844f21087e0840e3d","6877649eabb845cf142cd221","6893950736c74074d78aa3cf","1","6702f60844f21087e0840e3d","1","","","[0]","0","demographics","","","","","","","","","","","","","","","","","","","","","","","","","","","","","","","","","","","","","",""
"19571","1754502846298","<p style='font-size:1.1em;line-height:1.25'>In the following, we will perform a baseline assessment. This means that we will ask you a few questions relating to your experiences over the past month.<br></p><p style='font-size:1.1em;line-height:1.25'>Press the <strong>Next</strong> button to continue.</p>","0","custom-html-button-response","4","86978","0.0-4.0-0.0","213","1","2025-08-06 17:52:37","36c45c0696341be0efffe67d72a12abb","94.10.147.75","Mozilla/5.0 (Windows NT 10.0; Win64; x64) AppleWebKit/537.36 (KHTML, like Gecko) Chrome/138.0.0.0 Safari/537.36 Edg/138.0.0.0","WebKit","Edge","138.0.0.0","Windows","10.0","https://app.prolific.com/","en-GB,en;q=0.9,en-US;q=0.8","6702f60844f21087e0840e3d","6877649eabb845cf142cd221","6893950736c74074d78aa3cf","1","6702f60844f21087e0840e3d","1","2025-08-06T17:54:06.299Z","","","","","","","","","","","","","","","","","","","","","","","","","","","","","","","","","","","","","","","","","",""
"74917.5","","","","survey-template","5","161902","0.0-4.0-1.0","213","1","2025-08-06 17:52:37","36c45c0696341be0efffe67d72a12abb","94.10.147.75","Mozilla/5.0 (Windows NT 10.0; Win64; x64) AppleWebKit/537.36 (KHTML, like Gecko) Chrome/138.0.0.0 Safari/537.36 Edg/138.0.0.0","WebKit","Edge","138.0.0.0","Windows","10.0","https://app.prolific.com/","en-GB,en;q=0.9,en-US;q=0.8","6702f60844f21087e0840e3d","6877649eabb845cf142cd221","6893950736c74074d78aa3cf","1","6702f60844f21087e0840e3d","1","2025-08-06T17:55:21.222Z","","","","pss","{""Q01"":""2"",""Q02"":""3"",""Q03"":""3"",""Q04"":""1"",""Q05"":""2"",""Q06"":""3"",""Q07"":""1"",""Q08"":""2"",""Q09"":""3"",""Q10"":""2""}","[0,1,2,3,4,5,6,7,8,9]","[""Q01"",""Q02"",""Q03"",""Q04"",""Q05"",""Q06"",""Q07"",""Q08"",""Q09"",""Q10""]","[6294.100000023842,16785.30000001192,20776.30000001192,27491.200000047684,34523.90000003576,49382.60000002384,54591,58688.5,62910.90000003576,73645.20000004768]","[]","[0,6294.100000023842,16785.30000001192,20776.30000001192,27491.200000047684,34523.90000003576,49382.60000002384,54591,58688.5,62910.90000003576,73645.20000004768,74915.20000004768]","0.6","0.6666666666666666","0","","","","","","","","","","","","","","","","","","","","","","","","","","","","",""
"4544","1754502925767","<p style='font-size:1.1em;line-height:1.25'>Thank you for your answers! Now we will ask you a few more questions relating to your feelings in the last 24 hours.<br></p><p style='font-size:1.1em;line-height:1.25'>Press the <strong>Next</strong> button to continue.</p>","0","custom-html-button-response","6","166447","0.0-4.0-2.0","213","1","2025-08-06 17:52:37","36c45c0696341be0efffe67d72a12abb","94.10.147.75","Mozilla/5.0 (Windows NT 10.0; Win64; x64) AppleWebKit/537.36 (KHTML, like Gecko) Chrome/138.0.0.0 Safari/537.36 Edg/138.0.0.0","WebKit","Edge","138.0.0.0","Windows","10.0","https://app.prolific.com/","en-GB,en;q=0.9,en-US;q=0.8","6702f60844f21087e0840e3d","6877649eabb845cf142cd221","6893950736c74074d78aa3cf","1","6702f60844f21087e0840e3d","1","2025-08-06T17:55:25.767Z","","","","","","","","","","","","","","","","","","","","","","","","","","","","","","","","","","","","","","","","","",""
"87834.19999998808","","","","survey-template","7","254291","0.0-4.0-3.0","213","1","2025-08-06 17:52:37","36c45c0696341be0efffe67d72a12abb","94.10.147.75","Mozilla/5.0 (Windows NT 10.0; Win64; x64) AppleWebKit/537.36 (KHTML, like Gecko) Chrome/138.0.0.0 Safari/537.36 Edg/138.0.0.0","WebKit","Edge","138.0.0.0","Windows","10.0","https://app.prolific.com/","en-GB,en;q=0.9,en-US;q=0.8","6702f60844f21087e0840e3d","6877649eabb845cf142cd221","6893950736c74074d78aa3cf","1","6702f60844f21087e0840e3d","1","2025-08-06T17:56:53.611Z","","","","drsp","{""Q01"":""1"",""Q02"":""1"",""Q03"":""0"",""Q04"":""3"",""Q05"":""1"",""Q06"":""1"",""Q07"":""1"",""Q08"":""1"",""Q09"":""1"",""Q10"":""4"",""Q11"":""2"",""Q12"":""1"",""Q13"":""5"",""Q14"":""1"",""Q15"":""1"",""Q16"":""1"",""Q17"":""4"",""Q18"":""3"",""Q19"":""1"",""Q20"":""3"",""Q21"":""1"",""Q22"":""1""}","[0,1,2,3,4,5,6,7,8,9,10,11,12,13,14,15,16,17,18,19,20,21]","[""Q01"",""Q02"",""Q03"",""Q04"",""Q05"",""Q06"",""Q07"",""Q08"",""Q09"",""Q10"",""Q11"",""Q12"",""Q13"",""Q14"",""Q15"",""Q16"",""Q17"",""Q18"",""Q19"",""Q20"",""Q21"",""Q22""]","[5645.399999976158,7602.100000023842,8998.399999976158,11527.399999976158,16464.399999976158,19207.19999998808,23394.19999998808,27143.899999976158,31936.30000001192,38210.60000002384,41197,43077,46501.39999997616,50670.69999998808,54198,58136.89999997616,61979,63807,67607,73107.89999997616,78493.69999998808,86393.89999997616]","[]","[0.10000002384185791,5645.399999976158,7602.100000023842,8998.399999976158,11527.399999976158,13342.300000011921,16464.399999976158,19207.19999998808,21855,23394.19999998808,27143.899999976158,31936.30000001192,38210.60000002384,41197,43077,46501.39999997616,48764.5,50670.69999998808,54198,58136.89999997616,61979,63807,67607,73107.89999997616,76645.69999998808,78493.69999998808,86393.89999997616,87829.19999998808]","0.6363636363636364","0.14285714285714285","0","","","","","","","","","","","","","","","","","","","","","","","","","","","","",""
"12374","","","","survey-template","8","266668","0.0-4.0-4.0","213","1","2025-08-06 17:52:37","36c45c0696341be0efffe67d72a12abb","94.10.147.75","Mozilla/5.0 (Windows NT 10.0; Win64; x64) AppleWebKit/537.36 (KHTML, like Gecko) Chrome/138.0.0.0 Safari/537.36 Edg/138.0.0.0","WebKit","Edge","138.0.0.0","Windows","10.0","https://app.prolific.com/","en-GB,en;q=0.9,en-US;q=0.8","6702f60844f21087e0840e3d","6877649eabb845cf142cd221","6893950736c74074d78aa3cf","1","6702f60844f21087e0840e3d","1","2025-08-06T17:57:05.988Z","","","","stress","{""Q01"":""3"",""Q02"":""3"",""Q03"":""2""}","[0,1,2]","[""Q01"",""Q02"",""Q03""]","[3600.5,7163.699999988079,11050]","[]","[3600.5,7163.699999988079,11050,12372.800000011921]","0.6666666666666666","0.5","0","","","","","","","","","","","","","","","","","","","","","","","","","","","","",""
"144973","","","","instructions","9","411642","0.0-5.0-0.0","213","1","2025-08-06 17:52:37","36c45c0696341be0efffe67d72a12abb","94.10.147.75","Mozilla/5.0 (Windows NT 10.0; Win64; x64) AppleWebKit/537.36 (KHTML, like Gecko) Chrome/138.0.0.0 Safari/537.36 Edg/138.0.0.0","WebKit","Edge","138.0.0.0","Windows","10.0","https://app.prolific.com/","en-GB,en;q=0.9,en-US;q=0.8","6702f60844f21087e0840e3d","6877649eabb845cf142cd221","6893950736c74074d78aa3cf","1","6702f60844f21087e0840e3d","1","","","","","","","","","","","","","","","[{""page_index"":0,""viewing_time"":144973}]","","","","","","","","","","","","","","","","","","","","","","","","","","","",""
"4956","","<p>Before you start with this game please answer the following three questions yourself. </p>
  <p>Through this game, we measure several aspects of your cognitive performance, such as reaction times, multi-tasking capabilities </p>
  <p>and the ability to assess the situation you are in.</p>
  <p></p>
  <p><b>How good do you usually are in such tasks?</b></p>","62","html-slider-response","10","416600","0.0-6.0-0.0","213","1","2025-08-06 17:52:37","36c45c0696341be0efffe67d72a12abb","94.10.147.75","Mozilla/5.0 (Windows NT 10.0; Win64; x64) AppleWebKit/537.36 (KHTML, like Gecko) Chrome/138.0.0.0 Safari/537.36 Edg/138.0.0.0","WebKit","Edge","138.0.0.0","Windows","10.0","https://app.prolific.com/","en-GB,en;q=0.9,en-US;q=0.8","6702f60844f21087e0840e3d","6877649eabb845cf142cd221","6893950736c74074d78aa3cf","1","6702f60844f21087e0840e3d","1","2025-08-06T17:59:35.920Z","","","","PreSkillQ","","","","","","","","","","","50","","","","","","","","","","","","","","","","","","","","","","","","","","",""
"4297","","<div style=""width:500px;"">
  <p>How well do you think you will perform in this task compared to other participants?</p>
  </div>","64","html-slider-response","11","420900","0.0-6.0-1.0","213","1","2025-08-06 17:52:37","36c45c0696341be0efffe67d72a12abb","94.10.147.75","Mozilla/5.0 (Windows NT 10.0; Win64; x64) AppleWebKit/537.36 (KHTML, like Gecko) Chrome/138.0.0.0 Safari/537.36 Edg/138.0.0.0","WebKit","Edge","138.0.0.0","Windows","10.0","https://app.prolific.com/","en-GB,en;q=0.9,en-US;q=0.8","6702f60844f21087e0840e3d","6877649eabb845cf142cd221","6893950736c74074d78aa3cf","1","6702f60844f21087e0840e3d","1","2025-08-06T17:59:40.220Z","","","","PrePerfQ","","","","","","","","","","","50","","","","","","","","","","","","","","","","","","","","","","","","","","",""
"52303","","<div style=""width:500px;"">
  <p>What best describes how you currently feel?</p>
  </div>","62","html-slider-response","12","473205","0.0-6.0-2.0","213","1","2025-08-06 17:52:37","36c45c0696341be0efffe67d72a12abb","94.10.147.75","Mozilla/5.0 (Windows NT 10.0; Win64; x64) AppleWebKit/537.36 (KHTML, like Gecko) Chrome/138.0.0.0 Safari/537.36 Edg/138.0.0.0","WebKit","Edge","138.0.0.0","Windows","10.0","https://app.prolific.com/","en-GB,en;q=0.9,en-US;q=0.8","6702f60844f21087e0840e3d","6877649eabb845cf142cd221","6893950736c74074d78aa3cf","1","6702f60844f21087e0840e3d","1","2025-08-06T18:00:32.525Z","","","","PreMotivationQ","","","","","","","","","","","50","","","","","","","","","","","","","","","","","","","","","","","","","","",""
"","","","","ctl-task-cpt","13","575041","0.0-7.0-0.0","213","1","2025-08-06 17:52:37","36c45c0696341be0efffe67d72a12abb","94.10.147.75","Mozilla/5.0 (Windows NT 10.0; Win64; x64) AppleWebKit/537.36 (KHTML, like Gecko) Chrome/138.0.0.0 Safari/537.36 Edg/138.0.0.0","WebKit","Edge","138.0.0.0","Windows","10.0","https://app.prolific.com/","en-GB,en;q=0.9,en-US;q=0.8","6702f60844f21087e0840e3d","6877649eabb845cf142cd221","6893950736c74074d78aa3cf","1","6702f60844f21087e0840e3d","1","2025-08-06T18:02:14.362Z","","","","","","","","","","","","","","","","win-only","3","g1:SW,g2:NE","1","1","0","474941.7","83991.7","88998.7","98822.7","1","4","8","6","1","1","1","1","0","0.007575757575757576","5007","3000","1885","[""down"",""left""]","{""num_key_presses"":4,""num_perfect"":4,""num_errors"":0,""num_randdir"":0,""num_randdir_good_moves"":0,""num_whilered"":0,""num_whileblue"":0,""num_blue"":0,""num_good_moves"":4}","[298.22232142857143,298.12857142857143,0.7,298.22232142857143,298.12857142857143,105.4,298.22232142857143,298.12857142857143,222.5,298.22232142857143,298.12857142857143,328.1,298.22232142857143,298.12857142857143,431.7,298.22232142857143,298.12857142857143,535.9,298.22232142857143,298.12857142857143,635.9,298.22232142857143,298.12857142857143,736,298.22232142857143,298.12857142857143,836.5,298.22232142857143,298.12857142857143,938.6,298.22232142857143,298.12857142857143,1043.5,298.22232142857143,298.12857142857143,1152.8,298.22232142857143,298.12857142857143,1253.5,298.22232142857143,298.12857142857143,1356.4,298.22232142857143,298.12857142857143,1456.6,298.22232142857143,298.12857142857143,1557.4,298.22232142857143,298.12857142857143,1660.3,298.22232142857143,298.12857142857143,1761.2,298.22232142857143,298.12857142857143,1868.5,298.22232142857143,298.12857142857143,1968.9,298.22232142857143,298.12857142857143,2068.9,298.22232142857143,298.12857142857143,2169.3,298.22232142857143,298.12857142857143,2274.7,298.22232142857143,298.12857142857143,2383.7,298.22232142857143,298.12857142857143,2485.5,298.22232142857143,298.12857142857143,2593.7,298.22232142857143,298.12857142857143,2694.6,298.22232142857143,298.12857142857143,2804.2,298.22232142857143,298.12857142857143,2908,298.22232142857143,298.12857142857143,3013.6,298.22232142857143,298.12857142857143,3113.7,298.22232142857143,298.12857142857143,3213.7,298.22232142857143,298.12857142857143,3313.9,298.22232142857143,298.12857142857143,3417.3,298.22232142857143,298.12857142857143,3519.4,298.22232142857143,298.12857142857143,3619.5,298.22232142857143,298.12857142857143,3725,298.22232142857143,298.12857142857143,3830,298.22232142857143,298.12857142857143,3933.7,298.22232142857143,298.12857142857143,4035.2,298.22232142857143,298.12857142857143,4139.4,298.22232142857143,298.12857142857143,4240.3,298.22232142857143,298.12857142857143,4345.4,298.22232142857143,298.12857142857143,4451.8,298.22232142857143,298.12857142857143,4556.3,298.22232142857143,298.12857142857143,4663.4,298.22232142857143,298.12857142857143,4763.5,298.22232142857143,298.12857142857143,4863.5,298.22232142857143,298.12857142857143,4963.9]","[1468.5,1468.5,1000,0,468.5,""smooth"",""left"",""left"",""good_move"",4020.2,2549.7,2085,1470.6,464.6,""smooth"",""left"",""left"",""good_move"",6736.3,2715.2,2232.9,4021.1,482.4,""smooth"",""down"",""down"",""good_move"",9682.6,2944.8,2514.5,6737.8,430.4,""smooth"",""down"",""down"",""good_move""]"
"8149","","<div style=""width:500px;"">
  <p>What determined the result of this run?</p>
  </div>","97","html-slider-response","14","583195","0.0-7.0-1.0","213","1","2025-08-06 17:52:37","36c45c0696341be0efffe67d72a12abb","94.10.147.75","Mozilla/5.0 (Windows NT 10.0; Win64; x64) AppleWebKit/537.36 (KHTML, like Gecko) Chrome/138.0.0.0 Safari/537.36 Edg/138.0.0.0","WebKit","Edge","138.0.0.0","Windows","10.0","https://app.prolific.com/","en-GB,en;q=0.9,en-US;q=0.8","6702f60844f21087e0840e3d","6877649eabb845cf142cd221","6893950736c74074d78aa3cf","1","6702f60844f21087e0840e3d","1","2025-08-06T18:02:22.515Z","","","","AttribQ","","","","","","","","","","","50","","","","","","","","","","","","","","","","","","","","","","","","","","",""
"5647","","<div style=""width:500px;"">
  <p>How much control did you have over the ball?</p>
  </div>","100","html-slider-response","15","588843","0.0-7.0-2.0","213","1","2025-08-06 17:52:37","36c45c0696341be0efffe67d72a12abb","94.10.147.75","Mozilla/5.0 (Windows NT 10.0; Win64; x64) AppleWebKit/537.36 (KHTML, like Gecko) Chrome/138.0.0.0 Safari/537.36 Edg/138.0.0.0","WebKit","Edge","138.0.0.0","Windows","10.0","https://app.prolific.com/","en-GB,en;q=0.9,en-US;q=0.8","6702f60844f21087e0840e3d","6877649eabb845cf142cd221","6893950736c74074d78aa3cf","1","6702f60844f21087e0840e3d","1","2025-08-06T18:02:28.163Z","","","","ControlQ","","","","","","","","","","","50","","","","","","","","","","","","","","","","","","","","","","","","","","",""
"4521","","<div style=""width:500px;"">
  <p>How would you describe your current emotional state?</p>
  </div>","28","html-slider-response","16","593366","0.0-7.0-3.0","213","1","2025-08-06 17:52:37","36c45c0696341be0efffe67d72a12abb","94.10.147.75","Mozilla/5.0 (Windows NT 10.0; Win64; x64) AppleWebKit/537.36 (KHTML, like Gecko) Chrome/138.0.0.0 Safari/537.36 Edg/138.0.0.0","WebKit","Edge","138.0.0.0","Windows","10.0","https://app.prolific.com/","en-GB,en;q=0.9,en-US;q=0.8","6702f60844f21087e0840e3d","6877649eabb845cf142cd221","6893950736c74074d78aa3cf","1","6702f60844f21087e0840e3d","1","2025-08-06T18:02:32.686Z","","","","StressQ","","","","","","","","","","","50","","","","","","","","","","","","","","","","","","","","","","","","","","",""
"4945","","<div style=""width:500px;"">
  <p>What best describes how you currently feel?</p>
  </div>","62","html-slider-response","17","598312","0.0-7.0-4.0","213","1","2025-08-06 17:52:37","36c45c0696341be0efffe67d72a12abb","94.10.147.75","Mozilla/5.0 (Windows NT 10.0; Win64; x64) AppleWebKit/537.36 (KHTML, like Gecko) Chrome/138.0.0.0 Safari/537.36 Edg/138.0.0.0","WebKit","Edge","138.0.0.0","Windows","10.0","https://app.prolific.com/","en-GB,en;q=0.9,en-US;q=0.8","6702f60844f21087e0840e3d","6877649eabb845cf142cd221","6893950736c74074d78aa3cf","1","6702f60844f21087e0840e3d","1","2025-08-06T18:02:37.632Z","","","","MotivationQ","","","","","","","","","","","50","","","","","","","","","","","","","","","","","","","","","","","","","","",""
"","","","","ctl-task-cpt","18","630119","0.0-7.0-0.1","213","1","2025-08-06 17:52:37","36c45c0696341be0efffe67d72a12abb","94.10.147.75","Mozilla/5.0 (Windows NT 10.0; Win64; x64) AppleWebKit/537.36 (KHTML, like Gecko) Chrome/138.0.0.0 Safari/537.36 Edg/138.0.0.0","WebKit","Edge","138.0.0.0","Windows","10.0","https://app.prolific.com/","en-GB,en;q=0.9,en-US;q=0.8","6702f60844f21087e0840e3d","6877649eabb845cf142cd221","6893950736c74074d78aa3cf","1","6702f60844f21087e0840e3d","1","2025-08-06T18:03:09.439Z","","","","","","","","","","","","","","","","win-only","1","g1:NE,g2:SW","0.9","2","0","600047","3778.1","8782.5","28794.1","1","4","4","6","2","4","4","5","1","0.03787878787878788","1510.3","3000","1265","[""down"",""left""]","{""num_key_presses"":6,""num_perfect"":6,""num_errors"":0,""num_randdir"":0,""num_randdir_good_moves"":0,""num_whilered"":0,""num_whileblue"":0,""num_blue"":1,""num_good_moves"":6}","[298.22232142857143,298.12857142857143,1.2,298.22232142857143,298.12857142857143,100.4,298.22232142857143,298.12857142857143,204.2,298.22232142857143,298.12857142857143,304.3,298.22232142857143,298.12857142857143,405.6,298.22232142857143,298.12857142857143,509.8,298.22232142857143,298.12857142857143,613.5,298.22232142857143,298.12857142857143,721.8,138.22232142857143,448.12857142857143,823.9,109.22232142857143,477.12857142857143,927.1,89.22232142857143,510.12857142857143,1038.1,77.22232142857143,529.1285714285714,1140.3,60.222321428571426,540.1285714285714,1243.7,55.222321428571426,540.1285714285714,1348.1,55.222321428571426,540.1285714285714,1451,55.222321428571426,540.1285714285714,1551.6,55.222321428571426,540.1285714285714,1655.1,55.222321428571426,540.1285714285714,1760.5,55.222321428571426,540.1285714285714,1861.5,55.222321428571426,540.1285714285714,1971.9,55.222321428571426,540.1285714285714,2082.7,-363.77767857142857,589.1285714285714,2190,-380.77767857142857,584.1285714285714,2294.9,-380.77767857142857,584.1285714285714,2403.6,-380.77767857142857,584.1285714285714,2506,-380.77767857142857,584.1285714285714,2609.7,-380.77767857142857,584.1285714285714,2720.2,-380.77767857142857,584.1285714285714,2828.7,-380.77767857142857,584.1285714285714,2929.1,-380.77767857142857,584.1285714285714,3036.7,-380.77767857142857,584.1285714285714,3138.9,-380.77767857142857,584.1285714285714,3241.7,-380.77767857142857,584.1285714285714,3352.5,-380.77767857142857,584.1285714285714,3452.7,-380.77767857142857,584.1285714285714,3553.2,-380.77767857142857,584.1285714285714,3655.5,-380.77767857142857,584.1285714285714,3761.5,-380.77767857142857,584.1285714285714,3862.2,-380.77767857142857,584.1285714285714,3970.1,-380.77767857142857,584.1285714285714,4072.2,-380.77767857142857,584.1285714285714,4174.6,-380.77767857142857,584.1285714285714,4275.2,-380.77767857142857,584.1285714285714,4375.2,-380.77767857142857,584.1285714285714,4479,-380.77767857142857,584.1285714285714,4581.6,-380.77767857142857,584.1285714285714,4686.7,-380.77767857142857,584.1285714285714,4791.3,-380.77767857142857,584.1285714285714,4895.2,-380.77767857142857,584.1285714285714,4996.1]","[1473,1472.9,1000,0.1,472.9,""smooth"",""left"",""left"",""good_move"",4255.2,2781.6,2394.1,1473.7,387.4,""smooth"",""left"",""left"",""good_move"",6925.9,2668.3,2262.5,4257.6,405.8,""smooth"",""left"",""left"",""good_move"",13314.7,6387.6,2783.1,10147.8,383.8,""smooth"",""down"",""down"",""good_move"",16403.4,3086.4,2559.2,13317.1,527.1,""smooth"",""down"",""down"",""good_move"",19873.2,3467.5,3066,16405.7,401.5,""smooth"",""down"",""down"",""good_move""]"
"4408","","<div style=""width:500px;"">
  <p>What determined the result of this run?</p>
  </div>","100","html-slider-response","19","634530","0.0-7.0-1.1","213","1","2025-08-06 17:52:37","36c45c0696341be0efffe67d72a12abb","94.10.147.75","Mozilla/5.0 (Windows NT 10.0; Win64; x64) AppleWebKit/537.36 (KHTML, like Gecko) Chrome/138.0.0.0 Safari/537.36 Edg/138.0.0.0","WebKit","Edge","138.0.0.0","Windows","10.0","https://app.prolific.com/","en-GB,en;q=0.9,en-US;q=0.8","6702f60844f21087e0840e3d","6877649eabb845cf142cd221","6893950736c74074d78aa3cf","1","6702f60844f21087e0840e3d","1","2025-08-06T18:03:13.850Z","","","","AttribQ","","","","","","","","","","","50","","","","","","","","","","","","","","","","","","","","","","","","","","",""
"3456","","<div style=""width:500px;"">
  <p>How much control did you have over the ball?</p>
  </div>","100","html-slider-response","20","637987","0.0-7.0-2.1","213","1","2025-08-06 17:52:37","36c45c0696341be0efffe67d72a12abb","94.10.147.75","Mozilla/5.0 (Windows NT 10.0; Win64; x64) AppleWebKit/537.36 (KHTML, like Gecko) Chrome/138.0.0.0 Safari/537.36 Edg/138.0.0.0","WebKit","Edge","138.0.0.0","Windows","10.0","https://app.prolific.com/","en-GB,en;q=0.9,en-US;q=0.8","6702f60844f21087e0840e3d","6877649eabb845cf142cd221","6893950736c74074d78aa3cf","1","6702f60844f21087e0840e3d","1","2025-08-06T18:03:17.308Z","","","","ControlQ","","","","","","","","","","","50","","","","","","","","","","","","","","","","","","","","","","","","","","",""
"6859","","<div style=""width:500px;"">
  <p>How would you describe your current emotional state?</p>
  </div>","24","html-slider-response","21","644850","0.0-7.0-3.1","213","1","2025-08-06 17:52:37","36c45c0696341be0efffe67d72a12abb","94.10.147.75","Mozilla/5.0 (Windows NT 10.0; Win64; x64) AppleWebKit/537.36 (KHTML, like Gecko) Chrome/138.0.0.0 Safari/537.36 Edg/138.0.0.0","WebKit","Edge","138.0.0.0","Windows","10.0","https://app.prolific.com/","en-GB,en;q=0.9,en-US;q=0.8","6702f60844f21087e0840e3d","6877649eabb845cf142cd221","6893950736c74074d78aa3cf","1","6702f60844f21087e0840e3d","1","2025-08-06T18:03:24.170Z","","","","StressQ","","","","","","","","","","","50","","","","","","","","","","","","","","","","","","","","","","","","","","",""
"5404","","<div style=""width:500px;"">
  <p>What best describes how you currently feel?</p>
  </div>","90","html-slider-response","22","650257","0.0-7.0-4.1","213","1","2025-08-06 17:52:37","36c45c0696341be0efffe67d72a12abb","94.10.147.75","Mozilla/5.0 (Windows NT 10.0; Win64; x64) AppleWebKit/537.36 (KHTML, like Gecko) Chrome/138.0.0.0 Safari/537.36 Edg/138.0.0.0","WebKit","Edge","138.0.0.0","Windows","10.0","https://app.prolific.com/","en-GB,en;q=0.9,en-US;q=0.8","6702f60844f21087e0840e3d","6877649eabb845cf142cd221","6893950736c74074d78aa3cf","1","6702f60844f21087e0840e3d","1","2025-08-06T18:03:29.577Z","","","","MotivationQ","","","","","","","","","","","50","","","","","","","","","","","","","","","","","","","","","","","","","","",""
"","","","","ctl-task-cpt","23","683325","0.0-7.0-0.2","213","1","2025-08-06 17:52:37","36c45c0696341be0efffe67d72a12abb","94.10.147.75","Mozilla/5.0 (Windows NT 10.0; Win64; x64) AppleWebKit/537.36 (KHTML, like Gecko) Chrome/138.0.0.0 Safari/537.36 Edg/138.0.0.0","WebKit","Edge","138.0.0.0","Windows","10.0","https://app.prolific.com/","en-GB,en;q=0.9,en-US;q=0.8","6702f60844f21087e0840e3d","6877649eabb845cf142cd221","6893950736c74074d78aa3cf","1","6702f60844f21087e0840e3d","1","2025-08-06T18:04:02.646Z","","","","","","","","","","","","","","","","win-only","3","g1:SW,g2:NE","0.8","3","0","651992.3","1824.8","6830.7","30047.1","1","4","4","6","2","4","4","9","5","0.06818181818181818","1482.3","3000","795","[""up"",""right""]","{""num_key_presses"":6,""num_perfect"":6,""num_errors"":0,""num_randdir"":0,""num_randdir_good_moves"":0,""num_whilered"":0,""num_whileblue"":0,""num_blue"":2,""num_good_moves"":6}","[296.22232142857143,293.12857142857143,1,296.22232142857143,293.12857142857143,105.1,296.22232142857143,293.12857142857143,208.2,296.22232142857143,293.12857142857143,319.8,296.22232142857143,293.12857142857143,421.9,296.22232142857143,293.12857142857143,522.9,427.22232142857143,208.12857142857143,630.5,623.2223214285714,56.128571428571426,737.6,623.2223214285714,56.128571428571426,838.9,623.2223214285714,56.128571428571426,943.7,623.2223214285714,56.128571428571426,1044.1,623.2223214285714,56.128571428571426,1149.3,592.2223214285714,48.128571428571426,1251.3,592.2223214285714,48.128571428571426,1353.2,592.2223214285714,48.128571428571426,1463.1,592.2223214285714,48.128571428571426,1565.1,592.2223214285714,48.128571428571426,1668.3,592.2223214285714,48.128571428571426,1769.3,592.2223214285714,48.128571428571426,1875.3,592.2223214285714,48.128571428571426,1978.6,773.2223214285714,70.12857142857143,2083.1,807.2223214285714,91.12857142857143,2188.9,807.2223214285714,91.12857142857143,2294.1,807.2223214285714,91.12857142857143,2399.3,807.2223214285714,91.12857142857143,2502.7,807.2223214285714,91.12857142857143,2604.9,807.2223214285714,91.12857142857143,2707.2,807.2223214285714,91.12857142857143,2808.3,807.2223214285714,91.12857142857143,2910.7,807.2223214285714,91.12857142857143,3022,807.2223214285714,91.12857142857143,3127.5,807.2223214285714,91.12857142857143,3228.6,807.2223214285714,91.12857142857143,3335.2,807.2223214285714,91.12857142857143,3450.7,807.2223214285714,91.12857142857143,3551.3,807.2223214285714,91.12857142857143,3658.6,807.2223214285714,91.12857142857143,3759.5,807.2223214285714,91.12857142857143,3864.6,807.2223214285714,91.12857142857143,3969.4,807.2223214285714,91.12857142857143,4069.7,807.2223214285714,91.12857142857143,4170.5,807.2223214285714,91.12857142857143,4272.3,807.2223214285714,91.12857142857143,4380.4,807.2223214285714,91.12857142857143,4486.4,807.2223214285714,91.12857142857143,4596.2,807.2223214285714,91.12857142857143,4697.8,807.2223214285714,91.12857142857143,4800.7,807.2223214285714,91.12857142857143,4902.5]","[4417.1,4417.1,1976.5,2030.5,410.1,""smooth"",""right"",""right"",""good_move"",7498.3,3078.9,2228.1,4419.4,850.8,""smooth"",""right"",""right"",""good_move"",10362.4,2862.9,2191.6,7499.5,671.3,""smooth"",""right"",""right"",""good_move"",16749.3,6385.6,2589.3,13687.5,472.5,""smooth"",""up"",""up"",""good_move"",20439.2,3688.1,3279.2,16751.1,408.9,""smooth"",""up"",""up"",""good_move"",23078,2637.6,2203.1,20440.4,434.5,""smooth"",""up"",""up"",""good_move""]"
"4418","","<div style=""width:500px;"">
  <p>What determined the result of this run?</p>
  </div>","81","html-slider-response","24","687747","0.0-7.0-1.2","213","1","2025-08-06 17:52:37","36c45c0696341be0efffe67d72a12abb","94.10.147.75","Mozilla/5.0 (Windows NT 10.0; Win64; x64) AppleWebKit/537.36 (KHTML, like Gecko) Chrome/138.0.0.0 Safari/537.36 Edg/138.0.0.0","WebKit","Edge","138.0.0.0","Windows","10.0","https://app.prolific.com/","en-GB,en;q=0.9,en-US;q=0.8","6702f60844f21087e0840e3d","6877649eabb845cf142cd221","6893950736c74074d78aa3cf","1","6702f60844f21087e0840e3d","1","2025-08-06T18:04:07.067Z","","","","AttribQ","","","","","","","","","","","50","","","","","","","","","","","","","","","","","","","","","","","","","","",""
"4590","","<div style=""width:500px;"">
  <p>How much control did you have over the ball?</p>
  </div>","85","html-slider-response","25","692338","0.0-7.0-2.2","213","1","2025-08-06 17:52:37","36c45c0696341be0efffe67d72a12abb","94.10.147.75","Mozilla/5.0 (Windows NT 10.0; Win64; x64) AppleWebKit/537.36 (KHTML, like Gecko) Chrome/138.0.0.0 Safari/537.36 Edg/138.0.0.0","WebKit","Edge","138.0.0.0","Windows","10.0","https://app.prolific.com/","en-GB,en;q=0.9,en-US;q=0.8","6702f60844f21087e0840e3d","6877649eabb845cf142cd221","6893950736c74074d78aa3cf","1","6702f60844f21087e0840e3d","1","2025-08-06T18:04:11.658Z","","","","ControlQ","","","","","","","","","","","50","","","","","","","","","","","","","","","","","","","","","","","","","","",""
"3500","","<div style=""width:500px;"">
  <p>How would you describe your current emotional state?</p>
  </div>","23","html-slider-response","26","695840","0.0-7.0-3.2","213","1","2025-08-06 17:52:37","36c45c0696341be0efffe67d72a12abb","94.10.147.75","Mozilla/5.0 (Windows NT 10.0; Win64; x64) AppleWebKit/537.36 (KHTML, like Gecko) Chrome/138.0.0.0 Safari/537.36 Edg/138.0.0.0","WebKit","Edge","138.0.0.0","Windows","10.0","https://app.prolific.com/","en-GB,en;q=0.9,en-US;q=0.8","6702f60844f21087e0840e3d","6877649eabb845cf142cd221","6893950736c74074d78aa3cf","1","6702f60844f21087e0840e3d","1","2025-08-06T18:04:15.160Z","","","","StressQ","","","","","","","","","","","50","","","","","","","","","","","","","","","","","","","","","","","","","","",""
"7406","","<div style=""width:500px;"">
  <p>What best describes how you currently feel?</p>
  </div>","82","html-slider-response","27","703248","0.0-7.0-4.2","213","1","2025-08-06 17:52:37","36c45c0696341be0efffe67d72a12abb","94.10.147.75","Mozilla/5.0 (Windows NT 10.0; Win64; x64) AppleWebKit/537.36 (KHTML, like Gecko) Chrome/138.0.0.0 Safari/537.36 Edg/138.0.0.0","WebKit","Edge","138.0.0.0","Windows","10.0","https://app.prolific.com/","en-GB,en;q=0.9,en-US;q=0.8","6702f60844f21087e0840e3d","6877649eabb845cf142cd221","6893950736c74074d78aa3cf","1","6702f60844f21087e0840e3d","1","2025-08-06T18:04:22.568Z","","","","MotivationQ","","","","","","","","","","","50","","","","","","","","","","","","","","","","","","","","","","","","","","",""
"","","","","ctl-task-cpt","28","728960","0.0-7.0-0.3","213","1","2025-08-06 17:52:37","36c45c0696341be0efffe67d72a12abb","94.10.147.75","Mozilla/5.0 (Windows NT 10.0; Win64; x64) AppleWebKit/537.36 (KHTML, like Gecko) Chrome/138.0.0.0 Safari/537.36 Edg/138.0.0.0","WebKit","Edge","138.0.0.0","Windows","10.0","https://app.prolific.com/","en-GB,en;q=0.9,en-US;q=0.8","6702f60844f21087e0840e3d","6877649eabb845cf142cd221","6893950736c74074d78aa3cf","1","6702f60844f21087e0840e3d","1","2025-08-06T18:04:48.280Z","","","","","","","","","","","","","","","","win-only","0","g1:NW,g2:SE","0.7","4","0","704983.9","1419.9","6426","22692.4","1","4","8","6","2","8","8","17","9","0.12878787878787878","1222.7","3000","1325","[""down"",""right""]","{""num_key_presses"":6,""num_perfect"":3,""num_errors"":0,""num_randdir"":3,""num_randdir_good_moves"":3,""num_whilered"":0,""num_whileblue"":0,""num_blue"":0,""num_good_moves"":6}","[293.22232142857143,289.12857142857143,1.2,293.22232142857143,289.12857142857143,107.4,293.22232142857143,289.12857142857143,207.6,293.22232142857143,289.12857142857143,308.3,293.22232142857143,289.12857142857143,411,293.22232142857143,289.12857142857143,514.4,376.22232142857143,371.12857142857143,616.8,496.22232142857143,490.12857142857143,725.6,521.2223214285714,500.12857142857143,826.8,541.2223214285714,514.1285714285714,927,547.2223214285714,520.1285714285714,1035.4,547.2223214285714,520.1285714285714,1136.9,547.2223214285714,520.1285714285714,1240.3,547.2223214285714,520.1285714285714,1343.1,547.2223214285714,520.1285714285714,1457.8,547.2223214285714,520.1285714285714,1563.2,739.2223214285714,363.12857142857143,1668.4,770.2223214285714,336.12857142857143,1772.5,770.2223214285714,336.12857142857143,1873.6,770.2223214285714,336.12857142857143,1973.7,770.2223214285714,336.12857142857143,2076.3,770.2223214285714,336.12857142857143,2185.8,770.2223214285714,336.12857142857143,2294.8,770.2223214285714,336.12857142857143,2395.6,770.2223214285714,336.12857142857143,2496.5,770.2223214285714,336.12857142857143,2599,770.2223214285714,336.12857142857143,2701.2,770.2223214285714,336.12857142857143,2807,770.2223214285714,336.12857142857143,2909.1,770.2223214285714,336.12857142857143,3011.8,770.2223214285714,336.12857142857143,3114.8,770.2223214285714,336.12857142857143,3223.6,770.2223214285714,336.12857142857143,3328.3,770.2223214285714,336.12857142857143,3431.6,770.2223214285714,336.12857142857143,3532.1,770.2223214285714,336.12857142857143,3641.4,770.2223214285714,336.12857142857143,3742.8,770.2223214285714,336.12857142857143,3856,770.2223214285714,336.12857142857143,3957.1,770.2223214285714,336.12857142857143,4059.6,770.2223214285714,336.12857142857143,4161.2,770.2223214285714,336.12857142857143,4261.6,770.2223214285714,336.12857142857143,4361.8,770.2223214285714,336.12857142857143,4466.8,770.2223214285714,336.12857142857143,4570.5,770.2223214285714,336.12857142857143,4677.4,770.2223214285714,336.12857142857143,4777.4,770.2223214285714,336.12857142857143,4891.2,770.2223214285714,336.12857142857143,4991.5]","[1442.3,1442.3,1000,0,442.3,""smooth"",""right"",""right"",""good_move"",4459.5,3016.4,2597.4,1443.1,419,""smooth"",""right"",""right"",""good_move"",7652.8,3191.8,2807.7,4461.2,383.9,""oops"",""right"",""right"",""good_move"",10667,3013.5,2650.7,7653.5,362.8,""oops"",""down"",""down"",""good_move"",13672.8,3005.2,2645.9,10667.6,359.3,""smooth"",""down"",""down"",""good_move"",16148.2,2474.9,2089.6,13673.4,385.3,""oops"",""down"",""down"",""good_move""]"
"6083","","<div style=""width:500px;"">
  <p>What determined the result of this run?</p>
  </div>","99","html-slider-response","29","735046","0.0-7.0-1.3","213","1","2025-08-06 17:52:37","36c45c0696341be0efffe67d72a12abb","94.10.147.75","Mozilla/5.0 (Windows NT 10.0; Win64; x64) AppleWebKit/537.36 (KHTML, like Gecko) Chrome/138.0.0.0 Safari/537.36 Edg/138.0.0.0","WebKit","Edge","138.0.0.0","Windows","10.0","https://app.prolific.com/","en-GB,en;q=0.9,en-US;q=0.8","6702f60844f21087e0840e3d","6877649eabb845cf142cd221","6893950736c74074d78aa3cf","1","6702f60844f21087e0840e3d","1","2025-08-06T18:04:54.366Z","","","","AttribQ","","","","","","","","","","","50","","","","","","","","","","","","","","","","","","","","","","","","","","",""
"4630","","<div style=""width:500px;"">
  <p>How much control did you have over the ball?</p>
  </div>","94","html-slider-response","30","739678","0.0-7.0-2.3","213","1","2025-08-06 17:52:37","36c45c0696341be0efffe67d72a12abb","94.10.147.75","Mozilla/5.0 (Windows NT 10.0; Win64; x64) AppleWebKit/537.36 (KHTML, like Gecko) Chrome/138.0.0.0 Safari/537.36 Edg/138.0.0.0","WebKit","Edge","138.0.0.0","Windows","10.0","https://app.prolific.com/","en-GB,en;q=0.9,en-US;q=0.8","6702f60844f21087e0840e3d","6877649eabb845cf142cd221","6893950736c74074d78aa3cf","1","6702f60844f21087e0840e3d","1","2025-08-06T18:04:58.998Z","","","","ControlQ","","","","","","","","","","","50","","","","","","","","","","","","","","","","","","","","","","","","","","",""
"4403","","<div style=""width:500px;"">
  <p>How would you describe your current emotional state?</p>
  </div>","32","html-slider-response","31","744083","0.0-7.0-3.3","213","1","2025-08-06 17:52:37","36c45c0696341be0efffe67d72a12abb","94.10.147.75","Mozilla/5.0 (Windows NT 10.0; Win64; x64) AppleWebKit/537.36 (KHTML, like Gecko) Chrome/138.0.0.0 Safari/537.36 Edg/138.0.0.0","WebKit","Edge","138.0.0.0","Windows","10.0","https://app.prolific.com/","en-GB,en;q=0.9,en-US;q=0.8","6702f60844f21087e0840e3d","6877649eabb845cf142cd221","6893950736c74074d78aa3cf","1","6702f60844f21087e0840e3d","1","2025-08-06T18:05:03.403Z","","","","StressQ","","","","","","","","","","","50","","","","","","","","","","","","","","","","","","","","","","","","","","",""
"5822","","<div style=""width:500px;"">
  <p>What best describes how you currently feel?</p>
  </div>","78","html-slider-response","32","749906","0.0-7.0-4.3","213","1","2025-08-06 17:52:37","36c45c0696341be0efffe67d72a12abb","94.10.147.75","Mozilla/5.0 (Windows NT 10.0; Win64; x64) AppleWebKit/537.36 (KHTML, like Gecko) Chrome/138.0.0.0 Safari/537.36 Edg/138.0.0.0","WebKit","Edge","138.0.0.0","Windows","10.0","https://app.prolific.com/","en-GB,en;q=0.9,en-US;q=0.8","6702f60844f21087e0840e3d","6877649eabb845cf142cd221","6893950736c74074d78aa3cf","1","6702f60844f21087e0840e3d","1","2025-08-06T18:05:09.227Z","","","","MotivationQ","","","","","","","","","","","50","","","","","","","","","","","","","","","","","","","","","","","","","","",""
"","","","","ctl-task-cpt","33","788953","0.0-7.0-0.4","213","1","2025-08-06 17:52:37","36c45c0696341be0efffe67d72a12abb","94.10.147.75","Mozilla/5.0 (Windows NT 10.0; Win64; x64) AppleWebKit/537.36 (KHTML, like Gecko) Chrome/138.0.0.0 Safari/537.36 Edg/138.0.0.0","WebKit","Edge","138.0.0.0","Windows","10.0","https://app.prolific.com/","en-GB,en;q=0.9,en-US;q=0.8","6702f60844f21087e0840e3d","6877649eabb845cf142cd221","6893950736c74074d78aa3cf","1","6702f60844f21087e0840e3d","1","2025-08-06T18:05:48.273Z","","","","","","","","","","","","","","","","win-only","1","g1:NE,g2:SW","0.6","5","0","751642","1653.2","6660.7","36019","1","4","8","6","2","8","8","25","17","0.1893939393939394","1234.9","3000","360","[""down"",""left""]","{""num_key_presses"":8,""num_perfect"":5,""num_errors"":0,""num_randdir"":3,""num_randdir_good_moves"":2,""num_whilered"":0,""num_whileblue"":0,""num_blue"":2,""num_good_moves"":7}","[298.22232142857143,298.12857142857143,0.4,298.22232142857143,298.12857142857143,104.8,298.22232142857143,298.12857142857143,205.1,298.22232142857143,298.12857142857143,308.3,298.22232142857143,298.12857142857143,408.6,298.22232142857143,298.12857142857143,518.8,246.22232142857143,375.12857142857143,626.2,170.22232142857143,461.12857142857143,729.2,138.22232142857143,481.12857142857143,829.3,75.22232142857143,516.1285714285714,938.2,58.222321428571426,527.1285714285714,1045.7,58.222321428571426,527.1285714285714,1145.9,58.222321428571426,527.1285714285714,1256.3,58.222321428571426,527.1285714285714,1360.4,58.222321428571426,527.1285714285714,1463.8,58.222321428571426,527.1285714285714,1571.2,58.222321428571426,527.1285714285714,1673.7,-98.77767857142857,519.1285714285714,1774,-349.77767857142857,498.12857142857143,1875.4,-355.77767857142857,499.12857142857143,1982.4,-355.77767857142857,499.12857142857143,2088.7,-355.77767857142857,499.12857142857143,2193.3,-355.77767857142857,499.12857142857143,2304.3,-355.77767857142857,499.12857142857143,2405.5,-355.77767857142857,499.12857142857143,2508.3,-355.77767857142857,499.12857142857143,2611.4,-355.77767857142857,499.12857142857143,2721.2,-355.77767857142857,499.12857142857143,2823.5,-355.77767857142857,499.12857142857143,2926.8,-355.77767857142857,499.12857142857143,3028.4,-355.77767857142857,499.12857142857143,3128.5,-355.77767857142857,499.12857142857143,3237.6,-355.77767857142857,499.12857142857143,3345.1,-355.77767857142857,499.12857142857143,3455,-355.77767857142857,499.12857142857143,3555.1,-355.77767857142857,499.12857142857143,3658.1,-355.77767857142857,499.12857142857143,3758.8,-355.77767857142857,499.12857142857143,3862.7,-355.77767857142857,499.12857142857143,3970.8,-355.77767857142857,499.12857142857143,4071.3,-355.77767857142857,499.12857142857143,4173.1,-355.77767857142857,499.12857142857143,4284.1,-355.77767857142857,499.12857142857143,4384.5,-355.77767857142857,499.12857142857143,4485.1,-355.77767857142857,499.12857142857143,4590.4,-355.77767857142857,499.12857142857143,4693.8,-355.77767857142857,499.12857142857143,4794.5,-355.77767857142857,499.12857142857143,4896.7,-355.77767857142857,499.12857142857143,4996.9]","[1410.2,1410.2,1000,0,410.2,""smooth"",""left"",""left"",""good_move"",4050.8,2639.5,2213.7,1411.9,425.2,""oops"",""left"",""down"",""good_move"",13196.5,9144.8,2289.2,10413,494.4,""oops"",""left"",""left"",""good_move"",16744.7,3547.8,2998.7,13197,549,""smooth"",""left"",""left"",""good_move"",20350,3603.5,3201.3,16746.5,402.2,""smooth"",""down"",""down"",""good_move"",23430.9,3079.2,2662.1,20351.9,417,""oops"",""down"",""up"",""bad_move"",27036.4,3604,3200.6,23432.4,403.5,""smooth"",""down"",""down"",""good_move"",29247.8,2210.7,1638.7,27037.1,572.1,""smooth"",""down"",""down"",""good_move""]"
"4736","","<div style=""width:500px;"">
  <p>What determined the result of this run?</p>
  </div>","99","html-slider-response","34","793691","0.0-7.0-1.4","213","1","2025-08-06 17:52:37","36c45c0696341be0efffe67d72a12abb","94.10.147.75","Mozilla/5.0 (Windows NT 10.0; Win64; x64) AppleWebKit/537.36 (KHTML, like Gecko) Chrome/138.0.0.0 Safari/537.36 Edg/138.0.0.0","WebKit","Edge","138.0.0.0","Windows","10.0","https://app.prolific.com/","en-GB,en;q=0.9,en-US;q=0.8","6702f60844f21087e0840e3d","6877649eabb845cf142cd221","6893950736c74074d78aa3cf","1","6702f60844f21087e0840e3d","1","2025-08-06T18:05:53.011Z","","","","AttribQ","","","","","","","","","","","50","","","","","","","","","","","","","","","","","","","","","","","","","","",""
"3682","","<div style=""width:500px;"">
  <p>How much control did you have over the ball?</p>
  </div>","98","html-slider-response","35","797375","0.0-7.0-2.4","213","1","2025-08-06 17:52:37","36c45c0696341be0efffe67d72a12abb","94.10.147.75","Mozilla/5.0 (Windows NT 10.0; Win64; x64) AppleWebKit/537.36 (KHTML, like Gecko) Chrome/138.0.0.0 Safari/537.36 Edg/138.0.0.0","WebKit","Edge","138.0.0.0","Windows","10.0","https://app.prolific.com/","en-GB,en;q=0.9,en-US;q=0.8","6702f60844f21087e0840e3d","6877649eabb845cf142cd221","6893950736c74074d78aa3cf","1","6702f60844f21087e0840e3d","1","2025-08-06T18:05:56.695Z","","","","ControlQ","","","","","","","","","","","50","","","","","","","","","","","","","","","","","","","","","","","","","","",""
"3046","","<div style=""width:500px;"">
  <p>How would you describe your current emotional state?</p>
  </div>","19","html-slider-response","36","800422","0.0-7.0-3.4","213","1","2025-08-06 17:52:37","36c45c0696341be0efffe67d72a12abb","94.10.147.75","Mozilla/5.0 (Windows NT 10.0; Win64; x64) AppleWebKit/537.36 (KHTML, like Gecko) Chrome/138.0.0.0 Safari/537.36 Edg/138.0.0.0","WebKit","Edge","138.0.0.0","Windows","10.0","https://app.prolific.com/","en-GB,en;q=0.9,en-US;q=0.8","6702f60844f21087e0840e3d","6877649eabb845cf142cd221","6893950736c74074d78aa3cf","1","6702f60844f21087e0840e3d","1","2025-08-06T18:05:59.743Z","","","","StressQ","","","","","","","","","","","50","","","","","","","","","","","","","","","","","","","","","","","","","","",""
"4622","","<div style=""width:500px;"">
  <p>What best describes how you currently feel?</p>
  </div>","69","html-slider-response","37","805046","0.0-7.0-4.4","213","1","2025-08-06 17:52:37","36c45c0696341be0efffe67d72a12abb","94.10.147.75","Mozilla/5.0 (Windows NT 10.0; Win64; x64) AppleWebKit/537.36 (KHTML, like Gecko) Chrome/138.0.0.0 Safari/537.36 Edg/138.0.0.0","WebKit","Edge","138.0.0.0","Windows","10.0","https://app.prolific.com/","en-GB,en;q=0.9,en-US;q=0.8","6702f60844f21087e0840e3d","6877649eabb845cf142cd221","6893950736c74074d78aa3cf","1","6702f60844f21087e0840e3d","1","2025-08-06T18:06:04.366Z","","","","MotivationQ","","","","","","","","","","","50","","","","","","","","","","","","","","","","","","","","","","","","","","",""
"","","","","ctl-task-cpt","38","848401","0.0-7.0-0.5","213","1","2025-08-06 17:52:37","36c45c0696341be0efffe67d72a12abb","94.10.147.75","Mozilla/5.0 (Windows NT 10.0; Win64; x64) AppleWebKit/537.36 (KHTML, like Gecko) Chrome/138.0.0.0 Safari/537.36 Edg/138.0.0.0","WebKit","Edge","138.0.0.0","Windows","10.0","https://app.prolific.com/","en-GB,en;q=0.9,en-US;q=0.8","6702f60844f21087e0840e3d","6877649eabb845cf142cd221","6893950736c74074d78aa3cf","1","6702f60844f21087e0840e3d","1","2025-08-06T18:06:47.721Z","","","","","","","","","","","","","","","","win-only","3","g1:SW,g2:NE","0.5","6","0","806782.1","1361.7","6365.1","40341.8","1","4","4","6","2","-4","-4","21","25","0.1590909090909091","1236.1","3000","-2115","[""up"",""right""]","{""num_key_presses"":9,""num_perfect"":5,""num_errors"":0,""num_randdir"":4,""num_randdir_good_moves"":2,""num_whilered"":0,""num_whileblue"":0,""num_blue"":2,""num_good_moves"":7}","[295.22232142857143,303.12857142857143,0.3,295.22232142857143,303.12857142857143,114,295.22232142857143,303.12857142857143,229.2,295.22232142857143,303.12857142857143,332,295.22232142857143,303.12857142857143,438.4,535.2223214285714,76.12857142857143,540.9,554.2223214285714,38.128571428571426,648.5,561.2223214285714,17.128571428571426,750,550.2223214285714,23.128571428571426,853.1,540.2223214285714,35.128571428571426,956.1,538.2223214285714,40.128571428571426,1058.6,538.2223214285714,40.128571428571426,1163.7,538.2223214285714,40.128571428571426,1265.2,538.2223214285714,40.128571428571426,1368.5,538.2223214285714,40.128571428571426,1477,538.2223214285714,40.128571428571426,1582,716.2223214285714,67.12857142857143,1683.2,789.2223214285714,106.12857142857143,1787.6,801.2223214285714,113.12857142857143,1897.3,801.2223214285714,113.12857142857143,2004.5,801.2223214285714,113.12857142857143,2106.5,801.2223214285714,113.12857142857143,2206.6,801.2223214285714,113.12857142857143,2307.4,801.2223214285714,113.12857142857143,2415.7,801.2223214285714,113.12857142857143,2527.3,801.2223214285714,113.12857142857143,2632,801.2223214285714,113.12857142857143,2732.4,801.2223214285714,113.12857142857143,2833.2,801.2223214285714,113.12857142857143,2935,801.2223214285714,113.12857142857143,3038.5,801.2223214285714,113.12857142857143,3139.3,801.2223214285714,113.12857142857143,3240.7,801.2223214285714,113.12857142857143,3348.7,801.2223214285714,113.12857142857143,3453.7,801.2223214285714,113.12857142857143,3556.8,801.2223214285714,113.12857142857143,3656.9,801.2223214285714,113.12857142857143,3767.5,801.2223214285714,113.12857142857143,3876,801.2223214285714,113.12857142857143,3976.1,801.2223214285714,113.12857142857143,4081.3,801.2223214285714,113.12857142857143,4182.1,801.2223214285714,113.12857142857143,4283.6,801.2223214285714,113.12857142857143,4386.8,801.2223214285714,113.12857142857143,4487.7,801.2223214285714,113.12857142857143,4595.2,801.2223214285714,113.12857142857143,4701.9,801.2223214285714,113.12857142857143,4806.3,801.2223214285714,113.12857142857143,4913.1]","[1462.8,1462.8,1000,0,462.8,""oops"",""right"",""up"",""good_move"",3620.4,2156.6,1240.2,1463.8,916.4,""oops"",""right"",""down"",""bad_move"",6859.4,3238.4,2827.5,3621,410.9,""smooth"",""right"",""right"",""good_move"",10530.3,3669.8,3273.4,6860.5,396.4,""oops"",""right"",""right"",""good_move"",13940.8,3410.2,2978.5,10530.6,431.7,""smooth"",""right"",""right"",""good_move"",19829,5887.5,1994.1,17406.7,428.2,""oops"",""up"",""down"",""bad_move"",25373,5543,2406.3,22572.1,394.7,""smooth"",""up"",""up"",""good_move"",28235,2861.1,2461.4,25373.9,399.7,""smooth"",""up"",""up"",""good_move"",31993.1,3757.3,3384.7,28235.8,372.6,""smooth"",""up"",""up"",""good_move""]"
"6262","","<div style=""width:500px;"">
  <p>What determined the result of this run?</p>
  </div>","88","html-slider-response","39","854665","0.0-7.0-1.5","213","1","2025-08-06 17:52:37","36c45c0696341be0efffe67d72a12abb","94.10.147.75","Mozilla/5.0 (Windows NT 10.0; Win64; x64) AppleWebKit/537.36 (KHTML, like Gecko) Chrome/138.0.0.0 Safari/537.36 Edg/138.0.0.0","WebKit","Edge","138.0.0.0","Windows","10.0","https://app.prolific.com/","en-GB,en;q=0.9,en-US;q=0.8","6702f60844f21087e0840e3d","6877649eabb845cf142cd221","6893950736c74074d78aa3cf","1","6702f60844f21087e0840e3d","1","2025-08-06T18:06:53.985Z","","","","AttribQ","","","","","","","","","","","50","","","","","","","","","","","","","","","","","","","","","","","","","","",""
"4391","","<div style=""width:500px;"">
  <p>How much control did you have over the ball?</p>
  </div>","88","html-slider-response","40","859058","0.0-7.0-2.5","213","1","2025-08-06 17:52:37","36c45c0696341be0efffe67d72a12abb","94.10.147.75","Mozilla/5.0 (Windows NT 10.0; Win64; x64) AppleWebKit/537.36 (KHTML, like Gecko) Chrome/138.0.0.0 Safari/537.36 Edg/138.0.0.0","WebKit","Edge","138.0.0.0","Windows","10.0","https://app.prolific.com/","en-GB,en;q=0.9,en-US;q=0.8","6702f60844f21087e0840e3d","6877649eabb845cf142cd221","6893950736c74074d78aa3cf","1","6702f60844f21087e0840e3d","1","2025-08-06T18:06:58.378Z","","","","ControlQ","","","","","","","","","","","50","","","","","","","","","","","","","","","","","","","","","","","","","","",""
"5480","","<div style=""width:500px;"">
  <p>How would you describe your current emotional state?</p>
  </div>","67","html-slider-response","41","864539","0.0-7.0-3.5","213","1","2025-08-06 17:52:37","36c45c0696341be0efffe67d72a12abb","94.10.147.75","Mozilla/5.0 (Windows NT 10.0; Win64; x64) AppleWebKit/537.36 (KHTML, like Gecko) Chrome/138.0.0.0 Safari/537.36 Edg/138.0.0.0","WebKit","Edge","138.0.0.0","Windows","10.0","https://app.prolific.com/","en-GB,en;q=0.9,en-US;q=0.8","6702f60844f21087e0840e3d","6877649eabb845cf142cd221","6893950736c74074d78aa3cf","1","6702f60844f21087e0840e3d","1","2025-08-06T18:07:03.859Z","","","","StressQ","","","","","","","","","","","50","","","","","","","","","","","","","","","","","","","","","","","","","","",""
"3899","","<div style=""width:500px;"">
  <p>What best describes how you currently feel?</p>
  </div>","57","html-slider-response","42","868439","0.0-7.0-4.5","213","1","2025-08-06 17:52:37","36c45c0696341be0efffe67d72a12abb","94.10.147.75","Mozilla/5.0 (Windows NT 10.0; Win64; x64) AppleWebKit/537.36 (KHTML, like Gecko) Chrome/138.0.0.0 Safari/537.36 Edg/138.0.0.0","WebKit","Edge","138.0.0.0","Windows","10.0","https://app.prolific.com/","en-GB,en;q=0.9,en-US;q=0.8","6702f60844f21087e0840e3d","6877649eabb845cf142cd221","6893950736c74074d78aa3cf","1","6702f60844f21087e0840e3d","1","2025-08-06T18:07:07.759Z","","","","MotivationQ","","","","","","","","","","","50","","","","","","","","","","","","","","","","","","","","","","","","","","",""
"","","","","ctl-task-cpt","43","915820","0.0-7.0-0.6","213","1","2025-08-06 17:52:37","36c45c0696341be0efffe67d72a12abb","94.10.147.75","Mozilla/5.0 (Windows NT 10.0; Win64; x64) AppleWebKit/537.36 (KHTML, like Gecko) Chrome/138.0.0.0 Safari/537.36 Edg/138.0.0.0","WebKit","Edge","138.0.0.0","Windows","10.0","https://app.prolific.com/","en-GB,en;q=0.9,en-US;q=0.8","6702f60844f21087e0840e3d","6877649eabb845cf142cd221","6893950736c74074d78aa3cf","1","6702f60844f21087e0840e3d","1","2025-08-06T18:07:55.140Z","","","","","","","","","","","","","","","","win-only","1","g1:NE,g2:SW","0.4","7","0","870173.8","1773.9","6779.2","44359.4","1","4","4","6","2","-4","-4","17","21","0.12878787878787878","1212.4","3000","-2235","[""down"",""left""]","{""num_key_presses"":8,""num_perfect"":4,""num_errors"":0,""num_randdir"":4,""num_randdir_good_moves"":0,""num_whilered"":0,""num_whileblue"":0,""num_blue"":4,""num_good_moves"":4}","[293.22232142857143,301.12857142857143,0.7,293.22232142857143,301.12857142857143,102.3,293.22232142857143,301.12857142857143,202.4,293.22232142857143,301.12857142857143,306.3,293.22232142857143,301.12857142857143,408.7,293.22232142857143,301.12857142857143,519.5,152.22232142857143,459.12857142857143,620.1,102.22232142857143,505.12857142857143,723.7,92.22232142857143,512.1285714285714,831.1,78.22232142857143,531.1285714285714,932,73.22232142857143,536.1285714285714,1038.4,73.22232142857143,536.1285714285714,1150,73.22232142857143,536.1285714285714,1251.4,73.22232142857143,536.1285714285714,1352.5,73.22232142857143,536.1285714285714,1456.3,73.22232142857143,536.1285714285714,1557,73.22232142857143,536.1285714285714,1658.3,-80.77767857142857,483.12857142857143,1759.3,-187.77767857142857,433.12857142857143,1859.5,-190.77767857142857,431.12857142857143,1968,-190.77767857142857,431.12857142857143,2071,-190.77767857142857,431.12857142857143,2172.9,-190.77767857142857,431.12857142857143,2275.8,-190.77767857142857,431.12857142857143,2377.2,-190.77767857142857,431.12857142857143,2482.5,-190.77767857142857,431.12857142857143,2585,-190.77767857142857,431.12857142857143,2691.7,-190.77767857142857,431.12857142857143,2799.7,-190.77767857142857,431.12857142857143,2899.9,-190.77767857142857,431.12857142857143,3000.3,-190.77767857142857,431.12857142857143,3103.6,-190.77767857142857,431.12857142857143,3208,-190.77767857142857,431.12857142857143,3314.5,-190.77767857142857,431.12857142857143,3418.2,-190.77767857142857,431.12857142857143,3518.5,-190.77767857142857,431.12857142857143,3627.3,-190.77767857142857,431.12857142857143,3730.4,-190.77767857142857,431.12857142857143,3831.7,-190.77767857142857,431.12857142857143,3932.2,-190.77767857142857,431.12857142857143,4037.5,-190.77767857142857,431.12857142857143,4149.9,-190.77767857142857,431.12857142857143,4252.7,-190.77767857142857,431.12857142857143,4354.6,-190.77767857142857,431.12857142857143,4458.1,-190.77767857142857,431.12857142857143,4567.2,-190.77767857142857,431.12857142857143,4669,-190.77767857142857,431.12857142857143,4770.4,-190.77767857142857,431.12857142857143,4873.4,-190.77767857142857,431.12857142857143,4981.4]","[5255.9,5255.9,2733.1,2012,510.8,""smooth"",""left"",""left"",""good_move"",7852.8,2595.4,2105.8,5257.4,489.6,""oops"",""left"",""up"",""bad_move"",13563.2,5709.9,2126.3,11045.9,391,""smooth"",""left"",""left"",""good_move"",16534.5,2971,2522.6,13563.5,448.4,""smooth"",""left"",""left"",""good_move"",19225.6,2690.4,2233.6,16535.2,456.8,""oops"",""down"",""up"",""bad_move"",21866.7,2639.9,2232.7,19226.8,407.2,""smooth"",""down"",""down"",""good_move"",27838,5970.6,2302.4,25097.9,437.7,""oops"",""down"",""right"",""bad_move"",34287.6,6448,2840,31070.4,377.2,""oops"",""left"",""right"",""bad_move""]"
"5217","","<div style=""width:500px;"">
  <p>What determined the result of this run?</p>
  </div>","1","html-slider-response","44","921040","0.0-7.0-1.6","213","1","2025-08-06 17:52:37","36c45c0696341be0efffe67d72a12abb","94.10.147.75","Mozilla/5.0 (Windows NT 10.0; Win64; x64) AppleWebKit/537.36 (KHTML, like Gecko) Chrome/138.0.0.0 Safari/537.36 Edg/138.0.0.0","WebKit","Edge","138.0.0.0","Windows","10.0","https://app.prolific.com/","en-GB,en;q=0.9,en-US;q=0.8","6702f60844f21087e0840e3d","6877649eabb845cf142cd221","6893950736c74074d78aa3cf","1","6702f60844f21087e0840e3d","1","2025-08-06T18:08:00.360Z","","","","AttribQ","","","","","","","","","","","50","","","","","","","","","","","","","","","","","","","","","","","","","","",""
"3671","","<div style=""width:500px;"">
  <p>How much control did you have over the ball?</p>
  </div>","0","html-slider-response","45","924714","0.0-7.0-2.6","213","1","2025-08-06 17:52:37","36c45c0696341be0efffe67d72a12abb","94.10.147.75","Mozilla/5.0 (Windows NT 10.0; Win64; x64) AppleWebKit/537.36 (KHTML, like Gecko) Chrome/138.0.0.0 Safari/537.36 Edg/138.0.0.0","WebKit","Edge","138.0.0.0","Windows","10.0","https://app.prolific.com/","en-GB,en;q=0.9,en-US;q=0.8","6702f60844f21087e0840e3d","6877649eabb845cf142cd221","6893950736c74074d78aa3cf","1","6702f60844f21087e0840e3d","1","2025-08-06T18:08:04.034Z","","","","ControlQ","","","","","","","","","","","50","","","","","","","","","","","","","","","","","","","","","","","","","","",""
"3146","","<div style=""width:500px;"">
  <p>How would you describe your current emotional state?</p>
  </div>","56","html-slider-response","46","927864","0.0-7.0-3.6","213","1","2025-08-06 17:52:37","36c45c0696341be0efffe67d72a12abb","94.10.147.75","Mozilla/5.0 (Windows NT 10.0; Win64; x64) AppleWebKit/537.36 (KHTML, like Gecko) Chrome/138.0.0.0 Safari/537.36 Edg/138.0.0.0","WebKit","Edge","138.0.0.0","Windows","10.0","https://app.prolific.com/","en-GB,en;q=0.9,en-US;q=0.8","6702f60844f21087e0840e3d","6877649eabb845cf142cd221","6893950736c74074d78aa3cf","1","6702f60844f21087e0840e3d","1","2025-08-06T18:08:07.184Z","","","","StressQ","","","","","","","","","","","50","","","","","","","","","","","","","","","","","","","","","","","","","","",""
"3462","","<div style=""width:500px;"">
  <p>What best describes how you currently feel?</p>
  </div>","54","html-slider-response","47","931329","0.0-7.0-4.6","213","1","2025-08-06 17:52:37","36c45c0696341be0efffe67d72a12abb","94.10.147.75","Mozilla/5.0 (Windows NT 10.0; Win64; x64) AppleWebKit/537.36 (KHTML, like Gecko) Chrome/138.0.0.0 Safari/537.36 Edg/138.0.0.0","WebKit","Edge","138.0.0.0","Windows","10.0","https://app.prolific.com/","en-GB,en;q=0.9,en-US;q=0.8","6702f60844f21087e0840e3d","6877649eabb845cf142cd221","6893950736c74074d78aa3cf","1","6702f60844f21087e0840e3d","1","2025-08-06T18:08:10.649Z","","","","MotivationQ","","","","","","","","","","","50","","","","","","","","","","","","","","","","","","","","","","","","","","",""
"","","","","ctl-task-cpt","48","981668","0.0-7.0-0.7","213","1","2025-08-06 17:52:37","36c45c0696341be0efffe67d72a12abb","94.10.147.75","Mozilla/5.0 (Windows NT 10.0; Win64; x64) AppleWebKit/537.36 (KHTML, like Gecko) Chrome/138.0.0.0 Safari/537.36 Edg/138.0.0.0","WebKit","Edge","138.0.0.0","Windows","10.0","https://app.prolific.com/","en-GB,en;q=0.9,en-US;q=0.8","6702f60844f21087e0840e3d","6877649eabb845cf142cd221","6893950736c74074d78aa3cf","1","6702f60844f21087e0840e3d","1","2025-08-06T18:09:00.988Z","","","","","","","","","","","","","","","","win-only","3","g1:SW,g2:NE","0.3","8","0","933074","1204.9","6208.8","47304.7","1","4","8","6","2","-8","-8","9","17","0.06818181818181818","1325.8","3000","-2090","[""up"",""right""]","{""num_key_presses"":9,""num_perfect"":2,""num_errors"":0,""num_randdir"":7,""num_randdir_good_moves"":3,""num_whilered"":0,""num_whileblue"":0,""num_blue"":4,""num_good_moves"":5}","[297.22232142857143,289.12857142857143,0.4,297.22232142857143,289.12857142857143,101.3,297.22232142857143,289.12857142857143,210.4,297.22232142857143,289.12857142857143,312.5,297.22232142857143,289.12857142857143,416.4,297.22232142857143,289.12857142857143,518.8,297.22232142857143,289.12857142857143,619.6,297.22232142857143,289.12857142857143,726.5,502.22232142857143,48.128571428571426,833,523.2223214285714,19.128571428571426,933.2,523.2223214285714,17.128571428571426,1035.5,520.2223214285714,18.128571428571426,1139.8,520.2223214285714,18.128571428571426,1240,520.2223214285714,18.128571428571426,1341.5,520.2223214285714,18.128571428571426,1443.1,520.2223214285714,18.128571428571426,1547.3,520.2223214285714,18.128571428571426,1653.5,688.2223214285714,69.12857142857143,1755.4,859.2223214285714,124.12857142857143,1858.4,856.2223214285714,128.12857142857143,1960.8,856.2223214285714,128.12857142857143,2062.3,856.2223214285714,128.12857142857143,2165.3,856.2223214285714,128.12857142857143,2268.4,856.2223214285714,128.12857142857143,2377.3,856.2223214285714,128.12857142857143,2480.1,856.2223214285714,128.12857142857143,2581.7,856.2223214285714,128.12857142857143,2683,856.2223214285714,128.12857142857143,2792.7,856.2223214285714,128.12857142857143,2894.5,856.2223214285714,128.12857142857143,2995.8,856.2223214285714,128.12857142857143,3102.8,856.2223214285714,128.12857142857143,3205.8,856.2223214285714,128.12857142857143,3312.3,856.2223214285714,128.12857142857143,3413.1,856.2223214285714,128.12857142857143,3525.3,856.2223214285714,128.12857142857143,3625.4,856.2223214285714,128.12857142857143,3728.1,856.2223214285714,128.12857142857143,3828.9,856.2223214285714,128.12857142857143,3930.4,856.2223214285714,128.12857142857143,4030.7,856.2223214285714,128.12857142857143,4137.4,856.2223214285714,128.12857142857143,4244.8,856.2223214285714,128.12857142857143,4347.7,856.2223214285714,128.12857142857143,4457.2,856.2223214285714,128.12857142857143,4564.3,856.2223214285714,128.12857142857143,4671.9,856.2223214285714,128.12857142857143,4779.8,856.2223214285714,128.12857142857143,4880.9,856.2223214285714,128.12857142857143,4981.2]","[1466.1,1466.1,1000,0,466.1,""oops"",""right"",""down"",""bad_move"",10103.6,8635.7,2175.2,7510.3,418.2,""oops"",""right"",""left"",""bad_move"",16935.6,6830.9,2653.9,13772.4,509.3,""oops"",""right"",""down"",""bad_move"",20489.5,3552.8,2968.2,16936.8,584.5,""oops"",""right"",""right"",""good_move"",23048,2556.9,1957.5,20491.2,599.3,""oops"",""right"",""up"",""good_move"",29660.6,6611.7,3050.3,26171.2,439.1,""smooth"",""right"",""right"",""good_move"",32850.1,3188.7,2695.9,29661.4,492.8,""smooth"",""right"",""right"",""good_move"",35879.9,3029.3,2585.8,32850.6,443.5,""oops"",""right"",""up"",""good_move"",38567.9,2686.9,2200.7,35881,486.3,""oops"",""right"",""down"",""bad_move""]"
"12651","","<div style=""width:500px;"">
  <p>What determined the result of this run?</p>
  </div>","0","html-slider-response","49","994321","0.0-7.0-1.7","213","1","2025-08-06 17:52:37","36c45c0696341be0efffe67d72a12abb","94.10.147.75","Mozilla/5.0 (Windows NT 10.0; Win64; x64) AppleWebKit/537.36 (KHTML, like Gecko) Chrome/138.0.0.0 Safari/537.36 Edg/138.0.0.0","WebKit","Edge","138.0.0.0","Windows","10.0","https://app.prolific.com/","en-GB,en;q=0.9,en-US;q=0.8","6702f60844f21087e0840e3d","6877649eabb845cf142cd221","6893950736c74074d78aa3cf","1","6702f60844f21087e0840e3d","1","2025-08-06T18:09:13.641Z","","","","AttribQ","","","","","","","","","","","50","","","","","","","","","","","","","","","","","","","","","","","","","","",""
"33984","","<div style=""width:500px;"">
  <p>How much control did you have over the ball?</p>
  </div>","1","html-slider-response","50","1028307","0.0-7.0-2.7","213","1","2025-08-06 17:52:37","36c45c0696341be0efffe67d72a12abb","94.10.147.75","Mozilla/5.0 (Windows NT 10.0; Win64; x64) AppleWebKit/537.36 (KHTML, like Gecko) Chrome/138.0.0.0 Safari/537.36 Edg/138.0.0.0","WebKit","Edge","138.0.0.0","Windows","10.0","https://app.prolific.com/","en-GB,en;q=0.9,en-US;q=0.8","6702f60844f21087e0840e3d","6877649eabb845cf142cd221","6893950736c74074d78aa3cf","1","6702f60844f21087e0840e3d","1","2025-08-06T18:09:47.627Z","","","","ControlQ","","","","","","","","","","","50","","","","","","","","","","","","","","","","","","","","","","","","","","",""
"4428","","<div style=""width:500px;"">
  <p>How would you describe your current emotional state?</p>
  </div>","55","html-slider-response","51","1032737","0.0-7.0-3.7","213","1","2025-08-06 17:52:37","36c45c0696341be0efffe67d72a12abb","94.10.147.75","Mozilla/5.0 (Windows NT 10.0; Win64; x64) AppleWebKit/537.36 (KHTML, like Gecko) Chrome/138.0.0.0 Safari/537.36 Edg/138.0.0.0","WebKit","Edge","138.0.0.0","Windows","10.0","https://app.prolific.com/","en-GB,en;q=0.9,en-US;q=0.8","6702f60844f21087e0840e3d","6877649eabb845cf142cd221","6893950736c74074d78aa3cf","1","6702f60844f21087e0840e3d","1","2025-08-06T18:09:52.057Z","","","","StressQ","","","","","","","","","","","50","","","","","","","","","","","","","","","","","","","","","","","","","","",""
"8642","","<div style=""width:500px;"">
  <p>What best describes how you currently feel?</p>
  </div>","52","html-slider-response","52","1041381","0.0-7.0-4.7","213","1","2025-08-06 17:52:37","36c45c0696341be0efffe67d72a12abb","94.10.147.75","Mozilla/5.0 (Windows NT 10.0; Win64; x64) AppleWebKit/537.36 (KHTML, like Gecko) Chrome/138.0.0.0 Safari/537.36 Edg/138.0.0.0","WebKit","Edge","138.0.0.0","Windows","10.0","https://app.prolific.com/","en-GB,en;q=0.9,en-US;q=0.8","6702f60844f21087e0840e3d","6877649eabb845cf142cd221","6893950736c74074d78aa3cf","1","6702f60844f21087e0840e3d","1","2025-08-06T18:10:00.701Z","","","","MotivationQ","","","","","","","","","","","50","","","","","","","","","","","","","","","","","","","","","","","","","","",""
"","","","","ctl-task-cpt","53","1096113","0.0-7.0-0.8","213","1","2025-08-06 17:52:37","36c45c0696341be0efffe67d72a12abb","94.10.147.75","Mozilla/5.0 (Windows NT 10.0; Win64; x64) AppleWebKit/537.36 (KHTML, like Gecko) Chrome/138.0.0.0 Safari/537.36 Edg/138.0.0.0","WebKit","Edge","138.0.0.0","Windows","10.0","https://app.prolific.com/","en-GB,en;q=0.9,en-US;q=0.8","6702f60844f21087e0840e3d","6877649eabb845cf142cd221","6893950736c74074d78aa3cf","1","6702f60844f21087e0840e3d","1","2025-08-06T18:10:55.433Z","","","","","","","","","","","","","","","","win-only","2","g1:SE,g2:NW","0.4","9","0","1043118.9","1471.9","6481.3","51704","1","4","8","6","2","-8","-8","1","9","0.007575757575757576","1366.4","3000","-1960","[""left"",""up""]","{""num_key_presses"":9,""num_perfect"":4,""num_errors"":0,""num_randdir"":5,""num_randdir_good_moves"":2,""num_whilered"":0,""num_whileblue"":0,""num_blue"":5,""num_good_moves"":6}","[294.22232142857143,288.12857142857143,0.5,294.22232142857143,288.12857142857143,100.6,294.22232142857143,288.12857142857143,207.9,294.22232142857143,288.12857142857143,307.9,294.22232142857143,288.12857142857143,408,294.22232142857143,288.12857142857143,509.5,294.22232142857143,288.12857142857143,610.3,286.22232142857143,287.12857142857143,718.6,110.22232142857143,167.12857142857143,820.7,91.22232142857143,154.12857142857143,922,73.22232142857143,107.12857142857143,1025.4,66.22232142857143,74.12857142857143,1130,66.22232142857143,74.12857142857143,1230.7,66.22232142857143,74.12857142857143,1332.6,66.22232142857143,74.12857142857143,1438.2,66.22232142857143,74.12857142857143,1543.3,66.22232142857143,74.12857142857143,1646.8,-13.777678571428574,94.12857142857143,1750.9,-191.77767857142857,170.12857142857143,1855.6,-191.77767857142857,170.12857142857143,1959.3,-191.77767857142857,170.12857142857143,2062.8,-191.77767857142857,170.12857142857143,2166,-191.77767857142857,170.12857142857143,2266.8,-191.77767857142857,170.12857142857143,2373.1,-191.77767857142857,170.12857142857143,2474.4,-191.77767857142857,170.12857142857143,2578.2,-191.77767857142857,170.12857142857143,2681.9,-191.77767857142857,170.12857142857143,2784.7,-191.77767857142857,170.12857142857143,2897.1,-191.77767857142857,170.12857142857143,2997.7,-191.77767857142857,170.12857142857143,3106.9,-191.77767857142857,170.12857142857143,3210.4,-191.77767857142857,170.12857142857143,3314.7,-191.77767857142857,170.12857142857143,3415.3,-191.77767857142857,170.12857142857143,3525.5,-191.77767857142857,170.12857142857143,3629.4,-191.77767857142857,170.12857142857143,3736.6,-191.77767857142857,170.12857142857143,3841.2,-191.77767857142857,170.12857142857143,3950.8,-191.77767857142857,170.12857142857143,4052.7,-191.77767857142857,170.12857142857143,4152.9,-191.77767857142857,170.12857142857143,4259.4,-191.77767857142857,170.12857142857143,4364.7,-191.77767857142857,170.12857142857143,4464.7,-191.77767857142857,170.12857142857143,4565.4,-191.77767857142857,170.12857142857143,4666.8,-191.77767857142857,170.12857142857143,4773,-191.77767857142857,170.12857142857143,4877.6,-191.77767857142857,170.12857142857143,4981.7]","[1452.3,1452.3,1000,0,452.3,""oops"",""left"",""left"",""good_move"",3868.7,2415,1951.9,1453.7,463.2,""smooth"",""left"",""left"",""good_move"",7056.7,3187,2752.7,3869.7,434.4,""oops"",""left"",""down"",""bad_move"",12841.4,5783.1,2389.4,10002,450,""smooth"",""left"",""left"",""good_move"",15835.9,2994.1,2357.4,12841.8,636.7,""smooth"",""up"",""up"",""good_move"",19193.2,3355.6,2926.3,15837.6,429.3,""oops"",""up"",""right"",""bad_move"",35365.8,16171.7,3325.1,31601.9,438.8,""oops"",""left"",""left"",""good_move"",38430.6,3063.8,2547.5,35366.8,516.3,""oops"",""up"",""down"",""bad_move"",41924.5,3493.3,3071.7,38431.2,421.6,""smooth"",""up"",""up"",""good_move""]"
"13110","","<div style=""width:500px;"">
  <p>What determined the result of this run?</p>
  </div>","0","html-slider-response","54","1109225","0.0-7.0-1.8","213","1","2025-08-06 17:52:37","36c45c0696341be0efffe67d72a12abb","94.10.147.75","Mozilla/5.0 (Windows NT 10.0; Win64; x64) AppleWebKit/537.36 (KHTML, like Gecko) Chrome/138.0.0.0 Safari/537.36 Edg/138.0.0.0","WebKit","Edge","138.0.0.0","Windows","10.0","https://app.prolific.com/","en-GB,en;q=0.9,en-US;q=0.8","6702f60844f21087e0840e3d","6877649eabb845cf142cd221","6893950736c74074d78aa3cf","1","6702f60844f21087e0840e3d","1","2025-08-06T18:11:08.545Z","","","","AttribQ","","","","","","","","","","","50","","","","","","","","","","","","","","","","","","","","","","","","","","",""
"5101","","<div style=""width:500px;"">
  <p>How much control did you have over the ball?</p>
  </div>","0","html-slider-response","55","1114328","0.0-7.0-2.8","213","1","2025-08-06 17:52:37","36c45c0696341be0efffe67d72a12abb","94.10.147.75","Mozilla/5.0 (Windows NT 10.0; Win64; x64) AppleWebKit/537.36 (KHTML, like Gecko) Chrome/138.0.0.0 Safari/537.36 Edg/138.0.0.0","WebKit","Edge","138.0.0.0","Windows","10.0","https://app.prolific.com/","en-GB,en;q=0.9,en-US;q=0.8","6702f60844f21087e0840e3d","6877649eabb845cf142cd221","6893950736c74074d78aa3cf","1","6702f60844f21087e0840e3d","1","2025-08-06T18:11:13.648Z","","","","ControlQ","","","","","","","","","","","50","","","","","","","","","","","","","","","","","","","","","","","","","","",""
"22127","","<div style=""width:500px;"">
  <p>How would you describe your current emotional state?</p>
  </div>","55","html-slider-response","56","1136456","0.0-7.0-3.8","213","1","2025-08-06 17:52:37","36c45c0696341be0efffe67d72a12abb","94.10.147.75","Mozilla/5.0 (Windows NT 10.0; Win64; x64) AppleWebKit/537.36 (KHTML, like Gecko) Chrome/138.0.0.0 Safari/537.36 Edg/138.0.0.0","WebKit","Edge","138.0.0.0","Windows","10.0","https://app.prolific.com/","en-GB,en;q=0.9,en-US;q=0.8","6702f60844f21087e0840e3d","6877649eabb845cf142cd221","6893950736c74074d78aa3cf","1","6702f60844f21087e0840e3d","1","2025-08-06T18:11:35.777Z","","","","StressQ","","","","","","","","","","","50","","","","","","","","","","","","","","","","","","","","","","","","","","",""
"12735","","<div style=""width:500px;"">
  <p>What best describes how you currently feel?</p>
  </div>","53","html-slider-response","57","1149193","0.0-7.0-4.8","213","1","2025-08-06 17:52:37","36c45c0696341be0efffe67d72a12abb","94.10.147.75","Mozilla/5.0 (Windows NT 10.0; Win64; x64) AppleWebKit/537.36 (KHTML, like Gecko) Chrome/138.0.0.0 Safari/537.36 Edg/138.0.0.0","WebKit","Edge","138.0.0.0","Windows","10.0","https://app.prolific.com/","en-GB,en;q=0.9,en-US;q=0.8","6702f60844f21087e0840e3d","6877649eabb845cf142cd221","6893950736c74074d78aa3cf","1","6702f60844f21087e0840e3d","1","2025-08-06T18:11:48.513Z","","","","MotivationQ","","","","","","","","","","","50","","","","","","","","","","","","","","","","","","","","","","","","","","",""
"","","","","ctl-task-cpt","58","1177864","0.0-7.0-0.9","213","1","2025-08-06 17:52:37","36c45c0696341be0efffe67d72a12abb","94.10.147.75","Mozilla/5.0 (Windows NT 10.0; Win64; x64) AppleWebKit/537.36 (KHTML, like Gecko) Chrome/138.0.0.0 Safari/537.36 Edg/138.0.0.0","WebKit","Edge","138.0.0.0","Windows","10.0","https://app.prolific.com/","en-GB,en;q=0.9,en-US;q=0.8","6702f60844f21087e0840e3d","6877649eabb845cf142cd221","6893950736c74074d78aa3cf","1","6702f60844f21087e0840e3d","1","2025-08-06T18:12:17.184Z","","","","","","","","","","","","","","","","win-only","1","g1:NE,g2:SW","0.5","10","0","1150927.3","1802.7","6809.8","25649.4","1","4","4","6","2","4","4","5","1","0.03787878787878788","1234.3","3000","1125","[""down"",""left""]","{""num_key_presses"":6,""num_perfect"":4,""num_errors"":0,""num_randdir"":2,""num_randdir_good_moves"":2,""num_whilered"":0,""num_whileblue"":0,""num_blue"":1,""num_good_moves"":6}","[297.22232142857143,301.12857142857143,0.5,297.22232142857143,301.12857142857143,101.1,297.22232142857143,301.12857142857143,205.8,297.22232142857143,301.12857142857143,313,297.22232142857143,301.12857142857143,419.8,297.22232142857143,301.12857142857143,530.1,192.22232142857143,425.12857142857143,633.8,136.22232142857143,469.12857142857143,736.7,124.22232142857143,482.12857142857143,840.3,95.22232142857143,516.1285714285714,940.5,74.22232142857143,537.1285714285714,1046.3,74.22232142857143,537.1285714285714,1146.8,74.22232142857143,537.1285714285714,1249.2,74.22232142857143,537.1285714285714,1358.7,74.22232142857143,537.1285714285714,1465.3,74.22232142857143,537.1285714285714,1568.5,74.22232142857143,537.1285714285714,1669.1,74.22232142857143,537.1285714285714,1769.6,74.22232142857143,537.1285714285714,1874.9,74.22232142857143,537.1285714285714,1979.8,-82.77767857142857,527.1285714285714,2085.2,-281.77767857142857,496.12857142857143,2191.5,-284.77767857142857,496.12857142857143,2292.3,-284.77767857142857,496.12857142857143,2398.9,-284.77767857142857,496.12857142857143,2501.5,-284.77767857142857,496.12857142857143,2604.5,-284.77767857142857,496.12857142857143,2705.5,-284.77767857142857,496.12857142857143,2808.5,-284.77767857142857,496.12857142857143,2914.4,-284.77767857142857,496.12857142857143,3019.8,-284.77767857142857,496.12857142857143,3120.7,-284.77767857142857,496.12857142857143,3228.5,-284.77767857142857,496.12857142857143,3332.3,-284.77767857142857,496.12857142857143,3436.2,-284.77767857142857,496.12857142857143,3543.6,-284.77767857142857,496.12857142857143,3648.7,-284.77767857142857,496.12857142857143,3751.5,-284.77767857142857,496.12857142857143,3854.3,-284.77767857142857,496.12857142857143,3954.6,-284.77767857142857,496.12857142857143,4055.7,-284.77767857142857,496.12857142857143,4156.4,-284.77767857142857,496.12857142857143,4269.7,-284.77767857142857,496.12857142857143,4374.6,-284.77767857142857,496.12857142857143,4481.1,-284.77767857142857,496.12857142857143,4594.7,-284.77767857142857,496.12857142857143,4697.4,-284.77767857142857,496.12857142857143,4801.7,-284.77767857142857,496.12857142857143,4903.8]","[4940.1,4940.1,2467.3,2004.6,468.2,""smooth"",""left"",""left"",""good_move"",7764.8,2821.1,2289.5,4943.9,531.4,""smooth"",""left"",""left"",""good_move"",10421.1,2655.6,2076.4,7765.5,579.2,""smooth"",""left"",""left"",""good_move"",12695.6,2274.2,1797.7,10421.4,476.5,""oops"",""down"",""down"",""good_move"",16057.1,3360.7,2863.7,12696.6,496.9,""oops"",""down"",""down"",""good_move"",18658.9,2600.3,2231.1,16058.7,369.1,""smooth"",""down"",""down"",""good_move""]"
"6810","","<div style=""width:500px;"">
  <p>What determined the result of this run?</p>
  </div>","71","html-slider-response","59","1184675","0.0-7.0-1.9","213","1","2025-08-06 17:52:37","36c45c0696341be0efffe67d72a12abb","94.10.147.75","Mozilla/5.0 (Windows NT 10.0; Win64; x64) AppleWebKit/537.36 (KHTML, like Gecko) Chrome/138.0.0.0 Safari/537.36 Edg/138.0.0.0","WebKit","Edge","138.0.0.0","Windows","10.0","https://app.prolific.com/","en-GB,en;q=0.9,en-US;q=0.8","6702f60844f21087e0840e3d","6877649eabb845cf142cd221","6893950736c74074d78aa3cf","1","6702f60844f21087e0840e3d","1","2025-08-06T18:12:23.995Z","","","","AttribQ","","","","","","","","","","","50","","","","","","","","","","","","","","","","","","","","","","","","","","",""
"8325","","<div style=""width:500px;"">
  <p>How much control did you have over the ball?</p>
  </div>","71","html-slider-response","60","1193002","0.0-7.0-2.9","213","1","2025-08-06 17:52:37","36c45c0696341be0efffe67d72a12abb","94.10.147.75","Mozilla/5.0 (Windows NT 10.0; Win64; x64) AppleWebKit/537.36 (KHTML, like Gecko) Chrome/138.0.0.0 Safari/537.36 Edg/138.0.0.0","WebKit","Edge","138.0.0.0","Windows","10.0","https://app.prolific.com/","en-GB,en;q=0.9,en-US;q=0.8","6702f60844f21087e0840e3d","6877649eabb845cf142cd221","6893950736c74074d78aa3cf","1","6702f60844f21087e0840e3d","1","2025-08-06T18:12:32.322Z","","","","ControlQ","","","","","","","","","","","50","","","","","","","","","","","","","","","","","","","","","","","","","","",""
"41893","","<div style=""width:500px;"">
  <p>How would you describe your current emotional state?</p>
  </div>","29","html-slider-response","61","1234898","0.0-7.0-3.9","213","1","2025-08-06 17:52:37","36c45c0696341be0efffe67d72a12abb","94.10.147.75","Mozilla/5.0 (Windows NT 10.0; Win64; x64) AppleWebKit/537.36 (KHTML, like Gecko) Chrome/138.0.0.0 Safari/537.36 Edg/138.0.0.0","WebKit","Edge","138.0.0.0","Windows","10.0","https://app.prolific.com/","en-GB,en;q=0.9,en-US;q=0.8","6702f60844f21087e0840e3d","6877649eabb845cf142cd221","6893950736c74074d78aa3cf","1","6702f60844f21087e0840e3d","1","2025-08-06T18:13:14.218Z","","","","StressQ","","","","","","","","","","","50","","","","","","","","","","","","","","","","","","","","","","","","","","",""
"2974","","<div style=""width:500px;"">
  <p>What best describes how you currently feel?</p>
  </div>","54","html-slider-response","62","1237876","0.0-7.0-4.9","213","1","2025-08-06 17:52:37","36c45c0696341be0efffe67d72a12abb","94.10.147.75","Mozilla/5.0 (Windows NT 10.0; Win64; x64) AppleWebKit/537.36 (KHTML, like Gecko) Chrome/138.0.0.0 Safari/537.36 Edg/138.0.0.0","WebKit","Edge","138.0.0.0","Windows","10.0","https://app.prolific.com/","en-GB,en;q=0.9,en-US;q=0.8","6702f60844f21087e0840e3d","6877649eabb845cf142cd221","6893950736c74074d78aa3cf","1","6702f60844f21087e0840e3d","1","2025-08-06T18:13:17.196Z","","","","MotivationQ","","","","","","","","","","","50","","","","","","","","","","","","","","","","","","","","","","","","","","",""
"","","","","ctl-task-cpt","63","1269101","0.0-7.0-0.10","213","1","2025-08-06 17:52:37","36c45c0696341be0efffe67d72a12abb","94.10.147.75","Mozilla/5.0 (Windows NT 10.0; Win64; x64) AppleWebKit/537.36 (KHTML, like Gecko) Chrome/138.0.0.0 Safari/537.36 Edg/138.0.0.0","WebKit","Edge","138.0.0.0","Windows","10.0","https://app.prolific.com/","en-GB,en;q=0.9,en-US;q=0.8","6702f60844f21087e0840e3d","6877649eabb845cf142cd221","6893950736c74074d78aa3cf","1","6702f60844f21087e0840e3d","1","2025-08-06T18:13:48.421Z","","","","","","","","","","","","","","","","win-only","0","g1:NW,g2:SE","0.6","11","0","1239610.9","1626.8","6630","28201.8","1","4","4","6","2","4","4","9","5","0.06818181818181818","1504.7","3000","660","[""down"",""right""]","{""num_key_presses"":8,""num_perfect"":5,""num_errors"":0,""num_randdir"":3,""num_randdir_good_moves"":2,""num_whilered"":0,""num_whileblue"":0,""num_blue"":0,""num_good_moves"":7}","[296.22232142857143,304.12857142857143,0.3,296.22232142857143,304.12857142857143,108.3,296.22232142857143,304.12857142857143,213.8,296.22232142857143,304.12857142857143,313.8,296.22232142857143,304.12857142857143,415.1,296.22232142857143,304.12857142857143,515.5,365.22232142857143,333.12857142857143,617.4,473.22232142857143,425.12857142857143,721.7,501.22232142857143,447.12857142857143,826.9,516.2223214285714,470.12857142857143,930,527.2223214285714,489.12857142857143,1031.9,528.2223214285714,498.12857142857143,1138.5,528.2223214285714,498.12857142857143,1238.5,528.2223214285714,498.12857142857143,1344.2,528.2223214285714,498.12857142857143,1445.7,528.2223214285714,498.12857142857143,1563.6,528.2223214285714,498.12857142857143,1664.5,528.2223214285714,498.12857142857143,1769.7,528.2223214285714,498.12857142857143,1876.4,724.2223214285714,399.12857142857143,1981,725.2223214285714,398.12857142857143,2092.2,725.2223214285714,398.12857142857143,2195.9,725.2223214285714,398.12857142857143,2300.9,725.2223214285714,398.12857142857143,2408.5,725.2223214285714,398.12857142857143,2513.7,725.2223214285714,398.12857142857143,2615.5,725.2223214285714,398.12857142857143,2715.6,725.2223214285714,398.12857142857143,2820.8,725.2223214285714,398.12857142857143,2921.6,725.2223214285714,398.12857142857143,3025.3,725.2223214285714,398.12857142857143,3130.3,725.2223214285714,398.12857142857143,3236.7,725.2223214285714,398.12857142857143,3343.6,725.2223214285714,398.12857142857143,3446.5,725.2223214285714,398.12857142857143,3547.3,725.2223214285714,398.12857142857143,3651.7,725.2223214285714,398.12857142857143,3754,725.2223214285714,398.12857142857143,3865.9,725.2223214285714,398.12857142857143,3975.9,725.2223214285714,398.12857142857143,4080.1,725.2223214285714,398.12857142857143,4183.6,725.2223214285714,398.12857142857143,4284.3,725.2223214285714,398.12857142857143,4385.3,725.2223214285714,398.12857142857143,4494,725.2223214285714,398.12857142857143,4595.6,725.2223214285714,398.12857142857143,4701.4,725.2223214285714,398.12857142857143,4805.8,725.2223214285714,398.12857142857143,4906.2]","[1368.4,1368.4,1000,0,368.4,""smooth"",""right"",""right"",""good_move"",4584.2,3214.7,2775.4,1369.5,439.3,""oops"",""right"",""down"",""good_move"",7706.2,3120,2705.5,4586.2,414.5,""smooth"",""right"",""right"",""good_move"",10466.3,2759.1,2361.6,7707.2,397.5,""oops"",""right"",""up"",""bad_move"",13268.1,2800.8,2381.9,10467.3,418.9,""smooth"",""right"",""right"",""good_move"",15814.5,2546,2152.9,13268.5,393.1,""oops"",""down"",""down"",""good_move"",18737.5,2922,2404.2,15815.5,517.8,""smooth"",""down"",""down"",""good_move"",21456.3,2718,2327.2,18738.3,390.8,""smooth"",""down"",""down"",""good_move""]"
"4041","","<div style=""width:500px;"">
  <p>What determined the result of this run?</p>
  </div>","74","html-slider-response","64","1273143","0.0-7.0-1.10","213","1","2025-08-06 17:52:37","36c45c0696341be0efffe67d72a12abb","94.10.147.75","Mozilla/5.0 (Windows NT 10.0; Win64; x64) AppleWebKit/537.36 (KHTML, like Gecko) Chrome/138.0.0.0 Safari/537.36 Edg/138.0.0.0","WebKit","Edge","138.0.0.0","Windows","10.0","https://app.prolific.com/","en-GB,en;q=0.9,en-US;q=0.8","6702f60844f21087e0840e3d","6877649eabb845cf142cd221","6893950736c74074d78aa3cf","1","6702f60844f21087e0840e3d","1","2025-08-06T18:13:52.463Z","","","","AttribQ","","","","","","","","","","","50","","","","","","","","","","","","","","","","","","","","","","","","","","",""
"4367","","<div style=""width:500px;"">
  <p>How much control did you have over the ball?</p>
  </div>","68","html-slider-response","65","1277512","0.0-7.0-2.10","213","1","2025-08-06 17:52:37","36c45c0696341be0efffe67d72a12abb","94.10.147.75","Mozilla/5.0 (Windows NT 10.0; Win64; x64) AppleWebKit/537.36 (KHTML, like Gecko) Chrome/138.0.0.0 Safari/537.36 Edg/138.0.0.0","WebKit","Edge","138.0.0.0","Windows","10.0","https://app.prolific.com/","en-GB,en;q=0.9,en-US;q=0.8","6702f60844f21087e0840e3d","6877649eabb845cf142cd221","6893950736c74074d78aa3cf","1","6702f60844f21087e0840e3d","1","2025-08-06T18:13:56.832Z","","","","ControlQ","","","","","","","","","","","50","","","","","","","","","","","","","","","","","","","","","","","","","","",""
"4051","","<div style=""width:500px;"">
  <p>How would you describe your current emotional state?</p>
  </div>","50","html-slider-response","66","1281564","0.0-7.0-3.10","213","1","2025-08-06 17:52:37","36c45c0696341be0efffe67d72a12abb","94.10.147.75","Mozilla/5.0 (Windows NT 10.0; Win64; x64) AppleWebKit/537.36 (KHTML, like Gecko) Chrome/138.0.0.0 Safari/537.36 Edg/138.0.0.0","WebKit","Edge","138.0.0.0","Windows","10.0","https://app.prolific.com/","en-GB,en;q=0.9,en-US;q=0.8","6702f60844f21087e0840e3d","6877649eabb845cf142cd221","6893950736c74074d78aa3cf","1","6702f60844f21087e0840e3d","1","2025-08-06T18:14:00.884Z","","","","StressQ","","","","","","","","","","","50","","","","","","","","","","","","","","","","","","","","","","","","","","",""
"4718","","<div style=""width:500px;"">
  <p>What best describes how you currently feel?</p>
  </div>","52","html-slider-response","67","1286283","0.0-7.0-4.10","213","1","2025-08-06 17:52:37","36c45c0696341be0efffe67d72a12abb","94.10.147.75","Mozilla/5.0 (Windows NT 10.0; Win64; x64) AppleWebKit/537.36 (KHTML, like Gecko) Chrome/138.0.0.0 Safari/537.36 Edg/138.0.0.0","WebKit","Edge","138.0.0.0","Windows","10.0","https://app.prolific.com/","en-GB,en;q=0.9,en-US;q=0.8","6702f60844f21087e0840e3d","6877649eabb845cf142cd221","6893950736c74074d78aa3cf","1","6702f60844f21087e0840e3d","1","2025-08-06T18:14:05.603Z","","","","MotivationQ","","","","","","","","","","","50","","","","","","","","","","","","","","","","","","","","","","","","","","",""
"","","","","ctl-task-cpt","68","1323637","0.0-7.0-0.11","213","1","2025-08-06 17:52:37","36c45c0696341be0efffe67d72a12abb","94.10.147.75","Mozilla/5.0 (Windows NT 10.0; Win64; x64) AppleWebKit/537.36 (KHTML, like Gecko) Chrome/138.0.0.0 Safari/537.36 Edg/138.0.0.0","WebKit","Edge","138.0.0.0","Windows","10.0","https://app.prolific.com/","en-GB,en;q=0.9,en-US;q=0.8","6702f60844f21087e0840e3d","6877649eabb845cf142cd221","6893950736c74074d78aa3cf","1","6702f60844f21087e0840e3d","1","2025-08-06T18:14:42.957Z","","","","","","","","","","","","","","","","win-only","3","g1:SW,g2:NE","0.7","12","0","1288017.3","1394.1","6398.6","34333.2","1","4","8","6","2","8","8","17","9","0.12878787878787878","1349.8","3000","1105","[""up"",""right""]","{""num_key_presses"":6,""num_perfect"":5,""num_errors"":0,""num_randdir"":1,""num_randdir_good_moves"":1,""num_whilered"":0,""num_whileblue"":0,""num_blue"":3,""num_good_moves"":6}","[296.22232142857143,294.12857142857143,0.6,296.22232142857143,294.12857142857143,108.7,296.22232142857143,294.12857142857143,211.7,296.22232142857143,294.12857142857143,312,296.22232142857143,294.12857142857143,412,296.22232142857143,294.12857142857143,513.9,413.22232142857143,169.12857142857143,620.8,480.22232142857143,93.12857142857143,726.5,480.22232142857143,93.12857142857143,828.6,480.22232142857143,93.12857142857143,934,515.2223214285714,62.128571428571426,1041.9,521.2223214285714,62.128571428571426,1147.8,521.2223214285714,62.128571428571426,1249.6,521.2223214285714,62.128571428571426,1352.4,521.2223214285714,62.128571428571426,1456.2,521.2223214285714,62.128571428571426,1560.5,521.2223214285714,62.128571428571426,1665.2,828.2223214285714,158.12857142857143,1770.9,862.2223214285714,184.12857142857143,1876.7,862.2223214285714,184.12857142857143,1977.6,862.2223214285714,184.12857142857143,2081.5,862.2223214285714,184.12857142857143,2182.6,862.2223214285714,184.12857142857143,2284.8,862.2223214285714,184.12857142857143,2392.3,862.2223214285714,184.12857142857143,2497.7,862.2223214285714,184.12857142857143,2598.4,862.2223214285714,184.12857142857143,2703.5,862.2223214285714,184.12857142857143,2804.9,862.2223214285714,184.12857142857143,2912.9,862.2223214285714,184.12857142857143,3014.5,862.2223214285714,184.12857142857143,3120.6,862.2223214285714,184.12857142857143,3223.5,862.2223214285714,184.12857142857143,3330.8,862.2223214285714,184.12857142857143,3433.3,862.2223214285714,184.12857142857143,3537.6,862.2223214285714,184.12857142857143,3643.8,862.2223214285714,184.12857142857143,3748.8,862.2223214285714,184.12857142857143,3848.8,862.2223214285714,184.12857142857143,3955.4,862.2223214285714,184.12857142857143,4055.8,862.2223214285714,184.12857142857143,4160.7,862.2223214285714,184.12857142857143,4266.2,862.2223214285714,184.12857142857143,4371.3,862.2223214285714,184.12857142857143,4474.6,862.2223214285714,184.12857142857143,4574.9,862.2223214285714,184.12857142857143,4676.6,862.2223214285714,184.12857142857143,4783.4,862.2223214285714,184.12857142857143,4888.5,862.2223214285714,184.12857142857143,4990.4]","[1465.5,1465.5,1000,0,465.5,""smooth"",""right"",""right"",""good_move"",4662.5,3195.7,2749.5,1466.8,446.2,""oops"",""right"",""right"",""good_move"",15113.4,10449.5,2550.2,12040.2,523.1,""smooth"",""right"",""right"",""good_move"",17785.1,2669.9,1589.6,15115.2,1080.3,""smooth"",""up"",""up"",""good_move"",24089.2,6303.6,2853.8,20776.8,458.6,""smooth"",""up"",""up"",""good_move"",27791,3701.5,3299.4,24089.5,402.1,""smooth"",""up"",""up"",""good_move""]"
"5886","","<div style=""width:500px;"">
  <p>What determined the result of this run?</p>
  </div>","77","html-slider-response","69","1329525","0.0-7.0-1.11","213","1","2025-08-06 17:52:37","36c45c0696341be0efffe67d72a12abb","94.10.147.75","Mozilla/5.0 (Windows NT 10.0; Win64; x64) AppleWebKit/537.36 (KHTML, like Gecko) Chrome/138.0.0.0 Safari/537.36 Edg/138.0.0.0","WebKit","Edge","138.0.0.0","Windows","10.0","https://app.prolific.com/","en-GB,en;q=0.9,en-US;q=0.8","6702f60844f21087e0840e3d","6877649eabb845cf142cd221","6893950736c74074d78aa3cf","1","6702f60844f21087e0840e3d","1","2025-08-06T18:14:48.845Z","","","","AttribQ","","","","","","","","","","","50","","","","","","","","","","","","","","","","","","","","","","","","","","",""
"3624","","<div style=""width:500px;"">
  <p>How much control did you have over the ball?</p>
  </div>","68","html-slider-response","70","1333150","0.0-7.0-2.11","213","1","2025-08-06 17:52:37","36c45c0696341be0efffe67d72a12abb","94.10.147.75","Mozilla/5.0 (Windows NT 10.0; Win64; x64) AppleWebKit/537.36 (KHTML, like Gecko) Chrome/138.0.0.0 Safari/537.36 Edg/138.0.0.0","WebKit","Edge","138.0.0.0","Windows","10.0","https://app.prolific.com/","en-GB,en;q=0.9,en-US;q=0.8","6702f60844f21087e0840e3d","6877649eabb845cf142cd221","6893950736c74074d78aa3cf","1","6702f60844f21087e0840e3d","1","2025-08-06T18:14:52.470Z","","","","ControlQ","","","","","","","","","","","50","","","","","","","","","","","","","","","","","","","","","","","","","","",""
"18863","","<div style=""width:500px;"">
  <p>How would you describe your current emotional state?</p>
  </div>","48","html-slider-response","71","1352016","0.0-7.0-3.11","213","1","2025-08-06 17:52:37","36c45c0696341be0efffe67d72a12abb","94.10.147.75","Mozilla/5.0 (Windows NT 10.0; Win64; x64) AppleWebKit/537.36 (KHTML, like Gecko) Chrome/138.0.0.0 Safari/537.36 Edg/138.0.0.0","WebKit","Edge","138.0.0.0","Windows","10.0","https://app.prolific.com/","en-GB,en;q=0.9,en-US;q=0.8","6702f60844f21087e0840e3d","6877649eabb845cf142cd221","6893950736c74074d78aa3cf","1","6702f60844f21087e0840e3d","1","2025-08-06T18:15:11.336Z","","","","StressQ","","","","","","","","","","","50","","","","","","","","","","","","","","","","","","","","","","","","","","",""
"9156","","<div style=""width:500px;"">
  <p>What best describes how you currently feel?</p>
  </div>","54","html-slider-response","72","1361175","0.0-7.0-4.11","213","1","2025-08-06 17:52:37","36c45c0696341be0efffe67d72a12abb","94.10.147.75","Mozilla/5.0 (Windows NT 10.0; Win64; x64) AppleWebKit/537.36 (KHTML, like Gecko) Chrome/138.0.0.0 Safari/537.36 Edg/138.0.0.0","WebKit","Edge","138.0.0.0","Windows","10.0","https://app.prolific.com/","en-GB,en;q=0.9,en-US;q=0.8","6702f60844f21087e0840e3d","6877649eabb845cf142cd221","6893950736c74074d78aa3cf","1","6702f60844f21087e0840e3d","1","2025-08-06T18:15:20.495Z","","","","MotivationQ","","","","","","","","","","","50","","","","","","","","","","","","","","","","","","","","","","","","","","",""
"","","","","ctl-task-cpt","73","1411143","0.0-7.0-0.12","213","1","2025-08-06 17:52:37","36c45c0696341be0efffe67d72a12abb","94.10.147.75","Mozilla/5.0 (Windows NT 10.0; Win64; x64) AppleWebKit/537.36 (KHTML, like Gecko) Chrome/138.0.0.0 Safari/537.36 Edg/138.0.0.0","WebKit","Edge","138.0.0.0","Windows","10.0","https://app.prolific.com/","en-GB,en;q=0.9,en-US;q=0.8","6702f60844f21087e0840e3d","6877649eabb845cf142cd221","6893950736c74074d78aa3cf","1","6702f60844f21087e0840e3d","1","2025-08-06T18:16:10.464Z","","","","","","","","","","","","","","","","win-only","2","g1:SE,g2:NW","0.8","13","0","1362913.5","1504.9","6511.1","46942.2","1","4","4","6","2","4","4","21","17","0.1590909090909091","1387.3","3000","30","[""left"",""up""]","{""num_key_presses"":10,""num_perfect"":8,""num_errors"":0,""num_randdir"":2,""num_randdir_good_moves"":0,""num_whilered"":0,""num_whileblue"":0,""num_blue"":3,""num_good_moves"":8}","[296.22232142857143,297.12857142857143,0.9,296.22232142857143,297.12857142857143,104.5,296.22232142857143,297.12857142857143,206.9,296.22232142857143,297.12857142857143,314.1,296.22232142857143,297.12857142857143,419.1,296.22232142857143,297.12857142857143,522.1,296.22232142857143,297.12857142857143,623.2,296.22232142857143,297.12857142857143,724.7,180.22232142857143,162.12857142857143,826.3,106.22232142857143,53.128571428571426,940.5,102.22232142857143,40.128571428571426,1047.6,83.22232142857143,41.128571428571426,1151,82.22232142857143,41.128571428571426,1258.8,82.22232142857143,41.128571428571426,1361.2,82.22232142857143,41.128571428571426,1470.3,82.22232142857143,41.128571428571426,1574.7,82.22232142857143,41.128571428571426,1678.8,82.22232142857143,41.128571428571426,1782.2,-134.77767857142857,112.12857142857143,1883.6,-185.77767857142857,147.12857142857143,1984.8,-185.77767857142857,147.12857142857143,2091.1,-185.77767857142857,147.12857142857143,2191.6,-185.77767857142857,147.12857142857143,2296.4,-185.77767857142857,147.12857142857143,2408.1,-185.77767857142857,147.12857142857143,2512.3,-185.77767857142857,147.12857142857143,2618,-185.77767857142857,147.12857142857143,2726.1,-185.77767857142857,147.12857142857143,2831.1,-185.77767857142857,147.12857142857143,2933.1,-185.77767857142857,147.12857142857143,3033.6,-185.77767857142857,147.12857142857143,3142,-185.77767857142857,147.12857142857143,3248.6,-185.77767857142857,147.12857142857143,3370.5,-185.77767857142857,147.12857142857143,3472.7,-185.77767857142857,147.12857142857143,3576.4,-185.77767857142857,147.12857142857143,3676.9,-185.77767857142857,147.12857142857143,3784.3,-185.77767857142857,147.12857142857143,3889.5,-185.77767857142857,147.12857142857143,3991,-185.77767857142857,147.12857142857143,4092.1,-185.77767857142857,147.12857142857143,4192.4,-185.77767857142857,147.12857142857143,4292.6,-185.77767857142857,147.12857142857143,4401,-185.77767857142857,147.12857142857143,4506.8,-185.77767857142857,147.12857142857143,4612.7,-185.77767857142857,147.12857142857143,4721.7,-185.77767857142857,147.12857142857143,4826.3,-185.77767857142857,147.12857142857143,4929.9]","[1483.7,1483.6,1000,0.1,483.6,""smooth"",""left"",""left"",""good_move"",4535.4,3051.3,2557.8,1484.1,493.6,""smooth"",""left"",""left"",""good_move"",7059.8,2523.8,2009.6,4536,514.2,""oops"",""left"",""down"",""bad_move"",9771.2,2708.1,2213.4,7063.1,494.7,""smooth"",""left"",""left"",""good_move"",17016.6,7244.7,3017.1,13576.4,423.1,""smooth"",""up"",""up"",""good_move"",20725.2,3708.1,3199.6,17017.1,508.5,""smooth"",""up"",""up"",""good_move"",28286.7,7560.8,3288.5,24511.8,486.4,""smooth"",""up"",""up"",""good_move"",31211.6,2924.5,2372,28287.1,552.5,""oops"",""up"",""right"",""bad_move"",37379.9,6166.9,2380.8,34608.7,390.5,""smooth"",""left"",""left"",""good_move"",40300.3,2919.5,2472.6,37380.9,446.8,""smooth"",""up"",""up"",""good_move""]"
"4378","","<div style=""width:500px;"">
  <p>What determined the result of this run?</p>
  </div>","54","html-slider-response","74","1415523","0.0-7.0-1.12","213","1","2025-08-06 17:52:37","36c45c0696341be0efffe67d72a12abb","94.10.147.75","Mozilla/5.0 (Windows NT 10.0; Win64; x64) AppleWebKit/537.36 (KHTML, like Gecko) Chrome/138.0.0.0 Safari/537.36 Edg/138.0.0.0","WebKit","Edge","138.0.0.0","Windows","10.0","https://app.prolific.com/","en-GB,en;q=0.9,en-US;q=0.8","6702f60844f21087e0840e3d","6877649eabb845cf142cd221","6893950736c74074d78aa3cf","1","6702f60844f21087e0840e3d","1","2025-08-06T18:16:14.843Z","","","","AttribQ","","","","","","","","","","","50","","","","","","","","","","","","","","","","","","","","","","","","","","",""
"3695","","<div style=""width:500px;"">
  <p>How much control did you have over the ball?</p>
  </div>","54","html-slider-response","75","1419219","0.0-7.0-2.12","213","1","2025-08-06 17:52:37","36c45c0696341be0efffe67d72a12abb","94.10.147.75","Mozilla/5.0 (Windows NT 10.0; Win64; x64) AppleWebKit/537.36 (KHTML, like Gecko) Chrome/138.0.0.0 Safari/537.36 Edg/138.0.0.0","WebKit","Edge","138.0.0.0","Windows","10.0","https://app.prolific.com/","en-GB,en;q=0.9,en-US;q=0.8","6702f60844f21087e0840e3d","6877649eabb845cf142cd221","6893950736c74074d78aa3cf","1","6702f60844f21087e0840e3d","1","2025-08-06T18:16:18.539Z","","","","ControlQ","","","","","","","","","","","50","","","","","","","","","","","","","","","","","","","","","","","","","","",""
"6170","","<div style=""width:500px;"">
  <p>How would you describe your current emotional state?</p>
  </div>","50","html-slider-response","76","1425390","0.0-7.0-3.12","213","1","2025-08-06 17:52:37","36c45c0696341be0efffe67d72a12abb","94.10.147.75","Mozilla/5.0 (Windows NT 10.0; Win64; x64) AppleWebKit/537.36 (KHTML, like Gecko) Chrome/138.0.0.0 Safari/537.36 Edg/138.0.0.0","WebKit","Edge","138.0.0.0","Windows","10.0","https://app.prolific.com/","en-GB,en;q=0.9,en-US;q=0.8","6702f60844f21087e0840e3d","6877649eabb845cf142cd221","6893950736c74074d78aa3cf","1","6702f60844f21087e0840e3d","1","2025-08-06T18:16:24.710Z","","","","StressQ","","","","","","","","","","","50","","","","","","","","","","","","","","","","","","","","","","","","","","",""
"8523","","<div style=""width:500px;"">
  <p>What best describes how you currently feel?</p>
