"rt","response_timestamp","stimulus","response","trial_type","trial_index","time_elapsed","internal_node_id","run_id","condition","recorded_at","source_code_version","ip","user_agent","device","browser","browser_version","platform","platform_version","referer","accept_language","PROLIFIC_PID","STUDY_ID","SESSION_ID","BATCH","prolific_id","batch","realtime","success","question_order","question_id","eventType","responses","item_order","radio_event_ids","radio_event_times","key_event_times","mouse_event_times","straightlining","zigzagging","honeypot","view_history","slider_start","which_type","canvas_config","goals_layout","control_level","trial_number","tutorial_trial_number","trial_start_time","phase1_start_time","phase2_start_time","phase3_start_time","goal_1_value","goal_1_distance","goal_2_value","goal_2_distance","goal_selected","outcome","outcome_total","participant_final_score","participant_initial_score","participant_final_score_prop","goal_choice_rt","allocated_time","allocated_time_remaining","goal_direction","counts","mouse_movements","key_presses"
"18324","1754470920377","<p style='font-size:40px;line-height:1.25'><strong>Welcome to the experiment!</strong></p><p style='font-size:1.1em;line-height:1.25'>Thank you for participanting in our experiment again! You will be asked to play the Dysfunctional Ball Game again. We will briefly recap the rules before we start.</p><p style='font-size:1.1em;line-height:1.25'>Press <strong>Next</strong> to continue.</p>","0","custom-html-button-response","0","18354","0.0-0.0","150","1","2025-08-06 09:01:39","36c45c0696341be0efffe67d72a12abb","105.245.111.55","Mozilla/5.0 (Windows NT 10.0; Win64; x64) AppleWebKit/537.36 (KHTML, like Gecko) Chrome/138.0.0.0 Safari/537.36","WebKit","Chrome","138.0.0.0","Windows","10.0","https://app.prolific.com/","en-GB,en-US;q=0.9,en;q=0.8","671d0e15c134a5355de39a6d","687a1a965b9f5b85a264363e","689319322a0317ad7feb1a7b","1","671d0e15c134a5355de39a6d","1","2025-08-06T09:02:00.405Z","","","","","","","","","","","","","","","","","","","","","","","","","","","","","","","","","","","","","","","","","",""
"13552","","","","fullscreen","1","32951","0.0-1.0","150","1","2025-08-06 09:01:39","36c45c0696341be0efffe67d72a12abb","105.245.111.55","Mozilla/5.0 (Windows NT 10.0; Win64; x64) AppleWebKit/537.36 (KHTML, like Gecko) Chrome/138.0.0.0 Safari/537.36","WebKit","Chrome","138.0.0.0","Windows","10.0","https://app.prolific.com/","en-GB,en-US;q=0.9,en;q=0.8","671d0e15c134a5355de39a6d","687a1a965b9f5b85a264363e","689319322a0317ad7feb1a7b","1","671d0e15c134a5355de39a6d","1","","true","","","","","","","","","","","","","","","","","","","","","","","","","","","","","","","","","","","","","","","","",""
"10785","1754470945792"," <p style='font-size:1.1em;line-height:1.25'>Thank you for closing all other tabs.</p><p style='font-size:1.1em;line-height:1.25'>We will now invite you to fill in some questionnaires, before starting the game.<br>This will take about 5 minutes.<br></p><p style='font-size:1.1em;line-height:1.25'>Press the <strong>Next</strong> button to continue.</p>","0","custom-html-button-response","2","43742","0.0-2.0","150","1","2025-08-06 09:01:39","36c45c0696341be0efffe67d72a12abb","105.245.111.55","Mozilla/5.0 (Windows NT 10.0; Win64; x64) AppleWebKit/537.36 (KHTML, like Gecko) Chrome/138.0.0.0 Safari/537.36","WebKit","Chrome","138.0.0.0","Windows","10.0","https://app.prolific.com/","en-GB,en-US;q=0.9,en;q=0.8","671d0e15c134a5355de39a6d","687a1a965b9f5b85a264363e","689319322a0317ad7feb1a7b","1","671d0e15c134a5355de39a6d","1","2025-08-06T09:02:25.793Z","","","","","","","","","","","","","","","","","","","","","","","","","","","","","","","","","","","","","","","","","",""
"9331","","","{""assigned_sex"":""female""}","survey-multi-choice","3","53102","0.0-3.0-0.0","150","1","2025-08-06 09:01:39","36c45c0696341be0efffe67d72a12abb","105.245.111.55","Mozilla/5.0 (Windows NT 10.0; Win64; x64) AppleWebKit/537.36 (KHTML, like Gecko) Chrome/138.0.0.0 Safari/537.36","WebKit","Chrome","138.0.0.0","Windows","10.0","https://app.prolific.com/","en-GB,en-US;q=0.9,en;q=0.8","671d0e15c134a5355de39a6d","687a1a965b9f5b85a264363e","689319322a0317ad7feb1a7b","1","671d0e15c134a5355de39a6d","1","","","[0]","0","demographics","","","","","","","","","","","","","","","","","","","","","","","","","","","","","","","","","","","","","",""
"9331","1754470964487","<p style='font-size:1.1em;line-height:1.25'>In the following, we will perform a baseline assessment. This means that we will ask you a few questions relating to your experiences over the past month.<br></p><p style='font-size:1.1em;line-height:1.25'>Press the <strong>Next</strong> button to continue.</p>","0","custom-html-button-response","4","62438","0.0-4.0-0.0","150","1","2025-08-06 09:01:39","36c45c0696341be0efffe67d72a12abb","105.245.111.55","Mozilla/5.0 (Windows NT 10.0; Win64; x64) AppleWebKit/537.36 (KHTML, like Gecko) Chrome/138.0.0.0 Safari/537.36","WebKit","Chrome","138.0.0.0","Windows","10.0","https://app.prolific.com/","en-GB,en-US;q=0.9,en;q=0.8","671d0e15c134a5355de39a6d","687a1a965b9f5b85a264363e","689319322a0317ad7feb1a7b","1","671d0e15c134a5355de39a6d","1","2025-08-06T09:02:44.489Z","","","","","","","","","","","","","","","","","","","","","","","","","","","","","","","","","","","","","","","","","",""
"202989","","","","survey-template","5","265487","0.0-4.0-1.0","150","1","2025-08-06 09:01:39","36c45c0696341be0efffe67d72a12abb","105.245.111.55","Mozilla/5.0 (Windows NT 10.0; Win64; x64) AppleWebKit/537.36 (KHTML, like Gecko) Chrome/138.0.0.0 Safari/537.36","WebKit","Chrome","138.0.0.0","Windows","10.0","https://app.prolific.com/","en-GB,en-US;q=0.9,en;q=0.8","671d0e15c134a5355de39a6d","687a1a965b9f5b85a264363e","689319322a0317ad7feb1a7b","1","671d0e15c134a5355de39a6d","1","2025-08-06T09:06:07.537Z","","","","pss","{""Q01"":""1"",""Q02"":""1"",""Q03"":""1"",""Q04"":""0"",""Q05"":""0"",""Q06"":""0"",""Q07"":""0"",""Q08"":""0"",""Q09"":""1"",""Q10"":""0""}","[0,1,2,3,4,5,6,7,8,9]","[""Q02"",""Q01"",""Q03"",""Q04"",""Q05"",""Q06"",""Q07"",""Q08"",""Q09"",""Q10""]","[10252.100000143051,11942.299999952316,28681.299999952316,33388.10000014305,44433.60000014305,55594.90000009537,75083.5,80973.60000014305,86818.70000004768,99448.10000014305]","[]","[0.2999999523162842,10252.100000143051,11942.299999952316,28681.299999952316,33388.10000014305,44433.60000014305,55594.90000009537,73806.90000009537,75083.5,80973.60000014305,86818.70000004768,98387.60000014305,99448.10000014305,202977.90000009537]","0.4","0.3333333333333333","0","","","","","","","","","","","","","","","","","","","","","","","","","","","","",""
"6266","1754471173806","<p style='font-size:1.1em;line-height:1.25'>Thank you for your answers! Now we will ask you a few more questions relating to your feelings in the last 24 hours.<br></p><p style='font-size:1.1em;line-height:1.25'>Press the <strong>Next</strong> button to continue.</p>","0","custom-html-button-response","6","271759","0.0-4.0-2.0","150","1","2025-08-06 09:01:39","36c45c0696341be0efffe67d72a12abb","105.245.111.55","Mozilla/5.0 (Windows NT 10.0; Win64; x64) AppleWebKit/537.36 (KHTML, like Gecko) Chrome/138.0.0.0 Safari/537.36","WebKit","Chrome","138.0.0.0","Windows","10.0","https://app.prolific.com/","en-GB,en-US;q=0.9,en;q=0.8","671d0e15c134a5355de39a6d","687a1a965b9f5b85a264363e","689319322a0317ad7feb1a7b","1","671d0e15c134a5355de39a6d","1","2025-08-06T09:06:13.809Z","","","","","","","","","","","","","","","","","","","","","","","","","","","","","","","","","","","","","","","","","",""
"100175.10000014305","","","","survey-template","7","371952","0.0-4.0-3.0","150","1","2025-08-06 09:01:39","36c45c0696341be0efffe67d72a12abb","105.245.111.55","Mozilla/5.0 (Windows NT 10.0; Win64; x64) AppleWebKit/537.36 (KHTML, like Gecko) Chrome/138.0.0.0 Safari/537.36","WebKit","Chrome","138.0.0.0","Windows","10.0","https://app.prolific.com/","en-GB,en-US;q=0.9,en;q=0.8","671d0e15c134a5355de39a6d","687a1a965b9f5b85a264363e","689319322a0317ad7feb1a7b","1","671d0e15c134a5355de39a6d","1","2025-08-06T09:07:54.002Z","","","","drsp","{""Q01"":""1"",""Q02"":""0"",""Q03"":""0"",""Q04"":""1"",""Q05"":""1"",""Q06"":""0"",""Q07"":""0"",""Q08"":""0"",""Q09"":""0"",""Q10"":""1"",""Q11"":""1"",""Q12"":""2"",""Q13"":""5"",""Q14"":""2"",""Q15"":""0"",""Q16"":""0"",""Q17"":""1"",""Q18"":""1"",""Q19"":""2"",""Q20"":""1"",""Q21"":""1"",""Q22"":""0""}","[0,1,2,3,4,5,6,7,8,9,10,11,12,13,14,15,16,17,18,19,20,21]","[""Q01"",""Q02"",""Q03"",""Q04"",""Q05"",""Q06"",""Q07"",""Q08"",""Q09"",""Q10"",""Q11"",""Q12"",""Q13"",""Q14"",""Q14"",""Q15"",""Q16"",""Q17"",""Q18"",""Q19"",""Q20"",""Q20"",""Q17"",""Q18"",""Q21"",""Q22""]","[6209.200000047684,7689,9135.5,11704.100000143051,13573,16244,19072.5,21019,26371.60000014305,28556.900000095367,30652.60000014305,34109.5,42205.299999952316,46455,49445.799999952316,54993.700000047684,58004.90000009537,60144.90000009537,63825.700000047684,70957.70000004768,77531.5,79449.79999995232,85074.5,86255.5,94431.79999995232,98572.5]","[]","[0.20000004768371582,4046,6209.200000047684,7689,9135.5,11704.100000143051,13573,16244,19072.5,21019,26371.60000014305,28556.900000095367,30652.60000014305,34109.5,42205.299999952316,46455,49445.799999952316,54993.700000047684,58004.90000009537,60144.90000009537,63825.700000047684,70957.70000004768,77531.5,79449.79999995232,85074.5,86255.5,94431.79999995232,98572.5,100157.90000009537]","0.4090909090909091","0.42857142857142855","0","","","","","","","","","","","","","","","","","","","","","","","","","","","","",""
"13361.100000143051","","","","survey-template","8","385320","0.0-4.0-4.0","150","1","2025-08-06 09:01:39","36c45c0696341be0efffe67d72a12abb","105.245.111.55","Mozilla/5.0 (Windows NT 10.0; Win64; x64) AppleWebKit/537.36 (KHTML, like Gecko) Chrome/138.0.0.0 Safari/537.36","WebKit","Chrome","138.0.0.0","Windows","10.0","https://app.prolific.com/","en-GB,en-US;q=0.9,en;q=0.8","671d0e15c134a5355de39a6d","687a1a965b9f5b85a264363e","689319322a0317ad7feb1a7b","1","671d0e15c134a5355de39a6d","1","2025-08-06T09:08:07.371Z","","","","stress","{""Q01"":""1"",""Q02"":""0"",""Q03"":""0""}","[0,1,2]","[""Q01"",""Q02"",""Q03""]","[3846.800000190735,7023.900000095367,11653.5]","[]","[3846.800000190735,7023.900000095367,11653.5,13357.900000095367]","0.3333333333333333","0.5","0","","","","","","","","","","","","","","","","","","","","","","","","","","","","",""
"118723","","","","instructions","9","504048","0.0-5.0-0.0","150","1","2025-08-06 09:01:39","36c45c0696341be0efffe67d72a12abb","105.245.111.55","Mozilla/5.0 (Windows NT 10.0; Win64; x64) AppleWebKit/537.36 (KHTML, like Gecko) Chrome/138.0.0.0 Safari/537.36","WebKit","Chrome","138.0.0.0","Windows","10.0","https://app.prolific.com/","en-GB,en-US;q=0.9,en;q=0.8","671d0e15c134a5355de39a6d","687a1a965b9f5b85a264363e","689319322a0317ad7feb1a7b","1","671d0e15c134a5355de39a6d","1","","","","","","","","","","","","","","","[{""page_index"":0,""viewing_time"":118721}]","","","","","","","","","","","","","","","","","","","","","","","","","","","",""
"21710","","<p>Before you start with this game please answer the following three questions yourself. </p>
  <p>Through this game, we measure several aspects of your cognitive performance, such as reaction times, multi-tasking capabilities </p>
  <p>and the ability to assess the situation you are in.</p>
  <p></p>
  <p><b>How good do you usually are in such tasks?</b></p>","94","html-slider-response","10","525811","0.0-6.0-0.0","150","1","2025-08-06 09:01:39","36c45c0696341be0efffe67d72a12abb","105.245.111.55","Mozilla/5.0 (Windows NT 10.0; Win64; x64) AppleWebKit/537.36 (KHTML, like Gecko) Chrome/138.0.0.0 Safari/537.36","WebKit","Chrome","138.0.0.0","Windows","10.0","https://app.prolific.com/","en-GB,en-US;q=0.9,en;q=0.8","671d0e15c134a5355de39a6d","687a1a965b9f5b85a264363e","689319322a0317ad7feb1a7b","1","671d0e15c134a5355de39a6d","1","2025-08-06T09:10:27.861Z","","","","PreSkillQ","","","","","","","","","","","50","","","","","","","","","","","","","","","","","","","","","","","","","","",""
"11169","","<div style=""width:500px;"">
  <p>How well do you think you will perform in this task compared to other participants?</p>
  </div>","99","html-slider-response","11","536984","0.0-6.0-1.0","150","1","2025-08-06 09:01:39","36c45c0696341be0efffe67d72a12abb","105.245.111.55","Mozilla/5.0 (Windows NT 10.0; Win64; x64) AppleWebKit/537.36 (KHTML, like Gecko) Chrome/138.0.0.0 Safari/537.36","WebKit","Chrome","138.0.0.0","Windows","10.0","https://app.prolific.com/","en-GB,en-US;q=0.9,en;q=0.8","671d0e15c134a5355de39a6d","687a1a965b9f5b85a264363e","689319322a0317ad7feb1a7b","1","671d0e15c134a5355de39a6d","1","2025-08-06T09:10:39.034Z","","","","PrePerfQ","","","","","","","","","","","50","","","","","","","","","","","","","","","","","","","","","","","","","","",""
"7469","","<div style=""width:500px;"">
  <p>What best describes how you currently feel?</p>
  </div>","100","html-slider-response","12","544457","0.0-6.0-2.0","150","1","2025-08-06 09:01:39","36c45c0696341be0efffe67d72a12abb","105.245.111.55","Mozilla/5.0 (Windows NT 10.0; Win64; x64) AppleWebKit/537.36 (KHTML, like Gecko) Chrome/138.0.0.0 Safari/537.36","WebKit","Chrome","138.0.0.0","Windows","10.0","https://app.prolific.com/","en-GB,en-US;q=0.9,en;q=0.8","671d0e15c134a5355de39a6d","687a1a965b9f5b85a264363e","689319322a0317ad7feb1a7b","1","671d0e15c134a5355de39a6d","1","2025-08-06T09:10:46.507Z","","","","PreMotivationQ","","","","","","","","","","","50","","","","","","","","","","","","","","","","","","","","","","","","","","",""
"","","","","ctl-task-cpt","13","573321","0.0-7.0-0.0","150","1","2025-08-06 09:01:39","36c45c0696341be0efffe67d72a12abb","105.245.111.55","Mozilla/5.0 (Windows NT 10.0; Win64; x64) AppleWebKit/537.36 (KHTML, like Gecko) Chrome/138.0.0.0 Safari/537.36","WebKit","Chrome","138.0.0.0","Windows","10.0","https://app.prolific.com/","en-GB,en-US;q=0.9,en;q=0.8","671d0e15c134a5355de39a6d","687a1a965b9f5b85a264363e","689319322a0317ad7feb1a7b","1","671d0e15c134a5355de39a6d","1","2025-08-06T09:11:15.371Z","","","","","","","","","","","","","","","","win-only","1","g1:NE,g2:SW","1","1","0","548672.7","5694.3","10703","25805.8","1","4","4","6","2","4","4","4","0","0.030303030303030304","1535.8","3000","1230","[""down"",""left""]","{""num_key_presses"":6,""num_perfect"":6,""num_errors"":0,""num_randdir"":0,""num_randdir_good_moves"":0,""num_whilered"":0,""num_whileblue"":0,""num_blue"":0,""num_good_moves"":6}","[291.22232142857143,297.12857142857143,21.8,291.22232142857143,297.12857142857143,102.4,291.22232142857143,297.12857142857143,205,291.22232142857143,297.12857142857143,308.9,291.22232142857143,297.12857142857143,408.9,291.22232142857143,297.12857142857143,511.3,291.22232142857143,297.12857142857143,613.6,291.22232142857143,297.12857142857143,718.9,240.22232142857143,353.12857142857143,825.6,160.22232142857143,432.12857142857143,930.6,136.22232142857143,460.12857142857143,1033.1,106.22232142857143,489.12857142857143,1137,73.22232142857143,534.1285714285714,1245.9,68.22232142857143,536.1285714285714,1349.7,68.22232142857143,536.1285714285714,1458.6,68.22232142857143,536.1285714285714,1563.1,68.22232142857143,536.1285714285714,1667.6,68.22232142857143,536.1285714285714,1773.8,68.22232142857143,536.1285714285714,1875.8,68.22232142857143,536.1285714285714,1982.1,68.22232142857143,536.1285714285714,2087,68.22232142857143,536.1285714285714,2187.8,68.22232142857143,536.1285714285714,2295.2,68.22232142857143,536.1285714285714,2402.1,68.22232142857143,536.1285714285714,2507.5,68.22232142857143,536.1285714285714,2608,68.22232142857143,536.1285714285714,2709.9,68.22232142857143,536.1285714285714,2816.8,68.22232142857143,536.1285714285714,2917.4,68.22232142857143,536.1285714285714,3019,68.22232142857143,536.1285714285714,3124.7,68.22232142857143,536.1285714285714,3232.8,68.22232142857143,536.1285714285714,3334.2,68.22232142857143,536.1285714285714,3441.9,68.22232142857143,536.1285714285714,3545.5,68.22232142857143,536.1285714285714,3652.9,68.22232142857143,536.1285714285714,3761.5,68.22232142857143,536.1285714285714,3867.9,68.22232142857143,536.1285714285714,3969.4,68.22232142857143,536.1285714285714,4080.4,68.22232142857143,536.1285714285714,4185.7,68.22232142857143,536.1285714285714,4288.8,68.22232142857143,536.1285714285714,4390.7,68.22232142857143,536.1285714285714,4493,68.22232142857143,536.1285714285714,4598.7,68.22232142857143,536.1285714285714,4708.6,68.22232142857143,536.1285714285714,4809.2,68.22232142857143,536.1285714285714,4916.4]","[1430,1430,1000,0,430.1,""smooth"",""down"",""down"",""good_move"",3914.6,2483.1,2076.2,1431.5,406.9,""smooth"",""down"",""down"",""good_move"",6627.5,2712,2339.8,3915.6,372.1,""smooth"",""down"",""down"",""good_move"",9398.8,2769.7,2318.3,6629.1,451.4,""smooth"",""left"",""left"",""good_move"",12237,2836.4,2447,9400.6,389.4,""smooth"",""left"",""left"",""good_move"",14976.7,2738,2355.5,12238.7,382.5,""smooth"",""left"",""left"",""good_move""]"
"6218","","<div style=""width:500px;"">
  <p>What determined the result of this run?</p>
  </div>","100","html-slider-response","14","579543","0.0-7.0-1.0","150","1","2025-08-06 09:01:39","36c45c0696341be0efffe67d72a12abb","105.245.111.55","Mozilla/5.0 (Windows NT 10.0; Win64; x64) AppleWebKit/537.36 (KHTML, like Gecko) Chrome/138.0.0.0 Safari/537.36","WebKit","Chrome","138.0.0.0","Windows","10.0","https://app.prolific.com/","en-GB,en-US;q=0.9,en;q=0.8","671d0e15c134a5355de39a6d","687a1a965b9f5b85a264363e","689319322a0317ad7feb1a7b","1","671d0e15c134a5355de39a6d","1","2025-08-06T09:11:21.593Z","","","","AttribQ","","","","","","","","","","","50","","","","","","","","","","","","","","","","","","","","","","","","","","",""
"7154","","<div style=""width:500px;"">
  <p>How much control did you have over the ball?</p>
  </div>","100","html-slider-response","15","586701","0.0-7.0-2.0","150","1","2025-08-06 09:01:39","36c45c0696341be0efffe67d72a12abb","105.245.111.55","Mozilla/5.0 (Windows NT 10.0; Win64; x64) AppleWebKit/537.36 (KHTML, like Gecko) Chrome/138.0.0.0 Safari/537.36","WebKit","Chrome","138.0.0.0","Windows","10.0","https://app.prolific.com/","en-GB,en-US;q=0.9,en;q=0.8","671d0e15c134a5355de39a6d","687a1a965b9f5b85a264363e","689319322a0317ad7feb1a7b","1","671d0e15c134a5355de39a6d","1","2025-08-06T09:11:28.751Z","","","","ControlQ","","","","","","","","","","","50","","","","","","","","","","","","","","","","","","","","","","","","","","",""
"5674","","<div style=""width:500px;"">
  <p>How would you describe your current emotional state?</p>
  </div>","0","html-slider-response","16","592380","0.0-7.0-3.0","150","1","2025-08-06 09:01:39","36c45c0696341be0efffe67d72a12abb","105.245.111.55","Mozilla/5.0 (Windows NT 10.0; Win64; x64) AppleWebKit/537.36 (KHTML, like Gecko) Chrome/138.0.0.0 Safari/537.36","WebKit","Chrome","138.0.0.0","Windows","10.0","https://app.prolific.com/","en-GB,en-US;q=0.9,en;q=0.8","671d0e15c134a5355de39a6d","687a1a965b9f5b85a264363e","689319322a0317ad7feb1a7b","1","671d0e15c134a5355de39a6d","1","2025-08-06T09:11:34.430Z","","","","StressQ","","","","","","","","","","","50","","","","","","","","","","","","","","","","","","","","","","","","","","",""
"6421","","<div style=""width:500px;"">
  <p>What best describes how you currently feel?</p>
  </div>","100","html-slider-response","17","598804","0.0-7.0-4.0","150","1","2025-08-06 09:01:39","36c45c0696341be0efffe67d72a12abb","105.245.111.55","Mozilla/5.0 (Windows NT 10.0; Win64; x64) AppleWebKit/537.36 (KHTML, like Gecko) Chrome/138.0.0.0 Safari/537.36","WebKit","Chrome","138.0.0.0","Windows","10.0","https://app.prolific.com/","en-GB,en-US;q=0.9,en;q=0.8","671d0e15c134a5355de39a6d","687a1a965b9f5b85a264363e","689319322a0317ad7feb1a7b","1","671d0e15c134a5355de39a6d","1","2025-08-06T09:11:40.854Z","","","","MotivationQ","","","","","","","","","","","50","","","","","","","","","","","","","","","","","","","","","","","","","","",""
"","","","","ctl-task-cpt","18","636421","0.0-7.0-0.1","150","1","2025-08-06 09:01:39","36c45c0696341be0efffe67d72a12abb","105.245.111.55","Mozilla/5.0 (Windows NT 10.0; Win64; x64) AppleWebKit/537.36 (KHTML, like Gecko) Chrome/138.0.0.0 Safari/537.36","WebKit","Chrome","138.0.0.0","Windows","10.0","https://app.prolific.com/","en-GB,en-US;q=0.9,en;q=0.8","671d0e15c134a5355de39a6d","687a1a965b9f5b85a264363e","689319322a0317ad7feb1a7b","1","671d0e15c134a5355de39a6d","1","2025-08-06T09:12:18.472Z","","","","","","","","","","","","","","","","win-only","2","g1:SE,g2:NW","0.9","2","0","603021.2","1444.8","6457.5","34574.2","1","4","8","6","2","8","7","11","4","0.08333333333333333","1766","3000","420","[""left"",""up""]","{""num_key_presses"":10,""num_perfect"":8,""num_errors"":1,""num_randdir"":1,""num_randdir_good_moves"":0,""num_whilered"":0,""num_whileblue"":1,""num_blue"":1,""num_good_moves"":8}","[294.22232142857143,293.12857142857143,0.7,294.22232142857143,293.12857142857143,104.8,294.22232142857143,293.12857142857143,211.3,294.22232142857143,293.12857142857143,315.8,294.22232142857143,293.12857142857143,423.7,294.22232142857143,293.12857142857143,532,294.22232142857143,293.12857142857143,638.6,294.22232142857143,293.12857142857143,739,294.22232142857143,293.12857142857143,848,294.22232142857143,293.12857142857143,949.8,245.22232142857143,296.12857142857143,1056.9,-2.7776785714285737,94.12857142857143,1157.3,-9.777678571428574,67.12857142857143,1260.4,-15.777678571428574,53.128571428571426,1362.1,19.222321428571426,53.128571428571426,1466.1,37.222321428571426,64.12857142857143,1572,40.222321428571426,67.12857142857143,1676.9,40.222321428571426,67.12857142857143,1779,40.222321428571426,67.12857142857143,1880.5,40.222321428571426,67.12857142857143,1981,40.222321428571426,67.12857142857143,2084.5,40.222321428571426,67.12857142857143,2187.6,40.222321428571426,67.12857142857143,2287.6,40.222321428571426,67.12857142857143,2392.5,40.222321428571426,67.12857142857143,2495.8,40.222321428571426,67.12857142857143,2601.7,40.222321428571426,67.12857142857143,2705,40.222321428571426,67.12857142857143,2808.9,40.222321428571426,67.12857142857143,2909,40.222321428571426,67.12857142857143,3014.1,40.222321428571426,67.12857142857143,3119.4,40.222321428571426,67.12857142857143,3228.2,40.222321428571426,67.12857142857143,3331,40.222321428571426,67.12857142857143,3433.2,40.222321428571426,67.12857142857143,3546.3,40.222321428571426,67.12857142857143,3658.6,40.222321428571426,67.12857142857143,3762.9,40.222321428571426,67.12857142857143,3866.2,40.222321428571426,67.12857142857143,3969.5,40.222321428571426,67.12857142857143,4074.2,40.222321428571426,67.12857142857143,4174.4,40.222321428571426,67.12857142857143,4280.7,40.222321428571426,67.12857142857143,4390.1,40.222321428571426,67.12857142857143,4493.3,40.222321428571426,67.12857142857143,4597.2,40.222321428571426,67.12857142857143,4705.5,40.222321428571426,67.12857142857143,4818.9,40.222321428571426,67.12857142857143,4928.4]","[1387.1,1387.1,1000,0,387.1,""smooth"",""up"",""up"",""good_move"",4262.5,2874.5,2516.8,1388,357.7,""smooth"",""left"",""left"",""good_move"",6460.4,2197,1785.8,4263.4,411.2,""oops"",""left"",""down"",""bad_move"",8969.8,2505.2,2213.6,6464.6,291.6,""smooth"",""up"",""up"",""good_move"",11806,2834.5,2467,8971.5,367.5,""smooth"",""up"",""up"",""good_move"",15757.3,3950.4,3546.2,11806.9,404.2,""smooth"",""up"",""up"",""good_move"",18909.7,3151.4,2830.2,15758.3,321.2,""while_blue"",""left"",""right"",""bad_move"",21447.7,2536.1,2138.4,18911.7,397.7,""smooth"",""left"",""left"",""good_move"",24426.5,2977.9,2626,21448.7,351.8,""smooth"",""left"",""left"",""good_move"",27958.8,3529.8,3022.3,24429,507.5,""smooth"",""left"",""left"",""good_move""]"
"5696","","<div style=""width:500px;"">
  <p>What determined the result of this run?</p>
  </div>","100","html-slider-response","19","642121","0.0-7.0-1.1","150","1","2025-08-06 09:01:39","36c45c0696341be0efffe67d72a12abb","105.245.111.55","Mozilla/5.0 (Windows NT 10.0; Win64; x64) AppleWebKit/537.36 (KHTML, like Gecko) Chrome/138.0.0.0 Safari/537.36","WebKit","Chrome","138.0.0.0","Windows","10.0","https://app.prolific.com/","en-GB,en-US;q=0.9,en;q=0.8","671d0e15c134a5355de39a6d","687a1a965b9f5b85a264363e","689319322a0317ad7feb1a7b","1","671d0e15c134a5355de39a6d","1","2025-08-06T09:12:24.171Z","","","","AttribQ","","","","","","","","","","","50","","","","","","","","","","","","","","","","","","","","","","","","","","",""
"4819","","<div style=""width:500px;"">
  <p>How much control did you have over the ball?</p>
  </div>","100","html-slider-response","20","646945","0.0-7.0-2.1","150","1","2025-08-06 09:01:39","36c45c0696341be0efffe67d72a12abb","105.245.111.55","Mozilla/5.0 (Windows NT 10.0; Win64; x64) AppleWebKit/537.36 (KHTML, like Gecko) Chrome/138.0.0.0 Safari/537.36","WebKit","Chrome","138.0.0.0","Windows","10.0","https://app.prolific.com/","en-GB,en-US;q=0.9,en;q=0.8","671d0e15c134a5355de39a6d","687a1a965b9f5b85a264363e","689319322a0317ad7feb1a7b","1","671d0e15c134a5355de39a6d","1","2025-08-06T09:12:28.996Z","","","","ControlQ","","","","","","","","","","","50","","","","","","","","","","","","","","","","","","","","","","","","","","",""
"5558","","<div style=""width:500px;"">
  <p>How would you describe your current emotional state?</p>
  </div>","0","html-slider-response","21","652507","0.0-7.0-3.1","150","1","2025-08-06 09:01:39","36c45c0696341be0efffe67d72a12abb","105.245.111.55","Mozilla/5.0 (Windows NT 10.0; Win64; x64) AppleWebKit/537.36 (KHTML, like Gecko) Chrome/138.0.0.0 Safari/537.36","WebKit","Chrome","138.0.0.0","Windows","10.0","https://app.prolific.com/","en-GB,en-US;q=0.9,en;q=0.8","671d0e15c134a5355de39a6d","687a1a965b9f5b85a264363e","689319322a0317ad7feb1a7b","1","671d0e15c134a5355de39a6d","1","2025-08-06T09:12:34.557Z","","","","StressQ","","","","","","","","","","","50","","","","","","","","","","","","","","","","","","","","","","","","","","",""
"3929","","<div style=""width:500px;"">
  <p>What best describes how you currently feel?</p>
  </div>","100","html-slider-response","22","656438","0.0-7.0-4.1","150","1","2025-08-06 09:01:39","36c45c0696341be0efffe67d72a12abb","105.245.111.55","Mozilla/5.0 (Windows NT 10.0; Win64; x64) AppleWebKit/537.36 (KHTML, like Gecko) Chrome/138.0.0.0 Safari/537.36","WebKit","Chrome","138.0.0.0","Windows","10.0","https://app.prolific.com/","en-GB,en-US;q=0.9,en;q=0.8","671d0e15c134a5355de39a6d","687a1a965b9f5b85a264363e","689319322a0317ad7feb1a7b","1","671d0e15c134a5355de39a6d","1","2025-08-06T09:12:38.488Z","","","","MotivationQ","","","","","","","","","","","50","","","","","","","","","","","","","","","","","","","","","","","","","","",""
"","","","","ctl-task-cpt","23","686432","0.0-7.0-0.2","150","1","2025-08-06 09:01:39","36c45c0696341be0efffe67d72a12abb","105.245.111.55","Mozilla/5.0 (Windows NT 10.0; Win64; x64) AppleWebKit/537.36 (KHTML, like Gecko) Chrome/138.0.0.0 Safari/537.36","WebKit","Chrome","138.0.0.0","Windows","10.0","https://app.prolific.com/","en-GB,en-US;q=0.9,en;q=0.8","671d0e15c134a5355de39a6d","687a1a965b9f5b85a264363e","689319322a0317ad7feb1a7b","1","671d0e15c134a5355de39a6d","1","2025-08-06T09:13:08.482Z","","","","","","","","","","","","","","","","win-only","1","g1:NE,g2:SW","0.8","3","0","660638.4","1422.1","6429.7","26976.6","1","4","8","6","2","8","8","19","11","0.14393939393939395","1279.3","3000","1275","[""down"",""left""]","{""num_key_presses"":6,""num_perfect"":5,""num_errors"":0,""num_randdir"":1,""num_randdir_good_moves"":1,""num_whilered"":0,""num_whileblue"":0,""num_blue"":1,""num_good_moves"":6}","[299.22232142857143,293.12857142857143,0.4,299.22232142857143,293.12857142857143,112.3,299.22232142857143,293.12857142857143,215.1,299.22232142857143,293.12857142857143,320.9,299.22232142857143,293.12857142857143,423.9,299.22232142857143,293.12857142857143,529.3,299.22232142857143,293.12857142857143,630.9,299.22232142857143,293.12857142857143,731.5,123.22232142857143,454.12857142857143,842.2,73.22232142857143,512.1285714285714,947.6,51.222321428571426,538.1285714285714,1048.1,46.222321428571426,546.1285714285714,1148.5,46.222321428571426,546.1285714285714,1251.8,46.222321428571426,546.1285714285714,1353.1,46.222321428571426,546.1285714285714,1453.1,46.222321428571426,546.1285714285714,1559.7,46.222321428571426,546.1285714285714,1664.2,46.222321428571426,546.1285714285714,1767,46.222321428571426,546.1285714285714,1868.6,46.222321428571426,546.1285714285714,1977.4,46.222321428571426,546.1285714285714,2078.2,46.222321428571426,546.1285714285714,2179.5,46.222321428571426,546.1285714285714,2282.6,46.222321428571426,546.1285714285714,2388.5,46.222321428571426,546.1285714285714,2489.9,46.222321428571426,546.1285714285714,2593.1,46.222321428571426,546.1285714285714,2695.3,46.222321428571426,546.1285714285714,2801.2,46.222321428571426,546.1285714285714,2911,46.222321428571426,546.1285714285714,3018.7,46.222321428571426,546.1285714285714,3120.8,46.222321428571426,546.1285714285714,3227.5,46.222321428571426,546.1285714285714,3333.7,46.222321428571426,546.1285714285714,3435.4,46.222321428571426,546.1285714285714,3540.8,46.222321428571426,546.1285714285714,3641,46.222321428571426,546.1285714285714,3747.6,46.222321428571426,546.1285714285714,3850.3,46.222321428571426,546.1285714285714,3958.2,46.222321428571426,546.1285714285714,4060.4,46.222321428571426,546.1285714285714,4161.4,46.222321428571426,546.1285714285714,4264.2,46.222321428571426,546.1285714285714,4365.2,46.222321428571426,546.1285714285714,4467.6,46.222321428571426,546.1285714285714,4575,46.222321428571426,546.1285714285714,4684.3,46.222321428571426,546.1285714285714,4796.8,46.222321428571426,546.1285714285714,4907.8]","[1423.3,1423.3,1000,0,423.3,""smooth"",""left"",""left"",""good_move"",4417.3,2992.9,2608.6,1424.4,384.3,""oops"",""left"",""left"",""good_move"",7313,2893.8,2432.8,4419.2,461,""smooth"",""down"",""down"",""good_move"",10041,2725.5,2318.1,7315.5,407.4,""smooth"",""down"",""down"",""good_move"",12931.4,2889.6,2440.9,10041.8,448.7,""smooth"",""left"",""left"",""good_move"",20402.1,7464.4,2500.7,17502.4,399,""smooth"",""down"",""down"",""good_move""]"
"3492","","<div style=""width:500px;"">
  <p>What determined the result of this run?</p>
  </div>","100","html-slider-response","24","689931","0.0-7.0-1.2","150","1","2025-08-06 09:01:39","36c45c0696341be0efffe67d72a12abb","105.245.111.55","Mozilla/5.0 (Windows NT 10.0; Win64; x64) AppleWebKit/537.36 (KHTML, like Gecko) Chrome/138.0.0.0 Safari/537.36","WebKit","Chrome","138.0.0.0","Windows","10.0","https://app.prolific.com/","en-GB,en-US;q=0.9,en;q=0.8","671d0e15c134a5355de39a6d","687a1a965b9f5b85a264363e","689319322a0317ad7feb1a7b","1","671d0e15c134a5355de39a6d","1","2025-08-06T09:13:11.981Z","","","","AttribQ","","","","","","","","","","","50","","","","","","","","","","","","","","","","","","","","","","","","","","",""
"6278","","<div style=""width:500px;"">
  <p>How much control did you have over the ball?</p>
  </div>","100","html-slider-response","25","696211","0.0-7.0-2.2","150","1","2025-08-06 09:01:39","36c45c0696341be0efffe67d72a12abb","105.245.111.55","Mozilla/5.0 (Windows NT 10.0; Win64; x64) AppleWebKit/537.36 (KHTML, like Gecko) Chrome/138.0.0.0 Safari/537.36","WebKit","Chrome","138.0.0.0","Windows","10.0","https://app.prolific.com/","en-GB,en-US;q=0.9,en;q=0.8","671d0e15c134a5355de39a6d","687a1a965b9f5b85a264363e","689319322a0317ad7feb1a7b","1","671d0e15c134a5355de39a6d","1","2025-08-06T09:13:18.261Z","","","","ControlQ","","","","","","","","","","","50","","","","","","","","","","","","","","","","","","","","","","","","","","",""
"3550","","<div style=""width:500px;"">
  <p>How would you describe your current emotional state?</p>
  </div>","0","html-slider-response","26","699763","0.0-7.0-3.2","150","1","2025-08-06 09:01:39","36c45c0696341be0efffe67d72a12abb","105.245.111.55","Mozilla/5.0 (Windows NT 10.0; Win64; x64) AppleWebKit/537.36 (KHTML, like Gecko) Chrome/138.0.0.0 Safari/537.36","WebKit","Chrome","138.0.0.0","Windows","10.0","https://app.prolific.com/","en-GB,en-US;q=0.9,en;q=0.8","671d0e15c134a5355de39a6d","687a1a965b9f5b85a264363e","689319322a0317ad7feb1a7b","1","671d0e15c134a5355de39a6d","1","2025-08-06T09:13:21.814Z","","","","StressQ","","","","","","","","","","","50","","","","","","","","","","","","","","","","","","","","","","","","","","",""
"3460","","<div style=""width:500px;"">
  <p>What best describes how you currently feel?</p>
  </div>","100","html-slider-response","27","703227","0.0-7.0-4.2","150","1","2025-08-06 09:01:39","36c45c0696341be0efffe67d72a12abb","105.245.111.55","Mozilla/5.0 (Windows NT 10.0; Win64; x64) AppleWebKit/537.36 (KHTML, like Gecko) Chrome/138.0.0.0 Safari/537.36","WebKit","Chrome","138.0.0.0","Windows","10.0","https://app.prolific.com/","en-GB,en-US;q=0.9,en;q=0.8","671d0e15c134a5355de39a6d","687a1a965b9f5b85a264363e","689319322a0317ad7feb1a7b","1","671d0e15c134a5355de39a6d","1","2025-08-06T09:13:25.277Z","","","","MotivationQ","","","","","","","","","","","50","","","","","","","","","","","","","","","","","","","","","","","","","","",""
"","","","","ctl-task-cpt","28","738986","0.0-7.0-0.3","150","1","2025-08-06 09:01:39","36c45c0696341be0efffe67d72a12abb","105.245.111.55","Mozilla/5.0 (Windows NT 10.0; Win64; x64) AppleWebKit/537.36 (KHTML, like Gecko) Chrome/138.0.0.0 Safari/537.36","WebKit","Chrome","138.0.0.0","Windows","10.0","https://app.prolific.com/","en-GB,en-US;q=0.9,en;q=0.8","671d0e15c134a5355de39a6d","687a1a965b9f5b85a264363e","689319322a0317ad7feb1a7b","1","671d0e15c134a5355de39a6d","1","2025-08-06T09:14:01.036Z","","","","","","","","","","","","","","","","win-only","3","g1:SW,g2:NE","0.7","4","0","707425.7","1369.4","6374.3","32745.2","1","4","4","6","2","4","4","23","19","0.17424242424242425","1266","3000","1235","[""up"",""right""]","{""num_key_presses"":6,""num_perfect"":4,""num_errors"":0,""num_randdir"":2,""num_randdir_good_moves"":2,""num_whilered"":0,""num_whileblue"":0,""num_blue"":3,""num_good_moves"":6}","[295.22232142857143,295.12857142857143,0.6,295.22232142857143,295.12857142857143,102.4,295.22232142857143,295.12857142857143,204.2,295.22232142857143,295.12857142857143,308.7,295.22232142857143,295.12857142857143,411.9,295.22232142857143,295.12857142857143,518,295.22232142857143,295.12857142857143,624.3,380.22232142857143,183.12857142857143,736.6,517.2223214285714,93.12857142857143,836.9,532.2223214285714,80.12857142857143,937.2,542.2223214285714,71.12857142857143,1037.9,545.2223214285714,70.12857142857143,1138,545.2223214285714,70.12857142857143,1246.2,545.2223214285714,70.12857142857143,1352.2,545.2223214285714,70.12857142857143,1454.6,545.2223214285714,70.12857142857143,1556.2,545.2223214285714,70.12857142857143,1660.7,545.2223214285714,70.12857142857143,1765,545.2223214285714,70.12857142857143,1868.6,666.2223214285714,89.12857142857143,1973.3,750.2223214285714,180.12857142857143,2074.4,757.2223214285714,189.12857142857143,2185.8,757.2223214285714,189.12857142857143,2286.4,757.2223214285714,189.12857142857143,2386.5,757.2223214285714,189.12857142857143,2489.2,757.2223214285714,189.12857142857143,2600.9,757.2223214285714,189.12857142857143,2701.6,757.2223214285714,189.12857142857143,2802.9,757.2223214285714,189.12857142857143,2902.9,757.2223214285714,189.12857142857143,3008.9,757.2223214285714,189.12857142857143,3116.5,757.2223214285714,189.12857142857143,3221.3,757.2223214285714,189.12857142857143,3326,757.2223214285714,189.12857142857143,3428.3,757.2223214285714,189.12857142857143,3538.2,757.2223214285714,189.12857142857143,3638.3,757.2223214285714,189.12857142857143,3739.4,757.2223214285714,189.12857142857143,3844,757.2223214285714,189.12857142857143,3946.6,757.2223214285714,189.12857142857143,4047.6,757.2223214285714,189.12857142857143,4156,757.2223214285714,189.12857142857143,4260.5,757.2223214285714,189.12857142857143,4361.7,757.2223214285714,189.12857142857143,4468.9,757.2223214285714,189.12857142857143,4575.3,757.2223214285714,189.12857142857143,4675.5,757.2223214285714,189.12857142857143,4778.4,757.2223214285714,189.12857142857143,4881.8,757.2223214285714,189.12857142857143,4987.1]","[4884.8,4884.8,2359.9,2021.8,503.1,""smooth"",""up"",""up"",""good_move"",8313.9,3423.6,3025.7,4890.3,397.9,""oops"",""up"",""right"",""good_move"",15306.2,6991.1,3234.3,11733.8,338.1,""smooth"",""up"",""up"",""good_move"",21169.6,5862.9,1656.3,19089.8,423.5,""smooth"",""up"",""up"",""good_move"",23412.7,2242.6,1757.9,21170.1,484.7,""oops"",""right"",""right"",""good_move"",26236.8,2821.9,2470.9,23414.9,351,""smooth"",""right"",""right"",""good_move""]"
"3633","","<div style=""width:500px;"">
  <p>What determined the result of this run?</p>
  </div>","100","html-slider-response","29","742621","0.0-7.0-1.3","150","1","2025-08-06 09:01:39","36c45c0696341be0efffe67d72a12abb","105.245.111.55","Mozilla/5.0 (Windows NT 10.0; Win64; x64) AppleWebKit/537.36 (KHTML, like Gecko) Chrome/138.0.0.0 Safari/537.36","WebKit","Chrome","138.0.0.0","Windows","10.0","https://app.prolific.com/","en-GB,en-US;q=0.9,en;q=0.8","671d0e15c134a5355de39a6d","687a1a965b9f5b85a264363e","689319322a0317ad7feb1a7b","1","671d0e15c134a5355de39a6d","1","2025-08-06T09:14:04.671Z","","","","AttribQ","","","","","","","","","","","50","","","","","","","","","","","","","","","","","","","","","","","","","","",""
"4754","","<div style=""width:500px;"">
  <p>How much control did you have over the ball?</p>
  </div>","100","html-slider-response","30","747379","0.0-7.0-2.3","150","1","2025-08-06 09:01:39","36c45c0696341be0efffe67d72a12abb","105.245.111.55","Mozilla/5.0 (Windows NT 10.0; Win64; x64) AppleWebKit/537.36 (KHTML, like Gecko) Chrome/138.0.0.0 Safari/537.36","WebKit","Chrome","138.0.0.0","Windows","10.0","https://app.prolific.com/","en-GB,en-US;q=0.9,en;q=0.8","671d0e15c134a5355de39a6d","687a1a965b9f5b85a264363e","689319322a0317ad7feb1a7b","1","671d0e15c134a5355de39a6d","1","2025-08-06T09:14:09.429Z","","","","ControlQ","","","","","","","","","","","50","","","","","","","","","","","","","","","","","","","","","","","","","","",""
"4231","","<div style=""width:500px;"">
  <p>How would you describe your current emotional state?</p>
  </div>","0","html-slider-response","31","751613","0.0-7.0-3.3","150","1","2025-08-06 09:01:39","36c45c0696341be0efffe67d72a12abb","105.245.111.55","Mozilla/5.0 (Windows NT 10.0; Win64; x64) AppleWebKit/537.36 (KHTML, like Gecko) Chrome/138.0.0.0 Safari/537.36","WebKit","Chrome","138.0.0.0","Windows","10.0","https://app.prolific.com/","en-GB,en-US;q=0.9,en;q=0.8","671d0e15c134a5355de39a6d","687a1a965b9f5b85a264363e","689319322a0317ad7feb1a7b","1","671d0e15c134a5355de39a6d","1","2025-08-06T09:14:13.664Z","","","","StressQ","","","","","","","","","","","50","","","","","","","","","","","","","","","","","","","","","","","","","","",""
"4436","","<div style=""width:500px;"">
  <p>What best describes how you currently feel?</p>
  </div>","100","html-slider-response","32","756053","0.0-7.0-4.3","150","1","2025-08-06 09:01:39","36c45c0696341be0efffe67d72a12abb","105.245.111.55","Mozilla/5.0 (Windows NT 10.0; Win64; x64) AppleWebKit/537.36 (KHTML, like Gecko) Chrome/138.0.0.0 Safari/537.36","WebKit","Chrome","138.0.0.0","Windows","10.0","https://app.prolific.com/","en-GB,en-US;q=0.9,en;q=0.8","671d0e15c134a5355de39a6d","687a1a965b9f5b85a264363e","689319322a0317ad7feb1a7b","1","671d0e15c134a5355de39a6d","1","2025-08-06T09:14:18.104Z","","","","MotivationQ","","","","","","","","","","","50","","","","","","","","","","","","","","","","","","","","","","","","","","",""
"","","","","ctl-task-cpt","33","804730","0.0-7.0-0.4","150","1","2025-08-06 09:01:39","36c45c0696341be0efffe67d72a12abb","105.245.111.55","Mozilla/5.0 (Windows NT 10.0; Win64; x64) AppleWebKit/537.36 (KHTML, like Gecko) Chrome/138.0.0.0 Safari/537.36","WebKit","Chrome","138.0.0.0","Windows","10.0","https://app.prolific.com/","en-GB,en-US;q=0.9,en;q=0.8","671d0e15c134a5355de39a6d","687a1a965b9f5b85a264363e","689319322a0317ad7feb1a7b","1","671d0e15c134a5355de39a6d","1","2025-08-06T09:15:06.780Z","","","","","","","","","","","","","","","","win-only","1","g1:NE,g2:SW","0.6","5","0","760252.1","1087.3","6089.5","45652.3","1","4","4","6","2","4","3","26","23","0.19696969696969696","1647.8","3000","20","[""down"",""left""]","{""num_key_presses"":12,""num_perfect"":6,""num_errors"":1,""num_randdir"":5,""num_randdir_good_moves"":3,""num_whilered"":0,""num_whileblue"":1,""num_blue"":3,""num_good_moves"":9}","[296.22232142857143,298.12857142857143,1,296.22232142857143,298.12857142857143,101.2,296.22232142857143,298.12857142857143,204,296.22232142857143,298.12857142857143,308.4,296.22232142857143,298.12857142857143,412.6,296.22232142857143,298.12857142857143,517,296.22232142857143,298.12857142857143,625.4,296.22232142857143,298.12857142857143,731.4,296.22232142857143,298.12857142857143,833,284.22232142857143,307.12857142857143,937.5,157.22232142857143,423.12857142857143,1040.1,115.22232142857143,492.12857142857143,1152.4,98.22232142857143,517.1285714285714,1253.2,81.22232142857143,534.1285714285714,1353.9,66.22232142857143,547.1285714285714,1454.8,66.22232142857143,547.1285714285714,1560.9,66.22232142857143,547.1285714285714,1667.5,66.22232142857143,547.1285714285714,1773.1,66.22232142857143,547.1285714285714,1885.2,66.22232142857143,547.1285714285714,1987.3,66.22232142857143,547.1285714285714,2092.4,66.22232142857143,547.1285714285714,2193.1,66.22232142857143,547.1285714285714,2294.5,66.22232142857143,547.1285714285714,2404,66.22232142857143,547.1285714285714,2504.8,66.22232142857143,547.1285714285714,2607.3,66.22232142857143,547.1285714285714,2714.1,66.22232142857143,547.1285714285714,2818.7,66.22232142857143,547.1285714285714,2919,66.22232142857143,547.1285714285714,3024.8,66.22232142857143,547.1285714285714,3125.5,66.22232142857143,547.1285714285714,3230.8,66.22232142857143,547.1285714285714,3337.8,66.22232142857143,547.1285714285714,3438.8,66.22232142857143,547.1285714285714,3539.7,66.22232142857143,547.1285714285714,3654.4,66.22232142857143,547.1285714285714,3759.2,66.22232142857143,547.1285714285714,3875.1,66.22232142857143,547.1285714285714,3981.9,66.22232142857143,547.1285714285714,4085.1,66.22232142857143,547.1285714285714,4186,66.22232142857143,547.1285714285714,4287.6,66.22232142857143,547.1285714285714,4389.5,66.22232142857143,547.1285714285714,4491.9,66.22232142857143,547.1285714285714,4592.1,66.22232142857143,547.1285714285714,4693.1,66.22232142857143,547.1285714285714,4795.8,66.22232142857143,547.1285714285714,4902.9]","[1417.8,1417.8,1000,0,417.8,""oops"",""down"",""down"",""good_move"",7694.6,6276.1,2628.5,4593,473.1,""smooth"",""left"",""left"",""good_move"",10673.3,2978,2557.2,7695.3,420.8,""oops"",""down"",""right"",""bad_move"",16915.3,6240.9,2626.2,13856.4,432.7,""smooth"",""left"",""left"",""good_move"",20394.8,3478.8,3067.6,16916,411.2,""smooth"",""left"",""left"",""good_move"",23561.5,3165.6,2816.5,20396,349,""smooth"",""down"",""down"",""good_move"",26104.8,2542.3,2222.2,23562.5,320.1,""while_blue"",""left"",""right"",""bad_move"",28921.1,2813.3,2444.1,26107.8,369.2,""smooth"",""left"",""left"",""good_move"",31488.1,2566.3,2178.3,28921.8,388,""oops"",""down"",""down"",""good_move"",34104.1,2615.2,2216.6,31488.9,398.6,""oops"",""left"",""up"",""bad_move"",36575,2470,2091.1,34105,378.9,""smooth"",""left"",""left"",""good_move"",39433.2,2855,2563.2,36578.3,291.7,""oops"",""down"",""down"",""good_move""]"
"5835","","<div style=""width:500px;"">
  <p>What determined the result of this run?</p>
  </div>","100","html-slider-response","34","810568","0.0-7.0-1.4","150","1","2025-08-06 09:01:39","36c45c0696341be0efffe67d72a12abb","105.245.111.55","Mozilla/5.0 (Windows NT 10.0; Win64; x64) AppleWebKit/537.36 (KHTML, like Gecko) Chrome/138.0.0.0 Safari/537.36","WebKit","Chrome","138.0.0.0","Windows","10.0","https://app.prolific.com/","en-GB,en-US;q=0.9,en;q=0.8","671d0e15c134a5355de39a6d","687a1a965b9f5b85a264363e","689319322a0317ad7feb1a7b","1","671d0e15c134a5355de39a6d","1","2025-08-06T09:15:12.618Z","","","","AttribQ","","","","","","","","","","","50","","","","","","","","","","","","","","","","","","","","","","","","","","",""
"4083","","<div style=""width:500px;"">
  <p>How much control did you have over the ball?</p>
  </div>","89","html-slider-response","35","814654","0.0-7.0-2.4","150","1","2025-08-06 09:01:39","36c45c0696341be0efffe67d72a12abb","105.245.111.55","Mozilla/5.0 (Windows NT 10.0; Win64; x64) AppleWebKit/537.36 (KHTML, like Gecko) Chrome/138.0.0.0 Safari/537.36","WebKit","Chrome","138.0.0.0","Windows","10.0","https://app.prolific.com/","en-GB,en-US;q=0.9,en;q=0.8","671d0e15c134a5355de39a6d","687a1a965b9f5b85a264363e","689319322a0317ad7feb1a7b","1","671d0e15c134a5355de39a6d","1","2025-08-06T09:15:16.704Z","","","","ControlQ","","","","","","","","","","","50","","","","","","","","","","","","","","","","","","","","","","","","","","",""
"4832","","<div style=""width:500px;"">
  <p>How would you describe your current emotional state?</p>
  </div>","0","html-slider-response","36","819491","0.0-7.0-3.4","150","1","2025-08-06 09:01:39","36c45c0696341be0efffe67d72a12abb","105.245.111.55","Mozilla/5.0 (Windows NT 10.0; Win64; x64) AppleWebKit/537.36 (KHTML, like Gecko) Chrome/138.0.0.0 Safari/537.36","WebKit","Chrome","138.0.0.0","Windows","10.0","https://app.prolific.com/","en-GB,en-US;q=0.9,en;q=0.8","671d0e15c134a5355de39a6d","687a1a965b9f5b85a264363e","689319322a0317ad7feb1a7b","1","671d0e15c134a5355de39a6d","1","2025-08-06T09:15:21.542Z","","","","StressQ","","","","","","","","","","","50","","","","","","","","","","","","","","","","","","","","","","","","","","",""
"3600","","<div style=""width:500px;"">
  <p>What best describes how you currently feel?</p>
  </div>","100","html-slider-response","37","823096","0.0-7.0-4.4","150","1","2025-08-06 09:01:39","36c45c0696341be0efffe67d72a12abb","105.245.111.55","Mozilla/5.0 (Windows NT 10.0; Win64; x64) AppleWebKit/537.36 (KHTML, like Gecko) Chrome/138.0.0.0 Safari/537.36","WebKit","Chrome","138.0.0.0","Windows","10.0","https://app.prolific.com/","en-GB,en-US;q=0.9,en;q=0.8","671d0e15c134a5355de39a6d","687a1a965b9f5b85a264363e","689319322a0317ad7feb1a7b","1","671d0e15c134a5355de39a6d","1","2025-08-06T09:15:25.146Z","","","","MotivationQ","","","","","","","","","","","50","","","","","","","","","","","","","","","","","","","","","","","","","","",""
"","","","","ctl-task-cpt","38","858225","0.0-7.0-0.5","150","1","2025-08-06 09:01:39","36c45c0696341be0efffe67d72a12abb","105.245.111.55","Mozilla/5.0 (Windows NT 10.0; Win64; x64) AppleWebKit/537.36 (KHTML, like Gecko) Chrome/138.0.0.0 Safari/537.36","WebKit","Chrome","138.0.0.0","Windows","10.0","https://app.prolific.com/","en-GB,en-US;q=0.9,en;q=0.8","671d0e15c134a5355de39a6d","687a1a965b9f5b85a264363e","689319322a0317ad7feb1a7b","1","671d0e15c134a5355de39a6d","1","2025-08-06T09:16:00.275Z","","","","","","","","","","","","","","","","win-only","3","g1:SW,g2:NE","0.5","6","0","827293.9","1390.5","6395.9","32104","1","4","8","6","2","8","8","34","26","0.25757575757575757","1726","3000","860","[""up"",""right""]","{""num_key_presses"":8,""num_perfect"":5,""num_errors"":0,""num_randdir"":3,""num_randdir_good_moves"":3,""num_whilered"":0,""num_whileblue"":0,""num_blue"":1,""num_good_moves"":7}","[295.22232142857143,298.12857142857143,2.3,295.22232142857143,298.12857142857143,113.7,295.22232142857143,298.12857142857143,215.3,295.22232142857143,298.12857142857143,315.9,295.22232142857143,298.12857142857143,415.9,295.22232142857143,298.12857142857143,525.5,295.22232142857143,298.12857142857143,627.6,294.22232142857143,299.12857142857143,737.1,270.22232142857143,319.12857142857143,856.6,664.2223214285714,4.128571428571426,960.3,664.2223214285714,4.128571428571426,1066.1,664.2223214285714,4.128571428571426,1169.2,664.2223214285714,4.128571428571426,1278,619.2223214285714,15.128571428571426,1385.3,586.2223214285714,21.128571428571426,1485.3,575.2223214285714,26.128571428571426,1594.1,575.2223214285714,26.128571428571426,1695.7,575.2223214285714,26.128571428571426,1804.9,575.2223214285714,26.128571428571426,1908.6,575.2223214285714,26.128571428571426,2013,575.2223214285714,26.128571428571426,2116.1,575.2223214285714,26.128571428571426,2221.4,575.2223214285714,26.128571428571426,2328.1,575.2223214285714,26.128571428571426,2438.3,575.2223214285714,26.128571428571426,2542.9,575.2223214285714,26.128571428571426,2650.3,575.2223214285714,26.128571428571426,2757.6,575.2223214285714,26.128571428571426,2858.9,575.2223214285714,26.128571428571426,2960.8,575.2223214285714,26.128571428571426,3061.1,575.2223214285714,26.128571428571426,3163.9,575.2223214285714,26.128571428571426,3279.1,575.2223214285714,26.128571428571426,3380.5,575.2223214285714,26.128571428571426,3480.7,575.2223214285714,26.128571428571426,3588,575.2223214285714,26.128571428571426,3697.1,575.2223214285714,26.128571428571426,3797.2,575.2223214285714,26.128571428571426,3901.2,575.2223214285714,26.128571428571426,4001.9,575.2223214285714,26.128571428571426,4107.7,575.2223214285714,26.128571428571426,4210.4,575.2223214285714,26.128571428571426,4314.4,575.2223214285714,26.128571428571426,4420.9,575.2223214285714,26.128571428571426,4522,575.2223214285714,26.128571428571426,4622.9,575.2223214285714,26.128571428571426,4725.2,575.2223214285714,26.128571428571426,4832.7,575.2223214285714,26.128571428571426,4938.6]","[1415.7,1415.7,1000,0,415.7,""smooth"",""left"",""left"",""bad_move"",4803,3386.3,3018.9,1416.7,367.4,""smooth"",""up"",""up"",""good_move"",7761.2,2957.3,2566.1,4804,391.2,""smooth"",""up"",""up"",""good_move"",10775.7,3013.4,2638.8,7762.3,374.6,""oops"",""up"",""up"",""good_move"",14507.8,3731.2,3333.8,10776.6,397.4,""smooth"",""right"",""right"",""good_move"",20106.2,5596.6,2140.4,17557.8,408,""oops"",""right"",""right"",""good_move"",22926.5,2819.8,2406.7,20106.8,413.1,""oops"",""right"",""right"",""good_move"",25566.9,2640,2295,22926.9,345,""smooth"",""right"",""right"",""good_move""]"
"3789","","<div style=""width:500px;"">
  <p>What determined the result of this run?</p>
  </div>","100","html-slider-response","39","862016","0.0-7.0-1.5","150","1","2025-08-06 09:01:39","36c45c0696341be0efffe67d72a12abb","105.245.111.55","Mozilla/5.0 (Windows NT 10.0; Win64; x64) AppleWebKit/537.36 (KHTML, like Gecko) Chrome/138.0.0.0 Safari/537.36","WebKit","Chrome","138.0.0.0","Windows","10.0","https://app.prolific.com/","en-GB,en-US;q=0.9,en;q=0.8","671d0e15c134a5355de39a6d","687a1a965b9f5b85a264363e","689319322a0317ad7feb1a7b","1","671d0e15c134a5355de39a6d","1","2025-08-06T09:16:04.066Z","","","","AttribQ","","","","","","","","","","","50","","","","","","","","","","","","","","","","","","","","","","","","","","",""
"4034","","<div style=""width:500px;"">
  <p>How much control did you have over the ball?</p>
  </div>","100","html-slider-response","40","866052","0.0-7.0-2.5","150","1","2025-08-06 09:01:39","36c45c0696341be0efffe67d72a12abb","105.245.111.55","Mozilla/5.0 (Windows NT 10.0; Win64; x64) AppleWebKit/537.36 (KHTML, like Gecko) Chrome/138.0.0.0 Safari/537.36","WebKit","Chrome","138.0.0.0","Windows","10.0","https://app.prolific.com/","en-GB,en-US;q=0.9,en;q=0.8","671d0e15c134a5355de39a6d","687a1a965b9f5b85a264363e","689319322a0317ad7feb1a7b","1","671d0e15c134a5355de39a6d","1","2025-08-06T09:16:08.102Z","","","","ControlQ","","","","","","","","","","","50","","","","","","","","","","","","","","","","","","","","","","","","","","",""
"3468","","<div style=""width:500px;"">
  <p>How would you describe your current emotional state?</p>
  </div>","0","html-slider-response","41","869521","0.0-7.0-3.5","150","1","2025-08-06 09:01:39","36c45c0696341be0efffe67d72a12abb","105.245.111.55","Mozilla/5.0 (Windows NT 10.0; Win64; x64) AppleWebKit/537.36 (KHTML, like Gecko) Chrome/138.0.0.0 Safari/537.36","WebKit","Chrome","138.0.0.0","Windows","10.0","https://app.prolific.com/","en-GB,en-US;q=0.9,en;q=0.8","671d0e15c134a5355de39a6d","687a1a965b9f5b85a264363e","689319322a0317ad7feb1a7b","1","671d0e15c134a5355de39a6d","1","2025-08-06T09:16:11.571Z","","","","StressQ","","","","","","","","","","","50","","","","","","","","","","","","","","","","","","","","","","","","","","",""
"2835","","<div style=""width:500px;"">
  <p>What best describes how you currently feel?</p>
  </div>","100","html-slider-response","42","872358","0.0-7.0-4.5","150","1","2025-08-06 09:01:39","36c45c0696341be0efffe67d72a12abb","105.245.111.55","Mozilla/5.0 (Windows NT 10.0; Win64; x64) AppleWebKit/537.36 (KHTML, like Gecko) Chrome/138.0.0.0 Safari/537.36","WebKit","Chrome","138.0.0.0","Windows","10.0","https://app.prolific.com/","en-GB,en-US;q=0.9,en;q=0.8","671d0e15c134a5355de39a6d","687a1a965b9f5b85a264363e","689319322a0317ad7feb1a7b","1","671d0e15c134a5355de39a6d","1","2025-08-06T09:16:14.408Z","","","","MotivationQ","","","","","","","","","","","50","","","","","","","","","","","","","","","","","","","","","","","","","","",""
"","","","","ctl-task-cpt","43","934715","0.0-7.0-0.6","150","1","2025-08-06 09:01:39","36c45c0696341be0efffe67d72a12abb","105.245.111.55","Mozilla/5.0 (Windows NT 10.0; Win64; x64) AppleWebKit/537.36 (KHTML, like Gecko) Chrome/138.0.0.0 Safari/537.36","WebKit","Chrome","138.0.0.0","Windows","10.0","https://app.prolific.com/","en-GB,en-US;q=0.9,en;q=0.8","671d0e15c134a5355de39a6d","687a1a965b9f5b85a264363e","689319322a0317ad7feb1a7b","1","671d0e15c134a5355de39a6d","1","2025-08-06T09:17:16.765Z","","","","","","","","","","","","","","","","win-only","2","g1:SE,g2:NW","0.4","7","0","876553.8","1465.3","6473.2","59341.9","1","4","4","6","2","-4","-5","29","34","0.2196969696969697","1084.9","3000","-2045","[""left"",""up""]","{""num_key_presses"":12,""num_perfect"":5,""num_errors"":1,""num_randdir"":6,""num_randdir_good_moves"":2,""num_whilered"":0,""num_whileblue"":1,""num_blue"":6,""num_good_moves"":7}","[295.22232142857143,294.12857142857143,1.1,295.22232142857143,294.12857142857143,100.2,295.22232142857143,294.12857142857143,201.7,295.22232142857143,294.12857142857143,310.9,295.22232142857143,294.12857142857143,414,295.22232142857143,294.12857142857143,516.1,159.22232142857143,164.12857142857143,625.6,82.22232142857143,78.12857142857143,734,79.22232142857143,76.12857142857143,836.3,75.22232142857143,70.12857142857143,946,75.22232142857143,70.12857142857143,1048.2,75.22232142857143,70.12857142857143,1148.4,75.22232142857143,70.12857142857143,1251.7,75.22232142857143,70.12857142857143,1355.5,75.22232142857143,70.12857142857143,1463.4,20.222321428571426,196.12857142857143,1565.5,-37.777678571428574,288.12857142857143,1679.4,-63.777678571428574,315.12857142857143,1781.4,-112.77767857142857,354.12857142857143,1882.1,-117.77767857142857,356.12857142857143,1988.9,-117.77767857142857,356.12857142857143,2090.2,-117.77767857142857,356.12857142857143,2199.2,-117.77767857142857,356.12857142857143,2309.7,-117.77767857142857,356.12857142857143,2414.7,-117.77767857142857,356.12857142857143,2516.1,-117.77767857142857,356.12857142857143,2625.2,-117.77767857142857,356.12857142857143,2736.8,-117.77767857142857,356.12857142857143,2843.5,-117.77767857142857,356.12857142857143,2948.2,-117.77767857142857,356.12857142857143,3054.3,-117.77767857142857,356.12857142857143,3158.7,-117.77767857142857,356.12857142857143,3261.8,-117.77767857142857,356.12857142857143,3363.6,-117.77767857142857,356.12857142857143,3474.5,-117.77767857142857,356.12857142857143,3581.5,-117.77767857142857,356.12857142857143,3690.3,-117.77767857142857,356.12857142857143,3793.3,-117.77767857142857,356.12857142857143,3893.3,-117.77767857142857,356.12857142857143,3997.2,-117.77767857142857,356.12857142857143,4106.7,-117.77767857142857,356.12857142857143,4213.3,-117.77767857142857,356.12857142857143,4319,-117.77767857142857,356.12857142857143,4427.9,-117.77767857142857,356.12857142857143,4531.6,-117.77767857142857,356.12857142857143,4639.4,-117.77767857142857,356.12857142857143,4743.8,-117.77767857142857,356.12857142857143,4845.6,-117.77767857142857,356.12857142857143,4947.4]","[5627.9,5627.9,3207.7,2003.4,416.8,""smooth"",""left"",""left"",""good_move"",8162.2,2533.3,2166.6,5628.9,366.7,""oops"",""up"",""up"",""good_move"",17852.7,9689.1,3024.7,14423.1,404.9,""smooth"",""left"",""left"",""good_move"",19867.5,2013.9,1624.7,17853.6,389.2,""smooth"",""up"",""up"",""good_move"",23488.6,3620.1,3194.8,19868.5,425.3,""smooth"",""left"",""left"",""good_move"",25854.3,2361.1,1981.1,23493.4,379.9,""oops"",""up"",""right"",""bad_move"",28939.9,3078.8,2592.9,25861.2,485.9,""oops"",""up"",""down"",""bad_move"",32221.9,3280.6,2934.1,28941.3,346.5,""oops"",""right"",""right"",""bad_move"",42574.2,10351.2,2259.3,39894.8,420.1,""oops"",""up"",""right"",""bad_move"",44774.9,2200.2,1779.6,42574.7,420.6,""oops"",""left"",""up"",""good_move"",47575.6,2799.4,2484.5,44776.2,314.9,""smooth"",""left"",""left"",""good_move"",50254.8,2678.3,2311.2,47576.5,367.1,""while_blue"",""left"",""right"",""bad_move""]"
"4730","","<div style=""width:500px;"">
  <p>What determined the result of this run?</p>
  </div>","100","html-slider-response","44","939447","0.0-7.0-1.6","150","1","2025-08-06 09:01:39","36c45c0696341be0efffe67d72a12abb","105.245.111.55","Mozilla/5.0 (Windows NT 10.0; Win64; x64) AppleWebKit/537.36 (KHTML, like Gecko) Chrome/138.0.0.0 Safari/537.36","WebKit","Chrome","138.0.0.0","Windows","10.0","https://app.prolific.com/","en-GB,en-US;q=0.9,en;q=0.8","671d0e15c134a5355de39a6d","687a1a965b9f5b85a264363e","689319322a0317ad7feb1a7b","1","671d0e15c134a5355de39a6d","1","2025-08-06T09:17:21.498Z","","","","AttribQ","","","","","","","","","","","50","","","","","","","","","","","","","","","","","","","","","","","","","","",""
"4042","","<div style=""width:500px;"">
  <p>How much control did you have over the ball?</p>
  </div>","16","html-slider-response","45","943495","0.0-7.0-2.6","150","1","2025-08-06 09:01:39","36c45c0696341be0efffe67d72a12abb","105.245.111.55","Mozilla/5.0 (Windows NT 10.0; Win64; x64) AppleWebKit/537.36 (KHTML, like Gecko) Chrome/138.0.0.0 Safari/537.36","WebKit","Chrome","138.0.0.0","Windows","10.0","https://app.prolific.com/","en-GB,en-US;q=0.9,en;q=0.8","671d0e15c134a5355de39a6d","687a1a965b9f5b85a264363e","689319322a0317ad7feb1a7b","1","671d0e15c134a5355de39a6d","1","2025-08-06T09:17:25.546Z","","","","ControlQ","","","","","","","","","","","50","","","","","","","","","","","","","","","","","","","","","","","","","","",""
"3269","","<div style=""width:500px;"">
  <p>How would you describe your current emotional state?</p>
  </div>","0","html-slider-response","46","946770","0.0-7.0-3.6","150","1","2025-08-06 09:01:39","36c45c0696341be0efffe67d72a12abb","105.245.111.55","Mozilla/5.0 (Windows NT 10.0; Win64; x64) AppleWebKit/537.36 (KHTML, like Gecko) Chrome/138.0.0.0 Safari/537.36","WebKit","Chrome","138.0.0.0","Windows","10.0","https://app.prolific.com/","en-GB,en-US;q=0.9,en;q=0.8","671d0e15c134a5355de39a6d","687a1a965b9f5b85a264363e","689319322a0317ad7feb1a7b","1","671d0e15c134a5355de39a6d","1","2025-08-06T09:17:28.820Z","","","","StressQ","","","","","","","","","","","50","","","","","","","","","","","","","","","","","","","","","","","","","","",""
"2623","","<div style=""width:500px;"">
  <p>What best describes how you currently feel?</p>
  </div>","100","html-slider-response","47","949395","0.0-7.0-4.6","150","1","2025-08-06 09:01:39","36c45c0696341be0efffe67d72a12abb","105.245.111.55","Mozilla/5.0 (Windows NT 10.0; Win64; x64) AppleWebKit/537.36 (KHTML, like Gecko) Chrome/138.0.0.0 Safari/537.36","WebKit","Chrome","138.0.0.0","Windows","10.0","https://app.prolific.com/","en-GB,en-US;q=0.9,en;q=0.8","671d0e15c134a5355de39a6d","687a1a965b9f5b85a264363e","689319322a0317ad7feb1a7b","1","671d0e15c134a5355de39a6d","1","2025-08-06T09:17:31.445Z","","","","MotivationQ","","","","","","","","","","","50","","","","","","","","","","","","","","","","","","","","","","","","","","",""
"","","","","ctl-task-cpt","48","984800","0.0-7.0-0.7","150","1","2025-08-06 09:01:39","36c45c0696341be0efffe67d72a12abb","105.245.111.55","Mozilla/5.0 (Windows NT 10.0; Win64; x64) AppleWebKit/537.36 (KHTML, like Gecko) Chrome/138.0.0.0 Safari/537.36","WebKit","Chrome","138.0.0.0","Windows","10.0","https://app.prolific.com/","en-GB,en-US;q=0.9,en;q=0.8","671d0e15c134a5355de39a6d","687a1a965b9f5b85a264363e","689319322a0317ad7feb1a7b","1","671d0e15c134a5355de39a6d","1","2025-08-06T09:18:06.850Z","","","","","","","","","","","","","","","","win-only","0","g1:NW,g2:SE","0.3","8","0","953589.3","1404.9","6417","32377.5","1","4","8","6","2","8","7","36","29","0.2727272727272727","1277.2","3000","1460","[""down"",""right""]","{""num_key_presses"":7,""num_perfect"":3,""num_errors"":1,""num_randdir"":3,""num_randdir_good_moves"":3,""num_whilered"":0,""num_whileblue"":0,""num_blue"":2,""num_good_moves"":6}","[291.22232142857143,297.12857142857143,0.4,291.22232142857143,297.12857142857143,105.4,291.22232142857143,297.12857142857143,206.7,291.22232142857143,297.12857142857143,316.2,291.22232142857143,297.12857142857143,420.5,291.22232142857143,297.12857142857143,525.3,291.22232142857143,297.12857142857143,629.4,504.22232142857143,442.12857142857143,730.4,525.2223214285714,479.12857142857143,832,535.2223214285714,499.12857142857143,935,543.2223214285714,533.1285714285714,1043.1,547.2223214285714,544.1285714285714,1147.7,547.2223214285714,544.1285714285714,1248,547.2223214285714,544.1285714285714,1356.6,547.2223214285714,544.1285714285714,1456.6,547.2223214285714,544.1285714285714,1563.4,547.2223214285714,544.1285714285714,1663.9,547.2223214285714,544.1285714285714,1768.8,547.2223214285714,544.1285714285714,1874.6,705.2223214285714,386.12857142857143,1980.3,798.2223214285714,383.12857142857143,2082.9,798.2223214285714,383.12857142857143,2192.8,798.2223214285714,383.12857142857143,2296.4,798.2223214285714,383.12857142857143,2396.8,798.2223214285714,383.12857142857143,2498.8,798.2223214285714,383.12857142857143,2605.7,798.2223214285714,383.12857142857143,2705.8,798.2223214285714,383.12857142857143,2806.8,798.2223214285714,383.12857142857143,2909.4,798.2223214285714,383.12857142857143,3015.1,798.2223214285714,383.12857142857143,3116,798.2223214285714,383.12857142857143,3222.4,798.2223214285714,383.12857142857143,3330.2,798.2223214285714,383.12857142857143,3431,798.2223214285714,383.12857142857143,3531.1,798.2223214285714,383.12857142857143,3634.5,798.2223214285714,383.12857142857143,3735.4,798.2223214285714,383.12857142857143,3842.9,798.2223214285714,383.12857142857143,3951.6,798.2223214285714,383.12857142857143,4058.3,798.2223214285714,383.12857142857143,4162.5,798.2223214285714,383.12857142857143,4262.6,798.2223214285714,383.12857142857143,4363.2,798.2223214285714,383.12857142857143,4473.1,798.2223214285714,383.12857142857143,4574.2,798.2223214285714,383.12857142857143,4677.3,798.2223214285714,383.12857142857143,4780.5,798.2223214285714,383.12857142857143,4880.5,798.2223214285714,383.12857142857143,4986.3]","[356.1,356.2,1000,0,-643.8,""error"",""-"",""-"",""no_move"",4183.5,3826.3,2383.2,1360.6,439.7,""oops"",""down"",""down"",""good_move"",7341.1,3156.3,2736.1,4184.8,420.2,""smooth"",""down"",""down"",""good_move"",17333.4,9991.5,2600.3,14299.4,433.7,""smooth"",""right"",""right"",""good_move"",20710.3,3376.2,3030.2,17334.1,346,""oops"",""right"",""down"",""good_move"",22904.7,2193,1716.3,20711.7,476.7,""oops"",""right"",""right"",""good_move"",25816.6,2910.6,2462.1,22906.1,448.5,""smooth"",""right"",""right"",""good_move""]"
"3561","","<div style=""width:500px;"">
  <p>What determined the result of this run?</p>
  </div>","100","html-slider-response","49","988362","0.0-7.0-1.7","150","1","2025-08-06 09:01:39","36c45c0696341be0efffe67d72a12abb","105.245.111.55","Mozilla/5.0 (Windows NT 10.0; Win64; x64) AppleWebKit/537.36 (KHTML, like Gecko) Chrome/138.0.0.0 Safari/537.36","WebKit","Chrome","138.0.0.0","Windows","10.0","https://app.prolific.com/","en-GB,en-US;q=0.9,en;q=0.8","671d0e15c134a5355de39a6d","687a1a965b9f5b85a264363e","689319322a0317ad7feb1a7b","1","671d0e15c134a5355de39a6d","1","2025-08-06T09:18:10.413Z","","","","AttribQ","","","","","","","","","","","50","","","","","","","","","","","","","","","","","","","","","","","","","","",""
"2908","","<div style=""width:500px;"">
  <p>How much control did you have over the ball?</p>
  </div>","90","html-slider-response","50","991272","0.0-7.0-2.7","150","1","2025-08-06 09:01:39","36c45c0696341be0efffe67d72a12abb","105.245.111.55","Mozilla/5.0 (Windows NT 10.0; Win64; x64) AppleWebKit/537.36 (KHTML, like Gecko) Chrome/138.0.0.0 Safari/537.36","WebKit","Chrome","138.0.0.0","Windows","10.0","https://app.prolific.com/","en-GB,en-US;q=0.9,en;q=0.8","671d0e15c134a5355de39a6d","687a1a965b9f5b85a264363e","689319322a0317ad7feb1a7b","1","671d0e15c134a5355de39a6d","1","2025-08-06T09:18:13.322Z","","","","ControlQ","","","","","","","","","","","50","","","","","","","","","","","","","","","","","","","","","","","","","","",""
"3172","","<div style=""width:500px;"">
  <p>How would you describe your current emotional state?</p>
  </div>","0","html-slider-response","51","994446","0.0-7.0-3.7","150","1","2025-08-06 09:01:39","36c45c0696341be0efffe67d72a12abb","105.245.111.55","Mozilla/5.0 (Windows NT 10.0; Win64; x64) AppleWebKit/537.36 (KHTML, like Gecko) Chrome/138.0.0.0 Safari/537.36","WebKit","Chrome","138.0.0.0","Windows","10.0","https://app.prolific.com/","en-GB,en-US;q=0.9,en;q=0.8","671d0e15c134a5355de39a6d","687a1a965b9f5b85a264363e","689319322a0317ad7feb1a7b","1","671d0e15c134a5355de39a6d","1","2025-08-06T09:18:16.496Z","","","","StressQ","","","","","","","","","","","50","","","","","","","","","","","","","","","","","","","","","","","","","","",""
"2578","","<div style=""width:500px;"">
  <p>What best describes how you currently feel?</p>
  </div>","100","html-slider-response","52","997027","0.0-7.0-4.7","150","1","2025-08-06 09:01:39","36c45c0696341be0efffe67d72a12abb","105.245.111.55","Mozilla/5.0 (Windows NT 10.0; Win64; x64) AppleWebKit/537.36 (KHTML, like Gecko) Chrome/138.0.0.0 Safari/537.36","WebKit","Chrome","138.0.0.0","Windows","10.0","https://app.prolific.com/","en-GB,en-US;q=0.9,en;q=0.8","671d0e15c134a5355de39a6d","687a1a965b9f5b85a264363e","689319322a0317ad7feb1a7b","1","671d0e15c134a5355de39a6d","1","2025-08-06T09:18:19.077Z","","","","MotivationQ","","","","","","","","","","","50","","","","","","","","","","","","","","","","","","","","","","","","","","",""
"","","","","ctl-task-cpt","53","1052219","0.0-7.0-0.8","150","1","2025-08-06 09:01:39","36c45c0696341be0efffe67d72a12abb","105.245.111.55","Mozilla/5.0 (Windows NT 10.0; Win64; x64) AppleWebKit/537.36 (KHTML, like Gecko) Chrome/138.0.0.0 Safari/537.36","WebKit","Chrome","138.0.0.0","Windows","10.0","https://app.prolific.com/","en-GB,en-US;q=0.9,en;q=0.8","671d0e15c134a5355de39a6d","687a1a965b9f5b85a264363e","689319322a0317ad7feb1a7b","1","671d0e15c134a5355de39a6d","1","2025-08-06T09:19:14.269Z","","","","","","","","","","","","","","","","win-only","2","g1:SE,g2:NW","0.4","9","0","1001221.8","1289.8","6301.6","52160.3","1","4","8","6","2","-8","-8","28","36","0.21212121212121213","1258","3000","-1990","[""left"",""up""]","{""num_key_presses"":12,""num_perfect"":5,""num_errors"":0,""num_randdir"":7,""num_randdir_good_moves"":3,""num_whilered"":0,""num_whileblue"":0,""num_blue"":3,""num_good_moves"":8}","[293.22232142857143,290.12857142857143,0.5,293.22232142857143,290.12857142857143,102.3,293.22232142857143,290.12857142857143,202.6,293.22232142857143,290.12857142857143,315.8,293.22232142857143,290.12857142857143,419.8,293.22232142857143,290.12857142857143,522,293.22232142857143,290.12857142857143,623.4,293.22232142857143,290.12857142857143,729.3,87.22232142857143,42.128571428571426,841.5,58.222321428571426,13.128571428571426,943.3,53.222321428571426,11.128571428571426,1047.9,53.222321428571426,11.128571428571426,1159.3,53.222321428571426,11.128571428571426,1270.4,53.222321428571426,11.128571428571426,1383,53.222321428571426,11.128571428571426,1487.7,53.222321428571426,11.128571428571426,1590.7,53.222321428571426,11.128571428571426,1690.9,53.222321428571426,11.128571428571426,1797.5,53.222321428571426,11.128571428571426,1908.7,-118.77767857142857,125.12857142857143,2025.4,-129.77767857142857,131.12857142857143,2131.3,-129.77767857142857,131.12857142857143,2249.1,-129.77767857142857,131.12857142857143,2351.7,-129.77767857142857,131.12857142857143,2452,-129.77767857142857,131.12857142857143,2552.2,-129.77767857142857,131.12857142857143,2668,-129.77767857142857,131.12857142857143,2777.5,-129.77767857142857,131.12857142857143,2887.9,-129.77767857142857,131.12857142857143,2990.2,-129.77767857142857,131.12857142857143,3091.6,-129.77767857142857,131.12857142857143,3194,-129.77767857142857,131.12857142857143,3296.1,-129.77767857142857,131.12857142857143,3404,-129.77767857142857,131.12857142857143,3511.4,-129.77767857142857,131.12857142857143,3616.2,-129.77767857142857,131.12857142857143,3727.4,-129.77767857142857,131.12857142857143,3830.1,-129.77767857142857,131.12857142857143,3933,-129.77767857142857,131.12857142857143,4038.1,-129.77767857142857,131.12857142857143,4145.4,-129.77767857142857,131.12857142857143,4248,-129.77767857142857,131.12857142857143,4365.6,-129.77767857142857,131.12857142857143,4466.9,-129.77767857142857,131.12857142857143,4573.9,-129.77767857142857,131.12857142857143,4675.7,-129.77767857142857,131.12857142857143,4779.8,-129.77767857142857,131.12857142857143,4884.9,-129.77767857142857,131.12857142857143,4987.2]","[1519.3,1519.4,1000,0,519.4,""oops"",""up"",""down"",""bad_move"",4575.8,3055.6,2648.6,1520.2,407,""oops"",""left"",""up"",""good_move"",7292.6,2714.5,2257.7,4578.1,456.8,""smooth"",""left"",""left"",""good_move"",9956.5,2661.1,2200.7,7295.4,460.4,""oops"",""left"",""right"",""bad_move"",15851.5,5892.3,2617.4,12889.1,345.1,""smooth"",""left"",""left"",""good_move"",18708.6,2856.6,2459.9,15852,396.7,""oops"",""up"",""left"",""good_move"",28866,10156,2640.2,25878.4,347.4,""oops"",""up"",""up"",""good_move"",31962.7,3092.8,2712.4,28869.9,380.4,""smooth"",""left"",""left"",""good_move"",34427.9,2464,2083.6,31964,380.4,""smooth"",""up"",""up"",""good_move"",37619.3,3190.5,2794.7,34428.8,395.8,""oops"",""up"",""down"",""bad_move"",40634.4,3012.7,2645.1,37621.7,367.6,""smooth"",""up"",""up"",""good_move"",43143.3,2505.3,2142.1,40638.1,363.1,""oops"",""right"",""down"",""bad_move""]"
"5593","","<div style=""width:500px;"">
  <p>What determined the result of this run?</p>
  </div>","100","html-slider-response","54","1057814","0.0-7.0-1.8","150","1","2025-08-06 09:01:39","36c45c0696341be0efffe67d72a12abb","105.245.111.55","Mozilla/5.0 (Windows NT 10.0; Win64; x64) AppleWebKit/537.36 (KHTML, like Gecko) Chrome/138.0.0.0 Safari/537.36","WebKit","Chrome","138.0.0.0","Windows","10.0","https://app.prolific.com/","en-GB,en-US;q=0.9,en;q=0.8","671d0e15c134a5355de39a6d","687a1a965b9f5b85a264363e","689319322a0317ad7feb1a7b","1","671d0e15c134a5355de39a6d","1","2025-08-06T09:19:19.864Z","","","","AttribQ","","","","","","","","","","","50","","","","","","","","","","","","","","","","","","","","","","","","","","",""
"2406","","<div style=""width:500px;"">
  <p>How much control did you have over the ball?</p>
  </div>","2","html-slider-response","55","1060222","0.0-7.0-2.8","150","1","2025-08-06 09:01:39","36c45c0696341be0efffe67d72a12abb","105.245.111.55","Mozilla/5.0 (Windows NT 10.0; Win64; x64) AppleWebKit/537.36 (KHTML, like Gecko) Chrome/138.0.0.0 Safari/537.36","WebKit","Chrome","138.0.0.0","Windows","10.0","https://app.prolific.com/","en-GB,en-US;q=0.9,en;q=0.8","671d0e15c134a5355de39a6d","687a1a965b9f5b85a264363e","689319322a0317ad7feb1a7b","1","671d0e15c134a5355de39a6d","1","2025-08-06T09:19:22.272Z","","","","ControlQ","","","","","","","","","","","50","","","","","","","","","","","","","","","","","","","","","","","","","","",""
"3608","","<div style=""width:500px;"">
  <p>How would you describe your current emotional state?</p>
  </div>","65","html-slider-response","56","1063831","0.0-7.0-3.8","150","1","2025-08-06 09:01:39","36c45c0696341be0efffe67d72a12abb","105.245.111.55","Mozilla/5.0 (Windows NT 10.0; Win64; x64) AppleWebKit/537.36 (KHTML, like Gecko) Chrome/138.0.0.0 Safari/537.36","WebKit","Chrome","138.0.0.0","Windows","10.0","https://app.prolific.com/","en-GB,en-US;q=0.9,en;q=0.8","671d0e15c134a5355de39a6d","687a1a965b9f5b85a264363e","689319322a0317ad7feb1a7b","1","671d0e15c134a5355de39a6d","1","2025-08-06T09:19:25.882Z","","","","StressQ","","","","","","","","","","","50","","","","","","","","","","","","","","","","","","","","","","","","","","",""
"4268","","<div style=""width:500px;"">
  <p>What best describes how you currently feel?</p>
  </div>","94","html-slider-response","57","1068101","0.0-7.0-4.8","150","1","2025-08-06 09:01:39","36c45c0696341be0efffe67d72a12abb","105.245.111.55","Mozilla/5.0 (Windows NT 10.0; Win64; x64) AppleWebKit/537.36 (KHTML, like Gecko) Chrome/138.0.0.0 Safari/537.36","WebKit","Chrome","138.0.0.0","Windows","10.0","https://app.prolific.com/","en-GB,en-US;q=0.9,en;q=0.8","671d0e15c134a5355de39a6d","687a1a965b9f5b85a264363e","689319322a0317ad7feb1a7b","1","671d0e15c134a5355de39a6d","1","2025-08-06T09:19:30.152Z","","","","MotivationQ","","","","","","","","","","","50","","","","","","","","","","","","","","","","","","","","","","","","","","",""
"","","","","ctl-task-cpt","58","1122951","0.0-7.0-0.9","150","1","2025-08-06 09:01:39","36c45c0696341be0efffe67d72a12abb","105.245.111.55","Mozilla/5.0 (Windows NT 10.0; Win64; x64) AppleWebKit/537.36 (KHTML, like Gecko) Chrome/138.0.0.0 Safari/537.36","WebKit","Chrome","138.0.0.0","Windows","10.0","https://app.prolific.com/","en-GB,en-US;q=0.9,en;q=0.8","671d0e15c134a5355de39a6d","687a1a965b9f5b85a264363e","689319322a0317ad7feb1a7b","1","671d0e15c134a5355de39a6d","1","2025-08-06T09:20:25.001Z","","","","","","","","","","","","","","","","win-only","2","g1:SE,g2:NW","0.5","10","0","1072297.1","1129.1","6140.3","51831.4","1","4","4","6","2","-4","-4","24","28","0.18181818181818182","1282.4","3000","-1785","[""left"",""up""]","{""num_key_presses"":12,""num_perfect"":6,""num_errors"":0,""num_randdir"":6,""num_randdir_good_moves"":1,""num_whilered"":0,""num_whileblue"":0,""num_blue"":2,""num_good_moves"":6}","[289.22232142857143,296.12857142857143,1.2,289.22232142857143,296.12857142857143,108.8,289.22232142857143,296.12857142857143,212,289.22232142857143,296.12857142857143,319.1,289.22232142857143,296.12857142857143,422.5,289.22232142857143,296.12857142857143,531.8,289.22232142857143,296.12857142857143,632.9,73.22232142857143,149.12857142857143,734.1,43.222321428571426,117.12857142857143,836.6,32.222321428571426,99.12857142857143,938.3,38.222321428571426,87.12857142857143,1042,41.222321428571426,79.12857142857143,1150.3,41.222321428571426,79.12857142857143,1252.9,41.222321428571426,79.12857142857143,1360.6,41.222321428571426,79.12857142857143,1468.1,41.222321428571426,79.12857142857143,1576.3,41.222321428571426,79.12857142857143,1689.8,-99.77767857142857,248.12857142857143,1808,-132.77767857142857,264.12857142857143,1912.4,-132.77767857142857,264.12857142857143,2016.3,-132.77767857142857,264.12857142857143,2118.1,-132.77767857142857,264.12857142857143,2222.1,-132.77767857142857,264.12857142857143,2328.5,-132.77767857142857,264.12857142857143,2430.3,-132.77767857142857,264.12857142857143,2532.8,-132.77767857142857,264.12857142857143,2637.8,-132.77767857142857,264.12857142857143,2737.8,-132.77767857142857,264.12857142857143,2839.7,-132.77767857142857,264.12857142857143,2940.5,-132.77767857142857,264.12857142857143,3047.3,-132.77767857142857,264.12857142857143,3148.1,-132.77767857142857,264.12857142857143,3254.6,-132.77767857142857,264.12857142857143,3366.7,-132.77767857142857,264.12857142857143,3473.2,-132.77767857142857,264.12857142857143,3577.3,-132.77767857142857,264.12857142857143,3680.9,-132.77767857142857,264.12857142857143,3787.1,-132.77767857142857,264.12857142857143,3892.7,-132.77767857142857,264.12857142857143,3998.4,-132.77767857142857,264.12857142857143,4103.4,-132.77767857142857,264.12857142857143,4207.1,-132.77767857142857,264.12857142857143,4313.6,-132.77767857142857,264.12857142857143,4420,-132.77767857142857,264.12857142857143,4522.5,-132.77767857142857,264.12857142857143,4625.9,-132.77767857142857,264.12857142857143,4731.3,-132.77767857142857,264.12857142857143,4832.2,-132.77767857142857,264.12857142857143,4940.6]","[5079.8,5079.8,2682.7,2010.5,386.6,""smooth"",""up"",""up"",""good_move"",7841.1,2760.6,2362.6,5080.5,398,""smooth"",""up"",""up"",""good_move"",11170.3,3328.2,2930.5,7842.1,397.7,""smooth"",""left"",""left"",""good_move"",14388.4,3217.5,2776.5,11170.9,441,""oops"",""left"",""right"",""bad_move"",17279,2889.6,2463.5,14389.4,426.1,""oops"",""left"",""right"",""bad_move"",20210.1,2930.3,2443.7,17279.8,486.6,""smooth"",""up"",""up"",""good_move"",23561.4,3349.2,2875.9,20212.2,473.3,""smooth"",""left"",""left"",""good_move"",26841.6,3279.2,2894.4,23562.4,384.8,""oops"",""left"",""left"",""good_move"",32883.7,6041.3,2767.7,29703.5,412.5,""oops"",""left"",""right"",""bad_move"",36315.6,3431.1,3050.4,32884.5,380.7,""oops"",""left"",""right"",""bad_move"",39661.1,3344.6,2930.4,36316.6,414.2,""smooth"",""up"",""right"",""bad_move"",42935.7,3273.5,2794.5,39662.4,478.9,""oops"",""left"",""down"",""bad_move""]"
"3964","","<div style=""width:500px;"">
  <p>What determined the result of this run?</p>
  </div>","100","html-slider-response","59","1126917","0.0-7.0-1.9","150","1","2025-08-06 09:01:39","36c45c0696341be0efffe67d72a12abb","105.245.111.55","Mozilla/5.0 (Windows NT 10.0; Win64; x64) AppleWebKit/537.36 (KHTML, like Gecko) Chrome/138.0.0.0 Safari/537.36","WebKit","Chrome","138.0.0.0","Windows","10.0","https://app.prolific.com/","en-GB,en-US;q=0.9,en;q=0.8","671d0e15c134a5355de39a6d","687a1a965b9f5b85a264363e","689319322a0317ad7feb1a7b","1","671d0e15c134a5355de39a6d","1","2025-08-06T09:20:28.967Z","","","","AttribQ","","","","","","","","","","","50","","","","","","","","","","","","","","","","","","","","","","","","","","",""
"3900","","<div style=""width:500px;"">
  <p>How much control did you have over the ball?</p>
  </div>","2","html-slider-response","60","1130819","0.0-7.0-2.9","150","1","2025-08-06 09:01:39","36c45c0696341be0efffe67d72a12abb","105.245.111.55","Mozilla/5.0 (Windows NT 10.0; Win64; x64) AppleWebKit/537.36 (KHTML, like Gecko) Chrome/138.0.0.0 Safari/537.36","WebKit","Chrome","138.0.0.0","Windows","10.0","https://app.prolific.com/","en-GB,en-US;q=0.9,en;q=0.8","671d0e15c134a5355de39a6d","687a1a965b9f5b85a264363e","689319322a0317ad7feb1a7b","1","671d0e15c134a5355de39a6d","1","2025-08-06T09:20:32.869Z","","","","ControlQ","","","","","","","","","","","50","","","","","","","","","","","","","","","","","","","","","","","","","","",""
"3652","","<div style=""width:500px;"">
  <p>How would you describe your current emotional state?</p>
  </div>","69","html-slider-response","61","1134474","0.0-7.0-3.9","150","1","2025-08-06 09:01:39","36c45c0696341be0efffe67d72a12abb","105.245.111.55","Mozilla/5.0 (Windows NT 10.0; Win64; x64) AppleWebKit/537.36 (KHTML, like Gecko) Chrome/138.0.0.0 Safari/537.36","WebKit","Chrome","138.0.0.0","Windows","10.0","https://app.prolific.com/","en-GB,en-US;q=0.9,en;q=0.8","671d0e15c134a5355de39a6d","687a1a965b9f5b85a264363e","689319322a0317ad7feb1a7b","1","671d0e15c134a5355de39a6d","1","2025-08-06T09:20:36.524Z","","","","StressQ","","","","","","","","","","","50","","","","","","","","","","","","","","","","","","","","","","","","","","",""
"3818","","<div style=""width:500px;"">
  <p>What best describes how you currently feel?</p>
  </div>","89","html-slider-response","62","1138294","0.0-7.0-4.9","150","1","2025-08-06 09:01:39","36c45c0696341be0efffe67d72a12abb","105.245.111.55","Mozilla/5.0 (Windows NT 10.0; Win64; x64) AppleWebKit/537.36 (KHTML, like Gecko) Chrome/138.0.0.0 Safari/537.36","WebKit","Chrome","138.0.0.0","Windows","10.0","https://app.prolific.com/","en-GB,en-US;q=0.9,en;q=0.8","671d0e15c134a5355de39a6d","687a1a965b9f5b85a264363e","689319322a0317ad7feb1a7b","1","671d0e15c134a5355de39a6d","1","2025-08-06T09:20:40.345Z","","","","MotivationQ","","","","","","","","","","","50","","","","","","","","","","","","","","","","","","","","","","","","","","",""
"","","","","ctl-task-cpt","63","1196672","0.0-7.0-0.10","150","1","2025-08-06 09:01:39","36c45c0696341be0efffe67d72a12abb","105.245.111.55","Mozilla/5.0 (Windows NT 10.0; Win64; x64) AppleWebKit/537.36 (KHTML, like Gecko) Chrome/138.0.0.0 Safari/537.36","WebKit","Chrome","138.0.0.0","Windows","10.0","https://app.prolific.com/","en-GB,en-US;q=0.9,en;q=0.8","671d0e15c134a5355de39a6d","687a1a965b9f5b85a264363e","689319322a0317ad7feb1a7b","1","671d0e15c134a5355de39a6d","1","2025-08-06T09:21:38.722Z","","","","","","","","","","","","","","","","win-only","3","g1:SW,g2:NE","0.6","11","0","1142488.4","1175.2","6183","55329","1","4","8","6","2","8","8","32","24","0.24242424242424243","1210.1","3000","630","[""up"",""right""]","{""num_key_presses"":14,""num_perfect"":10,""num_errors"":0,""num_randdir"":4,""num_randdir_good_moves"":1,""num_whilered"":0,""num_whileblue"":0,""num_blue"":2,""num_good_moves"":10}","[294.22232142857143,294.12857142857143,1.4,294.22232142857143,294.12857142857143,107.6,294.22232142857143,294.12857142857143,210.8,294.22232142857143,294.12857142857143,312.8,294.22232142857143,294.12857142857143,414.5,294.22232142857143,294.12857142857143,517,365.22232142857143,200.12857142857143,620.7,508.22232142857143,88.12857142857143,722.2,518.2223214285714,87.12857142857143,822.4,523.2223214285714,86.12857142857143,929.2,523.2223214285714,85.12857142857143,1035,523.2223214285714,85.12857142857143,1140.7,523.2223214285714,85.12857142857143,1243.5,523.2223214285714,85.12857142857143,1344.7,523.2223214285714,85.12857142857143,1446,523.2223214285714,85.12857142857143,1552.4,523.2223214285714,85.12857142857143,1661.3,649.2223214285714,118.12857142857143,1765,804.2223214285714,244.12857142857143,1876.1,804.2223214285714,244.12857142857143,1981.6,804.2223214285714,244.12857142857143,2087.6,804.2223214285714,244.12857142857143,2187.9,804.2223214285714,244.12857142857143,2289.4,804.2223214285714,244.12857142857143,2392.3,804.2223214285714,244.12857142857143,2494.8,804.2223214285714,244.12857142857143,2603,804.2223214285714,244.12857142857143,2705.7,804.2223214285714,244.12857142857143,2807.3,804.2223214285714,244.12857142857143,2907.5,804.2223214285714,244.12857142857143,3010.1,804.2223214285714,244.12857142857143,3116,804.2223214285714,244.12857142857143,3224.7,804.2223214285714,244.12857142857143,3329.3,804.2223214285714,244.12857142857143,3437.6,804.2223214285714,244.12857142857143,3540.3,804.2223214285714,244.12857142857143,3643.8,804.2223214285714,244.12857142857143,3746.5,804.2223214285714,244.12857142857143,3851.7,804.2223214285714,244.12857142857143,3956.9,804.2223214285714,244.12857142857143,4067,804.2223214285714,244.12857142857143,4169.8,804.2223214285714,244.12857142857143,4279.6,804.2223214285714,244.12857142857143,4380.1,804.2223214285714,244.12857142857143,4480.4,804.2223214285714,244.12857142857143,4581.1,804.2223214285714,244.12857142857143,4686.4,804.2223214285714,244.12857142857143,4791.6,804.2223214285714,244.12857142857143,4892.5,804.2223214285714,244.12857142857143,4999.7]","[1771.4,1771.4,1000,0.1,771.4,""smooth"",""down"",""down"",""bad_move"",4218.8,2446.4,2057.1,1772.6,389.2,""smooth"",""right"",""right"",""good_move"",7085.9,2865,2458.4,4220.9,406.6,""smooth"",""right"",""right"",""good_move"",9808.3,2718.7,2321.9,7089.6,396.8,""oops"",""right"",""down"",""bad_move"",12662.7,2853.5,2502.5,9809.2,351,""oops"",""right"",""up"",""good_move"",19634.9,6971,3053.4,16181.5,400,""smooth"",""up"",""up"",""good_move"",22834.6,3198.7,2841.1,19635.9,357.6,""smooth"",""up"",""up"",""good_move"",26098.6,3262.7,2797.1,22835.9,465.6,""smooth"",""up"",""up"",""good_move"",29237.3,3134.1,2797.3,26103.2,336.8,""oops"",""up"",""down"",""bad_move"",32492.4,3254,2920.6,29238.4,333.4,""oops"",""down"",""down"",""bad_move"",34929.2,2436.1,1987,32493.1,449.1,""smooth"",""up"",""up"",""good_move"",38629.7,3698.8,2924,34930.9,774.8,""smooth"",""up"",""up"",""good_move"",42482.3,3849.1,2205.7,38633.2,1643.4,""smooth"",""right"",""right"",""good_move"",48664.5,6181.2,2364.3,45868.3,431.9,""smooth"",""up"",""up"",""good_move""]"
"4361","","<div style=""width:500px;"">
  <p>What determined the result of this run?</p>
  </div>","100","html-slider-response","64","1201036","0.0-7.0-1.10","150","1","2025-08-06 09:01:39","36c45c0696341be0efffe67d72a12abb","105.245.111.55","Mozilla/5.0 (Windows NT 10.0; Win64; x64) AppleWebKit/537.36 (KHTML, like Gecko) Chrome/138.0.0.0 Safari/537.36","WebKit","Chrome","138.0.0.0","Windows","10.0","https://app.prolific.com/","en-GB,en-US;q=0.9,en;q=0.8","671d0e15c134a5355de39a6d","687a1a965b9f5b85a264363e","689319322a0317ad7feb1a7b","1","671d0e15c134a5355de39a6d","1","2025-08-06T09:21:43.086Z","","","","AttribQ","","","","","","","","","","","50","","","","","","","","","","","","","","","","","","","","","","","","","","",""
"4196","","<div style=""width:500px;"">
  <p>How much control did you have over the ball?</p>
  </div>","100","html-slider-response","65","1205235","0.0-7.0-2.10","150","1","2025-08-06 09:01:39","36c45c0696341be0efffe67d72a12abb","105.245.111.55","Mozilla/5.0 (Windows NT 10.0; Win64; x64) AppleWebKit/537.36 (KHTML, like Gecko) Chrome/138.0.0.0 Safari/537.36","WebKit","Chrome","138.0.0.0","Windows","10.0","https://app.prolific.com/","en-GB,en-US;q=0.9,en;q=0.8","671d0e15c134a5355de39a6d","687a1a965b9f5b85a264363e","689319322a0317ad7feb1a7b","1","671d0e15c134a5355de39a6d","1","2025-08-06T09:21:47.285Z","","","","ControlQ","","","","","","","","","","","50","","","","","","","","","","","","","","","","","","","","","","","","","","",""
"3132","","<div style=""width:500px;"">
  <p>How would you describe your current emotional state?</p>
  </div>","0","html-slider-response","66","1208371","0.0-7.0-3.10","150","1","2025-08-06 09:01:39","36c45c0696341be0efffe67d72a12abb","105.245.111.55","Mozilla/5.0 (Windows NT 10.0; Win64; x64) AppleWebKit/537.36 (KHTML, like Gecko) Chrome/138.0.0.0 Safari/537.36","WebKit","Chrome","138.0.0.0","Windows","10.0","https://app.prolific.com/","en-GB,en-US;q=0.9,en;q=0.8","671d0e15c134a5355de39a6d","687a1a965b9f5b85a264363e","689319322a0317ad7feb1a7b","1","671d0e15c134a5355de39a6d","1","2025-08-06T09:21:50.422Z","","","","StressQ","","","","","","","","","","","50","","","","","","","","","","","","","","","","","","","","","","","","","","",""
"2668","","<div style=""width:500px;"">
  <p>What best describes how you currently feel?</p>
  </div>","100","html-slider-response","67","1211044","0.0-7.0-4.10","150","1","2025-08-06 09:01:39","36c45c0696341be0efffe67d72a12abb","105.245.111.55","Mozilla/5.0 (Windows NT 10.0; Win64; x64) AppleWebKit/537.36 (KHTML, like Gecko) Chrome/138.0.0.0 Safari/537.36","WebKit","Chrome","138.0.0.0","Windows","10.0","https://app.prolific.com/","en-GB,en-US;q=0.9,en;q=0.8","671d0e15c134a5355de39a6d","687a1a965b9f5b85a264363e","689319322a0317ad7feb1a7b","1","671d0e15c134a5355de39a6d","1","2025-08-06T09:21:53.094Z","","","","MotivationQ","","","","","","","","","","","50","","","","","","","","","","","","","","","","","","","","","","","","","","",""
"","","","","ctl-task-cpt","68","1288661","0.0-7.0-0.11","150","1","2025-08-06 09:01:39","36c45c0696341be0efffe67d72a12abb","105.245.111.55","Mozilla/5.0 (Windows NT 10.0; Win64; x64) AppleWebKit/537.36 (KHTML, like Gecko) Chrome/138.0.0.0 Safari/537.36","WebKit","Chrome","138.0.0.0","Windows","10.0","https://app.prolific.com/","en-GB,en-US;q=0.9,en;q=0.8","671d0e15c134a5355de39a6d","687a1a965b9f5b85a264363e","689319322a0317ad7feb1a7b","1","671d0e15c134a5355de39a6d","1","2025-08-06T09:23:10.711Z","","","","","","","","","","","","","","","","win-only","2","g1:SE,g2:NW","0.7","12","0","1215240.3","1410.1","6432.7","74584.4","1","4","4","6","2","-4","-5","27","32","0.20454545454545456","1274.5","3000","-1500","[""left"",""up""]","{""num_key_presses"":20,""num_perfect"":13,""num_errors"":1,""num_randdir"":6,""num_randdir_good_moves"":2,""num_whilered"":0,""num_whileblue"":1,""num_blue"":1,""num_good_moves"":12}","[298.22232142857143,291.12857142857143,4,298.22232142857143,291.12857142857143,104.7,298.22232142857143,291.12857142857143,215.5,298.22232142857143,291.12857142857143,316.2,298.22232142857143,291.12857142857143,450.1,298.22232142857143,291.12857142857143,580.1,298.22232142857143,291.12857142857143,726,83.22232142857143,106.12857142857143,838,57.222321428571426,60.128571428571426,949.4,53.222321428571426,54.128571428571426,1056.5,55.222321428571426,53.128571428571426,1188.3,55.222321428571426,53.128571428571426,1319.6,55.222321428571426,53.128571428571426,1443.1,55.222321428571426,53.128571428571426,1592.7,-11.777678571428574,151.12857142857143,1745.9,-61.777678571428574,213.12857142857143,1850.4,-134.77767857142857,327.12857142857143,1982.7,-134.77767857142857,327.12857142857143,2115.8,-134.77767857142857,327.12857142857143,2247.1,-134.77767857142857,327.12857142857143,2362.6,-134.77767857142857,327.12857142857143,2473.9,-134.77767857142857,327.12857142857143,2593.4,-134.77767857142857,327.12857142857143,2725.2,-134.77767857142857,327.12857142857143,2856.2,-134.77767857142857,327.12857142857143,2987.2,-134.77767857142857,327.12857142857143,3124.5,-134.77767857142857,327.12857142857143,3236.7,-134.77767857142857,327.12857142857143,3349.4,-134.77767857142857,327.12857142857143,3465.8,-134.77767857142857,327.12857142857143,3573.7,-134.77767857142857,327.12857142857143,3675.5,-134.77767857142857,327.12857142857143,3808.2,-134.77767857142857,327.12857142857143,3946.1,-134.77767857142857,327.12857142857143,4089.6,-134.77767857142857,327.12857142857143,4192.5,-134.77767857142857,327.12857142857143,4323.1,-134.77767857142857,327.12857142857143,4424.4,-134.77767857142857,327.12857142857143,4559.9,-134.77767857142857,327.12857142857143,4660.4,-134.77767857142857,327.12857142857143,4766,-134.77767857142857,327.12857142857143,4873.8,-134.77767857142857,327.12857142857143,4985.2]","[1471.5,1471.5,1000,0,471.5,""smooth"",""left"",""left"",""good_move"",7612,6139.8,3404.1,1472.2,2735.7,""smooth"",""left"",""left"",""good_move"",12092.9,4480.4,3354.7,7612.5,1125.7,""oops"",""up"",""left"",""good_move"",14503.2,2409.2,1967.4,12094,441.8,""smooth"",""left"",""down"",""bad_move"",17241.3,2736.4,2343.2,14504.9,393.2,""smooth"",""down"",""down"",""bad_move"",20297.9,3054.7,2651.2,17243.2,403.5,""oops"",""up"",""left"",""good_move"",22869,2570,1854.6,20299.1,715.3,""oops"",""right"",""right"",""bad_move"",26224.4,3354.2,3031.1,22870.2,323.1,""smooth"",""right"",""right"",""bad_move"",29757.6,3532.5,3094.8,26225.2,437.7,""smooth"",""up"",""up"",""good_move"",32358.2,2597,2192.3,29761.2,404.7,""smooth"",""up"",""up"",""good_move"",35913.1,3554,3171,32359.1,383,""oops"",""up"",""down"",""bad_move"",39242.1,3326.6,2946.7,35915.5,379.9,""smooth"",""up"",""up"",""good_move"",43157.5,3912.7,3585.6,39244.8,327.1,""smooth"",""left"",""left"",""good_move"",45979.9,2820.9,2491.4,43159,329.5,""smooth"",""up"",""up"",""good_move"",49666.9,3685.5,3357,45981.4,328.5,""oops"",""up"",""right"",""bad_move"",52710.8,3042.2,2545.6,49668.6,496.6,""smooth"",""up"",""up"",""good_move"",56035.8,3319.5,2132.8,52716.4,1186.6,""smooth"",""left"",""left"",""good_move"",58797.5,2758.9,2428.7,56038.6,330.2,""while_blue"",""up"",""right"",""bad_move"",62778.8,3967.5,3610.1,58811.4,357.4,""smooth"",""left"",""left"",""good_move"",65669.5,2889,2518.8,62780.5,370.2,""oops"",""up"",""right"",""bad_move""]"
"3817","","<div style=""width:500px;"">
  <p>What determined the result of this run?</p>
  </div>","87","html-slider-response","69","1292480","0.0-7.0-1.11","150","1","2025-08-06 09:01:39","36c45c0696341be0efffe67d72a12abb","105.245.111.55","Mozilla/5.0 (Windows NT 10.0; Win64; x64) AppleWebKit/537.36 (KHTML, like Gecko) Chrome/138.0.0.0 Safari/537.36","WebKit","Chrome","138.0.0.0","Windows","10.0","https://app.prolific.com/","en-GB,en-US;q=0.9,en;q=0.8","671d0e15c134a5355de39a6d","687a1a965b9f5b85a264363e","689319322a0317ad7feb1a7b","1","671d0e15c134a5355de39a6d","1","2025-08-06T09:23:14.530Z","","","","AttribQ","","","","","","","","","","","50","","","","","","","","","","","","","","","","","","","","","","","","","","",""
"3140","","<div style=""width:500px;"">
  <p>How much control did you have over the ball?</p>
  </div>","13","html-slider-response","70","1295623","0.0-7.0-2.11","150","1","2025-08-06 09:01:39","36c45c0696341be0efffe67d72a12abb","105.245.111.55","Mozilla/5.0 (Windows NT 10.0; Win64; x64) AppleWebKit/537.36 (KHTML, like Gecko) Chrome/138.0.0.0 Safari/537.36","WebKit","Chrome","138.0.0.0","Windows","10.0","https://app.prolific.com/","en-GB,en-US;q=0.9,en;q=0.8","671d0e15c134a5355de39a6d","687a1a965b9f5b85a264363e","689319322a0317ad7feb1a7b","1","671d0e15c134a5355de39a6d","1","2025-08-06T09:23:17.673Z","","","","ControlQ","","","","","","","","","","","50","","","","","","","","","","","","","","","","","","","","","","","","","","",""
"5726","","<div style=""width:500px;"">
  <p>How would you describe your current emotional state?</p>
  </div>","7","html-slider-response","71","1301352","0.0-7.0-3.11","150","1","2025-08-06 09:01:39","36c45c0696341be0efffe67d72a12abb","105.245.111.55","Mozilla/5.0 (Windows NT 10.0; Win64; x64) AppleWebKit/537.36 (KHTML, like Gecko) Chrome/138.0.0.0 Safari/537.36","WebKit","Chrome","138.0.0.0","Windows","10.0","https://app.prolific.com/","en-GB,en-US;q=0.9,en;q=0.8","671d0e15c134a5355de39a6d","687a1a965b9f5b85a264363e","689319322a0317ad7feb1a7b","1","671d0e15c134a5355de39a6d","1","2025-08-06T09:23:23.402Z","","","","StressQ","","","","","","","","","","","50","","","","","","","","","","","","","","","","","","","","","","","","","","",""
"2686","","<div style=""width:500px;"">
  <p>What best describes how you currently feel?</p>
  </div>","96","html-slider-response","72","1304041","0.0-7.0-4.11","150","1","2025-08-06 09:01:39","36c45c0696341be0efffe67d72a12abb","105.245.111.55","Mozilla/5.0 (Windows NT 10.0; Win64; x64) AppleWebKit/537.36 (KHTML, like Gecko) Chrome/138.0.0.0 Safari/537.36","WebKit","Chrome","138.0.0.0","Windows","10.0","https://app.prolific.com/","en-GB,en-US;q=0.9,en;q=0.8","671d0e15c134a5355de39a6d","687a1a965b9f5b85a264363e","689319322a0317ad7feb1a7b","1","671d0e15c134a5355de39a6d","1","2025-08-06T09:23:26.091Z","","","","MotivationQ","","","","","","","","","","","50","","","","","","","","","","","","","","","","","","","","","","","","","","",""
"","","","","ctl-task-cpt","73","1329406","0.0-7.0-0.12","150","1","2025-08-06 09:01:39","36c45c0696341be0efffe67d72a12abb","105.245.111.55","Mozilla/5.0 (Windows NT 10.0; Win64; x64) AppleWebKit/537.36 (KHTML, like Gecko) Chrome/138.0.0.0 Safari/537.36","WebKit","Chrome","138.0.0.0","Windows","10.0","https://app.prolific.com/","en-GB,en-US;q=0.9,en;q=0.8","671d0e15c134a5355de39a6d","687a1a965b9f5b85a264363e","689319322a0317ad7feb1a7b","1","671d0e15c134a5355de39a6d","1","2025-08-06T09:23:51.456Z","","","","","","","","","","","","","","","","win-only","2","g1:SE,g2:NW","0.8","13","0","1308237.2","1104.1","6117.1","22328.8","1","4","8","6","2","8","8","35","27","0.26515151515151514","2420.4","3000","2060","[""left"",""up""]","{""num_key_presses"":6,""num_perfect"":6,""num_errors"":0,""num_randdir"":0,""num_randdir_good_moves"":0,""num_whilered"":0,""num_whileblue"":0,""num_blue"":0,""num_good_moves"":6}","[300.22232142857143,296.12857142857143,1.4,300.22232142857143,296.12857142857143,100.3,300.22232142857143,296.12857142857143,203.4,300.22232142857143,296.12857142857143,306.8,300.22232142857143,296.12857142857143,414.5,300.22232142857143,296.12857142857143,523.8,300.22232142857143,296.12857142857143,625.4,300.22232142857143,296.12857142857143,740.1,300.22232142857143,296.12857142857143,842.1,300.22232142857143,296.12857142857143,948.7,180.22232142857143,175.12857142857143,1053.3,117.22232142857143,107.12857142857143,1155,111.22232142857143,101.12857142857143,1260.3,94.22232142857143,92.12857142857143,1362.6,25.222321428571426,48.128571428571426,1470.3,25.222321428571426,48.128571428571426,1572.2,25.222321428571426,48.128571428571426,1678.4,25.222321428571426,48.128571428571426,1786.1,25.222321428571426,48.128571428571426,1889,25.222321428571426,48.128571428571426,1997.5,25.222321428571426,48.128571428571426,2103.8,25.222321428571426,48.128571428571426,2206.7,25.222321428571426,48.128571428571426,2309.4,25.222321428571426,48.128571428571426,2424.3,25.222321428571426,48.128571428571426,2526.6,25.222321428571426,48.128571428571426,2642.9,25.222321428571426,48.128571428571426,2752.7,25.222321428571426,48.128571428571426,2856.6,25.222321428571426,48.128571428571426,2970.9,39.222321428571426,123.12857142857143,3073,-10.777678571428574,308.12857142857143,3176.8,-215.77767857142857,273.12857142857143,3285.4,-215.77767857142857,273.12857142857143,3397.5,-215.77767857142857,273.12857142857143,3502.2,-215.77767857142857,273.12857142857143,3603.9,-215.77767857142857,273.12857142857143,3709.8,-215.77767857142857,273.12857142857143,3816.2,-215.77767857142857,273.12857142857143,3919.7,-215.77767857142857,273.12857142857143,4041.8,-215.77767857142857,273.12857142857143,4146.2,-215.77767857142857,273.12857142857143,4250.3,-215.77767857142857,273.12857142857143,4352.9,-215.77767857142857,273.12857142857143,4461.8,-215.77767857142857,273.12857142857143,4620.4,-215.77767857142857,273.12857142857143,4731.2,-215.77767857142857,273.12857142857143,4831.9,-215.77767857142857,273.12857142857143,4932.2]","[1387.4,1387.4,1000,0,387.4,""smooth"",""up"",""up"",""good_move"",4533.5,3145.3,2529.8,1388.3,615.4,""smooth"",""up"",""up"",""good_move"",7145.4,2610.9,2212,4534.5,398.9,""smooth"",""left"",""left"",""good_move"",9544,2396.9,1814.6,7147.1,582.3,""smooth"",""left"",""left"",""good_move"",12824,3279.1,2816.6,9544.9,462.5,""smooth"",""left"",""left"",""good_move"",15989.1,3164.2,2765.5,12824.9,398.7,""smooth"",""up"",""up"",""good_move""]"
"16442","","<div style=""width:500px;"">
  <p>What determined the result of this run?</p>
  </div>","100","html-slider-response","74","1345850","0.0-7.0-1.12","150","1","2025-08-06 09:01:39","36c45c0696341be0efffe67d72a12abb","105.245.111.55","Mozilla/5.0 (Windows NT 10.0; Win64; x64) AppleWebKit/537.36 (KHTML, like Gecko) Chrome/138.0.0.0 Safari/537.36","WebKit","Chrome","138.0.0.0","Windows","10.0","https://app.prolific.com/","en-GB,en-US;q=0.9,en;q=0.8","671d0e15c134a5355de39a6d","687a1a965b9f5b85a264363e","689319322a0317ad7feb1a7b","1","671d0e15c134a5355de39a6d","1","2025-08-06T09:24:07.900Z","","","","AttribQ","","","","","","","","","","","50","","","","","","","","","","","","","","","","","","","","","","","","","","",""
"3903","","<div style=""width:500px;"">
  <p>How much control did you have over the ball?</p>
  </div>","100","html-slider-response","75","1349756","0.0-7.0-2.12","150","1","2025-08-06 09:01:39","36c45c0696341be0efffe67d72a12abb","105.245.111.55","Mozilla/5.0 (Windows NT 10.0; Win64; x64) AppleWebKit/537.36 (KHTML, like Gecko) Chrome/138.0.0.0 Safari/537.36","WebKit","Chrome","138.0.0.0","Windows","10.0","https://app.prolific.com/","en-GB,en-US;q=0.9,en;q=0.8","671d0e15c134a5355de39a6d","687a1a965b9f5b85a264363e","689319322a0317ad7feb1a7b","1","671d0e15c134a5355de39a6d","1","2025-08-06T09:24:11.806Z","","","","ControlQ","","","","","","","","","","","50","","","","","","","","","","","","","","","","","","","","","","","","","","",""
"3963","","<div style=""width:500px;"">
