"rt","response_timestamp","stimulus","response","trial_type","trial_index","time_elapsed","internal_node_id","run_id","condition","recorded_at","source_code_version","ip","user_agent","device","browser","browser_version","platform","platform_version","referer","accept_language","PROLIFIC_PID","STUDY_ID","SESSION_ID","BATCH","prolific_id","batch","realtime","success","question_order","question_id","eventType","responses","item_order","radio_event_ids","radio_event_times","key_event_times","mouse_event_times","straightlining","zigzagging","honeypot","view_history","slider_start","which_type","canvas_config","goals_layout","control_level","trial_number","tutorial_trial_number","trial_start_time","phase1_start_time","phase2_start_time","phase3_start_time","goal_1_value","goal_1_distance","goal_2_value","goal_2_distance","goal_selected","outcome","outcome_total","participant_final_score","participant_initial_score","participant_final_score_prop","goal_choice_rt","allocated_time","allocated_time_remaining","goal_direction","counts","mouse_movements","key_presses"
"4584","1753969864844","<p style='font-size:40px;line-height:1.25'><strong>Welcome to the experiment!</strong></p><p style='font-size:1.1em;line-height:1.25'>Thank you for participanting in our experiment again! You will be asked to play the Dysfunctional Ball Game again. We will briefly recap the rules before we start.</p><p style='font-size:1.1em;line-height:1.25'>Press <strong>Next</strong> to continue.</p>","0","custom-html-button-response","0","4592","0.0-0.0","114","1","2025-07-31 13:50:56","36c45c0696341be0efffe67d72a12abb","197.184.98.225","Mozilla/5.0 (Windows NT 10.0; Win64; x64) AppleWebKit/537.36 (KHTML, like Gecko) Chrome/138.0.0.0 Safari/537.36","WebKit","Chrome","138.0.0.0","Windows","10.0","https://app.prolific.com/","en-GB,en-US;q=0.9,en;q=0.8","67215aa0a8e88c6751efc410","683dba9a53627eb9ab41b36a","688b74b66759771592367574","0","67215aa0a8e88c6751efc410","0","2025-07-31T13:51:04.846Z","","","","","","","","","","","","","","","","","","","","","","","","","","","","","","","","","","","","","","","","","",""
"16185","","","","fullscreen","1","21820","0.0-1.0","114","1","2025-07-31 13:50:56","36c45c0696341be0efffe67d72a12abb","197.184.98.225","Mozilla/5.0 (Windows NT 10.0; Win64; x64) AppleWebKit/537.36 (KHTML, like Gecko) Chrome/138.0.0.0 Safari/537.36","WebKit","Chrome","138.0.0.0","Windows","10.0","https://app.prolific.com/","en-GB,en-US;q=0.9,en;q=0.8","67215aa0a8e88c6751efc410","683dba9a53627eb9ab41b36a","688b74b66759771592367574","0","67215aa0a8e88c6751efc410","0","","true","","","","","","","","","","","","","","","","","","","","","","","","","","","","","","","","","","","","","","","","",""
"4941","1753969887019"," <p style='font-size:1.1em;line-height:1.25'>Thank you for closing all other tabs.</p><p style='font-size:1.1em;line-height:1.25'>We will now invite you to fill in some questionnaires, before starting the game.<br>This will take about 5 minutes.<br></p><p style='font-size:1.1em;line-height:1.25'>Press the <strong>Next</strong> button to continue.</p>","0","custom-html-button-response","2","26766","0.0-2.0","114","1","2025-07-31 13:50:56","36c45c0696341be0efffe67d72a12abb","197.184.98.225","Mozilla/5.0 (Windows NT 10.0; Win64; x64) AppleWebKit/537.36 (KHTML, like Gecko) Chrome/138.0.0.0 Safari/537.36","WebKit","Chrome","138.0.0.0","Windows","10.0","https://app.prolific.com/","en-GB,en-US;q=0.9,en;q=0.8","67215aa0a8e88c6751efc410","683dba9a53627eb9ab41b36a","688b74b66759771592367574","0","67215aa0a8e88c6751efc410","0","2025-07-31T13:51:27.020Z","","","","","","","","","","","","","","","","","","","","","","","","","","","","","","","","","","","","","","","","","",""
"5001","","","{""assigned_sex"":""female""}","survey-multi-choice","3","31776","0.0-3.0-0.0","114","1","2025-07-31 13:50:56","36c45c0696341be0efffe67d72a12abb","197.184.98.225","Mozilla/5.0 (Windows NT 10.0; Win64; x64) AppleWebKit/537.36 (KHTML, like Gecko) Chrome/138.0.0.0 Safari/537.36","WebKit","Chrome","138.0.0.0","Windows","10.0","https://app.prolific.com/","en-GB,en-US;q=0.9,en;q=0.8","67215aa0a8e88c6751efc410","683dba9a53627eb9ab41b36a","688b74b66759771592367574","0","67215aa0a8e88c6751efc410","0","","","[0]","0","demographics","","","","","","","","","","","","","","","","","","","","","","","","","","","","","","","","","","","","","",""
"9866","1753969901898","<p style='font-size:1.1em;line-height:1.25'>In the following, we will perform a baseline assessment. This means that we will ask you a few questions relating to your experiences over the past month.<br></p><p style='font-size:1.1em;line-height:1.25'>Press the <strong>Next</strong> button to continue.</p>","0","custom-html-button-response","4","41645","0.0-4.0-0.0","114","1","2025-07-31 13:50:56","36c45c0696341be0efffe67d72a12abb","197.184.98.225","Mozilla/5.0 (Windows NT 10.0; Win64; x64) AppleWebKit/537.36 (KHTML, like Gecko) Chrome/138.0.0.0 Safari/537.36","WebKit","Chrome","138.0.0.0","Windows","10.0","https://app.prolific.com/","en-GB,en-US;q=0.9,en;q=0.8","67215aa0a8e88c6751efc410","683dba9a53627eb9ab41b36a","688b74b66759771592367574","0","67215aa0a8e88c6751efc410","0","2025-07-31T13:51:41.900Z","","","","","","","","","","","","","","","","","","","","","","","","","","","","","","","","","","","","","","","","","",""
"119314.5","","","","survey-template","5","160968","0.0-4.0-1.0","114","1","2025-07-31 13:50:56","36c45c0696341be0efffe67d72a12abb","197.184.98.225","Mozilla/5.0 (Windows NT 10.0; Win64; x64) AppleWebKit/537.36 (KHTML, like Gecko) Chrome/138.0.0.0 Safari/537.36","WebKit","Chrome","138.0.0.0","Windows","10.0","https://app.prolific.com/","en-GB,en-US;q=0.9,en;q=0.8","67215aa0a8e88c6751efc410","683dba9a53627eb9ab41b36a","688b74b66759771592367574","0","67215aa0a8e88c6751efc410","0","2025-07-31T13:53:41.222Z","","","","pss","{""Q01"":""2"",""Q02"":""2"",""Q03"":""2"",""Q04"":""2"",""Q05"":""2"",""Q06"":""2"",""Q07"":""2"",""Q08"":""2"",""Q09"":""2"",""Q10"":""1""}","[0,1,2,3,4,5,6,7,8,9]","[""Q01"",""Q02"",""Q03"",""Q04"",""Q05"",""Q06"",""Q07"",""Q08"",""Q09"",""Q10""]","[8579.600000023842,23614.300000071526,29122.800000071526,42810.60000002384,49283.200000047684,54824.60000002384,61366,96204.20000004768,107232.40000009537,117116.30000007153]","[]","[0.20000004768371582,8579.600000023842,23614.300000071526,29122.800000071526,42810.60000002384,49283.200000047684,54824.60000002384,61366,96204.20000004768,107232.40000009537,117116.30000007153,119305.80000007153]","0.9","0.1111111111111111","0","","","","","","","","","","","","","","","","","","","","","","","","","","","","",""
"3884","1753970025109","<p style='font-size:1.1em;line-height:1.25'>Thank you for your answers! Now we will ask you a few more questions relating to your feelings in the last 24 hours.<br></p><p style='font-size:1.1em;line-height:1.25'>Press the <strong>Next</strong> button to continue.</p>","0","custom-html-button-response","6","164856","0.0-4.0-2.0","114","1","2025-07-31 13:50:56","36c45c0696341be0efffe67d72a12abb","197.184.98.225","Mozilla/5.0 (Windows NT 10.0; Win64; x64) AppleWebKit/537.36 (KHTML, like Gecko) Chrome/138.0.0.0 Safari/537.36","WebKit","Chrome","138.0.0.0","Windows","10.0","https://app.prolific.com/","en-GB,en-US;q=0.9,en;q=0.8","67215aa0a8e88c6751efc410","683dba9a53627eb9ab41b36a","688b74b66759771592367574","0","67215aa0a8e88c6751efc410","0","2025-07-31T13:53:45.110Z","","","","","","","","","","","","","","","","","","","","","","","","","","","","","","","","","","","","","","","","","",""
"105457.69999992847","","","","survey-template","7","270325","0.0-4.0-3.0","114","1","2025-07-31 13:50:56","36c45c0696341be0efffe67d72a12abb","197.184.98.225","Mozilla/5.0 (Windows NT 10.0; Win64; x64) AppleWebKit/537.36 (KHTML, like Gecko) Chrome/138.0.0.0 Safari/537.36","WebKit","Chrome","138.0.0.0","Windows","10.0","https://app.prolific.com/","en-GB,en-US;q=0.9,en;q=0.8","67215aa0a8e88c6751efc410","683dba9a53627eb9ab41b36a","688b74b66759771592367574","0","67215aa0a8e88c6751efc410","0","2025-07-31T13:55:30.579Z","","","","drsp","{""Q01"":""0"",""Q02"":""0"",""Q03"":""0"",""Q04"":""1"",""Q05"":""1"",""Q06"":""0"",""Q07"":""1"",""Q08"":""0"",""Q09"":""0"",""Q10"":""0"",""Q11"":""2"",""Q12"":""0"",""Q13"":""5"",""Q14"":""1"",""Q15"":""1"",""Q16"":""0"",""Q17"":""0"",""Q18"":""0"",""Q19"":""1"",""Q20"":""0"",""Q21"":""0"",""Q22"":""0""}","[0,1,2,3,4,5,6,7,8,9,10,11,12,13,14,15,16,17,18,19,20,21]","[""Q01"",""Q02"",""Q03"",""Q04"",""Q05"",""Q06"",""Q07"",""Q08"",""Q09"",""Q10"",""Q11"",""Q12"",""Q13"",""Q14"",""Q15"",""Q16"",""Q17"",""Q18"",""Q18"",""Q19"",""Q20"",""Q21"",""Q22""]","[3971.6999999284744,8995.399999976158,10413.5,13820,15367.699999928474,18725.299999952316,20718.5,25093.899999976158,27152.099999904633,28869,30610.399999976158,37616.799999952316,39740.59999990463,43959.59999990463,46092.699999928474,54311.799999952316,60642.699999928474,66782.29999995232,67040.59999990463,71582.19999992847,77231.59999990463,90793.39999997616,95286]","[]","[0.19999992847442627,3971.6999999284744,8995.399999976158,10413.5,13820,15367.699999928474,18725.299999952316,20718.5,25093.899999976158,27152.099999904633,28869,30610.399999976158,37616.799999952316,39740.59999990463,43959.59999990463,46092.699999928474,54311.799999952316,60642.699999928474,66782.29999995232,67040.59999990463,71582.19999992847,77231.59999990463,90793.39999997616,95286,105446.19999992847]","0.6363636363636364","0.38095238095238093","0","","","","","","","","","","","","","","","","","","","","","","","","","","","","",""
"17497","","","","survey-template","8","287827","0.0-4.0-4.0","114","1","2025-07-31 13:50:56","36c45c0696341be0efffe67d72a12abb","197.184.98.225","Mozilla/5.0 (Windows NT 10.0; Win64; x64) AppleWebKit/537.36 (KHTML, like Gecko) Chrome/138.0.0.0 Safari/537.36","WebKit","Chrome","138.0.0.0","Windows","10.0","https://app.prolific.com/","en-GB,en-US;q=0.9,en;q=0.8","67215aa0a8e88c6751efc410","683dba9a53627eb9ab41b36a","688b74b66759771592367574","0","67215aa0a8e88c6751efc410","0","2025-07-31T13:55:48.081Z","","","","stress","{""Q01"":""1"",""Q02"":""4"",""Q03"":""0""}","[0,1,2]","[""Q01"",""Q02"",""Q03""]","[5463.099999904633,10394.399999976158,16335.799999952316]","[]","[5463.099999904633,10394.399999976158,16335.799999952316,17494.699999928474]","0.6666666666666666","0.5","0","","","","","","","","","","","","","","","","","","","","","","","","","","","","",""
"37958","","","","instructions","9","325788","0.0-5.0-0.0","114","1","2025-07-31 13:50:56","36c45c0696341be0efffe67d72a12abb","197.184.98.225","Mozilla/5.0 (Windows NT 10.0; Win64; x64) AppleWebKit/537.36 (KHTML, like Gecko) Chrome/138.0.0.0 Safari/537.36","WebKit","Chrome","138.0.0.0","Windows","10.0","https://app.prolific.com/","en-GB,en-US;q=0.9,en;q=0.8","67215aa0a8e88c6751efc410","683dba9a53627eb9ab41b36a","688b74b66759771592367574","0","67215aa0a8e88c6751efc410","0","","","","","","","","","","","","","","","[{""page_index"":0,""viewing_time"":37957}]","","","","","","","","","","","","","","","","","","","","","","","","","","","",""
"27394","","<p>Before you start with this game please answer the following three questions yourself. </p>
  <p>Through this game, we measure several aspects of your cognitive performance, such as reaction times, multi-tasking capabilities </p>
  <p>and the ability to assess the situation you are in.</p>
  <p></p>
  <p><b>How good do you usually are in such tasks?</b></p>","89","html-slider-response","10","353196","0.0-6.0-0.0","114","1","2025-07-31 13:50:56","36c45c0696341be0efffe67d72a12abb","197.184.98.225","Mozilla/5.0 (Windows NT 10.0; Win64; x64) AppleWebKit/537.36 (KHTML, like Gecko) Chrome/138.0.0.0 Safari/537.36","WebKit","Chrome","138.0.0.0","Windows","10.0","https://app.prolific.com/","en-GB,en-US;q=0.9,en;q=0.8","67215aa0a8e88c6751efc410","683dba9a53627eb9ab41b36a","688b74b66759771592367574","0","67215aa0a8e88c6751efc410","0","2025-07-31T13:56:53.451Z","","","","PreSkillQ","","","","","","","","","","","50","","","","","","","","","","","","","","","","","","","","","","","","","","",""
"8436","","<div style=""width:500px;"">
  <p>How well do you think you will perform in this task compared to other participants?</p>
  </div>","90","html-slider-response","11","361636","0.0-6.0-1.0","114","1","2025-07-31 13:50:56","36c45c0696341be0efffe67d72a12abb","197.184.98.225","Mozilla/5.0 (Windows NT 10.0; Win64; x64) AppleWebKit/537.36 (KHTML, like Gecko) Chrome/138.0.0.0 Safari/537.36","WebKit","Chrome","138.0.0.0","Windows","10.0","https://app.prolific.com/","en-GB,en-US;q=0.9,en;q=0.8","67215aa0a8e88c6751efc410","683dba9a53627eb9ab41b36a","688b74b66759771592367574","0","67215aa0a8e88c6751efc410","0","2025-07-31T13:57:01.891Z","","","","PrePerfQ","","","","","","","","","","","50","","","","","","","","","","","","","","","","","","","","","","","","","","",""
"5906","","<div style=""width:500px;"">
  <p>What best describes how you currently feel?</p>
  </div>","42","html-slider-response","12","367545","0.0-6.0-2.0","114","1","2025-07-31 13:50:56","36c45c0696341be0efffe67d72a12abb","197.184.98.225","Mozilla/5.0 (Windows NT 10.0; Win64; x64) AppleWebKit/537.36 (KHTML, like Gecko) Chrome/138.0.0.0 Safari/537.36","WebKit","Chrome","138.0.0.0","Windows","10.0","https://app.prolific.com/","en-GB,en-US;q=0.9,en;q=0.8","67215aa0a8e88c6751efc410","683dba9a53627eb9ab41b36a","688b74b66759771592367574","0","67215aa0a8e88c6751efc410","0","2025-07-31T13:57:07.799Z","","","","PreMotivationQ","","","","","","","","","","","50","","","","","","","","","","","","","","","","","","","","","","","","","","",""
"","","","","ctl-task-cpt","13","406353","0.0-7.0-0.0","114","1","2025-07-31 13:50:56","36c45c0696341be0efffe67d72a12abb","197.184.98.225","Mozilla/5.0 (Windows NT 10.0; Win64; x64) AppleWebKit/537.36 (KHTML, like Gecko) Chrome/138.0.0.0 Safari/537.36","WebKit","Chrome","138.0.0.0","Windows","10.0","https://app.prolific.com/","en-GB,en-US;q=0.9,en;q=0.8","67215aa0a8e88c6751efc410","683dba9a53627eb9ab41b36a","688b74b66759771592367574","0","67215aa0a8e88c6751efc410","0","2025-07-31T13:57:46.607Z","","","","","","","","","","","","","","","","win-only","0","g1:NW,g2:SE","1","1","0","371780.6","2088.6","7091.9","35791.4","1","4","8","6","2","8","8","8","0","0.06060606060606061","1934.4","3000","1375","[""down"",""right""]","{""num_key_presses"":6,""num_perfect"":6,""num_errors"":0,""num_randdir"":0,""num_randdir_good_moves"":0,""num_whilered"":0,""num_whileblue"":0,""num_blue"":3,""num_good_moves"":6}","[293.22232142857143,291.12857142857143,1.5,293.22232142857143,291.12857142857143,108.8,293.22232142857143,291.12857142857143,211.1,293.22232142857143,291.12857142857143,315.1,293.22232142857143,291.12857142857143,415.7,293.22232142857143,291.12857142857143,519.7,293.22232142857143,291.12857142857143,628.2,293.22232142857143,291.12857142857143,742.7,293.22232142857143,291.12857142857143,843.6,293.22232142857143,291.12857142857143,948.2,390.22232142857143,363.12857142857143,1051.6,477.22232142857143,434.12857142857143,1158,501.22232142857143,459.12857142857143,1270.6,530.2223214285714,490.12857142857143,1371.4,535.2223214285714,514.1285714285714,1471.6,536.2223214285714,519.1285714285714,1583.7,536.2223214285714,520.1285714285714,1683.9,536.2223214285714,520.1285714285714,1791.4,536.2223214285714,520.1285714285714,1911.9,536.2223214285714,520.1285714285714,2031.2,536.2223214285714,520.1285714285714,2142.8,536.2223214285714,520.1285714285714,2246.9,536.2223214285714,520.1285714285714,2347.1,536.2223214285714,520.1285714285714,2447.2,536.2223214285714,520.1285714285714,2548.1,536.2223214285714,520.1285714285714,2648.8,536.2223214285714,520.1285714285714,2756.1,536.2223214285714,520.1285714285714,2866.6,536.2223214285714,520.1285714285714,2971.4,536.2223214285714,520.1285714285714,3072.7,536.2223214285714,520.1285714285714,3176.8,536.2223214285714,520.1285714285714,3277.6,536.2223214285714,520.1285714285714,3378.1,536.2223214285714,520.1285714285714,3478.5,536.2223214285714,520.1285714285714,3582.8,536.2223214285714,520.1285714285714,3689.5,536.2223214285714,520.1285714285714,3792,536.2223214285714,520.1285714285714,3892.6,536.2223214285714,520.1285714285714,3993.8,536.2223214285714,520.1285714285714,4099.6,536.2223214285714,520.1285714285714,4200.1,536.2223214285714,520.1285714285714,4305.7,536.2223214285714,520.1285714285714,4406,536.2223214285714,520.1285714285714,4510.5,536.2223214285714,520.1285714285714,4614.7,536.2223214285714,520.1285714285714,4724.2,536.2223214285714,520.1285714285714,4827.9,536.2223214285714,520.1285714285714,4932.6]","[4845.3,4845.3,2390.8,2008.8,445.7,""smooth"",""down"",""down"",""good_move"",7890,3042.7,2643.5,4847.3,399.2,""smooth"",""down"",""down"",""good_move"",12260.2,4367.2,3964.7,7893.1,402.4,""smooth"",""down"",""down"",""good_move"",18836.3,6572.9,2636.7,15780,419.6,""smooth"",""right"",""right"",""good_move"",25539.3,6700.8,2583.4,22526.7,429.2,""smooth"",""right"",""right"",""good_move"",28558.1,3012.4,2585,25545.7,427.4,""smooth"",""right"",""right"",""good_move""]"
"4268","","<div style=""width:500px;"">
  <p>What determined the result of this run?</p>
  </div>","100","html-slider-response","14","410623","0.0-7.0-1.0","114","1","2025-07-31 13:50:56","36c45c0696341be0efffe67d72a12abb","197.184.98.225","Mozilla/5.0 (Windows NT 10.0; Win64; x64) AppleWebKit/537.36 (KHTML, like Gecko) Chrome/138.0.0.0 Safari/537.36","WebKit","Chrome","138.0.0.0","Windows","10.0","https://app.prolific.com/","en-GB,en-US;q=0.9,en;q=0.8","67215aa0a8e88c6751efc410","683dba9a53627eb9ab41b36a","688b74b66759771592367574","0","67215aa0a8e88c6751efc410","0","2025-07-31T13:57:50.877Z","","","","AttribQ","","","","","","","","","","","50","","","","","","","","","","","","","","","","","","","","","","","","","","",""
"4064","","<div style=""width:500px;"">
  <p>How much control did you have over the ball?</p>
  </div>","100","html-slider-response","15","414690","0.0-7.0-2.0","114","1","2025-07-31 13:50:56","36c45c0696341be0efffe67d72a12abb","197.184.98.225","Mozilla/5.0 (Windows NT 10.0; Win64; x64) AppleWebKit/537.36 (KHTML, like Gecko) Chrome/138.0.0.0 Safari/537.36","WebKit","Chrome","138.0.0.0","Windows","10.0","https://app.prolific.com/","en-GB,en-US;q=0.9,en;q=0.8","67215aa0a8e88c6751efc410","683dba9a53627eb9ab41b36a","688b74b66759771592367574","0","67215aa0a8e88c6751efc410","0","2025-07-31T13:57:54.944Z","","","","ControlQ","","","","","","","","","","","50","","","","","","","","","","","","","","","","","","","","","","","","","","",""
"9216","","<div style=""width:500px;"">
  <p>How would you describe your current emotional state?</p>
  </div>","11","html-slider-response","16","423909","0.0-7.0-3.0","114","1","2025-07-31 13:50:56","36c45c0696341be0efffe67d72a12abb","197.184.98.225","Mozilla/5.0 (Windows NT 10.0; Win64; x64) AppleWebKit/537.36 (KHTML, like Gecko) Chrome/138.0.0.0 Safari/537.36","WebKit","Chrome","138.0.0.0","Windows","10.0","https://app.prolific.com/","en-GB,en-US;q=0.9,en;q=0.8","67215aa0a8e88c6751efc410","683dba9a53627eb9ab41b36a","688b74b66759771592367574","0","67215aa0a8e88c6751efc410","0","2025-07-31T13:58:04.163Z","","","","StressQ","","","","","","","","","","","50","","","","","","","","","","","","","","","","","","","","","","","","","","",""
"9517","","<div style=""width:500px;"">
  <p>What best describes how you currently feel?</p>
  </div>","45","html-slider-response","17","433429","0.0-7.0-4.0","114","1","2025-07-31 13:50:56","36c45c0696341be0efffe67d72a12abb","197.184.98.225","Mozilla/5.0 (Windows NT 10.0; Win64; x64) AppleWebKit/537.36 (KHTML, like Gecko) Chrome/138.0.0.0 Safari/537.36","WebKit","Chrome","138.0.0.0","Windows","10.0","https://app.prolific.com/","en-GB,en-US;q=0.9,en;q=0.8","67215aa0a8e88c6751efc410","683dba9a53627eb9ab41b36a","688b74b66759771592367574","0","67215aa0a8e88c6751efc410","0","2025-07-31T13:58:13.683Z","","","","MotivationQ","","","","","","","","","","","50","","","","","","","","","","","","","","","","","","","","","","","","","","",""
"","","","","ctl-task-cpt","18","461486","0.0-7.0-0.1","114","1","2025-07-31 13:50:56","36c45c0696341be0efffe67d72a12abb","197.184.98.225","Mozilla/5.0 (Windows NT 10.0; Win64; x64) AppleWebKit/537.36 (KHTML, like Gecko) Chrome/138.0.0.0 Safari/537.36","WebKit","Chrome","138.0.0.0","Windows","10.0","https://app.prolific.com/","en-GB,en-US;q=0.9,en;q=0.8","67215aa0a8e88c6751efc410","683dba9a53627eb9ab41b36a","688b74b66759771592367574","0","67215aa0a8e88c6751efc410","0","2025-07-31T13:58:41.741Z","","","","","","","","","","","","","","","","win-only","2","g1:SE,g2:NW","0.9","2","0","437658.7","1387.7","6398.7","25037.7","1","4","4","6","2","4","4","12","8","0.09090909090909091","1488.1","3000","1455","[""left"",""up""]","{""num_key_presses"":6,""num_perfect"":6,""num_errors"":0,""num_randdir"":0,""num_randdir_good_moves"":0,""num_whilered"":0,""num_whileblue"":0,""num_blue"":1,""num_good_moves"":6}","[294.22232142857143,294.12857142857143,2,294.22232142857143,294.12857142857143,103.7,294.22232142857143,294.12857142857143,214.4,294.22232142857143,294.12857142857143,317.2,294.22232142857143,294.12857142857143,419.6,294.22232142857143,294.12857142857143,528.3,294.22232142857143,294.12857142857143,628.4,53.222321428571426,176.12857142857143,735.7,44.222321428571426,174.12857142857143,838.8,44.222321428571426,174.12857142857143,944.5,44.222321428571426,174.12857142857143,1048.1,46.222321428571426,84.12857142857143,1148.9,46.222321428571426,75.12857142857143,1250,46.222321428571426,75.12857142857143,1351.9,46.222321428571426,75.12857142857143,1453.1,46.222321428571426,75.12857142857143,1554.3,46.222321428571426,75.12857142857143,1659.8,46.222321428571426,75.12857142857143,1763.8,46.222321428571426,75.12857142857143,1864.9,46.222321428571426,75.12857142857143,1966.1,46.222321428571426,75.12857142857143,2076.5,46.222321428571426,75.12857142857143,2188.2,46.222321428571426,75.12857142857143,2290.3,46.222321428571426,75.12857142857143,2393.5,46.222321428571426,75.12857142857143,2494.2,46.222321428571426,75.12857142857143,2599.5,46.222321428571426,75.12857142857143,2700.9,46.222321428571426,75.12857142857143,2808.6,46.222321428571426,75.12857142857143,2915.6,46.222321428571426,75.12857142857143,3021.7,46.222321428571426,75.12857142857143,3125.6,46.222321428571426,75.12857142857143,3228.4,46.222321428571426,75.12857142857143,3333.3,46.222321428571426,75.12857142857143,3433.8,46.222321428571426,75.12857142857143,3541.9,46.222321428571426,75.12857142857143,3643.5,46.222321428571426,75.12857142857143,3752.6,46.222321428571426,75.12857142857143,3854.4,46.222321428571426,75.12857142857143,3960.4,46.222321428571426,75.12857142857143,4064.4,46.222321428571426,75.12857142857143,4165,46.222321428571426,75.12857142857143,4265.2,46.222321428571426,75.12857142857143,4372.6,46.222321428571426,75.12857142857143,4481.8,46.222321428571426,75.12857142857143,4583.2,46.222321428571426,75.12857142857143,4685.7,46.222321428571426,75.12857142857143,4794.3,46.222321428571426,75.12857142857143,4896.8]","[1434.4,1434.3,1000,0.1,434.3,""smooth"",""up"",""up"",""good_move"",6775.4,5339.1,1975.7,4453.8,345.9,""smooth"",""up"",""up"",""good_move"",9735.7,2958.9,2564,6776.8,394.9,""smooth"",""up"",""up"",""good_move"",12938.3,3196.3,2846.4,9742.1,349.9,""smooth"",""left"",""left"",""good_move"",15544.2,2602.5,2259.4,12941.7,343.1,""smooth"",""left"",""left"",""good_move"",18501.5,2951.3,2589.9,15551.7,359.9,""smooth"",""left"",""left"",""good_move""]"
"6176","","<div style=""width:500px;"">
  <p>What determined the result of this run?</p>
  </div>","100","html-slider-response","19","467668","0.0-7.0-1.1","114","1","2025-07-31 13:50:56","36c45c0696341be0efffe67d72a12abb","197.184.98.225","Mozilla/5.0 (Windows NT 10.0; Win64; x64) AppleWebKit/537.36 (KHTML, like Gecko) Chrome/138.0.0.0 Safari/537.36","WebKit","Chrome","138.0.0.0","Windows","10.0","https://app.prolific.com/","en-GB,en-US;q=0.9,en;q=0.8","67215aa0a8e88c6751efc410","683dba9a53627eb9ab41b36a","688b74b66759771592367574","0","67215aa0a8e88c6751efc410","0","2025-07-31T13:58:47.922Z","","","","AttribQ","","","","","","","","","","","50","","","","","","","","","","","","","","","","","","","","","","","","","","",""
"3462","","<div style=""width:500px;"">
  <p>How much control did you have over the ball?</p>
  </div>","100","html-slider-response","20","471134","0.0-7.0-2.1","114","1","2025-07-31 13:50:56","36c45c0696341be0efffe67d72a12abb","197.184.98.225","Mozilla/5.0 (Windows NT 10.0; Win64; x64) AppleWebKit/537.36 (KHTML, like Gecko) Chrome/138.0.0.0 Safari/537.36","WebKit","Chrome","138.0.0.0","Windows","10.0","https://app.prolific.com/","en-GB,en-US;q=0.9,en;q=0.8","67215aa0a8e88c6751efc410","683dba9a53627eb9ab41b36a","688b74b66759771592367574","0","67215aa0a8e88c6751efc410","0","2025-07-31T13:58:51.388Z","","","","ControlQ","","","","","","","","","","","50","","","","","","","","","","","","","","","","","","","","","","","","","","",""
"8046","","<div style=""width:500px;"">
  <p>How would you describe your current emotional state?</p>
  </div>","15","html-slider-response","21","479184","0.0-7.0-3.1","114","1","2025-07-31 13:50:56","36c45c0696341be0efffe67d72a12abb","197.184.98.225","Mozilla/5.0 (Windows NT 10.0; Win64; x64) AppleWebKit/537.36 (KHTML, like Gecko) Chrome/138.0.0.0 Safari/537.36","WebKit","Chrome","138.0.0.0","Windows","10.0","https://app.prolific.com/","en-GB,en-US;q=0.9,en;q=0.8","67215aa0a8e88c6751efc410","683dba9a53627eb9ab41b36a","688b74b66759771592367574","0","67215aa0a8e88c6751efc410","0","2025-07-31T13:58:59.439Z","","","","StressQ","","","","","","","","","","","50","","","","","","","","","","","","","","","","","","","","","","","","","","",""
"4660","","<div style=""width:500px;"">
  <p>What best describes how you currently feel?</p>
  </div>","48","html-slider-response","22","483848","0.0-7.0-4.1","114","1","2025-07-31 13:50:56","36c45c0696341be0efffe67d72a12abb","197.184.98.225","Mozilla/5.0 (Windows NT 10.0; Win64; x64) AppleWebKit/537.36 (KHTML, like Gecko) Chrome/138.0.0.0 Safari/537.36","WebKit","Chrome","138.0.0.0","Windows","10.0","https://app.prolific.com/","en-GB,en-US;q=0.9,en;q=0.8","67215aa0a8e88c6751efc410","683dba9a53627eb9ab41b36a","688b74b66759771592367574","0","67215aa0a8e88c6751efc410","0","2025-07-31T13:59:04.102Z","","","","MotivationQ","","","","","","","","","","","50","","","","","","","","","","","","","","","","","","","","","","","","","","",""
"","","","","ctl-task-cpt","23","515883","0.0-7.0-0.2","114","1","2025-07-31 13:50:56","36c45c0696341be0efffe67d72a12abb","197.184.98.225","Mozilla/5.0 (Windows NT 10.0; Win64; x64) AppleWebKit/537.36 (KHTML, like Gecko) Chrome/138.0.0.0 Safari/537.36","WebKit","Chrome","138.0.0.0","Windows","10.0","https://app.prolific.com/","en-GB,en-US;q=0.9,en;q=0.8","67215aa0a8e88c6751efc410","683dba9a53627eb9ab41b36a","688b74b66759771592367574","0","67215aa0a8e88c6751efc410","0","2025-07-31T13:59:36.138Z","","","","","","","","","","","","","","","","win-only","1","g1:NE,g2:SW","0.8","3","0","488078.3","1678.9","6693.4","29013","1","4","8","6","2","8","8","20","12","0.15151515151515152","1399.4","3000","1105","[""down"",""left""]","{""num_key_presses"":8,""num_perfect"":7,""num_errors"":0,""num_randdir"":1,""num_randdir_good_moves"":0,""num_whilered"":0,""num_whileblue"":0,""num_blue"":0,""num_good_moves"":7}","[292.22232142857143,301.12857142857143,1.2,292.22232142857143,301.12857142857143,102.6,292.22232142857143,301.12857142857143,206.5,292.22232142857143,301.12857142857143,308.2,292.22232142857143,301.12857142857143,408.2,292.22232142857143,301.12857142857143,510.6,292.22232142857143,301.12857142857143,613.2,292.22232142857143,301.12857142857143,714.4,216.22232142857143,373.12857142857143,819.5,123.22232142857143,480.12857142857143,921.7,65.22232142857143,525.1285714285714,1039.1,49.222321428571426,536.1285714285714,1152,48.222321428571426,536.1285714285714,1252.4,48.222321428571426,536.1285714285714,1355.8,48.222321428571426,536.1285714285714,1463.9,48.222321428571426,536.1285714285714,1564.3,48.222321428571426,536.1285714285714,1669.2,48.222321428571426,536.1285714285714,1769.6,48.222321428571426,536.1285714285714,1870.4,48.222321428571426,536.1285714285714,1970.9,48.222321428571426,536.1285714285714,2071.2,48.222321428571426,536.1285714285714,2171.6,48.222321428571426,536.1285714285714,2273.6,48.222321428571426,536.1285714285714,2374.1,48.222321428571426,536.1285714285714,2481,48.222321428571426,536.1285714285714,2587.7,48.222321428571426,536.1285714285714,2690.6,48.222321428571426,536.1285714285714,2792.9,48.222321428571426,536.1285714285714,2894.9,48.222321428571426,536.1285714285714,2999.2,48.222321428571426,536.1285714285714,3102.8,48.222321428571426,536.1285714285714,3203,48.222321428571426,536.1285714285714,3306.8,48.222321428571426,536.1285714285714,3409.7,48.222321428571426,536.1285714285714,3509.7,48.222321428571426,536.1285714285714,3611.4,48.222321428571426,536.1285714285714,3713.5,48.222321428571426,536.1285714285714,3813.7,48.222321428571426,536.1285714285714,3922.1,48.222321428571426,536.1285714285714,4022.1,48.222321428571426,536.1285714285714,4122.9,48.222321428571426,536.1285714285714,4224.6,48.222321428571426,536.1285714285714,4327.1,48.222321428571426,536.1285714285714,4431.7,48.222321428571426,536.1285714285714,4543.1,48.222321428571426,536.1285714285714,4649.4,48.222321428571426,536.1285714285714,4750.7,48.222321428571426,536.1285714285714,4853.5,48.222321428571426,536.1285714285714,4954.1]","[1602,1602.1,1000,0,602.1,""smooth"",""down"",""down"",""good_move"",5334,3728.2,3294.1,1605.8,434.1,""smooth"",""down"",""down"",""good_move"",8236.7,2901,2562.2,5335.7,338.9,""oops"",""down"",""up"",""bad_move"",11575.7,3334.5,2961.4,8241.2,373.1,""smooth"",""down"",""down"",""good_move"",14394.5,2816.4,2454.9,11578.1,361.5,""smooth"",""down"",""down"",""good_move"",17610.4,3210.5,2882.2,14399.9,328.4,""smooth"",""left"",""left"",""good_move"",19624.4,2007.7,1689.1,17616.7,318.6,""smooth"",""left"",""left"",""good_move"",22167.6,2541.5,2190.5,19626.2,351,""smooth"",""left"",""left"",""good_move""]"
"4544","","<div style=""width:500px;"">
  <p>What determined the result of this run?</p>
  </div>","100","html-slider-response","24","520432","0.0-7.0-1.2","114","1","2025-07-31 13:50:56","36c45c0696341be0efffe67d72a12abb","197.184.98.225","Mozilla/5.0 (Windows NT 10.0; Win64; x64) AppleWebKit/537.36 (KHTML, like Gecko) Chrome/138.0.0.0 Safari/537.36","WebKit","Chrome","138.0.0.0","Windows","10.0","https://app.prolific.com/","en-GB,en-US;q=0.9,en;q=0.8","67215aa0a8e88c6751efc410","683dba9a53627eb9ab41b36a","688b74b66759771592367574","0","67215aa0a8e88c6751efc410","0","2025-07-31T13:59:40.687Z","","","","AttribQ","","","","","","","","","","","50","","","","","","","","","","","","","","","","","","","","","","","","","","",""
"4720","","<div style=""width:500px;"">
  <p>How much control did you have over the ball?</p>
  </div>","89","html-slider-response","25","525156","0.0-7.0-2.2","114","1","2025-07-31 13:50:56","36c45c0696341be0efffe67d72a12abb","197.184.98.225","Mozilla/5.0 (Windows NT 10.0; Win64; x64) AppleWebKit/537.36 (KHTML, like Gecko) Chrome/138.0.0.0 Safari/537.36","WebKit","Chrome","138.0.0.0","Windows","10.0","https://app.prolific.com/","en-GB,en-US;q=0.9,en;q=0.8","67215aa0a8e88c6751efc410","683dba9a53627eb9ab41b36a","688b74b66759771592367574","0","67215aa0a8e88c6751efc410","0","2025-07-31T13:59:45.411Z","","","","ControlQ","","","","","","","","","","","50","","","","","","","","","","","","","","","","","","","","","","","","","","",""
"4019","","<div style=""width:500px;"">
  <p>How would you describe your current emotional state?</p>
  </div>","13","html-slider-response","26","529184","0.0-7.0-3.2","114","1","2025-07-31 13:50:56","36c45c0696341be0efffe67d72a12abb","197.184.98.225","Mozilla/5.0 (Windows NT 10.0; Win64; x64) AppleWebKit/537.36 (KHTML, like Gecko) Chrome/138.0.0.0 Safari/537.36","WebKit","Chrome","138.0.0.0","Windows","10.0","https://app.prolific.com/","en-GB,en-US;q=0.9,en;q=0.8","67215aa0a8e88c6751efc410","683dba9a53627eb9ab41b36a","688b74b66759771592367574","0","67215aa0a8e88c6751efc410","0","2025-07-31T13:59:49.438Z","","","","StressQ","","","","","","","","","","","50","","","","","","","","","","","","","","","","","","","","","","","","","","",""
"5628","","<div style=""width:500px;"">
  <p>What best describes how you currently feel?</p>
  </div>","46","html-slider-response","27","534814","0.0-7.0-4.2","114","1","2025-07-31 13:50:56","36c45c0696341be0efffe67d72a12abb","197.184.98.225","Mozilla/5.0 (Windows NT 10.0; Win64; x64) AppleWebKit/537.36 (KHTML, like Gecko) Chrome/138.0.0.0 Safari/537.36","WebKit","Chrome","138.0.0.0","Windows","10.0","https://app.prolific.com/","en-GB,en-US;q=0.9,en;q=0.8","67215aa0a8e88c6751efc410","683dba9a53627eb9ab41b36a","688b74b66759771592367574","0","67215aa0a8e88c6751efc410","0","2025-07-31T13:59:55.069Z","","","","MotivationQ","","","","","","","","","","","50","","","","","","","","","","","","","","","","","","","","","","","","","","",""
"","","","","ctl-task-cpt","28","566939","0.0-7.0-0.3","114","1","2025-07-31 13:50:56","36c45c0696341be0efffe67d72a12abb","197.184.98.225","Mozilla/5.0 (Windows NT 10.0; Win64; x64) AppleWebKit/537.36 (KHTML, like Gecko) Chrome/138.0.0.0 Safari/537.36","WebKit","Chrome","138.0.0.0","Windows","10.0","https://app.prolific.com/","en-GB,en-US;q=0.9,en;q=0.8","67215aa0a8e88c6751efc410","683dba9a53627eb9ab41b36a","688b74b66759771592367574","0","67215aa0a8e88c6751efc410","0","2025-07-31T14:00:27.194Z","","","","","","","","","","","","","","","","win-only","3","g1:SW,g2:NE","0.7","4","0","539045.5","1350.9","6360.5","29101","1","4","4","6","2","4","4","24","20","0.18181818181818182","1896.7","3000","1370","[""up"",""right""]","{""num_key_presses"":8,""num_perfect"":6,""num_errors"":0,""num_randdir"":2,""num_randdir_good_moves"":1,""num_whilered"":0,""num_whileblue"":0,""num_blue"":0,""num_good_moves"":7}","[295.22232142857143,292.12857142857143,1,295.22232142857143,292.12857142857143,107.3,295.22232142857143,292.12857142857143,208.2,295.22232142857143,292.12857142857143,315.8,295.22232142857143,292.12857142857143,416.8,295.22232142857143,292.12857142857143,518.8,295.22232142857143,292.12857142857143,638.7,325.22232142857143,237.12857142857143,750.6,589.2223214285714,-77.87142857142857,884,589.2223214285714,-77.87142857142857,1021.6,555.2223214285714,-15.871428571428574,1122.6,544.2223214285714,12.128571428571426,1229.9,542.2223214285714,20.128571428571426,1345.7,541.2223214285714,29.128571428571426,1450.5,541.2223214285714,41.128571428571426,1570.1,541.2223214285714,42.128571428571426,1674,541.2223214285714,42.128571428571426,1778,541.2223214285714,42.128571428571426,1909.3,541.2223214285714,42.128571428571426,2014.5,541.2223214285714,42.128571428571426,2117.2,541.2223214285714,42.128571428571426,2217.6,541.2223214285714,42.128571428571426,2327.8,541.2223214285714,42.128571428571426,2429.1,541.2223214285714,42.128571428571426,2534.6,541.2223214285714,42.128571428571426,2642.6,541.2223214285714,42.128571428571426,2759.1,541.2223214285714,42.128571428571426,2867.2,541.2223214285714,42.128571428571426,2979.8,541.2223214285714,42.128571428571426,3091.8,541.2223214285714,42.128571428571426,3199.9,541.2223214285714,42.128571428571426,3307.8,541.2223214285714,42.128571428571426,3410.2,541.2223214285714,42.128571428571426,3515.3,541.2223214285714,42.128571428571426,3621.6,541.2223214285714,42.128571428571426,3732.6,541.2223214285714,42.128571428571426,3834.9,541.2223214285714,42.128571428571426,3939,541.2223214285714,42.128571428571426,4048.7,541.2223214285714,42.128571428571426,4153.2,541.2223214285714,42.128571428571426,4261,541.2223214285714,42.128571428571426,4365.4,541.2223214285714,42.128571428571426,4467.6,541.2223214285714,42.128571428571426,4569.7,541.2223214285714,42.128571428571426,4675.2,541.2223214285714,42.128571428571426,4777.8,541.2223214285714,42.128571428571426,4893.7]","[1422,1422,1000,0,422,""smooth"",""right"",""right"",""good_move"",4456.6,3025.9,2700.8,1430.7,325.1,""smooth"",""right"",""right"",""good_move"",7007.7,2542.1,2212.3,4465.6,329.9,""oops"",""right"",""right"",""good_move"",10397.7,3382.5,2992.5,7015.2,390,""smooth"",""up"",""up"",""good_move"",13711.7,3311.3,2939.8,10400.4,371.5,""smooth"",""up"",""up"",""good_move"",17128.6,3398.2,3038.9,13730.5,359.2,""oops"",""up"",""left"",""bad_move"",19689.6,2559,2196.5,17130.6,362.5,""smooth"",""up"",""up"",""good_move"",22557.5,2858.4,2529,19699.1,329.4,""smooth"",""right"",""right"",""good_move""]"
"14004","","<div style=""width:500px;"">
  <p>What determined the result of this run?</p>
  </div>","100","html-slider-response","29","580948","0.0-7.0-1.3","114","1","2025-07-31 13:50:56","36c45c0696341be0efffe67d72a12abb","197.184.98.225","Mozilla/5.0 (Windows NT 10.0; Win64; x64) AppleWebKit/537.36 (KHTML, like Gecko) Chrome/138.0.0.0 Safari/537.36","WebKit","Chrome","138.0.0.0","Windows","10.0","https://app.prolific.com/","en-GB,en-US;q=0.9,en;q=0.8","67215aa0a8e88c6751efc410","683dba9a53627eb9ab41b36a","688b74b66759771592367574","0","67215aa0a8e88c6751efc410","0","2025-07-31T14:00:41.202Z","","","","AttribQ","","","","","","","","","","","50","","","","","","","","","","","","","","","","","","","","","","","","","","",""
"16487","","<div style=""width:500px;"">
  <p>How much control did you have over the ball?</p>
  </div>","96","html-slider-response","30","597438","0.0-7.0-2.3","114","1","2025-07-31 13:50:56","36c45c0696341be0efffe67d72a12abb","197.184.98.225","Mozilla/5.0 (Windows NT 10.0; Win64; x64) AppleWebKit/537.36 (KHTML, like Gecko) Chrome/138.0.0.0 Safari/537.36","WebKit","Chrome","138.0.0.0","Windows","10.0","https://app.prolific.com/","en-GB,en-US;q=0.9,en;q=0.8","67215aa0a8e88c6751efc410","683dba9a53627eb9ab41b36a","688b74b66759771592367574","0","67215aa0a8e88c6751efc410","0","2025-07-31T14:00:57.692Z","","","","ControlQ","","","","","","","","","","","50","","","","","","","","","","","","","","","","","","","","","","","","","","",""
"5262","","<div style=""width:500px;"">
  <p>How would you describe your current emotional state?</p>
  </div>","11","html-slider-response","31","602706","0.0-7.0-3.3","114","1","2025-07-31 13:50:56","36c45c0696341be0efffe67d72a12abb","197.184.98.225","Mozilla/5.0 (Windows NT 10.0; Win64; x64) AppleWebKit/537.36 (KHTML, like Gecko) Chrome/138.0.0.0 Safari/537.36","WebKit","Chrome","138.0.0.0","Windows","10.0","https://app.prolific.com/","en-GB,en-US;q=0.9,en;q=0.8","67215aa0a8e88c6751efc410","683dba9a53627eb9ab41b36a","688b74b66759771592367574","0","67215aa0a8e88c6751efc410","0","2025-07-31T14:01:02.960Z","","","","StressQ","","","","","","","","","","","50","","","","","","","","","","","","","","","","","","","","","","","","","","",""
"8083","","<div style=""width:500px;"">
  <p>What best describes how you currently feel?</p>
  </div>","45","html-slider-response","32","610792","0.0-7.0-4.3","114","1","2025-07-31 13:50:56","36c45c0696341be0efffe67d72a12abb","197.184.98.225","Mozilla/5.0 (Windows NT 10.0; Win64; x64) AppleWebKit/537.36 (KHTML, like Gecko) Chrome/138.0.0.0 Safari/537.36","WebKit","Chrome","138.0.0.0","Windows","10.0","https://app.prolific.com/","en-GB,en-US;q=0.9,en;q=0.8","67215aa0a8e88c6751efc410","683dba9a53627eb9ab41b36a","688b74b66759771592367574","0","67215aa0a8e88c6751efc410","0","2025-07-31T14:01:11.046Z","","","","MotivationQ","","","","","","","","","","","50","","","","","","","","","","","","","","","","","","","","","","","","","","",""
"","","","","ctl-task-cpt","33","691711","0.0-7.0-0.4","114","1","2025-07-31 13:50:56","36c45c0696341be0efffe67d72a12abb","197.184.98.225","Mozilla/5.0 (Windows NT 10.0; Win64; x64) AppleWebKit/537.36 (KHTML, like Gecko) Chrome/138.0.0.0 Safari/537.36","WebKit","Chrome","138.0.0.0","Windows","10.0","https://app.prolific.com/","en-GB,en-US;q=0.9,en;q=0.8","67215aa0a8e88c6751efc410","683dba9a53627eb9ab41b36a","688b74b66759771592367574","0","67215aa0a8e88c6751efc410","0","2025-07-31T14:02:31.965Z","","","","","","","","","","","","","","","","win-only","0","g1:NW,g2:SE","0.6","5","0","615022.4","1317.6","6332.4","77896.8","1","4","8","6","2","8","8","32","24","0.24242424242424243","1267.2","3000","25","[""down"",""right""]","{""num_key_presses"":14,""num_perfect"":9,""num_errors"":0,""num_randdir"":5,""num_randdir_good_moves"":1,""num_whilered"":0,""num_whileblue"":0,""num_blue"":9,""num_good_moves"":10}","[296.22232142857143,295.12857142857143,3.4,296.22232142857143,295.12857142857143,101.9,296.22232142857143,295.12857142857143,218.5,296.22232142857143,295.12857142857143,322.4,296.22232142857143,295.12857142857143,427,296.22232142857143,295.12857142857143,531.9,296.22232142857143,295.12857142857143,646,447.22232142857143,432.12857142857143,751.4,542.2223214285714,507.12857142857143,870.8,566.2223214285714,515.1285714285714,996.9,568.2223214285714,516.1285714285714,1101.3,568.2223214285714,516.1285714285714,1201.4,568.2223214285714,516.1285714285714,1302.6,568.2223214285714,516.1285714285714,1410.3,568.2223214285714,516.1285714285714,1520.9,568.2223214285714,516.1285714285714,1627,568.2223214285714,516.1285714285714,1727,568.2223214285714,516.1285714285714,1836.1,568.2223214285714,516.1285714285714,1936.4,568.2223214285714,516.1285714285714,2052.8,568.2223214285714,516.1285714285714,2157.8,568.2223214285714,516.1285714285714,2265.1,568.2223214285714,516.1285714285714,2372.4,568.2223214285714,516.1285714285714,2476.7,568.2223214285714,516.1285714285714,2580.9,568.2223214285714,516.1285714285714,2692.7,568.2223214285714,516.1285714285714,2801.8,568.2223214285714,516.1285714285714,2911.9,568.2223214285714,516.1285714285714,3018.7,568.2223214285714,516.1285714285714,3126.9,568.2223214285714,516.1285714285714,3230.1,568.2223214285714,516.1285714285714,3331.3,568.2223214285714,516.1285714285714,3437.7,568.2223214285714,516.1285714285714,3539,568.2223214285714,516.1285714285714,3641.3,568.2223214285714,516.1285714285714,3749.2,568.2223214285714,516.1285714285714,3850.4,568.2223214285714,516.1285714285714,3951.5,568.2223214285714,516.1285714285714,4057.5,568.2223214285714,516.1285714285714,4161.2,568.2223214285714,516.1285714285714,4264.9,568.2223214285714,516.1285714285714,4372.7,568.2223214285714,516.1285714285714,4490.2,568.2223214285714,516.1285714285714,4600.6,568.2223214285714,516.1285714285714,4703.4,568.2223214285714,516.1285714285714,4805.8,568.2223214285714,516.1285714285714,4910.9]","[1411.9,1411.9,1000,0,411.9,""oops"",""down"",""up"",""bad_move"",11445.4,10031.7,2182,8786.1,477.3,""smooth"",""down"",""down"",""good_move"",13910.2,2463.5,2109.4,11446.8,354,""oops"",""down"",""right"",""good_move"",17092.6,3180.4,2744.4,13912.4,435.9,""smooth"",""down"",""down"",""good_move"",23591.8,6497.5,2393,20774,424.8,""smooth"",""down"",""down"",""good_move"",27094.1,3501.1,3106,23593,395.1,""smooth"",""down"",""down"",""good_move"",30043.4,2942.9,2522.8,27100.5,420.1,""smooth"",""right"",""right"",""good_move"",32613.3,2566.7,2185.8,30046.7,380.8,""oops"",""right"",""left"",""bad_move"",35224.8,2609.5,2247.3,32615.3,362.2,""oops"",""right"",""up"",""bad_move"",45175.8,9948.9,3163.4,41587.7,424.7,""smooth"",""right"",""right"",""good_move"",52123.7,6946.2,2092.3,49649.7,381.7,""smooth"",""right"",""right"",""good_move"",55160.8,3035.9,2667,52124.9,368.9,""oops"",""down"",""left"",""bad_move"",68600.7,13431.2,2694.6,65473.9,432.2,""smooth"",""right"",""right"",""good_move"",71412.5,2810.8,2460.4,68601.9,350.2,""smooth"",""down"",""down"",""good_move""]"
"5043","","<div style=""width:500px;"">
  <p>What determined the result of this run?</p>
  </div>","99","html-slider-response","34","696757","0.0-7.0-1.4","114","1","2025-07-31 13:50:56","36c45c0696341be0efffe67d72a12abb","197.184.98.225","Mozilla/5.0 (Windows NT 10.0; Win64; x64) AppleWebKit/537.36 (KHTML, like Gecko) Chrome/138.0.0.0 Safari/537.36","WebKit","Chrome","138.0.0.0","Windows","10.0","https://app.prolific.com/","en-GB,en-US;q=0.9,en;q=0.8","67215aa0a8e88c6751efc410","683dba9a53627eb9ab41b36a","688b74b66759771592367574","0","67215aa0a8e88c6751efc410","0","2025-07-31T14:02:37.012Z","","","","AttribQ","","","","","","","","","","","50","","","","","","","","","","","","","","","","","","","","","","","","","","",""
"6737","","<div style=""width:500px;"">
  <p>How much control did you have over the ball?</p>
  </div>","91","html-slider-response","35","703501","0.0-7.0-2.4","114","1","2025-07-31 13:50:56","36c45c0696341be0efffe67d72a12abb","197.184.98.225","Mozilla/5.0 (Windows NT 10.0; Win64; x64) AppleWebKit/537.36 (KHTML, like Gecko) Chrome/138.0.0.0 Safari/537.36","WebKit","Chrome","138.0.0.0","Windows","10.0","https://app.prolific.com/","en-GB,en-US;q=0.9,en;q=0.8","67215aa0a8e88c6751efc410","683dba9a53627eb9ab41b36a","688b74b66759771592367574","0","67215aa0a8e88c6751efc410","0","2025-07-31T14:02:43.756Z","","","","ControlQ","","","","","","","","","","","50","","","","","","","","","","","","","","","","","","","","","","","","","","",""
"11204","","<div style=""width:500px;"">
  <p>How would you describe your current emotional state?</p>
  </div>","16","html-slider-response","36","714708","0.0-7.0-3.4","114","1","2025-07-31 13:50:56","36c45c0696341be0efffe67d72a12abb","197.184.98.225","Mozilla/5.0 (Windows NT 10.0; Win64; x64) AppleWebKit/537.36 (KHTML, like Gecko) Chrome/138.0.0.0 Safari/537.36","WebKit","Chrome","138.0.0.0","Windows","10.0","https://app.prolific.com/","en-GB,en-US;q=0.9,en;q=0.8","67215aa0a8e88c6751efc410","683dba9a53627eb9ab41b36a","688b74b66759771592367574","0","67215aa0a8e88c6751efc410","0","2025-07-31T14:02:54.962Z","","","","StressQ","","","","","","","","","","","50","","","","","","","","","","","","","","","","","","","","","","","","","","",""
"5560","","<div style=""width:500px;"">
  <p>What best describes how you currently feel?</p>
  </div>","45","html-slider-response","37","720272","0.0-7.0-4.4","114","1","2025-07-31 13:50:56","36c45c0696341be0efffe67d72a12abb","197.184.98.225","Mozilla/5.0 (Windows NT 10.0; Win64; x64) AppleWebKit/537.36 (KHTML, like Gecko) Chrome/138.0.0.0 Safari/537.36","WebKit","Chrome","138.0.0.0","Windows","10.0","https://app.prolific.com/","en-GB,en-US;q=0.9,en;q=0.8","67215aa0a8e88c6751efc410","683dba9a53627eb9ab41b36a","688b74b66759771592367574","0","67215aa0a8e88c6751efc410","0","2025-07-31T14:03:00.526Z","","","","MotivationQ","","","","","","","","","","","50","","","","","","","","","","","","","","","","","","","","","","","","","","",""
"","","","","ctl-task-cpt","38","800227","0.0-7.0-0.5","114","1","2025-07-31 13:50:56","36c45c0696341be0efffe67d72a12abb","197.184.98.225","Mozilla/5.0 (Windows NT 10.0; Win64; x64) AppleWebKit/537.36 (KHTML, like Gecko) Chrome/138.0.0.0 Safari/537.36","WebKit","Chrome","138.0.0.0","Windows","10.0","https://app.prolific.com/","en-GB,en-US;q=0.9,en;q=0.8","67215aa0a8e88c6751efc410","683dba9a53627eb9ab41b36a","688b74b66759771592367574","0","67215aa0a8e88c6751efc410","0","2025-07-31T14:04:20.481Z","","","","","","","","","","","","","","","","win-only","3","g1:SW,g2:NE","0.5","6","0","724507.7","1687.9","6704","76926.4","1","4","4","6","2","-4","-5","27","32","0.20454545454545456","1263.5","3000","-1790","[""up"",""right""]","{""num_key_presses"":18,""num_perfect"":8,""num_errors"":1,""num_randdir"":9,""num_randdir_good_moves"":2,""num_whilered"":0,""num_whileblue"":0,""num_blue"":6,""num_good_moves"":10}","[294.22232142857143,295.12857142857143,1.3,294.22232142857143,295.12857142857143,106.3,294.22232142857143,295.12857142857143,215.1,294.22232142857143,295.12857142857143,315.1,294.22232142857143,295.12857142857143,431.3,294.22232142857143,295.12857142857143,532.4,294.22232142857143,295.12857142857143,635.6,300.22232142857143,284.12857142857143,749,530.2223214285714,47.128571428571426,872.2,535.2223214285714,43.128571428571426,976.9,539.2223214285714,42.128571428571426,1084.2,539.2223214285714,42.128571428571426,1192.3,539.2223214285714,42.128571428571426,1301.7,539.2223214285714,42.128571428571426,1416.7,539.2223214285714,42.128571428571426,1527.8,539.2223214285714,42.128571428571426,1646.4,539.2223214285714,42.128571428571426,1747.1,539.2223214285714,42.128571428571426,1856.6,539.2223214285714,42.128571428571426,1965.6,539.2223214285714,42.128571428571426,2067.9,539.2223214285714,42.128571428571426,2168.6,539.2223214285714,42.128571428571426,2273.7,539.2223214285714,42.128571428571426,2380.4,539.2223214285714,42.128571428571426,2480.9,539.2223214285714,42.128571428571426,2594.4,539.2223214285714,42.128571428571426,2700,539.2223214285714,42.128571428571426,2805.3,539.2223214285714,42.128571428571426,2913.4,539.2223214285714,42.128571428571426,3018.9,539.2223214285714,42.128571428571426,3125.4,539.2223214285714,42.128571428571426,3232.2,539.2223214285714,42.128571428571426,3338.2,539.2223214285714,42.128571428571426,3440.9,539.2223214285714,42.128571428571426,3549.8,539.2223214285714,42.128571428571426,3662,539.2223214285714,42.128571428571426,3777.3,539.2223214285714,42.128571428571426,3886.7,539.2223214285714,42.128571428571426,3991.7,539.2223214285714,42.128571428571426,4092.1,539.2223214285714,42.128571428571426,4205.3,539.2223214285714,42.128571428571426,4308.3,539.2223214285714,42.128571428571426,4418.5,539.2223214285714,42.128571428571426,4519.3,539.2223214285714,42.128571428571426,4629,539.2223214285714,42.128571428571426,4734,539.2223214285714,42.128571428571426,4838.6,539.2223214285714,42.128571428571426,4945.2]","[1442.4,1442.4,1000,0,442.4,""oops"",""up"",""down"",""bad_move"",4104,2653.7,2252.1,1450.3,401.6,""smooth"",""up"",""up"",""good_move"",6718.6,2611.3,2243.8,4107.3,367.5,""smooth"",""up"",""up"",""good_move"",9621.2,2898.4,2526.9,6722.8,371.5,""oops"",""up"",""up"",""good_move"",12459.1,2827.4,2491.4,9631.8,335.9,""smooth"",""up"",""up"",""good_move"",15339.3,2875.8,2446,12463.5,429.8,""smooth"",""right"",""right"",""good_move"",19053.4,3711.3,3316.5,15342.1,394.8,""smooth"",""right"",""right"",""good_move"",25268.2,6210.9,2529.3,22211.8,527.1,""oops"",""right"",""down"",""bad_move"",31045.2,5775.7,2721.6,27945.7,377.9,""oops"",""right"",""left"",""bad_move"",35862,4813.2,1162.5,34362,337.5,""oops"",""right"",""down"",""bad_move"",38344.7,2481.1,1874.5,35863.6,606.6,""oops"",""right"",""right"",""good_move"",40945.1,2597.9,2236.3,38347.3,361.5,""oops"",""right"",""down"",""bad_move"",49712.2,8764.6,1845.1,47425.8,441.3,""smooth"",""right"",""right"",""good_move"",52714.4,3001,2565.5,49713.5,435.4,""smooth"",""up"",""up"",""good_move"",55413.5,2696.5,2307.9,52717,388.6,""oops"",""up"",""down"",""bad_move"",59002.4,3585.5,2004.7,58343.5,-1345.8,""error"",""-"",""-"",""no_move"",63634.7,4631.1,3217.5,60018.2,399,""smooth"",""up"",""up"",""good_move"",67069.5,3432.8,2939.9,63636.7,492.9,""oops"",""up"",""down"",""bad_move""]"
"5061","","<div style=""width:500px;"">
  <p>What determined the result of this run?</p>
  </div>","94","html-slider-response","39","805290","0.0-7.0-1.5","114","1","2025-07-31 13:50:56","36c45c0696341be0efffe67d72a12abb","197.184.98.225","Mozilla/5.0 (Windows NT 10.0; Win64; x64) AppleWebKit/537.36 (KHTML, like Gecko) Chrome/138.0.0.0 Safari/537.36","WebKit","Chrome","138.0.0.0","Windows","10.0","https://app.prolific.com/","en-GB,en-US;q=0.9,en;q=0.8","67215aa0a8e88c6751efc410","683dba9a53627eb9ab41b36a","688b74b66759771592367574","0","67215aa0a8e88c6751efc410","0","2025-07-31T14:04:25.544Z","","","","AttribQ","","","","","","","","","","","50","","","","","","","","","","","","","","","","","","","","","","","","","","",""
"22937","","<div style=""width:500px;"">
  <p>How much control did you have over the ball?</p>
  </div>","75","html-slider-response","40","828232","0.0-7.0-2.5","114","1","2025-07-31 13:50:56","36c45c0696341be0efffe67d72a12abb","197.184.98.225","Mozilla/5.0 (Windows NT 10.0; Win64; x64) AppleWebKit/537.36 (KHTML, like Gecko) Chrome/138.0.0.0 Safari/537.36","WebKit","Chrome","138.0.0.0","Windows","10.0","https://app.prolific.com/","en-GB,en-US;q=0.9,en;q=0.8","67215aa0a8e88c6751efc410","683dba9a53627eb9ab41b36a","688b74b66759771592367574","0","67215aa0a8e88c6751efc410","0","2025-07-31T14:04:48.486Z","","","","ControlQ","","","","","","","","","","","50","","","","","","","","","","","","","","","","","","","","","","","","","","",""
"22708","","<div style=""width:500px;"">
  <p>How would you describe your current emotional state?</p>
  </div>","21","html-slider-response","41","850944","0.0-7.0-3.5","114","1","2025-07-31 13:50:56","36c45c0696341be0efffe67d72a12abb","197.184.98.225","Mozilla/5.0 (Windows NT 10.0; Win64; x64) AppleWebKit/537.36 (KHTML, like Gecko) Chrome/138.0.0.0 Safari/537.36","WebKit","Chrome","138.0.0.0","Windows","10.0","https://app.prolific.com/","en-GB,en-US;q=0.9,en;q=0.8","67215aa0a8e88c6751efc410","683dba9a53627eb9ab41b36a","688b74b66759771592367574","0","67215aa0a8e88c6751efc410","0","2025-07-31T14:05:11.198Z","","","","StressQ","","","","","","","","","","","50","","","","","","","","","","","","","","","","","","","","","","","","","","",""
"11144","","<div style=""width:500px;"">
  <p>What best describes how you currently feel?</p>
  </div>","43","html-slider-response","42","862092","0.0-7.0-4.5","114","1","2025-07-31 13:50:56","36c45c0696341be0efffe67d72a12abb","197.184.98.225","Mozilla/5.0 (Windows NT 10.0; Win64; x64) AppleWebKit/537.36 (KHTML, like Gecko) Chrome/138.0.0.0 Safari/537.36","WebKit","Chrome","138.0.0.0","Windows","10.0","https://app.prolific.com/","en-GB,en-US;q=0.9,en;q=0.8","67215aa0a8e88c6751efc410","683dba9a53627eb9ab41b36a","688b74b66759771592367574","0","67215aa0a8e88c6751efc410","0","2025-07-31T14:05:22.346Z","","","","MotivationQ","","","","","","","","","","","50","","","","","","","","","","","","","","","","","","","","","","","","","","",""
"","","","","ctl-task-cpt","43","930932","0.0-7.0-0.6","114","1","2025-07-31 13:50:56","36c45c0696341be0efffe67d72a12abb","197.184.98.225","Mozilla/5.0 (Windows NT 10.0; Win64; x64) AppleWebKit/537.36 (KHTML, like Gecko) Chrome/138.0.0.0 Safari/537.36","WebKit","Chrome","138.0.0.0","Windows","10.0","https://app.prolific.com/","en-GB,en-US;q=0.9,en;q=0.8","67215aa0a8e88c6751efc410","683dba9a53627eb9ab41b36a","688b74b66759771592367574","0","67215aa0a8e88c6751efc410","0","2025-07-31T14:06:31.187Z","","","","","","","","","","","","","","","","win-only","0","g1:NW,g2:SE","0.4","7","0","866323.9","1388.7","6420","65798.6","1","4","4","6","2","4","4","31","27","0.23484848484848486","1254.3","3000","2125","[""down"",""right""]","{""num_key_presses"":12,""num_perfect"":5,""num_errors"":0,""num_randdir"":7,""num_randdir_good_moves"":4,""num_whilered"":0,""num_whileblue"":0,""num_blue"":4,""num_good_moves"":9}","[296.22232142857143,294.12857142857143,9.6,296.22232142857143,294.12857142857143,130,296.22232142857143,294.12857142857143,260.4,296.22232142857143,294.12857142857143,382.7,296.22232142857143,294.12857142857143,516.9,296.22232142857143,294.12857142857143,641.3,516.2223214285714,512.1285714285714,843.3,528.2223214285714,539.1285714285714,955.3,531.2223214285714,545.1285714285714,1071.4,531.2223214285714,546.1285714285714,1185.8,531.2223214285714,546.1285714285714,1295.4,531.2223214285714,546.1285714285714,1395.5,531.2223214285714,546.1285714285714,1495.8,531.2223214285714,546.1285714285714,1603.1,531.2223214285714,546.1285714285714,1733.2,531.2223214285714,546.1285714285714,1836.4,531.2223214285714,546.1285714285714,1966.9,531.2223214285714,546.1285714285714,2080.5,531.2223214285714,546.1285714285714,2204.6,531.2223214285714,546.1285714285714,2328.8,531.2223214285714,546.1285714285714,2457.9,531.2223214285714,546.1285714285714,2578.2,531.2223214285714,546.1285714285714,2694.9,531.2223214285714,546.1285714285714,2816.5,531.2223214285714,546.1285714285714,2946.7,531.2223214285714,546.1285714285714,3078.2,531.2223214285714,546.1285714285714,3182.4,531.2223214285714,546.1285714285714,3300.6,531.2223214285714,546.1285714285714,3416.3,531.2223214285714,546.1285714285714,3541.6,531.2223214285714,546.1285714285714,3664.3,531.2223214285714,546.1285714285714,3777.3,531.2223214285714,546.1285714285714,3896.1,531.2223214285714,546.1285714285714,4012.2,531.2223214285714,546.1285714285714,4144.3,531.2223214285714,546.1285714285714,4266.5,531.2223214285714,546.1285714285714,4383.5,531.2223214285714,546.1285714285714,4510.2,531.2223214285714,546.1285714285714,4629.9,531.2223214285714,546.1285714285714,4750.7,531.2223214285714,546.1285714285714,4874.6,531.2223214285714,546.1285714285714,4993.2]","[1515.3,1515.3,1000,0,515.3,""smooth"",""down"",""down"",""good_move"",4329.4,2812.6,2311.6,1516.8,501.1,""oops"",""down"",""up"",""bad_move"",14189.2,9857.4,3078.2,10631.3,479.7,""smooth"",""down"",""down"",""good_move"",17729.1,3539,3026.3,14190.2,512.7,""oops"",""down"",""up"",""bad_move"",23420,5689.1,2746.6,17731,2942.5,""oops"",""down"",""down"",""good_move"",29702.8,6281,2622.7,26581.6,498.5,""smooth"",""down"",""down"",""good_move"",33388.7,3683.8,3182.2,29705,501.6,""oops"",""down"",""left"",""bad_move"",39631.4,6241.1,2633.4,33390.3,3607.7,""oops"",""down"",""right"",""good_move"",42323.5,2690.7,2172,39632.8,518.7,""oops"",""down"",""right"",""good_move"",48301.7,5976.6,2015.1,45724.3,562.3,""smooth"",""down"",""down"",""good_move"",55826.7,7522.8,2836.4,52465.2,525.1,""oops"",""right"",""right"",""good_move"",58592.4,2764,2139.7,55828.4,624.3,""smooth"",""right"",""right"",""good_move""]"
"10892","","<div style=""width:500px;"">
  <p>What determined the result of this run?</p>
  </div>","96","html-slider-response","44","941830","0.0-7.0-1.6","114","1","2025-07-31 13:50:56","36c45c0696341be0efffe67d72a12abb","197.184.98.225","Mozilla/5.0 (Windows NT 10.0; Win64; x64) AppleWebKit/537.36 (KHTML, like Gecko) Chrome/138.0.0.0 Safari/537.36","WebKit","Chrome","138.0.0.0","Windows","10.0","https://app.prolific.com/","en-GB,en-US;q=0.9,en;q=0.8","67215aa0a8e88c6751efc410","683dba9a53627eb9ab41b36a","688b74b66759771592367574","0","67215aa0a8e88c6751efc410","0","2025-07-31T14:06:42.085Z","","","","AttribQ","","","","","","","","","","","50","","","","","","","","","","","","","","","","","","","","","","","","","","",""
"21960","","<div style=""width:500px;"">
  <p>How much control did you have over the ball?</p>
  </div>","69","html-slider-response","45","963797","0.0-7.0-2.6","114","1","2025-07-31 13:50:56","36c45c0696341be0efffe67d72a12abb","197.184.98.225","Mozilla/5.0 (Windows NT 10.0; Win64; x64) AppleWebKit/537.36 (KHTML, like Gecko) Chrome/138.0.0.0 Safari/537.36","WebKit","Chrome","138.0.0.0","Windows","10.0","https://app.prolific.com/","en-GB,en-US;q=0.9,en;q=0.8","67215aa0a8e88c6751efc410","683dba9a53627eb9ab41b36a","688b74b66759771592367574","0","67215aa0a8e88c6751efc410","0","2025-07-31T14:07:04.051Z","","","","ControlQ","","","","","","","","","","","50","","","","","","","","","","","","","","","","","","","","","","","","","","",""
"5644","","<div style=""width:500px;"">
  <p>How would you describe your current emotional state?</p>
  </div>","45","html-slider-response","46","969444","0.0-7.0-3.6","114","1","2025-07-31 13:50:56","36c45c0696341be0efffe67d72a12abb","197.184.98.225","Mozilla/5.0 (Windows NT 10.0; Win64; x64) AppleWebKit/537.36 (KHTML, like Gecko) Chrome/138.0.0.0 Safari/537.36","WebKit","Chrome","138.0.0.0","Windows","10.0","https://app.prolific.com/","en-GB,en-US;q=0.9,en;q=0.8","67215aa0a8e88c6751efc410","683dba9a53627eb9ab41b36a","688b74b66759771592367574","0","67215aa0a8e88c6751efc410","0","2025-07-31T14:07:09.698Z","","","","StressQ","","","","","","","","","","","50","","","","","","","","","","","","","","","","","","","","","","","","","","",""
"5923","","<div style=""width:500px;"">
  <p>What best describes how you currently feel?</p>
  </div>","46","html-slider-response","47","975371","0.0-7.0-4.6","114","1","2025-07-31 13:50:56","36c45c0696341be0efffe67d72a12abb","197.184.98.225","Mozilla/5.0 (Windows NT 10.0; Win64; x64) AppleWebKit/537.36 (KHTML, like Gecko) Chrome/138.0.0.0 Safari/537.36","WebKit","Chrome","138.0.0.0","Windows","10.0","https://app.prolific.com/","en-GB,en-US;q=0.9,en;q=0.8","67215aa0a8e88c6751efc410","683dba9a53627eb9ab41b36a","688b74b66759771592367574","0","67215aa0a8e88c6751efc410","0","2025-07-31T14:07:15.625Z","","","","MotivationQ","","","","","","","","","","","50","","","","","","","","","","","","","","","","","","","","","","","","","","",""
"","","","","ctl-task-cpt","48","1011675","0.0-7.0-0.7","114","1","2025-07-31 13:50:56","36c45c0696341be0efffe67d72a12abb","197.184.98.225","Mozilla/5.0 (Windows NT 10.0; Win64; x64) AppleWebKit/537.36 (KHTML, like Gecko) Chrome/138.0.0.0 Safari/537.36","WebKit","Chrome","138.0.0.0","Windows","10.0","https://app.prolific.com/","en-GB,en-US;q=0.9,en;q=0.8","67215aa0a8e88c6751efc410","683dba9a53627eb9ab41b36a","688b74b66759771592367574","0","67215aa0a8e88c6751efc410","0","2025-07-31T14:07:51.929Z","","","","","","","","","","","","","","","","win-only","3","g1:SW,g2:NE","0.3","8","0","979601.2","1452.6","6469.4","33282.8","1","4","8","6","2","8","8","39","31","0.29545454545454547","1270.4","3000","2025","[""up"",""right""]","{""num_key_presses"":8,""num_perfect"":3,""num_errors"":0,""num_randdir"":5,""num_randdir_good_moves"":4,""num_whilered"":0,""num_whileblue"":0,""num_blue"":1,""num_good_moves"":7}","[294.22232142857143,302.12857142857143,1.5,294.22232142857143,302.12857142857143,110.6,294.22232142857143,302.12857142857143,218.5,294.22232142857143,302.12857142857143,333.7,294.22232142857143,302.12857142857143,444.1,294.22232142857143,302.12857142857143,547.2,378.22232142857143,211.12857142857143,658.9,500.22232142857143,88.12857142857143,778.2,501.22232142857143,86.12857142857143,896.5,504.22232142857143,83.12857142857143,997.2,511.22232142857143,80.12857142857143,1107.1,511.22232142857143,80.12857142857143,1218.2,511.22232142857143,80.12857142857143,1328.8,511.22232142857143,80.12857142857143,1440.4,511.22232142857143,80.12857142857143,1552.6,511.22232142857143,80.12857142857143,1662.5,511.22232142857143,80.12857142857143,1769.8,511.22232142857143,80.12857142857143,1870.3,511.22232142857143,80.12857142857143,1983,511.22232142857143,80.12857142857143,2083.2,511.22232142857143,80.12857142857143,2192.8,511.22232142857143,80.12857142857143,2310.6,511.22232142857143,80.12857142857143,2419.8,511.22232142857143,80.12857142857143,2526.7,511.22232142857143,80.12857142857143,2633.5,511.22232142857143,80.12857142857143,2738.6,511.22232142857143,80.12857142857143,2841.3,511.22232142857143,80.12857142857143,2957.4,511.22232142857143,80.12857142857143,3061.5,511.22232142857143,80.12857142857143,3173.4,511.22232142857143,80.12857142857143,3289.3,511.22232142857143,80.12857142857143,3391.1,511.22232142857143,80.12857142857143,3492.3,511.22232142857143,80.12857142857143,3618.5,511.22232142857143,80.12857142857143,3719.9,511.22232142857143,80.12857142857143,3821.8,511.22232142857143,80.12857142857143,3927.7,511.22232142857143,80.12857142857143,4030.6,511.22232142857143,80.12857142857143,4142.8,511.22232142857143,80.12857142857143,4257.3,511.22232142857143,80.12857142857143,4358.6,511.22232142857143,80.12857142857143,4472.6,511.22232142857143,80.12857142857143,4583.8,511.22232142857143,80.12857142857143,4691.5,511.22232142857143,80.12857142857143,4803.1,511.22232142857143,80.12857142857143,4915.5]","[1412.4,1412.4,1000,0,412.4,""oops"",""up"",""up"",""good_move"",5532.8,4118.4,2738.8,1414.4,1379.6,""oops"",""up"",""up"",""good_move"",8308.7,2767.8,2344.2,5540.9,423.6,""smooth"",""up"",""up"",""good_move"",14629.6,6317.1,1882.7,12341.7,405.2,""smooth"",""right"",""right"",""good_move"",17601.9,2969.2,2583.2,14632.7,386,""oops"",""right"",""right"",""good_move"",20263.9,2655.7,2212.7,17608.2,443,""oops"",""right"",""down"",""bad_move"",23190.5,2922.2,2529.7,20268.3,392.5,""oops"",""right"",""up"",""good_move"",26473.1,3280,2070.2,23193.1,1209.8,""smooth"",""right"",""right"",""good_move""]"
"4188","","<div style=""width:500px;"">
  <p>What determined the result of this run?</p>
  </div>","98","html-slider-response","49","1015866","0.0-7.0-1.7","114","1","2025-07-31 13:50:56","36c45c0696341be0efffe67d72a12abb","197.184.98.225","Mozilla/5.0 (Windows NT 10.0; Win64; x64) AppleWebKit/537.36 (KHTML, like Gecko) Chrome/138.0.0.0 Safari/537.36","WebKit","Chrome","138.0.0.0","Windows","10.0","https://app.prolific.com/","en-GB,en-US;q=0.9,en;q=0.8","67215aa0a8e88c6751efc410","683dba9a53627eb9ab41b36a","688b74b66759771592367574","0","67215aa0a8e88c6751efc410","0","2025-07-31T14:07:56.121Z","","","","AttribQ","","","","","","","","","","","50","","","","","","","","","","","","","","","","","","","","","","","","","","",""
"5484","","<div style=""width:500px;"">
  <p>How much control did you have over the ball?</p>
  </div>","83","html-slider-response","50","1021353","0.0-7.0-2.7","114","1","2025-07-31 13:50:56","36c45c0696341be0efffe67d72a12abb","197.184.98.225","Mozilla/5.0 (Windows NT 10.0; Win64; x64) AppleWebKit/537.36 (KHTML, like Gecko) Chrome/138.0.0.0 Safari/537.36","WebKit","Chrome","138.0.0.0","Windows","10.0","https://app.prolific.com/","en-GB,en-US;q=0.9,en;q=0.8","67215aa0a8e88c6751efc410","683dba9a53627eb9ab41b36a","688b74b66759771592367574","0","67215aa0a8e88c6751efc410","0","2025-07-31T14:08:01.607Z","","","","ControlQ","","","","","","","","","","","50","","","","","","","","","","","","","","","","","","","","","","","","","","",""
"15444","","<div style=""width:500px;"">
  <p>How would you describe your current emotional state?</p>
  </div>","19","html-slider-response","51","1036799","0.0-7.0-3.7","114","1","2025-07-31 13:50:56","36c45c0696341be0efffe67d72a12abb","197.184.98.225","Mozilla/5.0 (Windows NT 10.0; Win64; x64) AppleWebKit/537.36 (KHTML, like Gecko) Chrome/138.0.0.0 Safari/537.36","WebKit","Chrome","138.0.0.0","Windows","10.0","https://app.prolific.com/","en-GB,en-US;q=0.9,en;q=0.8","67215aa0a8e88c6751efc410","683dba9a53627eb9ab41b36a","688b74b66759771592367574","0","67215aa0a8e88c6751efc410","0","2025-07-31T14:08:17.054Z","","","","StressQ","","","","","","","","","","","50","","","","","","","","","","","","","","","","","","","","","","","","","","",""
"7873","","<div style=""width:500px;"">
  <p>What best describes how you currently feel?</p>
  </div>","46","html-slider-response","52","1044676","0.0-7.0-4.7","114","1","2025-07-31 13:50:56","36c45c0696341be0efffe67d72a12abb","197.184.98.225","Mozilla/5.0 (Windows NT 10.0; Win64; x64) AppleWebKit/537.36 (KHTML, like Gecko) Chrome/138.0.0.0 Safari/537.36","WebKit","Chrome","138.0.0.0","Windows","10.0","https://app.prolific.com/","en-GB,en-US;q=0.9,en;q=0.8","67215aa0a8e88c6751efc410","683dba9a53627eb9ab41b36a","688b74b66759771592367574","0","67215aa0a8e88c6751efc410","0","2025-07-31T14:08:24.930Z","","","","MotivationQ","","","","","","","","","","","50","","","","","","","","","","","","","","","","","","","","","","","","","","",""
"","","","","ctl-task-cpt","53","1082906","0.0-7.0-0.8","114","1","2025-07-31 13:50:56","36c45c0696341be0efffe67d72a12abb","197.184.98.225","Mozilla/5.0 (Windows NT 10.0; Win64; x64) AppleWebKit/537.36 (KHTML, like Gecko) Chrome/138.0.0.0 Safari/537.36","WebKit","Chrome","138.0.0.0","Windows","10.0","https://app.prolific.com/","en-GB,en-US;q=0.9,en;q=0.8","67215aa0a8e88c6751efc410","683dba9a53627eb9ab41b36a","688b74b66759771592367574","0","67215aa0a8e88c6751efc410","0","2025-07-31T14:09:03.160Z","","","","","","","","","","","","","","","","win-only","3","g1:SW,g2:NE","0.4","9","0","1048908.7","1332.4","6346.5","35174.1","1","4","8","6","2","8","7","46","39","0.3484848484848485","1119.5","3000","2685","[""up"",""right""]","{""num_key_presses"":6,""num_perfect"":2,""num_errors"":1,""num_randdir"":3,""num_randdir_good_moves"":3,""num_whilered"":0,""num_whileblue"":1,""num_blue"":1,""num_good_moves"":6}","[296.22232142857143,295.12857142857143,0.8,296.22232142857143,295.12857142857143,114.4,296.22232142857143,295.12857142857143,218.1,296.22232142857143,295.12857142857143,318.1,296.22232142857143,295.12857142857143,427.6,353.22232142857143,235.12857142857143,537.1,539.2223214285714,55.128571428571426,653.9,563.2223214285714,33.128571428571426,757.8,563.2223214285714,32.128571428571426,880.4,563.2223214285714,32.128571428571426,990,563.2223214285714,32.128571428571426,1092,563.2223214285714,32.128571428571426,1207.6,563.2223214285714,32.128571428571426,1321.3,563.2223214285714,32.128571428571426,1441,563.2223214285714,32.128571428571426,1552,563.2223214285714,32.128571428571426,1656.8,563.2223214285714,32.128571428571426,1768.1,563.2223214285714,32.128571428571426,1870.7,563.2223214285714,32.128571428571426,1971.4,563.2223214285714,32.128571428571426,2093.3,563.2223214285714,32.128571428571426,2201.8,563.2223214285714,32.128571428571426,2306.9,563.2223214285714,32.128571428571426,2417.3,563.2223214285714,32.128571428571426,2527.8,563.2223214285714,32.128571428571426,2642.4,563.2223214285714,32.128571428571426,2761.2,563.2223214285714,32.128571428571426,2884.7,563.2223214285714,32.128571428571426,3001.6,563.2223214285714,32.128571428571426,3115,563.2223214285714,32.128571428571426,3234.8,563.2223214285714,32.128571428571426,3347.8,563.2223214285714,32.128571428571426,3450.9,563.2223214285714,32.128571428571426,3560.8,563.2223214285714,32.128571428571426,3670.9,563.2223214285714,32.128571428571426,3773.9,563.2223214285714,32.128571428571426,3881.9,563.2223214285714,32.128571428571426,3987.2,563.2223214285714,32.128571428571426,4109.6,563.2223214285714,32.128571428571426,4212.6,563.2223214285714,32.128571428571426,4314.1,563.2223214285714,32.128571428571426,4420.2,563.2223214285714,32.128571428571426,4521.2,563.2223214285714,32.128571428571426,4654.7,563.2223214285714,32.128571428571426,4783.2,563.2223214285714,32.128571428571426,4912.2]","[1560.6,1560.6,1000,0,560.6,""smooth"",""up"",""up"",""good_move"",8274.3,6710.2,2446.2,1564.1,4264,""smooth"",""up"",""up"",""good_move"",15117.5,6840.1,2391.7,8277.4,4448.4,""oops"",""up"",""up"",""good_move"",21909.9,6791.2,6388.7,15118.7,402.5,""while_blue"",""right"",""right"",""good_move"",25067.6,3155.1,2468.9,21912.7,686.1,""oops"",""right"",""right"",""good_move"",27913.9,2844.8,2339.9,25069.1,504.9,""oops"",""right"",""right"",""good_move""]"
"4173","","<div style=""width:500px;"">
  <p>What determined the result of this run?</p>
  </div>","95","html-slider-response","54","1087084","0.0-7.0-1.8","114","1","2025-07-31 13:50:56","36c45c0696341be0efffe67d72a12abb","197.184.98.225","Mozilla/5.0 (Windows NT 10.0; Win64; x64) AppleWebKit/537.36 (KHTML, like Gecko) Chrome/138.0.0.0 Safari/537.36","WebKit","Chrome","138.0.0.0","Windows","10.0","https://app.prolific.com/","en-GB,en-US;q=0.9,en;q=0.8","67215aa0a8e88c6751efc410","683dba9a53627eb9ab41b36a","688b74b66759771592367574","0","67215aa0a8e88c6751efc410","0","2025-07-31T14:09:07.338Z","","","","AttribQ","","","","","","","","","","","50","","","","","","","","","","","","","","","","","","","","","","","","","","",""
"7918","","<div style=""width:500px;"">
  <p>How much control did you have over the ball?</p>
  </div>","94","html-slider-response","55","1095007","0.0-7.0-2.8","114","1","2025-07-31 13:50:56","36c45c0696341be0efffe67d72a12abb","197.184.98.225","Mozilla/5.0 (Windows NT 10.0; Win64; x64) AppleWebKit/537.36 (KHTML, like Gecko) Chrome/138.0.0.0 Safari/537.36","WebKit","Chrome","138.0.0.0","Windows","10.0","https://app.prolific.com/","en-GB,en-US;q=0.9,en;q=0.8","67215aa0a8e88c6751efc410","683dba9a53627eb9ab41b36a","688b74b66759771592367574","0","67215aa0a8e88c6751efc410","0","2025-07-31T14:09:15.262Z","","","","ControlQ","","","","","","","","","","","50","","","","","","","","","","","","","","","","","","","","","","","","","","",""
"10316","","<div style=""width:500px;"">
  <p>How would you describe your current emotional state?</p>
  </div>","19","html-slider-response","56","1105334","0.0-7.0-3.8","114","1","2025-07-31 13:50:56","36c45c0696341be0efffe67d72a12abb","197.184.98.225","Mozilla/5.0 (Windows NT 10.0; Win64; x64) AppleWebKit/537.36 (KHTML, like Gecko) Chrome/138.0.0.0 Safari/537.36","WebKit","Chrome","138.0.0.0","Windows","10.0","https://app.prolific.com/","en-GB,en-US;q=0.9,en;q=0.8","67215aa0a8e88c6751efc410","683dba9a53627eb9ab41b36a","688b74b66759771592367574","0","67215aa0a8e88c6751efc410","0","2025-07-31T14:09:25.588Z","","","","StressQ","","","","","","","","","","","50","","","","","","","","","","","","","","","","","","","","","","","","","","",""
"9276","","<div style=""width:500px;"">
  <p>What best describes how you currently feel?</p>
  </div>","47","html-slider-response","57","1114615","0.0-7.0-4.8","114","1","2025-07-31 13:50:56","36c45c0696341be0efffe67d72a12abb","197.184.98.225","Mozilla/5.0 (Windows NT 10.0; Win64; x64) AppleWebKit/537.36 (KHTML, like Gecko) Chrome/138.0.0.0 Safari/537.36","WebKit","Chrome","138.0.0.0","Windows","10.0","https://app.prolific.com/","en-GB,en-US;q=0.9,en;q=0.8","67215aa0a8e88c6751efc410","683dba9a53627eb9ab41b36a","688b74b66759771592367574","0","67215aa0a8e88c6751efc410","0","2025-07-31T14:09:34.869Z","","","","MotivationQ","","","","","","","","","","","50","","","","","","","","","","","","","","","","","","","","","","","","","","",""
"","","","","ctl-task-cpt","58","1183290","0.0-7.0-0.9","114","1","2025-07-31 13:50:56","36c45c0696341be0efffe67d72a12abb","197.184.98.225","Mozilla/5.0 (Windows NT 10.0; Win64; x64) AppleWebKit/537.36 (KHTML, like Gecko) Chrome/138.0.0.0 Safari/537.36","WebKit","Chrome","138.0.0.0","Windows","10.0","https://app.prolific.com/","en-GB,en-US;q=0.9,en;q=0.8","67215aa0a8e88c6751efc410","683dba9a53627eb9ab41b36a","688b74b66759771592367574","0","67215aa0a8e88c6751efc410","0","2025-07-31T14:10:43.544Z","","","","","","","","","","","","","","","","win-only","3","g1:SW,g2:NE","0.5","10","0","1118845.8","1475.9","6526.8","65641.9","1","4","4","6","2","4","4","50","46","0.3787878787878788","1461.7","3000","1820","[""up"",""right""]","{""num_key_presses"":10,""num_perfect"":5,""num_errors"":0,""num_randdir"":5,""num_randdir_good_moves"":3,""num_whilered"":0,""num_whileblue"":0,""num_blue"":5,""num_good_moves"":8}","[297.22232142857143,298.12857142857143,1,297.22232142857143,298.12857142857143,124.9,297.22232142857143,298.12857142857143,235.3,297.22232142857143,298.12857142857143,361.2,297.22232142857143,298.12857142857143,471.3,297.22232142857143,298.12857142857143,580.9,323.22232142857143,254.12857142857143,715,474.22232142857143,90.12857142857143,864.5,475.22232142857143,89.12857142857143,972.5,532.2223214285714,82.12857142857143,1121.7,534.2223214285714,81.12857142857143,1243.5,535.2223214285714,81.12857142857143,1394,535.2223214285714,81.12857142857143,1510.2,535.2223214285714,81.12857142857143,1613.3,535.2223214285714,81.12857142857143,1718.8,535.2223214285714,81.12857142857143,1857.8,535.2223214285714,81.12857142857143,1993.2,535.2223214285714,81.12857142857143,2134.6,535.2223214285714,81.12857142857143,2274.5,535.2223214285714,81.12857142857143,2401.1,535.2223214285714,81.12857142857143,2533.8,535.2223214285714,81.12857142857143,2668.4,535.2223214285714,81.12857142857143,2802.1,535.2223214285714,81.12857142857143,2939.1,535.2223214285714,81.12857142857143,3039.9,535.2223214285714,81.12857142857143,3142.5,535.2223214285714,81.12857142857143,3251.8,535.2223214285714,81.12857142857143,3353.7,535.2223214285714,81.12857142857143,3498.2,535.2223214285714,81.12857142857143,3637.5,535.2223214285714,81.12857142857143,3777.8,535.2223214285714,81.12857142857143,3921.9,535.2223214285714,81.12857142857143,4059.8,535.2223214285714,81.12857142857143,4172.6,535.2223214285714,81.12857142857143,4288,535.2223214285714,81.12857142857143,4401.1,535.2223214285714,81.12857142857143,4515.6,535.2223214285714,81.12857142857143,4658.4,535.2223214285714,81.12857142857143,4798,535.2223214285714,81.12857142857143,4942.5]","[1520.4,1520.4,1000,0,520.4,""oops"",""up"",""up"",""good_move"",11109,9587,2439.4,1522,7147.6,""smooth"",""up"",""up"",""good_move"",20120.2,9010.1,1816.5,11110.2,7193.6,""smooth"",""up"",""up"",""good_move"",33530.4,13395.6,2779,30314.1,437.3,""oops"",""right"",""left"",""bad_move"",41112.3,7580.4,2950.6,37673.2,488.5,""oops"",""right"",""right"",""good_move"",44332.3,3218.6,2519.5,41113.7,699.1,""oops"",""right"",""left"",""bad_move"",47829.9,3488.1,2992.4,44341.8,495.7,""smooth"",""right"",""right"",""good_move"",53456.8,5625.1,2719.9,50337.2,399.8,""smooth"",""right"",""right"",""good_move"",56196.2,2737.9,2303.2,53458.3,434.7,""smooth"",""right"",""right"",""good_move"",58748.4,2550.2,2166.1,56198.2,384.1,""oops"",""right"",""right"",""good_move""]"
"5892","","<div style=""width:500px;"">
  <p>What determined the result of this run?</p>
  </div>","94","html-slider-response","59","1189185","0.0-7.0-1.9","114","1","2025-07-31 13:50:56","36c45c0696341be0efffe67d72a12abb","197.184.98.225","Mozilla/5.0 (Windows NT 10.0; Win64; x64) AppleWebKit/537.36 (KHTML, like Gecko) Chrome/138.0.0.0 Safari/537.36","WebKit","Chrome","138.0.0.0","Windows","10.0","https://app.prolific.com/","en-GB,en-US;q=0.9,en;q=0.8","67215aa0a8e88c6751efc410","683dba9a53627eb9ab41b36a","688b74b66759771592367574","0","67215aa0a8e88c6751efc410","0","2025-07-31T14:10:49.439Z","","","","AttribQ","","","","","","","","","","","50","","","","","","","","","","","","","","","","","","","","","","","","","","",""
"6338","","<div style=""width:500px;"">
  <p>How much control did you have over the ball?</p>
  </div>","91","html-slider-response","60","1195527","0.0-7.0-2.9","114","1","2025-07-31 13:50:56","36c45c0696341be0efffe67d72a12abb","197.184.98.225","Mozilla/5.0 (Windows NT 10.0; Win64; x64) AppleWebKit/537.36 (KHTML, like Gecko) Chrome/138.0.0.0 Safari/537.36","WebKit","Chrome","138.0.0.0","Windows","10.0","https://app.prolific.com/","en-GB,en-US;q=0.9,en;q=0.8","67215aa0a8e88c6751efc410","683dba9a53627eb9ab41b36a","688b74b66759771592367574","0","67215aa0a8e88c6751efc410","0","2025-07-31T14:10:55.781Z","","","","ControlQ","","","","","","","","","","","50","","","","","","","","","","","","","","","","","","","","","","","","","","",""
"5220","","<div style=""width:500px;"">
  <p>How would you describe your current emotional state?</p>
  </div>","18","html-slider-response","61","1200751","0.0-7.0-3.9","114","1","2025-07-31 13:50:56","36c45c0696341be0efffe67d72a12abb","197.184.98.225","Mozilla/5.0 (Windows NT 10.0; Win64; x64) AppleWebKit/537.36 (KHTML, like Gecko) Chrome/138.0.0.0 Safari/537.36","WebKit","Chrome","138.0.0.0","Windows","10.0","https://app.prolific.com/","en-GB,en-US;q=0.9,en;q=0.8","67215aa0a8e88c6751efc410","683dba9a53627eb9ab41b36a","688b74b66759771592367574","0","67215aa0a8e88c6751efc410","0","2025-07-31T14:11:01.006Z","","","","StressQ","","","","","","","","","","","50","","","","","","","","","","","","","","","","","","","","","","","","","","",""
"7012","","<div style=""width:500px;"">
  <p>What best describes how you currently feel?</p>
  </div>","51","html-slider-response","62","1207770","0.0-7.0-4.9","114","1","2025-07-31 13:50:56","36c45c0696341be0efffe67d72a12abb","197.184.98.225","Mozilla/5.0 (Windows NT 10.0; Win64; x64) AppleWebKit/537.36 (KHTML, like Gecko) Chrome/138.0.0.0 Safari/537.36","WebKit","Chrome","138.0.0.0","Windows","10.0","https://app.prolific.com/","en-GB,en-US;q=0.9,en;q=0.8","67215aa0a8e88c6751efc410","683dba9a53627eb9ab41b36a","688b74b66759771592367574","0","67215aa0a8e88c6751efc410","0","2025-07-31T14:11:08.025Z","","","","MotivationQ","","","","","","","","","","","50","","","","","","","","","","","","","","","","","","","","","","","","","","",""
"","","","","ctl-task-cpt","63","1243196","0.0-7.0-0.10","114","1","2025-07-31 13:50:56","36c45c0696341be0efffe67d72a12abb","197.184.98.225","Mozilla/5.0 (Windows NT 10.0; Win64; x64) AppleWebKit/537.36 (KHTML, like Gecko) Chrome/138.0.0.0 Safari/537.36","WebKit","Chrome","138.0.0.0","Windows","10.0","https://app.prolific.com/","en-GB,en-US;q=0.9,en;q=0.8","67215aa0a8e88c6751efc410","683dba9a53627eb9ab41b36a","688b74b66759771592367574","0","67215aa0a8e88c6751efc410","0","2025-07-31T14:11:43.450Z","","","","","","","","","","","","","","","","win-only","3","g1:SW,g2:NE","0.6","11","0","1212002.3","1390.8","6405","32387","1","4","4","6","2","4","4","54","50","0.4090909090909091","1201.4","3000","2275","[""up"",""right""]","{""num_key_presses"":8,""num_perfect"":5,""num_errors"":0,""num_randdir"":3,""num_randdir_good_moves"":2,""num_whilered"":0,""num_whileblue"":0,""num_blue"":0,""num_good_moves"":7}","[300.22232142857143,302.12857142857143,1.2,300.22232142857143,302.12857142857143,110.5,300.22232142857143,302.12857142857143,229.6,300.22232142857143,302.12857142857143,342.5,300.22232142857143,302.12857142857143,466.2,325.22232142857143,258.12857142857143,580.9,559.2223214285714,14.128571428571426,683.1,573.2223214285714,6.128571428571426,798.7,571.2223214285714,14.128571428571426,928.5,555.2223214285714,41.128571428571426,1039.9,555.2223214285714,41.128571428571426,1149.3,555.2223214285714,41.128571428571426,1253.5,555.2223214285714,41.128571428571426,1363.8,555.2223214285714,41.128571428571426,1470.2,555.2223214285714,41.128571428571426,1583.4,555.2223214285714,41.128571428571426,1691.9,555.2223214285714,41.128571428571426,1797.2,555.2223214285714,41.128571428571426,1898.8,555.2223214285714,41.128571428571426,2007,555.2223214285714,41.128571428571426,2113.5,555.2223214285714,41.128571428571426,2216.4,555.2223214285714,41.128571428571426,2319.6,555.2223214285714,41.128571428571426,2420.7,555.2223214285714,41.128571428571426,2528.6,555.2223214285714,41.128571428571426,2634.6,555.2223214285714,41.128571428571426,2749.8,555.2223214285714,41.128571428571426,2862.3,555.2223214285714,41.128571428571426,2977.5,555.2223214285714,41.128571428571426,3091.5,555.2223214285714,41.128571428571426,3196.3,555.2223214285714,41.128571428571426,3299.8,555.2223214285714,41.128571428571426,3410.8,555.2223214285714,41.128571428571426,3512.8,555.2223214285714,41.128571428571426,3613.6,555.2223214285714,41.128571428571426,3723.1,555.2223214285714,41.128571428571426,3829.2,555.2223214285714,41.128571428571426,3930.6,555.2223214285714,41.128571428571426,4045.6,555.2223214285714,41.128571428571426,4150.3,555.2223214285714,41.128571428571426,4258.7,555.2223214285714,41.128571428571426,4378.8,555.2223214285714,41.128571428571426,4481.9,555.2223214285714,41.128571428571426,4598.2,555.2223214285714,41.128571428571426,4710.2,555.2223214285714,41.128571428571426,4817.5,555.2223214285714,41.128571428571426,4926.3]","[1460.1,1460.1,1000,0,460.1,""smooth"",""up"",""up"",""good_move"",5235.1,3770.7,3376.7,1464.4,394,""oops"",""up"",""up"",""good_move"",8456.4,3213.7,2586,5242.7,627.7,""oops"",""up"",""right"",""good_move"",11197.4,2738.8,2271.6,8458.6,467.2,""smooth"",""up"",""up"",""good_move"",15556.9,4357.3,1980.8,11199.6,2376.5,""smooth"",""right"",""right"",""good_move"",18452.9,2894.3,2484.9,15558.7,409.3,""oops"",""right"",""left"",""bad_move"",22973.2,4514.8,2613.7,18458.4,1901.2,""smooth"",""right"",""right"",""good_move"",25358.4,2383.5,1952.3,22975.1,431,""smooth"",""right"",""right"",""good_move""]"
"5173","","<div style=""width:500px;"">
  <p>What determined the result of this run?</p>
  </div>","98","html-slider-response","64","1248371","0.0-7.0-1.10","114","1","2025-07-31 13:50:56","36c45c0696341be0efffe67d72a12abb","197.184.98.225","Mozilla/5.0 (Windows NT 10.0; Win64; x64) AppleWebKit/537.36 (KHTML, like Gecko) Chrome/138.0.0.0 Safari/537.36","WebKit","Chrome","138.0.0.0","Windows","10.0","https://app.prolific.com/","en-GB,en-US;q=0.9,en;q=0.8","67215aa0a8e88c6751efc410","683dba9a53627eb9ab41b36a","688b74b66759771592367574","0","67215aa0a8e88c6751efc410","0","2025-07-31T14:11:48.625Z","","","","AttribQ","","","","","","","","","","","50","","","","","","","","","","","","","","","","","","","","","","","","","","",""
"3306","","<div style=""width:500px;"">
  <p>How much control did you have over the ball?</p>
  </div>","93","html-slider-response","65","1251681","0.0-7.0-2.10","114","1","2025-07-31 13:50:56","36c45c0696341be0efffe67d72a12abb","197.184.98.225","Mozilla/5.0 (Windows NT 10.0; Win64; x64) AppleWebKit/537.36 (KHTML, like Gecko) Chrome/138.0.0.0 Safari/537.36","WebKit","Chrome","138.0.0.0","Windows","10.0","https://app.prolific.com/","en-GB,en-US;q=0.9,en;q=0.8","67215aa0a8e88c6751efc410","683dba9a53627eb9ab41b36a","688b74b66759771592367574","0","67215aa0a8e88c6751efc410","0","2025-07-31T14:11:51.935Z","","","","ControlQ","","","","","","","","","","","50","","","","","","","","","","","","","","","","","","","","","","","","","","",""
"27581","","<div style=""width:500px;"">
  <p>How would you describe your current emotional state?</p>
  </div>","14","html-slider-response","66","1279268","0.0-7.0-3.10","114","1","2025-07-31 13:50:56","36c45c0696341be0efffe67d72a12abb","197.184.98.225","Mozilla/5.0 (Windows NT 10.0; Win64; x64) AppleWebKit/537.36 (KHTML, like Gecko) Chrome/138.0.0.0 Safari/537.36","WebKit","Chrome","138.0.0.0","Windows","10.0","https://app.prolific.com/","en-GB,en-US;q=0.9,en;q=0.8","67215aa0a8e88c6751efc410","683dba9a53627eb9ab41b36a","688b74b66759771592367574","0","67215aa0a8e88c6751efc410","0","2025-07-31T14:12:19.522Z","","","","StressQ","","","","","","","","","","","50","","","","","","","","","","","","","","","","","","","","","","","","","","",""
"5870","","<div style=""width:500px;"">
  <p>What best describes how you currently feel?</p>
  </div>","52","html-slider-response","67","1285143","0.0-7.0-4.10","114","1","2025-07-31 13:50:56","36c45c0696341be0efffe67d72a12abb","197.184.98.225","Mozilla/5.0 (Windows NT 10.0; Win64; x64) AppleWebKit/537.36 (KHTML, like Gecko) Chrome/138.0.0.0 Safari/537.36","WebKit","Chrome","138.0.0.0","Windows","10.0","https://app.prolific.com/","en-GB,en-US;q=0.9,en;q=0.8","67215aa0a8e88c6751efc410","683dba9a53627eb9ab41b36a","688b74b66759771592367574","0","67215aa0a8e88c6751efc410","0","2025-07-31T14:12:25.398Z","","","","MotivationQ","","","","","","","","","","","50","","","","","","","","","","","","","","","","","","","","","","","","","","",""
"","","","","ctl-task-cpt","68","1355718","0.0-7.0-0.11","114","1","2025-07-31 13:50:56","36c45c0696341be0efffe67d72a12abb","197.184.98.225","Mozilla/5.0 (Windows NT 10.0; Win64; x64) AppleWebKit/537.36 (KHTML, like Gecko) Chrome/138.0.0.0 Safari/537.36","WebKit","Chrome","138.0.0.0","Windows","10.0","https://app.prolific.com/","en-GB,en-US;q=0.9,en;q=0.8","67215aa0a8e88c6751efc410","683dba9a53627eb9ab41b36a","688b74b66759771592367574","0","67215aa0a8e88c6751efc410","0","2025-07-31T14:13:35.973Z","","","","","","","","","","","","","","","","win-only","3","g1:SW,g2:NE","0.7","12","0","1289376.7","2088.5","7117.6","67521.7","1","4","8","6","2","8","8","62","54","0.4696969696969697","1465.1","3000","1755","[""up"",""right""]","{""num_key_presses"":12,""num_perfect"":9,""num_errors"":0,""num_randdir"":3,""num_randdir_good_moves"":0,""num_whilered"":0,""num_whileblue"":0,""num_blue"":3,""num_good_moves"":9}","[293.22232142857143,299.12857142857143,0.9,293.22232142857143,299.12857142857143,142.1,293.22232142857143,299.12857142857143,259.9,293.22232142857143,299.12857142857143,401.1,293.22232142857143,299.12857142857143,516.5,293.22232142857143,299.12857142857143,627.7,293.22232142857143,299.12857142857143,739.6,293.22232142857143,299.12857142857143,855.4,501.22232142857143,100.12857142857143,1008,525.2223214285714,77.12857142857143,1155.8,526.2223214285714,74.12857142857143,1295.9,526.2223214285714,74.12857142857143,1411.1,526.2223214285714,74.12857142857143,1541.1,526.2223214285714,74.12857142857143,1650.4,526.2223214285714,74.12857142857143,1767.6,526.2223214285714,74.12857142857143,1873.8,526.2223214285714,74.12857142857143,1998,526.2223214285714,74.12857142857143,2120.7,526.2223214285714,74.12857142857143,2237.5,526.2223214285714,74.12857142857143,2395.7,526.2223214285714,74.12857142857143,2496.5,526.2223214285714,74.12857142857143,2604.9,526.2223214285714,74.12857142857143,2710.1,526.2223214285714,74.12857142857143,2813.4,526.2223214285714,74.12857142857143,2923.5,526.2223214285714,74.12857142857143,3030.9,526.2223214285714,74.12857142857143,3138.6,526.2223214285714,74.12857142857143,3245.3,526.2223214285714,74.12857142857143,3370.3,526.2223214285714,74.12857142857143,3477.5,526.2223214285714,74.12857142857143,3581.7,526.2223214285714,74.12857142857143,3699.7,526.2223214285714,74.12857142857143,3800.6,526.2223214285714,74.12857142857143,3908,526.2223214285714,74.12857142857143,4013.6,526.2223214285714,74.12857142857143,4119,526.2223214285714,74.12857142857143,4234.3,526.2223214285714,74.12857142857143,4339.9,526.2223214285714,74.12857142857143,4446.3,526.2223214285714,74.12857142857143,4549.8,526.2223214285714,74.12857142857143,4656.7,526.2223214285714,74.12857142857143,4760.7,526.2223214285714,74.12857142857143,4864,526.2223214285714,74.12857142857143,4973.9]","[1509.8,1509.8,1000,0,509.8,""smooth"",""up"",""up"",""good_move"",11182.7,9671.2,2305.8,1511.5,7365.4,""oops"",""up"",""left"",""bad_move"",25205.1,14019.9,2701.9,22036.3,466.9,""smooth"",""up"",""up"",""good_move"",28899.2,3692.8,2021.2,25206.5,1671.6,""smooth"",""up"",""up"",""good_move"",33050,4148.8,1326.2,28901.2,2822.6,""smooth"",""right"",""right"",""good_move"",36333.7,3272.3,2832.2,33061.4,440.1,""smooth"",""right"",""right"",""good_move"",39632.2,3292.2,2932,36340,360.2,""smooth"",""right"",""right"",""good_move"",45674.5,6040.8,2330.5,42950.3,393.8,""oops"",""right"",""down"",""bad_move"",49050.6,3373.1,2943.7,45681.9,425,""smooth"",""right"",""right"",""good_move"",52325.3,3268.2,2591.5,49057.2,676.7,""oops"",""up"",""down"",""bad_move"",55364.1,3032.9,2412.7,52331.2,620.2,""smooth"",""up"",""up"",""good_move"",59966.4,4599.7,2098.1,55366.7,2501.6,""smooth"",""up"",""up"",""good_move""]"
"7663","","<div style=""width:500px;"">
  <p>What determined the result of this run?</p>
  </div>","100","html-slider-response","69","1363384","0.0-7.0-1.11","114","1","2025-07-31 13:50:56","36c45c0696341be0efffe67d72a12abb","197.184.98.225","Mozilla/5.0 (Windows NT 10.0; Win64; x64) AppleWebKit/537.36 (KHTML, like Gecko) Chrome/138.0.0.0 Safari/537.36","WebKit","Chrome","138.0.0.0","Windows","10.0","https://app.prolific.com/","en-GB,en-US;q=0.9,en;q=0.8","67215aa0a8e88c6751efc410","683dba9a53627eb9ab41b36a","688b74b66759771592367574","0","67215aa0a8e88c6751efc410","0","2025-07-31T14:13:43.638Z","","","","AttribQ","","","","","","","","","","","50","","","","","","","","","","","","","","","","","","","","","","","","","","",""
"5913","","<div style=""width:500px;"">
  <p>How much control did you have over the ball?</p>
  </div>","90","html-slider-response","70","1369300","0.0-7.0-2.11","114","1","2025-07-31 13:50:56","36c45c0696341be0efffe67d72a12abb","197.184.98.225","Mozilla/5.0 (Windows NT 10.0; Win64; x64) AppleWebKit/537.36 (KHTML, like Gecko) Chrome/138.0.0.0 Safari/537.36","WebKit","Chrome","138.0.0.0","Windows","10.0","https://app.prolific.com/","en-GB,en-US;q=0.9,en;q=0.8","67215aa0a8e88c6751efc410","683dba9a53627eb9ab41b36a","688b74b66759771592367574","0","67215aa0a8e88c6751efc410","0","2025-07-31T14:13:49.554Z","","","","ControlQ","","","","","","","","","","","50","","","","","","","","","","","","","","","","","","","","","","","","","","",""
"7169","","<div style=""width:500px;"">
  <p>How would you describe your current emotional state?</p>
  </div>","16","html-slider-response","71","1376473","0.0-7.0-3.11","114","1","2025-07-31 13:50:56","36c45c0696341be0efffe67d72a12abb","197.184.98.225","Mozilla/5.0 (Windows NT 10.0; Win64; x64) AppleWebKit/537.36 (KHTML, like Gecko) Chrome/138.0.0.0 Safari/537.36","WebKit","Chrome","138.0.0.0","Windows","10.0","https://app.prolific.com/","en-GB,en-US;q=0.9,en;q=0.8","67215aa0a8e88c6751efc410","683dba9a53627eb9ab41b36a","688b74b66759771592367574","0","67215aa0a8e88c6751efc410","0","2025-07-31T14:13:56.727Z","","","","StressQ","","","","","","","","","","","50","","","","","","","","","","","","","","","","","","","","","","","","","","",""
"4132","","<div style=""width:500px;"">
  <p>What best describes how you currently feel?</p>
  </div>","52","html-slider-response","72","1380607","0.0-7.0-4.11","114","1","2025-07-31 13:50:56","36c45c0696341be0efffe67d72a12abb","197.184.98.225","Mozilla/5.0 (Windows NT 10.0; Win64; x64) AppleWebKit/537.36 (KHTML, like Gecko) Chrome/138.0.0.0 Safari/537.36","WebKit","Chrome","138.0.0.0","Windows","10.0","https://app.prolific.com/","en-GB,en-US;q=0.9,en;q=0.8","67215aa0a8e88c6751efc410","683dba9a53627eb9ab41b36a","688b74b66759771592367574","0","67215aa0a8e88c6751efc410","0","2025-07-31T14:14:00.862Z","","","","MotivationQ","","","","","","","","","","","50","","","","","","","","","","","","","","","","","","","","","","","","","","",""
"","","","","ctl-task-cpt","73","1421112","0.0-7.0-0.12","114","1","2025-07-31 13:50:56","36c45c0696341be0efffe67d72a12abb","197.184.98.225","Mozilla/5.0 (Windows NT 10.0; Win64; x64) AppleWebKit/537.36 (KHTML, like Gecko) Chrome/138.0.0.0 Safari/537.36","WebKit","Chrome","138.0.0.0","Windows","10.0","https://app.prolific.com/","en-GB,en-US;q=0.9,en;q=0.8","67215aa0a8e88c6751efc410","683dba9a53627eb9ab41b36a","688b74b66759771592367574","0","67215aa0a8e88c6751efc410","0","2025-07-31T14:14:41.366Z","","","","","","","","","","","","","","","","win-only","2","g1:SE,g2:NW","0.8","13","0","1384839.7","1286.9","6301","37463.7","1","4","4","6","2","4","4","66","62","0.5","1147.6","3000","2060","[""left"",""up""]","{""num_key_presses"":8,""num_perfect"":6,""num_errors"":0,""num_randdir"":2,""num_randdir_good_moves"":1,""num_whilered"":0,""num_whileblue"":0,""num_blue"":1,""num_good_moves"":7}","[296.22232142857143,293.12857142857143,5,296.22232142857143,293.12857142857143,113.5,296.22232142857143,293.12857142857143,213.7,296.22232142857143,293.12857142857143,325.8,296.22232142857143,293.12857142857143,433.1,296.22232142857143,293.12857142857143,535.6,40.222321428571426,87.12857142857143,656.1,28.222321428571426,77.12857142857143,768.7,28.222321428571426,76.12857142857143,887,28.222321428571426,76.12857142857143,992.6,28.222321428571426,76.12857142857143,1132.2,28.222321428571426,76.12857142857143,1253.7,28.222321428571426,76.12857142857143,1367.3,28.222321428571426,76.12857142857143,1489.3,28.222321428571426,76.12857142857143,1618.2,28.222321428571426,76.12857142857143,1725.2,28.222321428571426,76.12857142857143,1829.8,28.222321428571426,76.12857142857143,1935.3,28.222321428571426,76.12857142857143,2061.7,28.222321428571426,76.12857142857143,2165.5,28.222321428571426,76.12857142857143,2285.7,28.222321428571426,76.12857142857143,2387.1,28.222321428571426,76.12857142857143,2513.3,28.222321428571426,76.12857142857143,2632.5,28.222321428571426,76.12857142857143,2734.3,28.222321428571426,76.12857142857143,2849.7,28.222321428571426,76.12857142857143,2949.7,28.222321428571426,76.12857142857143,3076.1,28.222321428571426,76.12857142857143,3185.4,28.222321428571426,76.12857142857143,3292.7,28.222321428571426,76.12857142857143,3395,28.222321428571426,76.12857142857143,3496.6,28.222321428571426,76.12857142857143,3622.9,28.222321428571426,76.12857142857143,3732.8,28.222321428571426,76.12857142857143,3848.6,28.222321428571426,76.12857142857143,3965.9,28.222321428571426,76.12857142857143,4077.5,28.222321428571426,76.12857142857143,4195.9,28.222321428571426,76.12857142857143,4316.8,28.222321428571426,76.12857142857143,4416.9,28.222321428571426,76.12857142857143,4520.6,28.222321428571426,76.12857142857143,4622,28.222321428571426,76.12857142857143,4725.5,28.222321428571426,76.12857142857143,4829.9,28.222321428571426,76.12857142857143,4931]","[4727.8,4727.8,2263.4,2002.7,461.7,""smooth"",""up"",""up"",""good_move"",8666.5,3934.6,1738.4,4731.9,2196.2,""smooth"",""up"",""up"",""good_move"",12274.2,3604.9,3208.3,8669.3,396.6,""smooth"",""up"",""up"",""good_move"",16077.2,3799.7,2509.3,12277.6,1290.4,""oops"",""left"",""left"",""good_move"",20617.8,4535,2659.8,16082.8,1875.2,""oops"",""left"",""right"",""bad_move"",23732.2,3112,2552.3,20620.3,559.8,""smooth"",""left"",""left"",""good_move"",27301.3,3566.9,2511.6,23734.5,1055.2,""smooth"",""left"",""left"",""good_move"",30858.8,3554.4,1624.6,27304.5,1929.8,""smooth"",""left"",""left"",""good_move""]"
"12257","","<div style=""width:500px;"">
  <p>What determined the result of this run?</p>
  </div>","99","html-slider-response","74","1433371","0.0-7.0-1.12","114","1","2025-07-31 13:50:56","36c45c0696341be0efffe67d72a12abb","197.184.98.225","Mozilla/5.0 (Windows NT 10.0; Win64; x64) AppleWebKit/537.36 (KHTML, like Gecko) Chrome/138.0.0.0 Safari/537.36","WebKit","Chrome","138.0.0.0","Windows","10.0","https://app.prolific.com/","en-GB,en-US;q=0.9,en;q=0.8","67215aa0a8e88c6751efc410","683dba9a53627eb9ab41b36a","688b74b66759771592367574","0","67215aa0a8e88c6751efc410","0","2025-07-31T14:14:53.625Z","","","","AttribQ","","","","","","","","","","","50","","","","","","","","","","","","","","","","","","","","","","","","","","",""
"22693","","<div style=""width:500px;"">
  <p>How much control did you have over the ball?</p>
  </div>","96","html-slider-response","75","1456067","0.0-7.0-2.12","114","1","2025-07-31 13:50:56","36c45c0696341be0efffe67d72a12abb","197.184.98.225","Mozilla/5.0 (Windows NT 10.0; Win64; x64) AppleWebKit/537.36 (KHTML, like Gecko) Chrome/138.0.0.0 Safari/537.36","WebKit","Chrome","138.0.0.0","Windows","10.0","https://app.prolific.com/","en-GB,en-US;q=0.9,en;q=0.8","67215aa0a8e88c6751efc410","683dba9a53627eb9ab41b36a","688b74b66759771592367574","0","67215aa0a8e88c6751efc410","0","2025-07-31T14:15:16.321Z","","","","ControlQ","","","","","","","","","","","50","","","","","","","","","","","","","","","","","","","","","","","","","","",""
"11892","","<div style=""width:500px;"">
  <p>How would you describe your current emotional state?</p>
  </div>","15","html-slider-response","76","1467962","0.0-7.0-3.12","114","1","2025-07-31 13:50:56","36c45c0696341be0efffe67d72a12abb","197.184.98.225","Mozilla/5.0 (Windows NT 10.0; Win64; x64) AppleWebKit/537.36 (KHTML, like Gecko) Chrome/138.0.0.0 Safari/537.36","WebKit","Chrome","138.0.0.0","Windows","10.0","https://app.prolific.com/","en-GB,en-US;q=0.9,en;q=0.8","67215aa0a8e88c6751efc410","683dba9a53627eb9ab41b36a","688b74b66759771592367574","0","67215aa0a8e88c6751efc410","0","2025-07-31T14:15:28.217Z","","","","StressQ","","","","","","","","","","","50","","","","","","","","","","","","","","","","","","","","","","","","","","",""
"13318","","<div style=""width:500px;"">
  <p>What best describes how you currently feel?</p>
  </div>","53","html-slider-response","77","1481285","0.0-7.0-4.12","114","1","2025-07-31 13:50:56","36c45c0696341be0efffe67d72a12abb","197.184.98.225","Mozilla/5.0 (Windows NT 10.0; Win64; x64) AppleWebKit/537.36 (KHTML, like Gecko) Chrome/138.0.0.0 Safari/537.36","WebKit","Chrome","138.0.0.0","Windows","10.0","https://app.prolific.com/","en-GB,en-US;q=0.9,en;q=0.8","67215aa0a8e88c6751efc410","683dba9a53627eb9ab41b36a","688b74b66759771592367574","0","67215aa0a8e88c6751efc410","0","2025-07-31T14:15:41.540Z","","","","MotivationQ","","","","","","","","","","","50","","","","","","","","","","","","","","","","","","","","","","","","","","",""
