"rt","response_timestamp","stimulus","response","trial_type","trial_index","time_elapsed","internal_node_id","run_id","condition","recorded_at","source_code_version","ip","user_agent","device","browser","browser_version","platform","platform_version","referer","accept_language","PROLIFIC_PID","STUDY_ID","SESSION_ID","BATCH","prolific_id","batch","realtime","success","question_order","question_id","eventType","responses","item_order","radio_event_ids","radio_event_times","key_event_times","mouse_event_times","straightlining","zigzagging","honeypot","view_history","slider_start","which_type","canvas_config","goals_layout","control_level","trial_number","tutorial_trial_number","trial_start_time","phase1_start_time","phase2_start_time","phase3_start_time","goal_1_value","goal_1_distance","goal_2_value","goal_2_distance","goal_selected","outcome","outcome_total","participant_final_score","participant_initial_score","participant_final_score_prop","goal_choice_rt","allocated_time","allocated_time_remaining","goal_direction","counts","mouse_movements","key_presses"
"73145","1754470448335","<p style='font-size:40px;line-height:1.25'><strong>Welcome to the experiment!</strong></p><p style='font-size:1.1em;line-height:1.25'>Thank you for participanting in our experiment again! You will be asked to play the Dysfunctional Ball Game again. We will briefly recap the rules before we start.</p><p style='font-size:1.1em;line-height:1.25'>Press <strong>Next</strong> to continue.</p>","0","custom-html-button-response","0","73154","0.0-0.0","137","1","2025-08-06 08:52:49","36c45c0696341be0efffe67d72a12abb","41.150.220.31","Mozilla/5.0 (Windows NT 10.0; Win64; x64) AppleWebKit/537.36 (KHTML, like Gecko) Chrome/138.0.0.0 Safari/537.36","WebKit","Chrome","138.0.0.0","Windows","10.0","https://app.prolific.com/","en-US,en;q=0.9","6729f8c001f004ff58eb68b8","687a1a965b9f5b85a264363e","689317748e78716d827ae0ff","1","6729f8c001f004ff58eb68b8","1","2025-08-06T08:54:08.343Z","","","","","","","","","","","","","","","","","","","","","","","","","","","","","","","","","","","","","","","","","",""
"3984","","","","fullscreen","1","78151","0.0-1.0","137","1","2025-08-06 08:52:49","36c45c0696341be0efffe67d72a12abb","41.150.220.31","Mozilla/5.0 (Windows NT 10.0; Win64; x64) AppleWebKit/537.36 (KHTML, like Gecko) Chrome/138.0.0.0 Safari/537.36","WebKit","Chrome","138.0.0.0","Windows","10.0","https://app.prolific.com/","en-US,en;q=0.9","6729f8c001f004ff58eb68b8","687a1a965b9f5b85a264363e","689317748e78716d827ae0ff","1","6729f8c001f004ff58eb68b8","1","","true","","","","","","","","","","","","","","","","","","","","","","","","","","","","","","","","","","","","","","","","",""
"1845","1754470455185"," <p style='font-size:1.1em;line-height:1.25'>Thank you for closing all other tabs.</p><p style='font-size:1.1em;line-height:1.25'>We will now invite you to fill in some questionnaires, before starting the game.<br>This will take about 5 minutes.<br></p><p style='font-size:1.1em;line-height:1.25'>Press the <strong>Next</strong> button to continue.</p>","0","custom-html-button-response","2","80000","0.0-2.0","137","1","2025-08-06 08:52:49","36c45c0696341be0efffe67d72a12abb","41.150.220.31","Mozilla/5.0 (Windows NT 10.0; Win64; x64) AppleWebKit/537.36 (KHTML, like Gecko) Chrome/138.0.0.0 Safari/537.36","WebKit","Chrome","138.0.0.0","Windows","10.0","https://app.prolific.com/","en-US,en;q=0.9","6729f8c001f004ff58eb68b8","687a1a965b9f5b85a264363e","689317748e78716d827ae0ff","1","6729f8c001f004ff58eb68b8","1","2025-08-06T08:54:15.188Z","","","","","","","","","","","","","","","","","","","","","","","","","","","","","","","","","","","","","","","","","",""
"3229","","","{""assigned_sex"":""female""}","survey-multi-choice","3","83237","0.0-3.0-0.0","137","1","2025-08-06 08:52:49","36c45c0696341be0efffe67d72a12abb","41.150.220.31","Mozilla/5.0 (Windows NT 10.0; Win64; x64) AppleWebKit/537.36 (KHTML, like Gecko) Chrome/138.0.0.0 Safari/537.36","WebKit","Chrome","138.0.0.0","Windows","10.0","https://app.prolific.com/","en-US,en;q=0.9","6729f8c001f004ff58eb68b8","687a1a965b9f5b85a264363e","689317748e78716d827ae0ff","1","6729f8c001f004ff58eb68b8","1","","","[0]","0","demographics","","","","","","","","","","","","","","","","","","","","","","","","","","","","","","","","","","","","","",""
"7056","1754470465483","<p style='font-size:1.1em;line-height:1.25'>In the following, we will perform a baseline assessment. This means that we will ask you a few questions relating to your experiences over the past month.<br></p><p style='font-size:1.1em;line-height:1.25'>Press the <strong>Next</strong> button to continue.</p>","0","custom-html-button-response","4","90297","0.0-4.0-0.0","137","1","2025-08-06 08:52:49","36c45c0696341be0efffe67d72a12abb","41.150.220.31","Mozilla/5.0 (Windows NT 10.0; Win64; x64) AppleWebKit/537.36 (KHTML, like Gecko) Chrome/138.0.0.0 Safari/537.36","WebKit","Chrome","138.0.0.0","Windows","10.0","https://app.prolific.com/","en-US,en;q=0.9","6729f8c001f004ff58eb68b8","687a1a965b9f5b85a264363e","689317748e78716d827ae0ff","1","6729f8c001f004ff58eb68b8","1","2025-08-06T08:54:25.485Z","","","","","","","","","","","","","","","","","","","","","","","","","","","","","","","","","","","","","","","","","",""
"99573.79999999702","","","","survey-template","5","189886","0.0-4.0-1.0","137","1","2025-08-06 08:52:49","36c45c0696341be0efffe67d72a12abb","41.150.220.31","Mozilla/5.0 (Windows NT 10.0; Win64; x64) AppleWebKit/537.36 (KHTML, like Gecko) Chrome/138.0.0.0 Safari/537.36","WebKit","Chrome","138.0.0.0","Windows","10.0","https://app.prolific.com/","en-US,en;q=0.9","6729f8c001f004ff58eb68b8","687a1a965b9f5b85a264363e","689317748e78716d827ae0ff","1","6729f8c001f004ff58eb68b8","1","2025-08-06T08:56:05.074Z","","","","pss","{""Q01"":""3"",""Q02"":""2"",""Q03"":""3"",""Q04"":""0"",""Q05"":""1"",""Q06"":""2"",""Q07"":""2"",""Q08"":""1"",""Q09"":""2"",""Q10"":""2""}","[0,1,2,3,4,5,6,7,8,9]","[""Q01"",""Q02"",""Q03"",""Q03"",""Q04"",""Q05"",""Q06"",""Q07"",""Q08"",""Q09"",""Q10""]","[23682.29999999702,31784.19999999553,34229.89999999851,36716.29999999702,45921.39999999851,55866.19999999553,69047.69999999553,76654.79999999702,81659,88527.29999999702,98752.19999999553]","[]","[0.29999999701976776,23682.29999999702,31784.19999999553,34229.89999999851,36716.29999999702,45921.39999999851,55866.19999999553,69047.69999999553,76654.79999999702,81659,88527.29999999702,97977.60000000149,98752.19999999553,99568.29999999702]","0.5","0.7777777777777778","0","","","","","","","","","","","","","","","","","","","","","","","","","","","","",""
"5185","1754470570262","<p style='font-size:1.1em;line-height:1.25'>Thank you for your answers! Now we will ask you a few more questions relating to your feelings in the last 24 hours.<br></p><p style='font-size:1.1em;line-height:1.25'>Press the <strong>Next</strong> button to continue.</p>","0","custom-html-button-response","6","195075","0.0-4.0-2.0","137","1","2025-08-06 08:52:49","36c45c0696341be0efffe67d72a12abb","41.150.220.31","Mozilla/5.0 (Windows NT 10.0; Win64; x64) AppleWebKit/537.36 (KHTML, like Gecko) Chrome/138.0.0.0 Safari/537.36","WebKit","Chrome","138.0.0.0","Windows","10.0","https://app.prolific.com/","en-US,en;q=0.9","6729f8c001f004ff58eb68b8","687a1a965b9f5b85a264363e","689317748e78716d827ae0ff","1","6729f8c001f004ff58eb68b8","1","2025-08-06T08:56:10.263Z","","","","","","","","","","","","","","","","","","","","","","","","","","","","","","","","","","","","","","","","","",""
"82732.5","","","","survey-template","7","277821","0.0-4.0-3.0","137","1","2025-08-06 08:52:49","36c45c0696341be0efffe67d72a12abb","41.150.220.31","Mozilla/5.0 (Windows NT 10.0; Win64; x64) AppleWebKit/537.36 (KHTML, like Gecko) Chrome/138.0.0.0 Safari/537.36","WebKit","Chrome","138.0.0.0","Windows","10.0","https://app.prolific.com/","en-US,en;q=0.9","6729f8c001f004ff58eb68b8","687a1a965b9f5b85a264363e","689317748e78716d827ae0ff","1","6729f8c001f004ff58eb68b8","1","2025-08-06T08:57:33.009Z","","","","drsp","{""Q01"":""4"",""Q02"":""4"",""Q03"":""4"",""Q04"":""4"",""Q05"":""3"",""Q06"":""4"",""Q07"":""2"",""Q08"":""3"",""Q09"":""2"",""Q10"":""2"",""Q11"":""2"",""Q12"":""1"",""Q13"":""5"",""Q14"":""1"",""Q15"":""1"",""Q16"":""2"",""Q17"":""3"",""Q18"":""2"",""Q19"":""1"",""Q20"":""2"",""Q21"":""2"",""Q22"":""2""}","[0,1,2,3,4,5,6,7,8,9,10,11,12,13,14,15,16,17,18,19,20,21]","[""Q01"",""Q02"",""Q03"",""Q04"",""Q05"",""Q06"",""Q07"",""Q07"",""Q08"",""Q09"",""Q10"",""Q11"",""Q12"",""Q13"",""Q14"",""Q15"",""Q16"",""Q17"",""Q18"",""Q19"",""Q20"",""Q21"",""Q22""]","[6043,10727,12903.09999999404,14390.89999999851,16212.59999999404,18898.19999999553,21113.09999999404,22072.79999999702,26566.89999999851,28843.59999999404,31307.59999999404,34112.70000000298,36389.59999999404,38454.59999999404,41807.39999999106,45716.70000000298,54598.89999999106,57078.5,60701.29999999702,67679.79999999702,72831.79999999702,77021.09999999404,82008.39999999106]","[]","[0.09999999403953552,6043,10727,12903.09999999404,14390.89999999851,16212.59999999404,18898.19999999553,21113.09999999404,22072.79999999702,26566.89999999851,28843.59999999404,31307.59999999404,34112.70000000298,36389.59999999404,38454.59999999404,41807.39999999106,45716.70000000298,54598.89999999106,57078.5,60701.29999999702,67679.79999999702,72831.79999999702,77021.09999999404,81439.70000000298,82008.39999999106,82722.09999999404]","0.4090909090909091","0.47619047619047616","0","","","","","","","","","","","","","","","","","","","","","","","","","","","","",""
"13532.90000000596","","","","survey-template","8","291360","0.0-4.0-4.0","137","1","2025-08-06 08:52:49","36c45c0696341be0efffe67d72a12abb","41.150.220.31","Mozilla/5.0 (Windows NT 10.0; Win64; x64) AppleWebKit/537.36 (KHTML, like Gecko) Chrome/138.0.0.0 Safari/537.36","WebKit","Chrome","138.0.0.0","Windows","10.0","https://app.prolific.com/","en-US,en;q=0.9","6729f8c001f004ff58eb68b8","687a1a965b9f5b85a264363e","689317748e78716d827ae0ff","1","6729f8c001f004ff58eb68b8","1","2025-08-06T08:57:46.548Z","","","","stress","{""Q01"":""4"",""Q02"":""3"",""Q03"":""2""}","[0,1,2]","[""Q01"",""Q02"",""Q03""]","[3130.7000000029802,9058.5,12658.09999999404]","[]","[3130.7000000029802,9058.5,12658.09999999404,13530.79999999702]","0.6666666666666666","0","0","","","","","","","","","","","","","","","","","","","","","","","","","","","","",""
"14776","","","","instructions","9","306140","0.0-5.0-0.0","137","1","2025-08-06 08:52:49","36c45c0696341be0efffe67d72a12abb","41.150.220.31","Mozilla/5.0 (Windows NT 10.0; Win64; x64) AppleWebKit/537.36 (KHTML, like Gecko) Chrome/138.0.0.0 Safari/537.36","WebKit","Chrome","138.0.0.0","Windows","10.0","https://app.prolific.com/","en-US,en;q=0.9","6729f8c001f004ff58eb68b8","687a1a965b9f5b85a264363e","689317748e78716d827ae0ff","1","6729f8c001f004ff58eb68b8","1","","","","","","","","","","","","","","","[{""page_index"":0,""viewing_time"":14775}]","","","","","","","","","","","","","","","","","","","","","","","","","","","",""
"16376","","<p>Before you start with this game please answer the following three questions yourself. </p>
  <p>Through this game, we measure several aspects of your cognitive performance, such as reaction times, multi-tasking capabilities </p>
  <p>and the ability to assess the situation you are in.</p>
  <p></p>
  <p><b>How good do you usually are in such tasks?</b></p>","74","html-slider-response","10","322521","0.0-6.0-0.0","137","1","2025-08-06 08:52:49","36c45c0696341be0efffe67d72a12abb","41.150.220.31","Mozilla/5.0 (Windows NT 10.0; Win64; x64) AppleWebKit/537.36 (KHTML, like Gecko) Chrome/138.0.0.0 Safari/537.36","WebKit","Chrome","138.0.0.0","Windows","10.0","https://app.prolific.com/","en-US,en;q=0.9","6729f8c001f004ff58eb68b8","687a1a965b9f5b85a264363e","689317748e78716d827ae0ff","1","6729f8c001f004ff58eb68b8","1","2025-08-06T08:58:17.710Z","","","","PreSkillQ","","","","","","","","","","","50","","","","","","","","","","","","","","","","","","","","","","","","","","",""
"7955","","<div style=""width:500px;"">
  <p>How well do you think you will perform in this task compared to other participants?</p>
  </div>","77","html-slider-response","11","330480","0.0-6.0-1.0","137","1","2025-08-06 08:52:49","36c45c0696341be0efffe67d72a12abb","41.150.220.31","Mozilla/5.0 (Windows NT 10.0; Win64; x64) AppleWebKit/537.36 (KHTML, like Gecko) Chrome/138.0.0.0 Safari/537.36","WebKit","Chrome","138.0.0.0","Windows","10.0","https://app.prolific.com/","en-US,en;q=0.9","6729f8c001f004ff58eb68b8","687a1a965b9f5b85a264363e","689317748e78716d827ae0ff","1","6729f8c001f004ff58eb68b8","1","2025-08-06T08:58:25.669Z","","","","PrePerfQ","","","","","","","","","","","50","","","","","","","","","","","","","","","","","","","","","","","","","","",""
"4042","","<div style=""width:500px;"">
  <p>What best describes how you currently feel?</p>
  </div>","100","html-slider-response","12","334526","0.0-6.0-2.0","137","1","2025-08-06 08:52:49","36c45c0696341be0efffe67d72a12abb","41.150.220.31","Mozilla/5.0 (Windows NT 10.0; Win64; x64) AppleWebKit/537.36 (KHTML, like Gecko) Chrome/138.0.0.0 Safari/537.36","WebKit","Chrome","138.0.0.0","Windows","10.0","https://app.prolific.com/","en-US,en;q=0.9","6729f8c001f004ff58eb68b8","687a1a965b9f5b85a264363e","689317748e78716d827ae0ff","1","6729f8c001f004ff58eb68b8","1","2025-08-06T08:58:29.715Z","","","","PreMotivationQ","","","","","","","","","","","50","","","","","","","","","","","","","","","","","","","","","","","","","","",""
"","","","","ctl-task-cpt","13","370674","0.0-7.0-0.0","137","1","2025-08-06 08:52:49","36c45c0696341be0efffe67d72a12abb","41.150.220.31","Mozilla/5.0 (Windows NT 10.0; Win64; x64) AppleWebKit/537.36 (KHTML, like Gecko) Chrome/138.0.0.0 Safari/537.36","WebKit","Chrome","138.0.0.0","Windows","10.0","https://app.prolific.com/","en-US,en;q=0.9","6729f8c001f004ff58eb68b8","687a1a965b9f5b85a264363e","689317748e78716d827ae0ff","1","6729f8c001f004ff58eb68b8","1","2025-08-06T08:59:05.862Z","","","","","","","","","","","","","","","","win-only","2","g1:SE,g2:NW","1","1","0","343918.5","11307.7","16312.4","33134.7","1","4","4","6","2","4","4","4","0","0.030303030303030304","2164.1","3000","930","[""left"",""up""]","{""num_key_presses"":6,""num_perfect"":6,""num_errors"":0,""num_randdir"":0,""num_randdir_good_moves"":0,""num_whilered"":0,""num_whileblue"":0,""num_blue"":0,""num_good_moves"":6}","[295.22232142857143,297.12857142857143,1.1,295.22232142857143,297.12857142857143,103.4,295.22232142857143,297.12857142857143,203.8,295.22232142857143,297.12857142857143,304,295.22232142857143,297.12857142857143,408.4,295.22232142857143,297.12857142857143,514.3,295.22232142857143,297.12857142857143,618.3,295.22232142857143,297.12857142857143,719.5,303.22232142857143,304.12857142857143,823.1,356.22232142857143,351.12857142857143,923.2,389.22232142857143,375.12857142857143,1023.7,356.22232142857143,341.12857142857143,1131,265.22232142857143,241.12857142857143,1231.4,231.22232142857143,185.12857142857143,1331.7,173.22232142857143,130.12857142857143,1433.6,69.22232142857143,51.128571428571426,1534.5,34.222321428571426,19.128571428571426,1634.8,33.222321428571426,16.128571428571426,1739.2,33.222321428571426,15.128571428571426,1839.8,45.222321428571426,44.128571428571426,1940,55.222321428571426,60.128571428571426,2043.9,55.222321428571426,61.128571428571426,2147.7,55.222321428571426,61.128571428571426,2248.4,55.222321428571426,61.128571428571426,2353.8,55.222321428571426,61.128571428571426,2454,55.222321428571426,61.128571428571426,2559.4,55.222321428571426,61.128571428571426,2665.1,55.222321428571426,61.128571428571426,2768.8,55.222321428571426,61.128571428571426,2873.5,55.222321428571426,61.128571428571426,2974,55.222321428571426,61.128571428571426,3081.9,55.222321428571426,61.128571428571426,3183,55.222321428571426,61.128571428571426,3284.2,55.222321428571426,61.128571428571426,3389.1,55.222321428571426,61.128571428571426,3489.3,143.22232142857143,111.12857142857143,3599.6,586.2223214285714,297.12857142857143,3703.3,600.2223214285714,294.12857142857143,3804.1,600.2223214285714,294.12857142857143,3904.1,600.2223214285714,294.12857142857143,4004.1,600.2223214285714,294.12857142857143,4114.4,600.2223214285714,294.12857142857143,4215,600.2223214285714,294.12857142857143,4319.5,600.2223214285714,294.12857142857143,4423.9,600.2223214285714,294.12857142857143,4524.1,600.2223214285714,294.12857142857143,4624.2,600.2223214285714,294.12857142857143,4731.7,600.2223214285714,294.12857142857143,4831.7,600.2223214285714,294.12857142857143,4931.7]","[1648.8,1648.8,1000,0,648.8,""smooth"",""up"",""up"",""good_move"",4530.1,2880.1,2500.8,1650,379.3,""smooth"",""left"",""left"",""good_move"",7649.8,3118.6,2705.8,4531.2,412.8,""smooth"",""up"",""up"",""good_move"",10765,3114,2647.2,7651.1,466.7,""smooth"",""left"",""left"",""good_move"",13946.6,3165.4,2832.6,10781.3,332.7,""smooth"",""up"",""up"",""good_move"",16712.1,2764.5,2462,13947.7,302.4,""smooth"",""left"",""left"",""good_move""]"
"5013","","<div style=""width:500px;"">
  <p>What determined the result of this run?</p>
  </div>","99","html-slider-response","14","375689","0.0-7.0-1.0","137","1","2025-08-06 08:52:49","36c45c0696341be0efffe67d72a12abb","41.150.220.31","Mozilla/5.0 (Windows NT 10.0; Win64; x64) AppleWebKit/537.36 (KHTML, like Gecko) Chrome/138.0.0.0 Safari/537.36","WebKit","Chrome","138.0.0.0","Windows","10.0","https://app.prolific.com/","en-US,en;q=0.9","6729f8c001f004ff58eb68b8","687a1a965b9f5b85a264363e","689317748e78716d827ae0ff","1","6729f8c001f004ff58eb68b8","1","2025-08-06T08:59:10.878Z","","","","AttribQ","","","","","","","","","","","50","","","","","","","","","","","","","","","","","","","","","","","","","","",""
"3687","","<div style=""width:500px;"">
  <p>How much control did you have over the ball?</p>
  </div>","73","html-slider-response","15","379379","0.0-7.0-2.0","137","1","2025-08-06 08:52:49","36c45c0696341be0efffe67d72a12abb","41.150.220.31","Mozilla/5.0 (Windows NT 10.0; Win64; x64) AppleWebKit/537.36 (KHTML, like Gecko) Chrome/138.0.0.0 Safari/537.36","WebKit","Chrome","138.0.0.0","Windows","10.0","https://app.prolific.com/","en-US,en;q=0.9","6729f8c001f004ff58eb68b8","687a1a965b9f5b85a264363e","689317748e78716d827ae0ff","1","6729f8c001f004ff58eb68b8","1","2025-08-06T08:59:14.567Z","","","","ControlQ","","","","","","","","","","","50","","","","","","","","","","","","","","","","","","","","","","","","","","",""
"5467","","<div style=""width:500px;"">
  <p>How would you describe your current emotional state?</p>
  </div>","1","html-slider-response","16","384849","0.0-7.0-3.0","137","1","2025-08-06 08:52:49","36c45c0696341be0efffe67d72a12abb","41.150.220.31","Mozilla/5.0 (Windows NT 10.0; Win64; x64) AppleWebKit/537.36 (KHTML, like Gecko) Chrome/138.0.0.0 Safari/537.36","WebKit","Chrome","138.0.0.0","Windows","10.0","https://app.prolific.com/","en-US,en;q=0.9","6729f8c001f004ff58eb68b8","687a1a965b9f5b85a264363e","689317748e78716d827ae0ff","1","6729f8c001f004ff58eb68b8","1","2025-08-06T08:59:20.037Z","","","","StressQ","","","","","","","","","","","50","","","","","","","","","","","","","","","","","","","","","","","","","","",""
"4750","","<div style=""width:500px;"">
  <p>What best describes how you currently feel?</p>
  </div>","91","html-slider-response","17","389601","0.0-7.0-4.0","137","1","2025-08-06 08:52:49","36c45c0696341be0efffe67d72a12abb","41.150.220.31","Mozilla/5.0 (Windows NT 10.0; Win64; x64) AppleWebKit/537.36 (KHTML, like Gecko) Chrome/138.0.0.0 Safari/537.36","WebKit","Chrome","138.0.0.0","Windows","10.0","https://app.prolific.com/","en-US,en;q=0.9","6729f8c001f004ff58eb68b8","687a1a965b9f5b85a264363e","689317748e78716d827ae0ff","1","6729f8c001f004ff58eb68b8","1","2025-08-06T08:59:24.789Z","","","","MotivationQ","","","","","","","","","","","50","","","","","","","","","","","","","","","","","","","","","","","","","","",""
"","","","","ctl-task-cpt","18","414239","0.0-7.0-0.1","137","1","2025-08-06 08:52:49","36c45c0696341be0efffe67d72a12abb","41.150.220.31","Mozilla/5.0 (Windows NT 10.0; Win64; x64) AppleWebKit/537.36 (KHTML, like Gecko) Chrome/138.0.0.0 Safari/537.36","WebKit","Chrome","138.0.0.0","Windows","10.0","https://app.prolific.com/","en-US,en;q=0.9","6729f8c001f004ff58eb68b8","687a1a965b9f5b85a264363e","689317748e78716d827ae0ff","1","6729f8c001f004ff58eb68b8","1","2025-08-06T08:59:49.427Z","","","","","","","","","","","","","","","","win-only","0","g1:NW,g2:SE","0.9","2","0","398986.8","1456","6461.2","21621.5","1","4","8","6","2","8","8","12","4","0.09090909090909091","1103.1","3000","865","[""down"",""right""]","{""num_key_presses"":6,""num_perfect"":5,""num_errors"":0,""num_randdir"":1,""num_randdir_good_moves"":1,""num_whilered"":0,""num_whileblue"":0,""num_blue"":0,""num_good_moves"":6}","[300.22232142857143,292.12857142857143,0.8,300.22232142857143,292.12857142857143,106.5,300.22232142857143,292.12857142857143,211.5,300.22232142857143,292.12857142857143,311.8,300.22232142857143,292.12857142857143,415.4,298.22232142857143,292.12857142857143,515.6,357.22232142857143,383.12857142857143,619.6,497.22232142857143,528.1285714285714,720.1,508.22232142857143,540.1285714285714,824.9,509.22232142857143,540.1285714285714,925.3,519.2223214285714,542.1285714285714,1025.6,543.2223214285714,546.1285714285714,1126,543.2223214285714,540.1285714285714,1229.3,557.2223214285714,531.1285714285714,1330.4,557.2223214285714,531.1285714285714,1431.3,557.2223214285714,531.1285714285714,1535.3,557.2223214285714,531.1285714285714,1639.5,557.2223214285714,531.1285714285714,1741.4,557.2223214285714,531.1285714285714,1845.4,557.2223214285714,531.1285714285714,1945.6,557.2223214285714,531.1285714285714,2049.8,557.2223214285714,531.1285714285714,2150.4,557.2223214285714,531.1285714285714,2255.2,557.2223214285714,531.1285714285714,2360.9,557.2223214285714,531.1285714285714,2465,557.2223214285714,531.1285714285714,2565.1,557.2223214285714,531.1285714285714,2669.5,557.2223214285714,531.1285714285714,2769.8,557.2223214285714,531.1285714285714,2875.3,557.2223214285714,531.1285714285714,2976.4,557.2223214285714,531.1285714285714,3080.2,557.2223214285714,531.1285714285714,3185.2,557.2223214285714,531.1285714285714,3286.9,557.2223214285714,531.1285714285714,3390.2,557.2223214285714,531.1285714285714,3495.2,557.2223214285714,531.1285714285714,3595.5,557.2223214285714,531.1285714285714,3696.9,557.2223214285714,531.1285714285714,3799.6,557.2223214285714,531.1285714285714,3904.4,557.2223214285714,531.1285714285714,4005.1,557.2223214285714,531.1285714285714,4111.1,557.2223214285714,531.1285714285714,4215.1,557.2223214285714,531.1285714285714,4319.8,557.2223214285714,531.1285714285714,4424.9,557.2223214285714,531.1285714285714,4529.4,557.2223214285714,531.1285714285714,4630.2,557.2223214285714,531.1285714285714,4731.2,557.2223214285714,531.1285714285714,4834.7,557.2223214285714,531.1285714285714,4934.9]","[1428.6,1428.6,1000,0,428.6,""smooth"",""right"",""right"",""good_move"",3805.3,2375.7,2038.3,1429.6,337.4,""smooth"",""down"",""down"",""good_move"",6228.3,2421.7,2106.3,3806.6,315.4,""smooth"",""right"",""right"",""good_move"",9629.9,3400.6,3006.8,6229.4,393.7,""smooth"",""down"",""down"",""good_move"",12538.9,2906.9,2565,9632,341.9,""oops"",""right"",""right"",""good_move"",15069,2529.1,2168.1,12539.9,361,""smooth"",""down"",""down"",""good_move""]"
"5661","","<div style=""width:500px;"">
  <p>What determined the result of this run?</p>
  </div>","99","html-slider-response","19","419902","0.0-7.0-1.1","137","1","2025-08-06 08:52:49","36c45c0696341be0efffe67d72a12abb","41.150.220.31","Mozilla/5.0 (Windows NT 10.0; Win64; x64) AppleWebKit/537.36 (KHTML, like Gecko) Chrome/138.0.0.0 Safari/537.36","WebKit","Chrome","138.0.0.0","Windows","10.0","https://app.prolific.com/","en-US,en;q=0.9","6729f8c001f004ff58eb68b8","687a1a965b9f5b85a264363e","689317748e78716d827ae0ff","1","6729f8c001f004ff58eb68b8","1","2025-08-06T08:59:55.090Z","","","","AttribQ","","","","","","","","","","","50","","","","","","","","","","","","","","","","","","","","","","","","","","",""
"5505","","<div style=""width:500px;"">
  <p>How much control did you have over the ball?</p>
  </div>","83","html-slider-response","20","425408","0.0-7.0-2.1","137","1","2025-08-06 08:52:49","36c45c0696341be0efffe67d72a12abb","41.150.220.31","Mozilla/5.0 (Windows NT 10.0; Win64; x64) AppleWebKit/537.36 (KHTML, like Gecko) Chrome/138.0.0.0 Safari/537.36","WebKit","Chrome","138.0.0.0","Windows","10.0","https://app.prolific.com/","en-US,en;q=0.9","6729f8c001f004ff58eb68b8","687a1a965b9f5b85a264363e","689317748e78716d827ae0ff","1","6729f8c001f004ff58eb68b8","1","2025-08-06T09:00:00.597Z","","","","ControlQ","","","","","","","","","","","50","","","","","","","","","","","","","","","","","","","","","","","","","","",""
"5945","","<div style=""width:500px;"">
  <p>How would you describe your current emotional state?</p>
  </div>","5","html-slider-response","21","431355","0.0-7.0-3.1","137","1","2025-08-06 08:52:49","36c45c0696341be0efffe67d72a12abb","41.150.220.31","Mozilla/5.0 (Windows NT 10.0; Win64; x64) AppleWebKit/537.36 (KHTML, like Gecko) Chrome/138.0.0.0 Safari/537.36","WebKit","Chrome","138.0.0.0","Windows","10.0","https://app.prolific.com/","en-US,en;q=0.9","6729f8c001f004ff58eb68b8","687a1a965b9f5b85a264363e","689317748e78716d827ae0ff","1","6729f8c001f004ff58eb68b8","1","2025-08-06T09:00:06.543Z","","","","StressQ","","","","","","","","","","","50","","","","","","","","","","","","","","","","","","","","","","","","","","",""
"5006","","<div style=""width:500px;"">
  <p>What best describes how you currently feel?</p>
  </div>","90","html-slider-response","22","436363","0.0-7.0-4.1","137","1","2025-08-06 08:52:49","36c45c0696341be0efffe67d72a12abb","41.150.220.31","Mozilla/5.0 (Windows NT 10.0; Win64; x64) AppleWebKit/537.36 (KHTML, like Gecko) Chrome/138.0.0.0 Safari/537.36","WebKit","Chrome","138.0.0.0","Windows","10.0","https://app.prolific.com/","en-US,en;q=0.9","6729f8c001f004ff58eb68b8","687a1a965b9f5b85a264363e","689317748e78716d827ae0ff","1","6729f8c001f004ff58eb68b8","1","2025-08-06T09:00:11.551Z","","","","MotivationQ","","","","","","","","","","","50","","","","","","","","","","","","","","","","","","","","","","","","","","",""
"","","","","ctl-task-cpt","23","468767","0.0-7.0-0.2","137","1","2025-08-06 08:52:49","36c45c0696341be0efffe67d72a12abb","41.150.220.31","Mozilla/5.0 (Windows NT 10.0; Win64; x64) AppleWebKit/537.36 (KHTML, like Gecko) Chrome/138.0.0.0 Safari/537.36","WebKit","Chrome","138.0.0.0","Windows","10.0","https://app.prolific.com/","en-US,en;q=0.9","6729f8c001f004ff58eb68b8","687a1a965b9f5b85a264363e","689317748e78716d827ae0ff","1","6729f8c001f004ff58eb68b8","1","2025-08-06T09:00:43.955Z","","","","","","","","","","","","","","","","win-only","0","g1:NW,g2:SE","0.8","3","0","445750.8","1446.8","6454.3","29383.9","1","4","4","6","2","4","4","16","12","0.12121212121212122","1285.4","3000","305","[""down"",""right""]","{""num_key_presses"":8,""num_perfect"":7,""num_errors"":0,""num_randdir"":1,""num_randdir_good_moves"":0,""num_whilered"":0,""num_whileblue"":0,""num_blue"":0,""num_good_moves"":7}","[295.22232142857143,290.12857142857143,0.5,296.22232142857143,290.12857142857143,107.4,296.22232142857143,290.12857142857143,209.6,296.22232142857143,290.12857142857143,311.2,272.22232142857143,282.12857142857143,415.4,295.22232142857143,318.12857142857143,522.9,520.2223214285714,482.12857142857143,625.7,635.2223214285714,557.1285714285714,728.8,637.2223214285714,569.1285714285714,829.1,608.2223214285714,575.1285714285714,930.1,577.2223214285714,568.1285714285714,1035.8,575.2223214285714,567.1285714285714,1136.8,570.2223214285714,564.1285714285714,1239.5,570.2223214285714,564.1285714285714,1345.4,570.2223214285714,564.1285714285714,1445.7,569.2223214285714,564.1285714285714,1549,696.2223214285714,573.1285714285714,1649,955.2223214285714,587.1285714285714,1749.1,957.2223214285714,587.1285714285714,1849.3,957.2223214285714,587.1285714285714,1953.2,957.2223214285714,587.1285714285714,2055.7,957.2223214285714,587.1285714285714,2157.4,957.2223214285714,587.1285714285714,2260.7,957.2223214285714,587.1285714285714,2364.6,957.2223214285714,587.1285714285714,2464.6,957.2223214285714,587.1285714285714,2571.7,957.2223214285714,587.1285714285714,2673.8,957.2223214285714,587.1285714285714,2773.9,957.2223214285714,587.1285714285714,2875.3,957.2223214285714,587.1285714285714,2978.7,957.2223214285714,587.1285714285714,3079.1,957.2223214285714,587.1285714285714,3179.6,957.2223214285714,587.1285714285714,3283.6,957.2223214285714,587.1285714285714,3385.3,957.2223214285714,587.1285714285714,3485.3,957.2223214285714,587.1285714285714,3590.4,957.2223214285714,587.1285714285714,3695.3,957.2223214285714,587.1285714285714,3799.7,957.2223214285714,587.1285714285714,3904.9,957.2223214285714,587.1285714285714,4005.5,957.2223214285714,587.1285714285714,4105.7,957.2223214285714,587.1285714285714,4208.9,957.2223214285714,587.1285714285714,4309.2,957.2223214285714,587.1285714285714,4409.3,957.2223214285714,587.1285714285714,4513.6,957.2223214285714,587.1285714285714,4614.2,957.2223214285714,587.1285714285714,4715.6,957.2223214285714,587.1285714285714,4820.5,957.2223214285714,587.1285714285714,4924.7]","[1342.6,1342.7,1000,0,342.7,""smooth"",""right"",""right"",""good_move"",4342.4,2998.2,2700.7,1344.2,297.5,""smooth"",""down"",""down"",""good_move"",6999.8,2655.4,2326.7,4344.4,328.7,""oops"",""right"",""left"",""bad_move"",10473.1,3472.2,3126.6,7001,345.6,""smooth"",""down"",""down"",""good_move"",13601.8,3127.7,2797.1,10474.1,330.6,""smooth"",""right"",""right"",""good_move"",16954.8,3352.1,2944.2,13602.9,407.8,""smooth"",""right"",""right"",""good_move"",19541.3,2585.3,2271.9,16956,313.4,""smooth"",""down"",""down"",""good_move"",22830.9,3288.4,2887.9,19542.6,400.5,""smooth"",""right"",""right"",""good_move""]"
"2975","","<div style=""width:500px;"">
  <p>What determined the result of this run?</p>
  </div>","89","html-slider-response","24","471745","0.0-7.0-1.2","137","1","2025-08-06 08:52:49","36c45c0696341be0efffe67d72a12abb","41.150.220.31","Mozilla/5.0 (Windows NT 10.0; Win64; x64) AppleWebKit/537.36 (KHTML, like Gecko) Chrome/138.0.0.0 Safari/537.36","WebKit","Chrome","138.0.0.0","Windows","10.0","https://app.prolific.com/","en-US,en;q=0.9","6729f8c001f004ff58eb68b8","687a1a965b9f5b85a264363e","689317748e78716d827ae0ff","1","6729f8c001f004ff58eb68b8","1","2025-08-06T09:00:46.933Z","","","","AttribQ","","","","","","","","","","","50","","","","","","","","","","","","","","","","","","","","","","","","","","",""
"4169","","<div style=""width:500px;"">
  <p>How much control did you have over the ball?</p>
  </div>","76","html-slider-response","25","475919","0.0-7.0-2.2","137","1","2025-08-06 08:52:49","36c45c0696341be0efffe67d72a12abb","41.150.220.31","Mozilla/5.0 (Windows NT 10.0; Win64; x64) AppleWebKit/537.36 (KHTML, like Gecko) Chrome/138.0.0.0 Safari/537.36","WebKit","Chrome","138.0.0.0","Windows","10.0","https://app.prolific.com/","en-US,en;q=0.9","6729f8c001f004ff58eb68b8","687a1a965b9f5b85a264363e","689317748e78716d827ae0ff","1","6729f8c001f004ff58eb68b8","1","2025-08-06T09:00:51.108Z","","","","ControlQ","","","","","","","","","","","50","","","","","","","","","","","","","","","","","","","","","","","","","","",""
"3002","","<div style=""width:500px;"">
  <p>How would you describe your current emotional state?</p>
  </div>","3","html-slider-response","26","478923","0.0-7.0-3.2","137","1","2025-08-06 08:52:49","36c45c0696341be0efffe67d72a12abb","41.150.220.31","Mozilla/5.0 (Windows NT 10.0; Win64; x64) AppleWebKit/537.36 (KHTML, like Gecko) Chrome/138.0.0.0 Safari/537.36","WebKit","Chrome","138.0.0.0","Windows","10.0","https://app.prolific.com/","en-US,en;q=0.9","6729f8c001f004ff58eb68b8","687a1a965b9f5b85a264363e","689317748e78716d827ae0ff","1","6729f8c001f004ff58eb68b8","1","2025-08-06T09:00:54.111Z","","","","StressQ","","","","","","","","","","","50","","","","","","","","","","","","","","","","","","","","","","","","","","",""
"2827","","<div style=""width:500px;"">
  <p>What best describes how you currently feel?</p>
  </div>","100","html-slider-response","27","481753","0.0-7.0-4.2","137","1","2025-08-06 08:52:49","36c45c0696341be0efffe67d72a12abb","41.150.220.31","Mozilla/5.0 (Windows NT 10.0; Win64; x64) AppleWebKit/537.36 (KHTML, like Gecko) Chrome/138.0.0.0 Safari/537.36","WebKit","Chrome","138.0.0.0","Windows","10.0","https://app.prolific.com/","en-US,en;q=0.9","6729f8c001f004ff58eb68b8","687a1a965b9f5b85a264363e","689317748e78716d827ae0ff","1","6729f8c001f004ff58eb68b8","1","2025-08-06T09:00:56.941Z","","","","MotivationQ","","","","","","","","","","","50","","","","","","","","","","","","","","","","","","","","","","","","","","",""
"","","","","ctl-task-cpt","28","518137","0.0-7.0-0.3","137","1","2025-08-06 08:52:49","36c45c0696341be0efffe67d72a12abb","41.150.220.31","Mozilla/5.0 (Windows NT 10.0; Win64; x64) AppleWebKit/537.36 (KHTML, like Gecko) Chrome/138.0.0.0 Safari/537.36","WebKit","Chrome","138.0.0.0","Windows","10.0","https://app.prolific.com/","en-US,en;q=0.9","6729f8c001f004ff58eb68b8","687a1a965b9f5b85a264363e","689317748e78716d827ae0ff","1","6729f8c001f004ff58eb68b8","1","2025-08-06T09:01:33.325Z","","","","","","","","","","","","","","","","win-only","0","g1:NW,g2:SE","0.7","4","0","491140","1333.6","6337.9","33372.3","1","4","8","6","2","8","6","22","16","0.16666666666666666","1217.8","3000","405","[""down"",""right""]","{""num_key_presses"":9,""num_perfect"":4,""num_errors"":2,""num_randdir"":3,""num_randdir_good_moves"":2,""num_whilered"":0,""num_whileblue"":1,""num_blue"":1,""num_good_moves"":7}","[295.22232142857143,296.12857142857143,1.1,295.22232142857143,296.12857142857143,102.2,295.22232142857143,296.12857142857143,202.4,295.22232142857143,295.12857142857143,315.9,295.22232142857143,295.12857142857143,417.4,287.22232142857143,292.12857142857143,517.6,411.22232142857143,460.12857142857143,623.3,499.22232142857143,534.1285714285714,727.7,508.22232142857143,543.1285714285714,834.8,525.2223214285714,548.1285714285714,948.6,529.2223214285714,547.1285714285714,1052.4,529.2223214285714,547.1285714285714,1157.1,529.2223214285714,547.1285714285714,1261.2,529.2223214285714,547.1285714285714,1362.7,529.2223214285714,547.1285714285714,1463,536.2223214285714,537.1285714285714,1566.9,893.2223214285714,487.12857142857143,1667,978.2223214285714,504.12857142857143,1767.5,978.2223214285714,504.12857142857143,1871.8,978.2223214285714,504.12857142857143,1981.4,978.2223214285714,504.12857142857143,2081.8,978.2223214285714,504.12857142857143,2182.6,978.2223214285714,504.12857142857143,2287.6,978.2223214285714,504.12857142857143,2398,978.2223214285714,504.12857142857143,2502.6,978.2223214285714,504.12857142857143,2607.6,978.2223214285714,504.12857142857143,2715.8,978.2223214285714,504.12857142857143,2815.9,978.2223214285714,504.12857142857143,2916.9,978.2223214285714,504.12857142857143,3017.2,978.2223214285714,504.12857142857143,3117.5,978.2223214285714,504.12857142857143,3217.6,978.2223214285714,504.12857142857143,3317.7,978.2223214285714,504.12857142857143,3422.8,978.2223214285714,504.12857142857143,3531.5,978.2223214285714,504.12857142857143,3631.8,978.2223214285714,504.12857142857143,3737.3,978.2223214285714,504.12857142857143,3842,978.2223214285714,504.12857142857143,3947.3,978.2223214285714,504.12857142857143,4052.3,978.2223214285714,504.12857142857143,4158.2,978.2223214285714,504.12857142857143,4262.5,978.2223214285714,504.12857142857143,4367.5,978.2223214285714,504.12857142857143,4480.8,978.2223214285714,504.12857142857143,4582.3,978.2223214285714,504.12857142857143,4682.7,978.2223214285714,504.12857142857143,4787.2,978.2223214285714,504.12857142857143,4887.6,978.2223214285714,504.12857142857143,4987.7]","[524.3,524.3,1000,0,-475.7,""error"",""-"",""-"",""no_move"",4924.9,4399.8,2916.1,1526.7,482.2,""smooth"",""right"",""right"",""good_move"",8316.9,3390.9,2972.3,4926,418.6,""while_blue"",""down"",""down"",""good_move"",11445.4,3127.2,2489.1,8318.2,638.1,""oops"",""right"",""right"",""good_move"",14642.6,3196.6,2654.9,11446.1,541.6,""smooth"",""down"",""down"",""good_move"",17177.6,2533.5,2101.5,14644.1,432,""smooth"",""right"",""right"",""good_move"",20227.5,3049,2637.6,17178.7,411.3,""oops"",""down"",""left"",""bad_move"",23793.1,3563.7,3178.3,20229.5,385.4,""smooth"",""down"",""down"",""good_move"",26905.3,3111.2,2719.5,23794.2,391.6,""oops"",""right"",""right"",""good_move""]"
"2799","","<div style=""width:500px;"">
  <p>What determined the result of this run?</p>
  </div>","80","html-slider-response","29","520937","0.0-7.0-1.3","137","1","2025-08-06 08:52:49","36c45c0696341be0efffe67d72a12abb","41.150.220.31","Mozilla/5.0 (Windows NT 10.0; Win64; x64) AppleWebKit/537.36 (KHTML, like Gecko) Chrome/138.0.0.0 Safari/537.36","WebKit","Chrome","138.0.0.0","Windows","10.0","https://app.prolific.com/","en-US,en;q=0.9","6729f8c001f004ff58eb68b8","687a1a965b9f5b85a264363e","689317748e78716d827ae0ff","1","6729f8c001f004ff58eb68b8","1","2025-08-06T09:01:36.126Z","","","","AttribQ","","","","","","","","","","","50","","","","","","","","","","","","","","","","","","","","","","","","","","",""
"1699","","<div style=""width:500px;"">
  <p>How much control did you have over the ball?</p>
  </div>","81","html-slider-response","30","522638","0.0-7.0-2.3","137","1","2025-08-06 08:52:49","36c45c0696341be0efffe67d72a12abb","41.150.220.31","Mozilla/5.0 (Windows NT 10.0; Win64; x64) AppleWebKit/537.36 (KHTML, like Gecko) Chrome/138.0.0.0 Safari/537.36","WebKit","Chrome","138.0.0.0","Windows","10.0","https://app.prolific.com/","en-US,en;q=0.9","6729f8c001f004ff58eb68b8","687a1a965b9f5b85a264363e","689317748e78716d827ae0ff","1","6729f8c001f004ff58eb68b8","1","2025-08-06T09:01:37.826Z","","","","ControlQ","","","","","","","","","","","50","","","","","","","","","","","","","","","","","","","","","","","","","","",""
"7673","","<div style=""width:500px;"">
  <p>How would you describe your current emotional state?</p>
  </div>","12","html-slider-response","31","530313","0.0-7.0-3.3","137","1","2025-08-06 08:52:49","36c45c0696341be0efffe67d72a12abb","41.150.220.31","Mozilla/5.0 (Windows NT 10.0; Win64; x64) AppleWebKit/537.36 (KHTML, like Gecko) Chrome/138.0.0.0 Safari/537.36","WebKit","Chrome","138.0.0.0","Windows","10.0","https://app.prolific.com/","en-US,en;q=0.9","6729f8c001f004ff58eb68b8","687a1a965b9f5b85a264363e","689317748e78716d827ae0ff","1","6729f8c001f004ff58eb68b8","1","2025-08-06T09:01:45.502Z","","","","StressQ","","","","","","","","","","","50","","","","","","","","","","","","","","","","","","","","","","","","","","",""
"2944","","<div style=""width:500px;"">
  <p>What best describes how you currently feel?</p>
  </div>","85","html-slider-response","32","533259","0.0-7.0-4.3","137","1","2025-08-06 08:52:49","36c45c0696341be0efffe67d72a12abb","41.150.220.31","Mozilla/5.0 (Windows NT 10.0; Win64; x64) AppleWebKit/537.36 (KHTML, like Gecko) Chrome/138.0.0.0 Safari/537.36","WebKit","Chrome","138.0.0.0","Windows","10.0","https://app.prolific.com/","en-US,en;q=0.9","6729f8c001f004ff58eb68b8","687a1a965b9f5b85a264363e","689317748e78716d827ae0ff","1","6729f8c001f004ff58eb68b8","1","2025-08-06T09:01:48.447Z","","","","MotivationQ","","","","","","","","","","","50","","","","","","","","","","","","","","","","","","","","","","","","","","",""
"","","","","ctl-task-cpt","33","572964","0.0-7.0-0.4","137","1","2025-08-06 08:52:49","36c45c0696341be0efffe67d72a12abb","41.150.220.31","Mozilla/5.0 (Windows NT 10.0; Win64; x64) AppleWebKit/537.36 (KHTML, like Gecko) Chrome/138.0.0.0 Safari/537.36","WebKit","Chrome","138.0.0.0","Windows","10.0","https://app.prolific.com/","en-US,en;q=0.9","6729f8c001f004ff58eb68b8","687a1a965b9f5b85a264363e","689317748e78716d827ae0ff","1","6729f8c001f004ff58eb68b8","1","2025-08-06T09:02:28.152Z","","","","","","","","","","","","","","","","win-only","0","g1:NW,g2:SE","0.6","5","0","542646.7","2153.3","7157.8","36676.8","1","4","8","6","2","-8","-9","13","22","0.09848484848484848","1029.4","3000","-2545","[""down"",""right""]","{""num_key_presses"":9,""num_perfect"":5,""num_errors"":1,""num_randdir"":3,""num_randdir_good_moves"":1,""num_whilered"":0,""num_whileblue"":1,""num_blue"":2,""num_good_moves"":6}","[297.22232142857143,290.12857142857143,0.7,297.22232142857143,290.12857142857143,102.1,297.22232142857143,290.12857142857143,203.6,297.22232142857143,290.12857142857143,307.9,297.22232142857143,290.12857142857143,408.2,408.22232142857143,399.12857142857143,514.5,572.2223214285714,523.1285714285714,616.3,594.2223214285714,545.1285714285714,720.7,588.2223214285714,553.1285714285714,822.7,559.2223214285714,546.1285714285714,940.1,559.2223214285714,546.1285714285714,1041.1,559.2223214285714,546.1285714285714,1146.4,558.2223214285714,546.1285714285714,1248.7,557.2223214285714,545.1285714285714,1352.6,544.2223214285714,532.1285714285714,1452.9,563.2223214285714,476.12857142857143,1555.7,736.2223214285714,458.12857142857143,1662.3,766.2223214285714,456.12857142857143,1762.4,766.2223214285714,455.12857142857143,1869.6,766.2223214285714,455.12857142857143,1972.6,766.2223214285714,455.12857142857143,2089.1,766.2223214285714,455.12857142857143,2192.7,766.2223214285714,455.12857142857143,2303.6,766.2223214285714,455.12857142857143,2403.7,766.2223214285714,455.12857142857143,2507,766.2223214285714,455.12857142857143,2607.8,766.2223214285714,455.12857142857143,2721.8,766.2223214285714,455.12857142857143,2822.2,766.2223214285714,455.12857142857143,2922.2,766.2223214285714,455.12857142857143,3022.6,766.2223214285714,455.12857142857143,3128.7,766.2223214285714,455.12857142857143,3235.6,766.2223214285714,455.12857142857143,3339,766.2223214285714,455.12857142857143,3442.9,766.2223214285714,455.12857142857143,3555.1,766.2223214285714,455.12857142857143,3658,766.2223214285714,455.12857142857143,3758.4,766.2223214285714,455.12857142857143,3869.6,766.2223214285714,455.12857142857143,3972.7,766.2223214285714,455.12857142857143,4072.8,766.2223214285714,455.12857142857143,4178.3,766.2223214285714,455.12857142857143,4286.6,766.2223214285714,455.12857142857143,4387.9,766.2223214285714,455.12857142857143,4492.7,766.2223214285714,455.12857142857143,4598.4,766.2223214285714,455.12857142857143,4702.5,766.2223214285714,455.12857142857143,4802.6,766.2223214285714,455.12857142857143,4903.7]","[1486,1486,1000,0,486,""smooth"",""right"",""right"",""good_move"",4145.4,2658.3,2207.1,1487.1,451.2,""smooth"",""down"",""down"",""good_move"",7240.8,3094,2703.9,4146.8,390.1,""oops"",""right"",""left"",""bad_move"",9935.4,2692.5,2323.8,7242.9,368.7,""smooth"",""down"",""down"",""good_move"",12529.3,2593,2189.6,9936.4,403.3,""smooth"",""right"",""right"",""good_move"",18718.5,6188.2,2007.6,16327.8,383.1,""oops"",""right"",""right"",""good_move"",21813.3,3093.9,2679.3,18719.4,414.6,""smooth"",""down"",""down"",""good_move"",24727.3,2913,2601.5,21814.4,311.4,""while_blue"",""right"",""left"",""bad_move"",27263.7,2534.3,2010.3,24729.5,524,""oops"",""right"",""left"",""bad_move""]"
"3251","","<div style=""width:500px;"">
  <p>What determined the result of this run?</p>
  </div>","77","html-slider-response","34","576217","0.0-7.0-1.4","137","1","2025-08-06 08:52:49","36c45c0696341be0efffe67d72a12abb","41.150.220.31","Mozilla/5.0 (Windows NT 10.0; Win64; x64) AppleWebKit/537.36 (KHTML, like Gecko) Chrome/138.0.0.0 Safari/537.36","WebKit","Chrome","138.0.0.0","Windows","10.0","https://app.prolific.com/","en-US,en;q=0.9","6729f8c001f004ff58eb68b8","687a1a965b9f5b85a264363e","689317748e78716d827ae0ff","1","6729f8c001f004ff58eb68b8","1","2025-08-06T09:02:31.405Z","","","","AttribQ","","","","","","","","","","","50","","","","","","","","","","","","","","","","","","","","","","","","","","",""
"4587","","<div style=""width:500px;"">
  <p>How much control did you have over the ball?</p>
  </div>","76","html-slider-response","35","580806","0.0-7.0-2.4","137","1","2025-08-06 08:52:49","36c45c0696341be0efffe67d72a12abb","41.150.220.31","Mozilla/5.0 (Windows NT 10.0; Win64; x64) AppleWebKit/537.36 (KHTML, like Gecko) Chrome/138.0.0.0 Safari/537.36","WebKit","Chrome","138.0.0.0","Windows","10.0","https://app.prolific.com/","en-US,en;q=0.9","6729f8c001f004ff58eb68b8","687a1a965b9f5b85a264363e","689317748e78716d827ae0ff","1","6729f8c001f004ff58eb68b8","1","2025-08-06T09:02:35.994Z","","","","ControlQ","","","","","","","","","","","50","","","","","","","","","","","","","","","","","","","","","","","","","","",""
"3989","","<div style=""width:500px;"">
  <p>How would you describe your current emotional state?</p>
  </div>","80","html-slider-response","36","584797","0.0-7.0-3.4","137","1","2025-08-06 08:52:49","36c45c0696341be0efffe67d72a12abb","41.150.220.31","Mozilla/5.0 (Windows NT 10.0; Win64; x64) AppleWebKit/537.36 (KHTML, like Gecko) Chrome/138.0.0.0 Safari/537.36","WebKit","Chrome","138.0.0.0","Windows","10.0","https://app.prolific.com/","en-US,en;q=0.9","6729f8c001f004ff58eb68b8","687a1a965b9f5b85a264363e","689317748e78716d827ae0ff","1","6729f8c001f004ff58eb68b8","1","2025-08-06T09:02:39.985Z","","","","StressQ","","","","","","","","","","","50","","","","","","","","","","","","","","","","","","","","","","","","","","",""
"41460","","<div style=""width:500px;"">
  <p>What best describes how you currently feel?</p>
  </div>","76","html-slider-response","37","626259","0.0-7.0-4.4","137","1","2025-08-06 08:52:49","36c45c0696341be0efffe67d72a12abb","41.150.220.31","Mozilla/5.0 (Windows NT 10.0; Win64; x64) AppleWebKit/537.36 (KHTML, like Gecko) Chrome/138.0.0.0 Safari/537.36","WebKit","Chrome","138.0.0.0","Windows","10.0","https://app.prolific.com/","en-US,en;q=0.9","6729f8c001f004ff58eb68b8","687a1a965b9f5b85a264363e","689317748e78716d827ae0ff","1","6729f8c001f004ff58eb68b8","1","2025-08-06T09:03:21.447Z","","","","MotivationQ","","","","","","","","","","","50","","","","","","","","","","","","","","","","","","","","","","","","","","",""
"","","","","ctl-task-cpt","38","671266","0.0-7.0-0.5","137","1","2025-08-06 08:52:49","36c45c0696341be0efffe67d72a12abb","41.150.220.31","Mozilla/5.0 (Windows NT 10.0; Win64; x64) AppleWebKit/537.36 (KHTML, like Gecko) Chrome/138.0.0.0 Safari/537.36","WebKit","Chrome","138.0.0.0","Windows","10.0","https://app.prolific.com/","en-US,en;q=0.9","6729f8c001f004ff58eb68b8","687a1a965b9f5b85a264363e","689317748e78716d827ae0ff","1","6729f8c001f004ff58eb68b8","1","2025-08-06T09:04:06.454Z","","","","","","","","","","","","","","","","win-only","1","g1:NE,g2:SW","0.5","6","0","635645.9","2272.2","7277.3","41997.7","1","4","4","6","2","-4","-5","8","13","0.06060606060606061","1419.6","3000","-2495","[""down"",""left""]","{""num_key_presses"":11,""num_perfect"":5,""num_errors"":1,""num_randdir"":5,""num_randdir_good_moves"":1,""num_whilered"":0,""num_whileblue"":1,""num_blue"":1,""num_good_moves"":7}","[298.22232142857143,293.12857142857143,0.9,298.22232142857143,293.12857142857143,109.2,298.22232142857143,293.12857142857143,211.6,305.22232142857143,303.12857142857143,317.4,508.22232142857143,359.12857142857143,419.9,630.2223214285714,381.12857142857143,520.3,621.2223214285714,381.12857142857143,626.3,497.22232142857143,381.12857142857143,734.6,330.22232142857143,460.12857142857143,844.5,170.22232142857143,552.1285714285714,952.2,150.22232142857143,552.1285714285714,1063.1,111.22232142857143,549.1285714285714,1170.9,82.22232142857143,545.1285714285714,1271.9,78.22232142857143,545.1285714285714,1381.5,78.22232142857143,545.1285714285714,1484.5,94.22232142857143,546.1285714285714,1591.6,536.2223214285714,558.1285714285714,1702.3,536.2223214285714,558.1285714285714,1811.2,536.2223214285714,558.1285714285714,1923.8,536.2223214285714,558.1285714285714,2031.4,536.2223214285714,558.1285714285714,2134.1,536.2223214285714,558.1285714285714,2240.1,536.2223214285714,558.1285714285714,2346,536.2223214285714,558.1285714285714,2452.3,536.2223214285714,558.1285714285714,2562.6,536.2223214285714,558.1285714285714,2663.5,536.2223214285714,558.1285714285714,2769.1,536.2223214285714,558.1285714285714,2869.2,536.2223214285714,558.1285714285714,2970.4,536.2223214285714,558.1285714285714,3085.9,536.2223214285714,558.1285714285714,3192.3,536.2223214285714,558.1285714285714,3293.3,536.2223214285714,558.1285714285714,3394.6,536.2223214285714,558.1285714285714,3496.3,536.2223214285714,558.1285714285714,3598.3,536.2223214285714,558.1285714285714,3698.9,536.2223214285714,558.1285714285714,3799.6,536.2223214285714,558.1285714285714,3903.2,536.2223214285714,558.1285714285714,4013.2,536.2223214285714,558.1285714285714,4113.7,536.2223214285714,558.1285714285714,4219.9,536.2223214285714,558.1285714285714,4319.9,536.2223214285714,558.1285714285714,4431.4,536.2223214285714,558.1285714285714,4533.9,536.2223214285714,558.1285714285714,4643,536.2223214285714,558.1285714285714,4744.6,536.2223214285714,558.1285714285714,4848.7,536.2223214285714,558.1285714285714,4950.4]","[1425.4,1425.4,1000,0,425.4,""oops"",""left"",""right"",""bad_move"",4562.1,3135.8,2751.6,1426.3,384.2,""smooth"",""down"",""down"",""good_move"",8197.8,3634.4,3261.1,4563.4,373.3,""smooth"",""left"",""left"",""good_move"",11093.3,2894.9,2326.6,8198.4,568.3,""oops"",""left"",""right"",""bad_move"",13077.6,1982.8,1609,11094.8,373.8,""oops"",""left"",""right"",""bad_move"",15939.9,2862,2452.4,13077.9,409.6,""smooth"",""down"",""down"",""good_move"",19151.8,3210.7,2837,15941.2,373.7,""smooth"",""left"",""left"",""good_move"",22288.9,3136.3,2824.9,19152.6,311.4,""while_blue"",""left"",""down"",""good_move"",25475.9,3185.9,2816.3,22290,369.6,""oops"",""left"",""left"",""good_move"",28473.4,2996.3,2592.5,25477.1,403.8,""smooth"",""left"",""left"",""good_move"",31975.1,3500.2,3186.4,28474.9,313.8,""oops"",""left"",""up"",""bad_move""]"
"4583","","<div style=""width:500px;"">
  <p>What determined the result of this run?</p>
  </div>","56","html-slider-response","39","675850","0.0-7.0-1.5","137","1","2025-08-06 08:52:49","36c45c0696341be0efffe67d72a12abb","41.150.220.31","Mozilla/5.0 (Windows NT 10.0; Win64; x64) AppleWebKit/537.36 (KHTML, like Gecko) Chrome/138.0.0.0 Safari/537.36","WebKit","Chrome","138.0.0.0","Windows","10.0","https://app.prolific.com/","en-US,en;q=0.9","6729f8c001f004ff58eb68b8","687a1a965b9f5b85a264363e","689317748e78716d827ae0ff","1","6729f8c001f004ff58eb68b8","1","2025-08-06T09:04:11.038Z","","","","AttribQ","","","","","","","","","","","50","","","","","","","","","","","","","","","","","","","","","","","","","","",""
"3287","","<div style=""width:500px;"">
  <p>How much control did you have over the ball?</p>
  </div>","27","html-slider-response","40","679139","0.0-7.0-2.5","137","1","2025-08-06 08:52:49","36c45c0696341be0efffe67d72a12abb","41.150.220.31","Mozilla/5.0 (Windows NT 10.0; Win64; x64) AppleWebKit/537.36 (KHTML, like Gecko) Chrome/138.0.0.0 Safari/537.36","WebKit","Chrome","138.0.0.0","Windows","10.0","https://app.prolific.com/","en-US,en;q=0.9","6729f8c001f004ff58eb68b8","687a1a965b9f5b85a264363e","689317748e78716d827ae0ff","1","6729f8c001f004ff58eb68b8","1","2025-08-06T09:04:14.327Z","","","","ControlQ","","","","","","","","","","","50","","","","","","","","","","","","","","","","","","","","","","","","","","",""
"3782","","<div style=""width:500px;"">
  <p>How would you describe your current emotional state?</p>
  </div>","70","html-slider-response","41","682923","0.0-7.0-3.5","137","1","2025-08-06 08:52:49","36c45c0696341be0efffe67d72a12abb","41.150.220.31","Mozilla/5.0 (Windows NT 10.0; Win64; x64) AppleWebKit/537.36 (KHTML, like Gecko) Chrome/138.0.0.0 Safari/537.36","WebKit","Chrome","138.0.0.0","Windows","10.0","https://app.prolific.com/","en-US,en;q=0.9","6729f8c001f004ff58eb68b8","687a1a965b9f5b85a264363e","689317748e78716d827ae0ff","1","6729f8c001f004ff58eb68b8","1","2025-08-06T09:04:18.111Z","","","","StressQ","","","","","","","","","","","50","","","","","","","","","","","","","","","","","","","","","","","","","","",""
"28318","","<div style=""width:500px;"">
  <p>What best describes how you currently feel?</p>
  </div>","42","html-slider-response","42","711242","0.0-7.0-4.5","137","1","2025-08-06 08:52:49","36c45c0696341be0efffe67d72a12abb","41.150.220.31","Mozilla/5.0 (Windows NT 10.0; Win64; x64) AppleWebKit/537.36 (KHTML, like Gecko) Chrome/138.0.0.0 Safari/537.36","WebKit","Chrome","138.0.0.0","Windows","10.0","https://app.prolific.com/","en-US,en;q=0.9","6729f8c001f004ff58eb68b8","687a1a965b9f5b85a264363e","689317748e78716d827ae0ff","1","6729f8c001f004ff58eb68b8","1","2025-08-06T09:04:46.431Z","","","","MotivationQ","","","","","","","","","","","50","","","","","","","","","","","","","","","","","","","","","","","","","","",""
"","","","","ctl-task-cpt","43","761287","0.0-7.0-0.6","137","1","2025-08-06 08:52:49","36c45c0696341be0efffe67d72a12abb","41.150.220.31","Mozilla/5.0 (Windows NT 10.0; Win64; x64) AppleWebKit/537.36 (KHTML, like Gecko) Chrome/138.0.0.0 Safari/537.36","WebKit","Chrome","138.0.0.0","Windows","10.0","https://app.prolific.com/","en-US,en;q=0.9","6729f8c001f004ff58eb68b8","687a1a965b9f5b85a264363e","689317748e78716d827ae0ff","1","6729f8c001f004ff58eb68b8","1","2025-08-06T09:05:36.475Z","","","","","","","","","","","","","","","","win-only","2","g1:SE,g2:NW","0.4","7","0","720629.2","1138.8","6147","47014.3","1","4","4","6","2","-4","-6","2","8","0.015151515151515152","1313.6","3000","-2335","[""left"",""up""]","{""num_key_presses"":9,""num_perfect"":2,""num_errors"":2,""num_randdir"":5,""num_randdir_good_moves"":3,""num_whilered"":0,""num_whileblue"":2,""num_blue"":5,""num_good_moves"":6}","[301.22232142857143,294.12857142857143,4.3,301.22232142857143,294.12857142857143,104.8,302.22232142857143,297.12857142857143,207.8,302.22232142857143,297.12857142857143,310,313.22232142857143,312.12857142857143,416.2,369.22232142857143,388.12857142857143,516.7,436.22232142857143,447.12857142857143,628.4,397.22232142857143,420.12857142857143,730.5,206.22232142857143,159.12857142857143,831.8,144.22232142857143,79.12857142857143,936.1,111.22232142857143,51.128571428571426,1038.2,106.22232142857143,48.128571428571426,1148.8,91.22232142857143,48.128571428571426,1259.6,90.22232142857143,49.128571428571426,1362.2,90.22232142857143,49.128571428571426,1463.5,90.22232142857143,53.128571428571426,1568.8,370.22232142857143,180.12857142857143,1678.2,551.2223214285714,251.12857142857143,1782.3,551.2223214285714,251.12857142857143,1897.2,551.2223214285714,251.12857142857143,1997.3,551.2223214285714,251.12857142857143,2103.1,551.2223214285714,251.12857142857143,2206.2,551.2223214285714,251.12857142857143,2306.8,551.2223214285714,251.12857142857143,2407.5,551.2223214285714,251.12857142857143,2512.1,551.2223214285714,251.12857142857143,2625.9,551.2223214285714,251.12857142857143,2733.3,551.2223214285714,251.12857142857143,2833.3,551.2223214285714,251.12857142857143,2933.4,551.2223214285714,251.12857142857143,3045.1,551.2223214285714,251.12857142857143,3146.3,551.2223214285714,251.12857142857143,3247.1,551.2223214285714,251.12857142857143,3347.2,551.2223214285714,251.12857142857143,3447.3,551.2223214285714,251.12857142857143,3547.4,551.2223214285714,251.12857142857143,3654.3,551.2223214285714,251.12857142857143,3766,551.2223214285714,251.12857142857143,3866.5,551.2223214285714,251.12857142857143,3972.2,551.2223214285714,251.12857142857143,4075.5,551.2223214285714,251.12857142857143,4176.8,551.2223214285714,251.12857142857143,4277.3,551.2223214285714,251.12857142857143,4378.2,551.2223214285714,251.12857142857143,4496.1,551.2223214285714,251.12857142857143,4597.2,551.2223214285714,251.12857142857143,4713.3,551.2223214285714,251.12857142857143,4817.9,551.2223214285714,251.12857142857143,4922.6]","[1463.3,1463.3,1000,0,463.3,""smooth"",""left"",""left"",""good_move"",4685.9,3221.5,2869.4,1464.4,352.1,""oops"",""up"",""down"",""bad_move"",7984.7,3297.6,2935.5,4687.2,362.1,""while_blue"",""left"",""left"",""good_move"",10584.6,2598.8,2104.8,7985.8,494,""smooth"",""up"",""up"",""good_move"",13567.8,2982.4,2580.5,10585.4,401.9,""oops"",""up"",""up"",""good_move"",23981.4,10412.4,2463.9,21009.9,507.6,""oops"",""up"",""left"",""good_move"",27115.5,3132.8,2733.8,23982.7,399,""oops"",""up"",""right"",""bad_move"",34101.4,6984.6,2810.6,30669,621.8,""oops"",""up"",""left"",""good_move"",36952.7,2850.1,2435.6,34102.6,414.5,""while_blue"",""up"",""right"",""bad_move""]"
"2936","","<div style=""width:500px;"">
  <p>What determined the result of this run?</p>
  </div>","60","html-slider-response","44","764225","0.0-7.0-1.6","137","1","2025-08-06 08:52:49","36c45c0696341be0efffe67d72a12abb","41.150.220.31","Mozilla/5.0 (Windows NT 10.0; Win64; x64) AppleWebKit/537.36 (KHTML, like Gecko) Chrome/138.0.0.0 Safari/537.36","WebKit","Chrome","138.0.0.0","Windows","10.0","https://app.prolific.com/","en-US,en;q=0.9","6729f8c001f004ff58eb68b8","687a1a965b9f5b85a264363e","689317748e78716d827ae0ff","1","6729f8c001f004ff58eb68b8","1","2025-08-06T09:05:39.413Z","","","","AttribQ","","","","","","","","","","","50","","","","","","","","","","","","","","","","","","","","","","","","","","",""
"3413","","<div style=""width:500px;"">
  <p>How much control did you have over the ball?</p>
  </div>","2","html-slider-response","45","767640","0.0-7.0-2.6","137","1","2025-08-06 08:52:49","36c45c0696341be0efffe67d72a12abb","41.150.220.31","Mozilla/5.0 (Windows NT 10.0; Win64; x64) AppleWebKit/537.36 (KHTML, like Gecko) Chrome/138.0.0.0 Safari/537.36","WebKit","Chrome","138.0.0.0","Windows","10.0","https://app.prolific.com/","en-US,en;q=0.9","6729f8c001f004ff58eb68b8","687a1a965b9f5b85a264363e","689317748e78716d827ae0ff","1","6729f8c001f004ff58eb68b8","1","2025-08-06T09:05:42.829Z","","","","ControlQ","","","","","","","","","","","50","","","","","","","","","","","","","","","","","","","","","","","","","","",""
"2496","","<div style=""width:500px;"">
  <p>How would you describe your current emotional state?</p>
  </div>","100","html-slider-response","46","770138","0.0-7.0-3.6","137","1","2025-08-06 08:52:49","36c45c0696341be0efffe67d72a12abb","41.150.220.31","Mozilla/5.0 (Windows NT 10.0; Win64; x64) AppleWebKit/537.36 (KHTML, like Gecko) Chrome/138.0.0.0 Safari/537.36","WebKit","Chrome","138.0.0.0","Windows","10.0","https://app.prolific.com/","en-US,en;q=0.9","6729f8c001f004ff58eb68b8","687a1a965b9f5b85a264363e","689317748e78716d827ae0ff","1","6729f8c001f004ff58eb68b8","1","2025-08-06T09:05:45.326Z","","","","StressQ","","","","","","","","","","","50","","","","","","","","","","","","","","","","","","","","","","","","","","",""
"1826","","<div style=""width:500px;"">
  <p>What best describes how you currently feel?</p>
  </div>","9","html-slider-response","47","771967","0.0-7.0-4.6","137","1","2025-08-06 08:52:49","36c45c0696341be0efffe67d72a12abb","41.150.220.31","Mozilla/5.0 (Windows NT 10.0; Win64; x64) AppleWebKit/537.36 (KHTML, like Gecko) Chrome/138.0.0.0 Safari/537.36","WebKit","Chrome","138.0.0.0","Windows","10.0","https://app.prolific.com/","en-US,en;q=0.9","6729f8c001f004ff58eb68b8","687a1a965b9f5b85a264363e","689317748e78716d827ae0ff","1","6729f8c001f004ff58eb68b8","1","2025-08-06T09:05:47.155Z","","","","MotivationQ","","","","","","","","","","","50","","","","","","","","","","","","","","","","","","","","","","","","","","",""
"","","","","ctl-task-cpt","48","800985","0.0-7.0-0.7","137","1","2025-08-06 08:52:49","36c45c0696341be0efffe67d72a12abb","41.150.220.31","Mozilla/5.0 (Windows NT 10.0; Win64; x64) AppleWebKit/537.36 (KHTML, like Gecko) Chrome/138.0.0.0 Safari/537.36","WebKit","Chrome","138.0.0.0","Windows","10.0","https://app.prolific.com/","en-US,en;q=0.9","6729f8c001f004ff58eb68b8","687a1a965b9f5b85a264363e","689317748e78716d827ae0ff","1","6729f8c001f004ff58eb68b8","1","2025-08-06T09:06:16.173Z","","","","","","","","","","","","","","","","win-only","3","g1:SW,g2:NE","0.3","8","0","781354.4","1822.4","6826.9","25988.1","1","4","8","6","2","8","7","9","2","0.06818181818181818","1329.5","3000","1510","[""up"",""right""]","{""num_key_presses"":6,""num_perfect"":3,""num_errors"":1,""num_randdir"":2,""num_randdir_good_moves"":2,""num_whilered"":0,""num_whileblue"":1,""num_blue"":2,""num_good_moves"":6}","[296.22232142857143,303.12857142857143,0.7,297.22232142857143,303.12857142857143,104.5,297.22232142857143,302.12857142857143,205.2,297.22232142857143,301.12857142857143,308.3,295.22232142857143,300.12857142857143,409.2,306.22232142857143,294.12857142857143,519.5,383.22232142857143,235.12857142857143,629.5,403.22232142857143,199.12857142857143,737.3,430.22232142857143,165.12857142857143,840.1,525.2223214285714,70.12857142857143,952.2,540.2223214285714,32.128571428571426,1054.7,536.2223214285714,34.128571428571426,1158.8,536.2223214285714,40.128571428571426,1267.9,536.2223214285714,41.128571428571426,1369.1,536.2223214285714,41.128571428571426,1469.4,536.2223214285714,41.128571428571426,1569.5,550.2223214285714,115.12857142857143,1671.1,649.2223214285714,217.12857142857143,1778.9,722.2223214285714,258.12857142857143,1886.7,758.2223214285714,271.12857142857143,1989.2,764.2223214285714,271.12857142857143,2091.4,769.2223214285714,269.12857142857143,2196.3,770.2223214285714,269.12857142857143,2299.4,770.2223214285714,269.12857142857143,2406.2,770.2223214285714,269.12857142857143,2519.3,770.2223214285714,269.12857142857143,2627,770.2223214285714,269.12857142857143,2733.7,770.2223214285714,269.12857142857143,2851.1,770.2223214285714,269.12857142857143,2953.9,770.2223214285714,269.12857142857143,3054.3,770.2223214285714,269.12857142857143,3154.4,770.2223214285714,269.12857142857143,3254.9,770.2223214285714,269.12857142857143,3360.1,770.2223214285714,269.12857142857143,3463.7,770.2223214285714,269.12857142857143,3564.9,770.2223214285714,269.12857142857143,3665.4,770.2223214285714,269.12857142857143,3769.5,770.2223214285714,269.12857142857143,3875.3,770.2223214285714,269.12857142857143,3976.4,770.2223214285714,269.12857142857143,4078.1,770.2223214285714,269.12857142857143,4182.1,770.2223214285714,269.12857142857143,4285.9,770.2223214285714,269.12857142857143,4388.4,770.2223214285714,269.12857142857143,4497.6,770.2223214285714,269.12857142857143,4599.4,770.2223214285714,269.12857142857143,4704.8,770.2223214285714,269.12857142857143,4807.6,770.2223214285714,269.12857142857143,4911.8]","[1529.9,1529.9,1000,0,530,""smooth"",""right"",""right"",""good_move"",8728.3,7197.3,2580.6,5715.2,432.5,""smooth"",""up"",""up"",""good_move"",11439.3,2709.4,2301.3,8729.9,408.1,""smooth"",""right"",""right"",""good_move"",14115.5,2675,2302.2,11440.6,372.8,""while_blue"",""up"",""up"",""good_move"",16869.9,2753.3,2343.2,14116.6,410.1,""oops"",""right"",""up"",""good_move"",19007.8,2137.2,1693.6,16870.6,443.6,""oops"",""right"",""right"",""good_move""]"
"3786","","<div style=""width:500px;"">
  <p>What determined the result of this run?</p>
  </div>","63","html-slider-response","49","804774","0.0-7.0-1.7","137","1","2025-08-06 08:52:49","36c45c0696341be0efffe67d72a12abb","41.150.220.31","Mozilla/5.0 (Windows NT 10.0; Win64; x64) AppleWebKit/537.36 (KHTML, like Gecko) Chrome/138.0.0.0 Safari/537.36","WebKit","Chrome","138.0.0.0","Windows","10.0","https://app.prolific.com/","en-US,en;q=0.9","6729f8c001f004ff58eb68b8","687a1a965b9f5b85a264363e","689317748e78716d827ae0ff","1","6729f8c001f004ff58eb68b8","1","2025-08-06T09:06:19.962Z","","","","AttribQ","","","","","","","","","","","50","","","","","","","","","","","","","","","","","","","","","","","","","","",""
"3232","","<div style=""width:500px;"">
  <p>How much control did you have over the ball?</p>
  </div>","59","html-slider-response","50","808010","0.0-7.0-2.7","137","1","2025-08-06 08:52:49","36c45c0696341be0efffe67d72a12abb","41.150.220.31","Mozilla/5.0 (Windows NT 10.0; Win64; x64) AppleWebKit/537.36 (KHTML, like Gecko) Chrome/138.0.0.0 Safari/537.36","WebKit","Chrome","138.0.0.0","Windows","10.0","https://app.prolific.com/","en-US,en;q=0.9","6729f8c001f004ff58eb68b8","687a1a965b9f5b85a264363e","689317748e78716d827ae0ff","1","6729f8c001f004ff58eb68b8","1","2025-08-06T09:06:23.198Z","","","","ControlQ","","","","","","","","","","","50","","","","","","","","","","","","","","","","","","","","","","","","","","",""
"3363","","<div style=""width:500px;"">
  <p>How would you describe your current emotional state?</p>
  </div>","43","html-slider-response","51","811374","0.0-7.0-3.7","137","1","2025-08-06 08:52:49","36c45c0696341be0efffe67d72a12abb","41.150.220.31","Mozilla/5.0 (Windows NT 10.0; Win64; x64) AppleWebKit/537.36 (KHTML, like Gecko) Chrome/138.0.0.0 Safari/537.36","WebKit","Chrome","138.0.0.0","Windows","10.0","https://app.prolific.com/","en-US,en;q=0.9","6729f8c001f004ff58eb68b8","687a1a965b9f5b85a264363e","689317748e78716d827ae0ff","1","6729f8c001f004ff58eb68b8","1","2025-08-06T09:06:26.562Z","","","","StressQ","","","","","","","","","","","50","","","","","","","","","","","","","","","","","","","","","","","","","","",""
"51339","","<div style=""width:500px;"">
  <p>What best describes how you currently feel?</p>
  </div>","57","html-slider-response","52","862716","0.0-7.0-4.7","137","1","2025-08-06 08:52:49","36c45c0696341be0efffe67d72a12abb","41.150.220.31","Mozilla/5.0 (Windows NT 10.0; Win64; x64) AppleWebKit/537.36 (KHTML, like Gecko) Chrome/138.0.0.0 Safari/537.36","WebKit","Chrome","138.0.0.0","Windows","10.0","https://app.prolific.com/","en-US,en;q=0.9","6729f8c001f004ff58eb68b8","687a1a965b9f5b85a264363e","689317748e78716d827ae0ff","1","6729f8c001f004ff58eb68b8","1","2025-08-06T09:07:17.904Z","","","","MotivationQ","","","","","","","","","","","50","","","","","","","","","","","","","","","","","","","","","","","","","","",""
"","","","","ctl-task-cpt","53","909875","0.0-7.0-0.8","137","1","2025-08-06 08:52:49","36c45c0696341be0efffe67d72a12abb","41.150.220.31","Mozilla/5.0 (Windows NT 10.0; Win64; x64) AppleWebKit/537.36 (KHTML, like Gecko) Chrome/138.0.0.0 Safari/537.36","WebKit","Chrome","138.0.0.0","Windows","10.0","https://app.prolific.com/","en-US,en;q=0.9","6729f8c001f004ff58eb68b8","687a1a965b9f5b85a264363e","689317748e78716d827ae0ff","1","6729f8c001f004ff58eb68b8","1","2025-08-06T09:08:05.063Z","","","","","","","","","","","","","","","","win-only","3","g1:SW,g2:NE","0.4","9","0","872103.9","1082.9","6085.2","44137.2","1","4","8","6","2","-8","-8","1","9","0.007575757575757576","1144.6","3000","-2145","[""up"",""right""]","{""num_key_presses"":9,""num_perfect"":4,""num_errors"":0,""num_randdir"":5,""num_randdir_good_moves"":1,""num_whilered"":0,""num_whileblue"":0,""num_blue"":3,""num_good_moves"":5}","[292.22232142857143,293.12857142857143,0.7,292.22232142857143,293.12857142857143,110.6,292.22232142857143,293.12857142857143,218.2,292.22232142857143,293.12857142857143,318.6,290.22232142857143,296.12857142857143,420.2,293.22232142857143,297.12857142857143,522.8,409.22232142857143,186.12857142857143,624.2,468.22232142857143,125.12857142857143,724.3,484.22232142857143,104.12857142857143,825.4,497.22232142857143,94.12857142857143,929.8,532.2223214285714,55.128571428571426,1035,542.2223214285714,45.128571428571426,1138.3,542.2223214285714,45.128571428571426,1244.5,542.2223214285714,45.128571428571426,1349.5,541.2223214285714,84.12857142857143,1453,678.2223214285714,482.12857142857143,1558.9,786.2223214285714,599.1285714285714,1660.3,786.2223214285714,599.1285714285714,1764.8,786.2223214285714,599.1285714285714,1864.8,786.2223214285714,599.1285714285714,1970.1,786.2223214285714,599.1285714285714,2073.3,786.2223214285714,599.1285714285714,2173.4,786.2223214285714,599.1285714285714,2280.2,786.2223214285714,599.1285714285714,2385.8,786.2223214285714,599.1285714285714,2489,786.2223214285714,599.1285714285714,2594.9,786.2223214285714,599.1285714285714,2699.3,786.2223214285714,599.1285714285714,2801,786.2223214285714,599.1285714285714,2903.3,786.2223214285714,599.1285714285714,3005.1,786.2223214285714,599.1285714285714,3110.7,786.2223214285714,599.1285714285714,3213.9,786.2223214285714,599.1285714285714,3317.3,786.2223214285714,599.1285714285714,3420.1,786.2223214285714,599.1285714285714,3523,786.2223214285714,599.1285714285714,3629.3,786.2223214285714,599.1285714285714,3734.9,786.2223214285714,599.1285714285714,3835.1,786.2223214285714,599.1285714285714,3938.3,786.2223214285714,599.1285714285714,4038.8,786.2223214285714,599.1285714285714,4139.2,786.2223214285714,599.1285714285714,4242.6,786.2223214285714,599.1285714285714,4343.9,786.2223214285714,599.1285714285714,4444.4,786.2223214285714,599.1285714285714,4548.9,786.2223214285714,599.1285714285714,4654.6,786.2223214285714,599.1285714285714,4769.9,786.2223214285714,599.1285714285714,4882.3,786.2223214285714,599.1285714285714,4984.5]","[1632.1,1632.1,1000,0,632.1,""smooth"",""right"",""right"",""good_move"",3929.9,2296.8,1875.6,1633.1,421.2,""smooth"",""up"",""up"",""good_move"",6081.4,2150.2,1735.3,3931.2,414.9,""smooth"",""right"",""right"",""good_move"",9392.1,3309.6,2928.6,6082.5,381,""oops"",""up"",""left"",""bad_move"",12374.5,2977.4,2593.8,9397.1,383.6,""oops"",""right"",""down"",""bad_move"",16048.3,3666.6,3298.3,12381.7,368.3,""smooth"",""up"",""up"",""good_move"",19180.9,3131.1,2742.5,16049.8,388.6,""oops"",""up"",""up"",""good_move"",32779.1,13596.8,3067.2,29168.7,543.2,""oops"",""right"",""down"",""bad_move"",35417.8,2637.8,1992,32780,645.9,""oops"",""right"",""left"",""bad_move""]"
"6586","","<div style=""width:500px;"">
  <p>What determined the result of this run?</p>
  </div>","71","html-slider-response","54","916464","0.0-7.0-1.8","137","1","2025-08-06 08:52:49","36c45c0696341be0efffe67d72a12abb","41.150.220.31","Mozilla/5.0 (Windows NT 10.0; Win64; x64) AppleWebKit/537.36 (KHTML, like Gecko) Chrome/138.0.0.0 Safari/537.36","WebKit","Chrome","138.0.0.0","Windows","10.0","https://app.prolific.com/","en-US,en;q=0.9","6729f8c001f004ff58eb68b8","687a1a965b9f5b85a264363e","689317748e78716d827ae0ff","1","6729f8c001f004ff58eb68b8","1","2025-08-06T09:08:11.653Z","","","","AttribQ","","","","","","","","","","","50","","","","","","","","","","","","","","","","","","","","","","","","","","",""
"3480","","<div style=""width:500px;"">
  <p>How much control did you have over the ball?</p>
  </div>","17","html-slider-response","55","919946","0.0-7.0-2.8","137","1","2025-08-06 08:52:49","36c45c0696341be0efffe67d72a12abb","41.150.220.31","Mozilla/5.0 (Windows NT 10.0; Win64; x64) AppleWebKit/537.36 (KHTML, like Gecko) Chrome/138.0.0.0 Safari/537.36","WebKit","Chrome","138.0.0.0","Windows","10.0","https://app.prolific.com/","en-US,en;q=0.9","6729f8c001f004ff58eb68b8","687a1a965b9f5b85a264363e","689317748e78716d827ae0ff","1","6729f8c001f004ff58eb68b8","1","2025-08-06T09:08:15.134Z","","","","ControlQ","","","","","","","","","","","50","","","","","","","","","","","","","","","","","","","","","","","","","","",""
"3383","","<div style=""width:500px;"">
  <p>How would you describe your current emotional state?</p>
  </div>","91","html-slider-response","56","923331","0.0-7.0-3.8","137","1","2025-08-06 08:52:49","36c45c0696341be0efffe67d72a12abb","41.150.220.31","Mozilla/5.0 (Windows NT 10.0; Win64; x64) AppleWebKit/537.36 (KHTML, like Gecko) Chrome/138.0.0.0 Safari/537.36","WebKit","Chrome","138.0.0.0","Windows","10.0","https://app.prolific.com/","en-US,en;q=0.9","6729f8c001f004ff58eb68b8","687a1a965b9f5b85a264363e","689317748e78716d827ae0ff","1","6729f8c001f004ff58eb68b8","1","2025-08-06T09:08:18.519Z","","","","StressQ","","","","","","","","","","","50","","","","","","","","","","","","","","","","","","","","","","","","","","",""
"2613","","<div style=""width:500px;"">
  <p>What best describes how you currently feel?</p>
  </div>","11","html-slider-response","57","925946","0.0-7.0-4.8","137","1","2025-08-06 08:52:49","36c45c0696341be0efffe67d72a12abb","41.150.220.31","Mozilla/5.0 (Windows NT 10.0; Win64; x64) AppleWebKit/537.36 (KHTML, like Gecko) Chrome/138.0.0.0 Safari/537.36","WebKit","Chrome","138.0.0.0","Windows","10.0","https://app.prolific.com/","en-US,en;q=0.9","6729f8c001f004ff58eb68b8","687a1a965b9f5b85a264363e","689317748e78716d827ae0ff","1","6729f8c001f004ff58eb68b8","1","2025-08-06T09:08:21.134Z","","","","MotivationQ","","","","","","","","","","","50","","","","","","","","","","","","","","","","","","","","","","","","","","",""
"","","","","ctl-task-cpt","58","987334","0.0-7.0-0.9","137","1","2025-08-06 08:52:49","36c45c0696341be0efffe67d72a12abb","41.150.220.31","Mozilla/5.0 (Windows NT 10.0; Win64; x64) AppleWebKit/537.36 (KHTML, like Gecko) Chrome/138.0.0.0 Safari/537.36","WebKit","Chrome","138.0.0.0","Windows","10.0","https://app.prolific.com/","en-US,en;q=0.9","6729f8c001f004ff58eb68b8","687a1a965b9f5b85a264363e","689317748e78716d827ae0ff","1","6729f8c001f004ff58eb68b8","1","2025-08-06T09:09:22.522Z","","","","","","","","","","","","","","","","win-only","0","g1:NW,g2:SE","0.5","10","0","935332.7","1006","6016.8","58355.6","1","4","4","6","2","-4","-5","0","1","0","1022.3","3000","-2000","[""down"",""right""]","{""num_key_presses"":12,""num_perfect"":5,""num_errors"":1,""num_randdir"":6,""num_randdir_good_moves"":1,""num_whilered"":0,""num_whileblue"":1,""num_blue"":6,""num_good_moves"":6}","[293.22232142857143,296.12857142857143,0.5,293.22232142857143,296.12857142857143,105.4,293.22232142857143,296.12857142857143,218.5,293.22232142857143,297.12857142857143,323,289.22232142857143,298.12857142857143,428.5,404.22232142857143,403.12857142857143,534.6,544.2223214285714,498.12857142857143,642.4,570.2223214285714,517.1285714285714,743.6,551.2223214285714,527.1285714285714,861.6,547.2223214285714,527.1285714285714,971.8,547.2223214285714,527.1285714285714,1077.1,547.2223214285714,527.1285714285714,1178.9,546.2223214285714,527.1285714285714,1280.2,546.2223214285714,527.1285714285714,1381.5,545.2223214285714,526.1285714285714,1483.1,533.2223214285714,519.1285714285714,1591.4,516.2223214285714,506.12857142857143,1698.5,512.2223214285714,472.12857142857143,1798.8,572.2223214285714,439.12857142857143,1900.6,650.2223214285714,432.12857142857143,2021,685.2223214285714,434.12857142857143,2126.7,716.2223214285714,438.12857142857143,2231.3,717.2223214285714,438.12857142857143,2335.8,717.2223214285714,438.12857142857143,2438.8,717.2223214285714,438.12857142857143,2554.7,717.2223214285714,438.12857142857143,2657.1,717.2223214285714,438.12857142857143,2758.8,717.2223214285714,438.12857142857143,2865.9,717.2223214285714,438.12857142857143,2966.5,717.2223214285714,438.12857142857143,3071.6,717.2223214285714,438.12857142857143,3177.9,717.2223214285714,438.12857142857143,3288.5,717.2223214285714,438.12857142857143,3389.6,717.2223214285714,438.12857142857143,3491.3,717.2223214285714,438.12857142857143,3606.8,717.2223214285714,438.12857142857143,3722.3,717.2223214285714,438.12857142857143,3822.7,717.2223214285714,438.12857142857143,3923.4,717.2223214285714,438.12857142857143,4028.1,717.2223214285714,438.12857142857143,4132.7,717.2223214285714,438.12857142857143,4238,717.2223214285714,438.12857142857143,4357.9,717.2223214285714,438.12857142857143,4461.1,717.2223214285714,438.12857142857143,4561.9,717.2223214285714,438.12857142857143,4673.7,717.2223214285714,438.12857142857143,4778.7,717.2223214285714,438.12857142857143,4880.6,717.2223214285714,438.12857142857143,4984.9]","[1452.3,1452.3,1000,0,452.3,""smooth"",""right"",""right"",""good_move"",4582.4,3128.4,2727.4,1454.1,401,""oops"",""down"",""left"",""bad_move"",6749.3,2165,1708.5,4584.3,456.5,""smooth"",""down"",""down"",""good_move"",10201.1,3450.5,3053.3,6750.6,397.2,""smooth"",""right"",""right"",""good_move"",12966.9,2764,2417.1,10202.9,346.9,""smooth"",""down"",""down"",""good_move"",15894.7,2926.3,2566.9,12968.4,359.4,""while_blue"",""right"",""up"",""bad_move"",21776.1,5880.1,1820.7,19580,375.4,""oops"",""down"",""up"",""bad_move"",24531.5,2754.6,2320.1,21777,434.4,""smooth"",""down"",""down"",""good_move"",30502.5,5969.5,2076.2,28047.8,378.5,""oops"",""down"",""up"",""bad_move"",37137.6,6633.4,2643.6,34059.7,434.3,""oops"",""down"",""down"",""good_move"",39933.9,2795.4,2361.2,37138.5,434.2,""oops"",""right"",""left"",""bad_move"",42679,2743,2390.8,39936.1,352.2,""oops"",""right"",""left"",""bad_move""]"
"3808","","<div style=""width:500px;"">
  <p>What determined the result of this run?</p>
  </div>","63","html-slider-response","59","991143","0.0-7.0-1.9","137","1","2025-08-06 08:52:49","36c45c0696341be0efffe67d72a12abb","41.150.220.31","Mozilla/5.0 (Windows NT 10.0; Win64; x64) AppleWebKit/537.36 (KHTML, like Gecko) Chrome/138.0.0.0 Safari/537.36","WebKit","Chrome","138.0.0.0","Windows","10.0","https://app.prolific.com/","en-US,en;q=0.9","6729f8c001f004ff58eb68b8","687a1a965b9f5b85a264363e","689317748e78716d827ae0ff","1","6729f8c001f004ff58eb68b8","1","2025-08-06T09:09:26.331Z","","","","AttribQ","","","","","","","","","","","50","","","","","","","","","","","","","","","","","","","","","","","","","","",""
"3587","","<div style=""width:500px;"">
  <p>How much control did you have over the ball?</p>
  </div>","32","html-slider-response","60","994732","0.0-7.0-2.9","137","1","2025-08-06 08:52:49","36c45c0696341be0efffe67d72a12abb","41.150.220.31","Mozilla/5.0 (Windows NT 10.0; Win64; x64) AppleWebKit/537.36 (KHTML, like Gecko) Chrome/138.0.0.0 Safari/537.36","WebKit","Chrome","138.0.0.0","Windows","10.0","https://app.prolific.com/","en-US,en;q=0.9","6729f8c001f004ff58eb68b8","687a1a965b9f5b85a264363e","689317748e78716d827ae0ff","1","6729f8c001f004ff58eb68b8","1","2025-08-06T09:09:29.920Z","","","","ControlQ","","","","","","","","","","","50","","","","","","","","","","","","","","","","","","","","","","","","","","",""
"2610","","<div style=""width:500px;"">
  <p>How would you describe your current emotional state?</p>
  </div>","94","html-slider-response","61","997344","0.0-7.0-3.9","137","1","2025-08-06 08:52:49","36c45c0696341be0efffe67d72a12abb","41.150.220.31","Mozilla/5.0 (Windows NT 10.0; Win64; x64) AppleWebKit/537.36 (KHTML, like Gecko) Chrome/138.0.0.0 Safari/537.36","WebKit","Chrome","138.0.0.0","Windows","10.0","https://app.prolific.com/","en-US,en;q=0.9","6729f8c001f004ff58eb68b8","687a1a965b9f5b85a264363e","689317748e78716d827ae0ff","1","6729f8c001f004ff58eb68b8","1","2025-08-06T09:09:32.532Z","","","","StressQ","","","","","","","","","","","50","","","","","","","","","","","","","","","","","","","","","","","","","","",""
"2499","","<div style=""width:500px;"">
  <p>What best describes how you currently feel?</p>
  </div>","15","html-slider-response","62","999845","0.0-7.0-4.9","137","1","2025-08-06 08:52:49","36c45c0696341be0efffe67d72a12abb","41.150.220.31","Mozilla/5.0 (Windows NT 10.0; Win64; x64) AppleWebKit/537.36 (KHTML, like Gecko) Chrome/138.0.0.0 Safari/537.36","WebKit","Chrome","138.0.0.0","Windows","10.0","https://app.prolific.com/","en-US,en;q=0.9","6729f8c001f004ff58eb68b8","687a1a965b9f5b85a264363e","689317748e78716d827ae0ff","1","6729f8c001f004ff58eb68b8","1","2025-08-06T09:09:35.033Z","","","","MotivationQ","","","","","","","","","","","50","","","","","","","","","","","","","","","","","","","","","","","","","","",""
"","","","","ctl-task-cpt","63","1035292","0.0-7.0-0.10","137","1","2025-08-06 08:52:49","36c45c0696341be0efffe67d72a12abb","41.150.220.31","Mozilla/5.0 (Windows NT 10.0; Win64; x64) AppleWebKit/537.36 (KHTML, like Gecko) Chrome/138.0.0.0 Safari/537.36","WebKit","Chrome","138.0.0.0","Windows","10.0","https://app.prolific.com/","en-US,en;q=0.9","6729f8c001f004ff58eb68b8","687a1a965b9f5b85a264363e","689317748e78716d827ae0ff","1","6729f8c001f004ff58eb68b8","1","2025-08-06T09:10:10.480Z","","","","","","","","","","","","","","","","win-only","2","g1:SE,g2:NW","0.6","11","0","1009231.8","1144.4","6151.6","32416.9","1","4","8","6","1","1","1","1","0","0.007575757575757576","1051.6","3000","1400","[""down"",""right""]","{""num_key_presses"":8,""num_perfect"":5,""num_errors"":0,""num_randdir"":3,""num_randdir_good_moves"":1,""num_whilered"":0,""num_whileblue"":0,""num_blue"":1,""num_good_moves"":6}","[299.22232142857143,290.12857142857143,0.9,299.22232142857143,290.12857142857143,103.4,299.22232142857143,290.12857142857143,204.4,299.22232142857143,290.12857142857143,309.1,296.22232142857143,290.12857142857143,426.9,346.22232142857143,369.12857142857143,534.7,453.22232142857143,487.12857142857143,635.4,481.22232142857143,518.1285714285714,741.6,496.22232142857143,529.1285714285714,847.9,530.2223214285714,547.1285714285714,949.7,531.2223214285714,548.1285714285714,1060.6,531.2223214285714,548.1285714285714,1167.6,531.2223214285714,548.1285714285714,1268.4,523.2223214285714,541.1285714285714,1388.1,374.22232142857143,506.12857142857143,1492,138.22232142857143,438.12857142857143,1594.7,75.22232142857143,423.12857142857143,1712.1,73.22232142857143,423.12857142857143,1818.4,73.22232142857143,423.12857142857143,1919.8,73.22232142857143,423.12857142857143,2034,73.22232142857143,423.12857142857143,2140.3,73.22232142857143,423.12857142857143,2243.1,73.22232142857143,423.12857142857143,2344,73.22232142857143,423.12857142857143,2452.7,73.22232142857143,423.12857142857143,2557.8,73.22232142857143,423.12857142857143,2660.3,73.22232142857143,423.12857142857143,2763.6,73.22232142857143,423.12857142857143,2867.6,73.22232142857143,423.12857142857143,2977.5,73.22232142857143,423.12857142857143,3078.1,73.22232142857143,423.12857142857143,3182,73.22232142857143,423.12857142857143,3289.3,73.22232142857143,423.12857142857143,3391.6,73.22232142857143,423.12857142857143,3494.9,73.22232142857143,423.12857142857143,3602.9,73.22232142857143,423.12857142857143,3704.8,73.22232142857143,423.12857142857143,3809.6,73.22232142857143,423.12857142857143,3912.6,73.22232142857143,423.12857142857143,4027.3,73.22232142857143,423.12857142857143,4127.7,73.22232142857143,423.12857142857143,4231.1,73.22232142857143,423.12857142857143,4337.3,73.22232142857143,423.12857142857143,4437.7,73.22232142857143,423.12857142857143,4540.6,73.22232142857143,423.12857142857143,4644.5,73.22232142857143,423.12857142857143,4750.2,73.22232142857143,423.12857142857143,4852.9,73.22232142857143,423.12857142857143,4953.5]","[1495.7,1495.7,1000,0,495.7,""smooth"",""down"",""down"",""good_move"",4027.1,2530.1,2160.3,1497.1,369.7,""oops"",""right"",""up"",""bad_move"",7423.9,3394.9,2950.6,4029,444.3,""smooth"",""down"",""down"",""good_move"",10695.2,3269.9,2901.6,7425.3,368.3,""smooth"",""down"",""down"",""good_move"",13305.3,2608.8,2259.2,10696.6,349.5,""oops"",""right"",""right"",""good_move"",16493.8,3187.1,2804.2,13306.7,382.9,""oops"",""right"",""up"",""bad_move"",23091.6,6596.8,2774.4,19881.8,435.4,""smooth"",""right"",""right"",""good_move"",26128,3035.3,2527.7,23092.7,507.6,""smooth"",""down"",""down"",""good_move""]"
"4364","","<div style=""width:500px;"">
  <p>What determined the result of this run?</p>
  </div>","59","html-slider-response","64","1039659","0.0-7.0-1.10","137","1","2025-08-06 08:52:49","36c45c0696341be0efffe67d72a12abb","41.150.220.31","Mozilla/5.0 (Windows NT 10.0; Win64; x64) AppleWebKit/537.36 (KHTML, like Gecko) Chrome/138.0.0.0 Safari/537.36","WebKit","Chrome","138.0.0.0","Windows","10.0","https://app.prolific.com/","en-US,en;q=0.9","6729f8c001f004ff58eb68b8","687a1a965b9f5b85a264363e","689317748e78716d827ae0ff","1","6729f8c001f004ff58eb68b8","1","2025-08-06T09:10:14.847Z","","","","AttribQ","","","","","","","","","","","50","","","","","","","","","","","","","","","","","","","","","","","","","","",""
"2041","","<div style=""width:500px;"">
  <p>How much control did you have over the ball?</p>
  </div>","39","html-slider-response","65","1041702","0.0-7.0-2.10","137","1","2025-08-06 08:52:49","36c45c0696341be0efffe67d72a12abb","41.150.220.31","Mozilla/5.0 (Windows NT 10.0; Win64; x64) AppleWebKit/537.36 (KHTML, like Gecko) Chrome/138.0.0.0 Safari/537.36","WebKit","Chrome","138.0.0.0","Windows","10.0","https://app.prolific.com/","en-US,en;q=0.9","6729f8c001f004ff58eb68b8","687a1a965b9f5b85a264363e","689317748e78716d827ae0ff","1","6729f8c001f004ff58eb68b8","1","2025-08-06T09:10:16.890Z","","","","ControlQ","","","","","","","","","","","50","","","","","","","","","","","","","","","","","","","","","","","","","","",""
"2823","","<div style=""width:500px;"">
  <p>How would you describe your current emotional state?</p>
  </div>","63","html-slider-response","66","1044528","0.0-7.0-3.10","137","1","2025-08-06 08:52:49","36c45c0696341be0efffe67d72a12abb","41.150.220.31","Mozilla/5.0 (Windows NT 10.0; Win64; x64) AppleWebKit/537.36 (KHTML, like Gecko) Chrome/138.0.0.0 Safari/537.36","WebKit","Chrome","138.0.0.0","Windows","10.0","https://app.prolific.com/","en-US,en;q=0.9","6729f8c001f004ff58eb68b8","687a1a965b9f5b85a264363e","689317748e78716d827ae0ff","1","6729f8c001f004ff58eb68b8","1","2025-08-06T09:10:19.716Z","","","","StressQ","","","","","","","","","","","50","","","","","","","","","","","","","","","","","","","","","","","","","","",""
"1764","","<div style=""width:500px;"">
  <p>What best describes how you currently feel?</p>
  </div>","31","html-slider-response","67","1046294","0.0-7.0-4.10","137","1","2025-08-06 08:52:49","36c45c0696341be0efffe67d72a12abb","41.150.220.31","Mozilla/5.0 (Windows NT 10.0; Win64; x64) AppleWebKit/537.36 (KHTML, like Gecko) Chrome/138.0.0.0 Safari/537.36","WebKit","Chrome","138.0.0.0","Windows","10.0","https://app.prolific.com/","en-US,en;q=0.9","6729f8c001f004ff58eb68b8","687a1a965b9f5b85a264363e","689317748e78716d827ae0ff","1","6729f8c001f004ff58eb68b8","1","2025-08-06T09:10:21.482Z","","","","MotivationQ","","","","","","","","","","","50","","","","","","","","","","","","","","","","","","","","","","","","","","",""
"","","","","ctl-task-cpt","68","1089889","0.0-7.0-0.11","137","1","2025-08-06 08:52:49","36c45c0696341be0efffe67d72a12abb","41.150.220.31","Mozilla/5.0 (Windows NT 10.0; Win64; x64) AppleWebKit/537.36 (KHTML, like Gecko) Chrome/138.0.0.0 Safari/537.36","WebKit","Chrome","138.0.0.0","Windows","10.0","https://app.prolific.com/","en-US,en;q=0.9","6729f8c001f004ff58eb68b8","687a1a965b9f5b85a264363e","689317748e78716d827ae0ff","1","6729f8c001f004ff58eb68b8","1","2025-08-06T09:11:05.077Z","","","","","","","","","","","","","","","","win-only","1","g1:NE,g2:SW","0.7","12","0","1055680.4","1069.4","6080","40516.2","1","4","4","6","2","4","3","4","1","0.030303030303030304","2168","3000","2630","[""down"",""left""]","{""num_key_presses"":7,""num_perfect"":4,""num_errors"":1,""num_randdir"":2,""num_randdir_good_moves"":2,""num_whilered"":0,""num_whileblue"":0,""num_blue"":1,""num_good_moves"":6}","[302.22232142857143,296.12857142857143,0.8,302.22232142857143,296.12857142857143,107.1,302.22232142857143,296.12857142857143,214.2,302.22232142857143,296.12857142857143,318.5,302.22232142857143,296.12857142857143,418.7,297.22232142857143,298.12857142857143,524.6,270.22232142857143,332.12857142857143,633.9,256.22232142857143,344.12857142857143,742.2,242.22232142857143,352.12857142857143,843,325.22232142857143,226.12857142857143,960.1,425.22232142857143,141.12857142857143,1073.4,476.22232142857143,105.12857142857143,1184.3,488.22232142857143,94.12857142857143,1287.5,512.2223214285714,80.12857142857143,1401.6,482.22232142857143,104.12857142857143,1510.7,304.22232142857143,302.12857142857143,1613,156.22232142857143,455.12857142857143,1722.1,109.22232142857143,505.12857142857143,1837.6,76.22232142857143,529.1285714285714,1939.6,70.22232142857143,532.1285714285714,2040.8,68.22232142857143,533.1285714285714,2150.1,68.22232142857143,534.1285714285714,2251.9,68.22232142857143,534.1285714285714,2359.3,101.22232142857143,523.1285714285714,2465.3,343.22232142857143,521.1285714285714,2570.3,629.2223214285714,556.1285714285714,2680.2,709.2223214285714,587.1285714285714,2797.4,749.2223214285714,602.1285714285714,2910.2,747.2223214285714,602.1285714285714,3014.1,743.2223214285714,616.1285714285714,3126.4,744.2223214285714,609.1285714285714,3232.7,743.2223214285714,613.1285714285714,3335.8,733.2223214285714,619.1285714285714,3436.2,727.2223214285714,623.1285714285714,3545.2,720.2223214285714,626.1285714285714,3649.4,704.2223214285714,637.1285714285714,3761.5,694.2223214285714,639.1285714285714,3876.1,695.2223214285714,638.1285714285714,3977,698.2223214285714,628.1285714285714,4079.8,696.2223214285714,630.1285714285714,4185.5,696.2223214285714,634.1285714285714,4292.1,697.2223214285714,631.1285714285714,4404.2,696.2223214285714,639.1285714285714,4510,699.2223214285714,639.1285714285714,4611.5,699.2223214285714,640.1285714285714,4722.3,699.2223214285714,641.1285714285714,4844.6,699.2223214285714,642.1285714285714,4945.9]","[1467.3,1467.3,1000,0,467.3,""smooth"",""down"",""down"",""good_move"",4384.2,2915.1,2533.5,1469.1,381.6,""smooth"",""left"",""left"",""good_move"",14952.2,10566.8,2585.1,11919.4,447.8,""smooth"",""down"",""down"",""good_move"",18203,3249.9,2766.2,14953.1,483.7,""smooth"",""left"",""left"",""good_move"",25801.1,7597.1,2071.2,18204.1,5525.8,""oops"",""down"",""left"",""good_move"",33501.1,7698.8,1607.2,25802.3,6091.6,""oops"",""down"",""down"",""good_move"",33552.1,50.4,2395.3,33501.8,-2345,""error"",""-"",""-"",""no_move""]"
"3970","","<div style=""width:500px;"">
  <p>What determined the result of this run?</p>
  </div>","60","html-slider-response","69","1093865","0.0-7.0-1.11","137","1","2025-08-06 08:52:49","36c45c0696341be0efffe67d72a12abb","41.150.220.31","Mozilla/5.0 (Windows NT 10.0; Win64; x64) AppleWebKit/537.36 (KHTML, like Gecko) Chrome/138.0.0.0 Safari/537.36","WebKit","Chrome","138.0.0.0","Windows","10.0","https://app.prolific.com/","en-US,en;q=0.9","6729f8c001f004ff58eb68b8","687a1a965b9f5b85a264363e","689317748e78716d827ae0ff","1","6729f8c001f004ff58eb68b8","1","2025-08-06T09:11:09.053Z","","","","AttribQ","","","","","","","","","","","50","","","","","","","","","","","","","","","","","","","","","","","","","","",""
"3138","","<div style=""width:500px;"">
  <p>How much control did you have over the ball?</p>
  </div>","11","html-slider-response","70","1097009","0.0-7.0-2.11","137","1","2025-08-06 08:52:49","36c45c0696341be0efffe67d72a12abb","41.150.220.31","Mozilla/5.0 (Windows NT 10.0; Win64; x64) AppleWebKit/537.36 (KHTML, like Gecko) Chrome/138.0.0.0 Safari/537.36","WebKit","Chrome","138.0.0.0","Windows","10.0","https://app.prolific.com/","en-US,en;q=0.9","6729f8c001f004ff58eb68b8","687a1a965b9f5b85a264363e","689317748e78716d827ae0ff","1","6729f8c001f004ff58eb68b8","1","2025-08-06T09:11:12.197Z","","","","ControlQ","","","","","","","","","","","50","","","","","","","","","","","","","","","","","","","","","","","","","","",""
"2249","","<div style=""width:500px;"">
  <p>How would you describe your current emotional state?</p>
  </div>","62","html-slider-response","71","1099265","0.0-7.0-3.11","137","1","2025-08-06 08:52:49","36c45c0696341be0efffe67d72a12abb","41.150.220.31","Mozilla/5.0 (Windows NT 10.0; Win64; x64) AppleWebKit/537.36 (KHTML, like Gecko) Chrome/138.0.0.0 Safari/537.36","WebKit","Chrome","138.0.0.0","Windows","10.0","https://app.prolific.com/","en-US,en;q=0.9","6729f8c001f004ff58eb68b8","687a1a965b9f5b85a264363e","689317748e78716d827ae0ff","1","6729f8c001f004ff58eb68b8","1","2025-08-06T09:11:14.453Z","","","","StressQ","","","","","","","","","","","50","","","","","","","","","","","","","","","","","","","","","","","","","","",""
"1997","","<div style=""width:500px;"">
  <p>What best describes how you currently feel?</p>
  </div>","34","html-slider-response","72","1101269","0.0-7.0-4.11","137","1","2025-08-06 08:52:49","36c45c0696341be0efffe67d72a12abb","41.150.220.31","Mozilla/5.0 (Windows NT 10.0; Win64; x64) AppleWebKit/537.36 (KHTML, like Gecko) Chrome/138.0.0.0 Safari/537.36","WebKit","Chrome","138.0.0.0","Windows","10.0","https://app.prolific.com/","en-US,en;q=0.9","6729f8c001f004ff58eb68b8","687a1a965b9f5b85a264363e","689317748e78716d827ae0ff","1","6729f8c001f004ff58eb68b8","1","2025-08-06T09:11:16.457Z","","","","MotivationQ","","","","","","","","","","","50","","","","","","","","","","","","","","","","","","","","","","","","","","",""
"","","","","ctl-task-cpt","73","1160116","0.0-7.0-0.12","137","1","2025-08-06 08:52:49","36c45c0696341be0efffe67d72a12abb","41.150.220.31","Mozilla/5.0 (Windows NT 10.0; Win64; x64) AppleWebKit/537.36 (KHTML, like Gecko) Chrome/138.0.0.0 Safari/537.36","WebKit","Chrome","138.0.0.0","Windows","10.0","https://app.prolific.com/","en-US,en;q=0.9","6729f8c001f004ff58eb68b8","687a1a965b9f5b85a264363e","689317748e78716d827ae0ff","1","6729f8c001f004ff58eb68b8","1","2025-08-06T09:12:15.304Z","","","","","","","","","","","","","","","","win-only","1","g1:NE,g2:SW","0.8","13","0","1110659.2","1380.2","6422.6","55742","1","4","8","6","2","8","8","12","4","0.09090909090909091","1148","3000","2770","[""down"",""left""]","{""num_key_presses"":7,""num_perfect"":6,""num_errors"":0,""num_randdir"":1,""num_randdir_good_moves"":1,""num_whilered"":0,""num_whileblue"":0,""num_blue"":0,""num_good_moves"":7}","[297.22232142857143,295.12857142857143,0.9,297.22232142857143,295.12857142857143,129.8,297.22232142857143,295.12857142857143,259.5,297.22232142857143,295.12857142857143,391.6,252.22232142857143,327.12857142857143,537.5,145.22232142857143,460.12857142857143,687.2,81.22232142857143,490.12857142857143,840.7,58.222321428571426,503.12857142857143,986.7,52.222321428571426,525.1285714285714,1126.1,52.222321428571426,526.1285714285714,1272.3,52.222321428571426,526.1285714285714,1417.8,126.22232142857143,490.12857142857143,1570.2,884.2223214285714,543.1285714285714,1726.7,941.2223214285714,548.1285714285714,1920.9,941.2223214285714,548.1285714285714,2053.3,941.2223214285714,548.1285714285714,2198.5,941.2223214285714,548.1285714285714,2330.9,941.2223214285714,548.1285714285714,2465.1,941.2223214285714,548.1285714285714,2596.6,941.2223214285714,548.1285714285714,2732.6,941.2223214285714,548.1285714285714,2866.6,941.2223214285714,548.1285714285714,3001.4,941.2223214285714,548.1285714285714,3138.5,941.2223214285714,548.1285714285714,3275.4,941.2223214285714,548.1285714285714,3412.3,941.2223214285714,548.1285714285714,3545.8,941.2223214285714,548.1285714285714,3678.5,941.2223214285714,548.1285714285714,3815.7,941.2223214285714,548.1285714285714,3951.3,941.2223214285714,548.1285714285714,4088.1,941.2223214285714,548.1285714285714,4225.1,941.2223214285714,548.1285714285714,4361.5,941.2223214285714,548.1285714285714,4497.2,941.2223214285714,548.1285714285714,4633.1,941.2223214285714,548.1285714285714,4767.5,941.2223214285714,548.1285714285714,4902.4]","[1464.8,1464.8,1000,0,464.8,""smooth"",""down"",""down"",""good_move"",4388.9,2923.2,2355.5,1465.7,567.8,""smooth"",""left"",""left"",""good_move"",16901.1,12511.2,3334.3,4390,9176.8,""smooth"",""down"",""down"",""good_move"",19937.8,3036.1,2485.6,16901.7,550.5,""oops"",""left"",""left"",""good_move"",32974.9,13036.1,1900.9,19938.9,11135.1,""smooth"",""down"",""down"",""good_move"",35784.3,2808.7,2236.7,32975.6,572.1,""smooth"",""left"",""left"",""good_move"",49080.8,13294.8,2338,35786.1,10956.7,""smooth"",""down"",""down"",""good_move""]"
"3382","","<div style=""width:500px;"">
  <p>What determined the result of this run?</p>
  </div>","62","html-slider-response","74","1163505","0.0-7.0-1.12","137","1","2025-08-06 08:52:49","36c45c0696341be0efffe67d72a12abb","41.150.220.31","Mozilla/5.0 (Windows NT 10.0; Win64; x64) AppleWebKit/537.36 (KHTML, like Gecko) Chrome/138.0.0.0 Safari/537.36","WebKit","Chrome","138.0.0.0","Windows","10.0","https://app.prolific.com/","en-US,en;q=0.9","6729f8c001f004ff58eb68b8","687a1a965b9f5b85a264363e","689317748e78716d827ae0ff","1","6729f8c001f004ff58eb68b8","1","2025-08-06T09:12:18.693Z","","","","AttribQ","","","","","","","","","","","50","","","","","","","","","","","","","","","","","","","","","","","","","","",""
"2859","","<div style=""width:500px;"">
  <p>How much control did you have over the ball?</p>
  </div>","57","html-slider-response","75","1166371","0.0-7.0-2.12","137","1","2025-08-06 08:52:49","36c45c0696341be0efffe67d72a12abb","41.150.220.31","Mozilla/5.0 (Windows NT 10.0; Win64; x64) AppleWebKit/537.36 (KHTML, like Gecko) Chrome/138.0.0.0 Safari/537.36","WebKit","Chrome","138.0.0.0","Windows","10.0","https://app.prolific.com/","en-US,en;q=0.9","6729f8c001f004ff58eb68b8","687a1a965b9f5b85a264363e","689317748e78716d827ae0ff","1","6729f8c001f004ff58eb68b8","1","2025-08-06T09:12:21.559Z","","","","ControlQ","","","","","","","","","","","50","","","","","","","","","","","","","","","","","","","","","","","","","","",""
"2270","","<div style=""width:500px;"">
  <p>How would you describe your current emotional state?</p>
  </div>","24","html-slider-response","76","1168648","0.0-7.0-3.12","137","1","2025-08-06 08:52:49","36c45c0696341be0efffe67d72a12abb","41.150.220.31","Mozilla/5.0 (Windows NT 10.0; Win64; x64) AppleWebKit/537.36 (KHTML, like Gecko) Chrome/138.0.0.0 Safari/537.36","WebKit","Chrome","138.0.0.0","Windows","10.0","https://app.prolific.com/","en-US,en;q=0.9","6729f8c001f004ff58eb68b8","687a1a965b9f5b85a264363e","689317748e78716d827ae0ff","1","6729f8c001f004ff58eb68b8","1","2025-08-06T09:12:23.836Z","","","","StressQ","","","","","","","","","","","50","","","","","","","","","","","","","","","","","","","","","","","","","","",""
"2774","","<div style=""width:500px;"">
  <p>What best describes how you currently feel?</p>
  </div>","69","html-slider-response","77","1171428","0.0-7.0-4.12","137","1","2025-08-06 08:52:49","36c45c0696341be0efffe67d72a12abb","41.150.220.31","Mozilla/5.0 (Windows NT 10.0; Win64; x64) AppleWebKit/537.36 (KHTML, like Gecko) Chrome/138.0.0.0 Safari/537.36","WebKit","Chrome","138.0.0.0","Windows","10.0","https://app.prolific.com/","en-US,en;q=0.9","6729f8c001f004ff58eb68b8","687a1a965b9f5b85a264363e","689317748e78716d827ae0ff","1","6729f8c001f004ff58eb68b8","1","2025-08-06T09:12:26.616Z","","","","MotivationQ","","","","","","","","","","","50","","","","","","","","","","","","","","","","","","","","","","","","","","",""
