"rt","response_timestamp","stimulus","response","trial_type","trial_index","time_elapsed","internal_node_id","run_id","condition","recorded_at","source_code_version","ip","user_agent","device","browser","browser_version","platform","platform_version","referer","accept_language","PROLIFIC_PID","STUDY_ID","SESSION_ID","BATCH","prolific_id","batch","realtime","success","question_order","question_id","eventType","responses","item_order","radio_event_ids","radio_event_times","key_event_times","mouse_event_times","straightlining","zigzagging","honeypot","view_history","slider_start","which_type","canvas_config","goals_layout","control_level","trial_number","tutorial_trial_number","trial_start_time","phase1_start_time","phase2_start_time","phase3_start_time","goal_1_value","goal_1_distance","goal_2_value","goal_2_distance","goal_selected","outcome","outcome_total","participant_final_score","participant_initial_score","participant_final_score_prop","goal_choice_rt","allocated_time","allocated_time_remaining","goal_direction","counts","mouse_movements","key_presses"
"16797","1754470225699","<p style='font-size:40px;line-height:1.25'><strong>Welcome to the experiment!</strong></p><p style='font-size:1.1em;line-height:1.25'>Thank you for participanting in our experiment again! You will be asked to play the Dysfunctional Ball Game again. We will briefly recap the rules before we start.</p><p style='font-size:1.1em;line-height:1.25'>Press <strong>Next</strong> to continue.</p>","0","custom-html-button-response","0","16801","0.0-0.0","126","1","2025-08-06 08:50:16","36c45c0696341be0efffe67d72a12abb","216.120.189.142","Mozilla/5.0 (Windows NT 10.0; Win64; x64) AppleWebKit/537.36 (KHTML, like Gecko) Chrome/139.0.0.0 Safari/537.36","WebKit","Chrome","139.0.0.0","Windows","10.0","https://app.prolific.com/","en-US,en;q=0.9","672c8a3b9fb83ab9c5f02fd2","6877649eabb845cf142cd221","68931740f234574ab4e758b4","1","672c8a3b9fb83ab9c5f02fd2","1","2025-08-06T08:50:25.701Z","","","","","","","","","","","","","","","","","","","","","","","","","","","","","","","","","","","","","","","","","",""
"2300","","","","fullscreen","1","20106","0.0-1.0","126","1","2025-08-06 08:50:16","36c45c0696341be0efffe67d72a12abb","216.120.189.142","Mozilla/5.0 (Windows NT 10.0; Win64; x64) AppleWebKit/537.36 (KHTML, like Gecko) Chrome/139.0.0.0 Safari/537.36","WebKit","Chrome","139.0.0.0","Windows","10.0","https://app.prolific.com/","en-US,en;q=0.9","672c8a3b9fb83ab9c5f02fd2","6877649eabb845cf142cd221","68931740f234574ab4e758b4","1","672c8a3b9fb83ab9c5f02fd2","1","","true","","","","","","","","","","","","","","","","","","","","","","","","","","","","","","","","","","","","","","","","",""
"33883","1754470262891"," <p style='font-size:1.1em;line-height:1.25'>Thank you for closing all other tabs.</p><p style='font-size:1.1em;line-height:1.25'>We will now invite you to fill in some questionnaires, before starting the game.<br>This will take about 5 minutes.<br></p><p style='font-size:1.1em;line-height:1.25'>Press the <strong>Next</strong> button to continue.</p>","0","custom-html-button-response","2","53991","0.0-2.0","126","1","2025-08-06 08:50:16","36c45c0696341be0efffe67d72a12abb","216.120.189.142","Mozilla/5.0 (Windows NT 10.0; Win64; x64) AppleWebKit/537.36 (KHTML, like Gecko) Chrome/139.0.0.0 Safari/537.36","WebKit","Chrome","139.0.0.0","Windows","10.0","https://app.prolific.com/","en-US,en;q=0.9","672c8a3b9fb83ab9c5f02fd2","6877649eabb845cf142cd221","68931740f234574ab4e758b4","1","672c8a3b9fb83ab9c5f02fd2","1","2025-08-06T08:51:02.891Z","","","","","","","","","","","","","","","","","","","","","","","","","","","","","","","","","","","","","","","","","",""
"4560","","","{""assigned_sex"":""female""}","survey-multi-choice","3","58554","0.0-3.0-0.0","126","1","2025-08-06 08:50:16","36c45c0696341be0efffe67d72a12abb","216.120.189.142","Mozilla/5.0 (Windows NT 10.0; Win64; x64) AppleWebKit/537.36 (KHTML, like Gecko) Chrome/139.0.0.0 Safari/537.36","WebKit","Chrome","139.0.0.0","Windows","10.0","https://app.prolific.com/","en-US,en;q=0.9","672c8a3b9fb83ab9c5f02fd2","6877649eabb845cf142cd221","68931740f234574ab4e758b4","1","672c8a3b9fb83ab9c5f02fd2","1","","","[0]","0","demographics","","","","","","","","","","","","","","","","","","","","","","","","","","","","","","","","","","","","","",""
"5940","1754470273395","<p style='font-size:1.1em;line-height:1.25'>In the following, we will perform a baseline assessment. This means that we will ask you a few questions relating to your experiences over the past month.<br></p><p style='font-size:1.1em;line-height:1.25'>Press the <strong>Next</strong> button to continue.</p>","0","custom-html-button-response","4","64495","0.0-4.0-0.0","126","1","2025-08-06 08:50:16","36c45c0696341be0efffe67d72a12abb","216.120.189.142","Mozilla/5.0 (Windows NT 10.0; Win64; x64) AppleWebKit/537.36 (KHTML, like Gecko) Chrome/139.0.0.0 Safari/537.36","WebKit","Chrome","139.0.0.0","Windows","10.0","https://app.prolific.com/","en-US,en;q=0.9","672c8a3b9fb83ab9c5f02fd2","6877649eabb845cf142cd221","68931740f234574ab4e758b4","1","672c8a3b9fb83ab9c5f02fd2","1","2025-08-06T08:51:13.395Z","","","","","","","","","","","","","","","","","","","","","","","","","","","","","","","","","","","","","","","","","",""
"84264.40000009537","","","","survey-template","5","148764","0.0-4.0-1.0","126","1","2025-08-06 08:50:16","36c45c0696341be0efffe67d72a12abb","216.120.189.142","Mozilla/5.0 (Windows NT 10.0; Win64; x64) AppleWebKit/537.36 (KHTML, like Gecko) Chrome/139.0.0.0 Safari/537.36","WebKit","Chrome","139.0.0.0","Windows","10.0","https://app.prolific.com/","en-US,en;q=0.9","672c8a3b9fb83ab9c5f02fd2","6877649eabb845cf142cd221","68931740f234574ab4e758b4","1","672c8a3b9fb83ab9c5f02fd2","1","2025-08-06T08:52:37.664Z","","","","pss","{""Q01"":""2"",""Q02"":""1"",""Q03"":""2"",""Q04"":""1"",""Q05"":""1"",""Q06"":""1"",""Q07"":""1"",""Q08"":""1"",""Q09"":""2"",""Q10"":""0""}","[0,1,2,3,4,5,6,7,8,9]","[""Q01"",""Q02"",""Q03"",""Q04"",""Q05"",""Q06"",""Q07"",""Q07"",""Q08"",""Q09"",""Q10""]","[16437.800000190735,21985.5,27390.099999904633,32765.700000286102,41297.2000002861,47993.800000190735,56134.40000009537,58958.90000009537,69151.09999990463,75388.80000019073,81993.30000019073]","[]","[0.20000028610229492,16437.800000190735,21985.5,27390.099999904633,32765.700000286102,40261,41297.2000002861,47993.800000190735,56134.40000009537,58958.90000009537,67252.59999990463,69151.09999990463,75388.80000019073,81993.30000019073,84260.90000009537]","0.4","0.4444444444444444","0","","","","","","","","","","","","","","","","","","","","","","","","","","","","",""
"4978","1754470362643","<p style='font-size:1.1em;line-height:1.25'>Thank you for your answers! Now we will ask you a few more questions relating to your feelings in the last 24 hours.<br></p><p style='font-size:1.1em;line-height:1.25'>Press the <strong>Next</strong> button to continue.</p>","0","custom-html-button-response","6","153745","0.0-4.0-2.0","126","1","2025-08-06 08:50:16","36c45c0696341be0efffe67d72a12abb","216.120.189.142","Mozilla/5.0 (Windows NT 10.0; Win64; x64) AppleWebKit/537.36 (KHTML, like Gecko) Chrome/139.0.0.0 Safari/537.36","WebKit","Chrome","139.0.0.0","Windows","10.0","https://app.prolific.com/","en-US,en;q=0.9","672c8a3b9fb83ab9c5f02fd2","6877649eabb845cf142cd221","68931740f234574ab4e758b4","1","672c8a3b9fb83ab9c5f02fd2","1","2025-08-06T08:52:42.645Z","","","","","","","","","","","","","","","","","","","","","","","","","","","","","","","","","","","","","","","","","",""
"84759.2000002861","","","","survey-template","7","238512","0.0-4.0-3.0","126","1","2025-08-06 08:50:16","36c45c0696341be0efffe67d72a12abb","216.120.189.142","Mozilla/5.0 (Windows NT 10.0; Win64; x64) AppleWebKit/537.36 (KHTML, like Gecko) Chrome/139.0.0.0 Safari/537.36","WebKit","Chrome","139.0.0.0","Windows","10.0","https://app.prolific.com/","en-US,en;q=0.9","672c8a3b9fb83ab9c5f02fd2","6877649eabb845cf142cd221","68931740f234574ab4e758b4","1","672c8a3b9fb83ab9c5f02fd2","1","2025-08-06T08:54:07.412Z","","","","drsp","{""Q01"":""0"",""Q02"":""0"",""Q03"":""0"",""Q04"":""0"",""Q05"":""2"",""Q06"":""2"",""Q07"":""2"",""Q08"":""0"",""Q09"":""1"",""Q10"":""0"",""Q11"":""1"",""Q12"":""2"",""Q13"":""5"",""Q14"":""3"",""Q15"":""0"",""Q16"":""0"",""Q17"":""1"",""Q18"":""0"",""Q19"":""2"",""Q20"":""0"",""Q21"":""1"",""Q22"":""0""}","[0,1,2,3,4,5,6,7,8,9,10,11,12,13,14,15,16,17,18,19,20,21]","[""Q01"",""Q02"",""Q03"",""Q04"",""Q05"",""Q06"",""Q07"",""Q06"",""Q08"",""Q09"",""Q10"",""Q11"",""Q12"",""Q13"",""Q14"",""Q15"",""Q16"",""Q17"",""Q18"",""Q19"",""Q20"",""Q21"",""Q22""]","[6820,7788.900000095367,9369.300000190735,11397.700000286102,13222.5,18034,20971.400000095367,21962.300000190735,25316.5,28930.700000286102,30392.5,33200.5,36850.7000002861,40912.800000190735,45436.300000190735,48809.40000009537,52150.40000009537,55301.7000002861,57608.800000190735,63223.300000190735,67354.40000009537,71251.30000019073,75723]","[]","[0.20000028610229492,6820,7788.900000095367,9369.300000190735,11397.700000286102,13222.5,18034,20971.400000095367,21962.300000190735,25316.5,28930.700000286102,30392.5,33200.5,36850.7000002861,40912.800000190735,45436.300000190735,48809.40000009537,52150.40000009537,55301.7000002861,56664.90000009537,57608.800000190735,63223.300000190735,67354.40000009537,71251.30000019073,75723,84753]","0.5","0.38095238095238093","0","","","","","","","","","","","","","","","","","","","","","","","","","","","","",""
"13679.099999904633","","","","survey-template","8","252194","0.0-4.0-4.0","126","1","2025-08-06 08:50:16","36c45c0696341be0efffe67d72a12abb","216.120.189.142","Mozilla/5.0 (Windows NT 10.0; Win64; x64) AppleWebKit/537.36 (KHTML, like Gecko) Chrome/139.0.0.0 Safari/537.36","WebKit","Chrome","139.0.0.0","Windows","10.0","https://app.prolific.com/","en-US,en;q=0.9","672c8a3b9fb83ab9c5f02fd2","6877649eabb845cf142cd221","68931740f234574ab4e758b4","1","672c8a3b9fb83ab9c5f02fd2","1","2025-08-06T08:54:21.094Z","","","","stress","{""Q01"":""0"",""Q02"":""1"",""Q03"":""1""}","[0,1,2]","[""Q01"",""Q02"",""Q03""]","[6300.799999713898,7932.89999961853,12181.599999904633]","[]","[4205,6300.799999713898,7932.89999961853,12181.599999904633,13677]","0.3333333333333333","0","0","","","","","","","","","","","","","","","","","","","","","","","","","","","","",""
"5381","","","","instructions","9","257576","0.0-5.0-0.0","126","1","2025-08-06 08:50:16","36c45c0696341be0efffe67d72a12abb","216.120.189.142","Mozilla/5.0 (Windows NT 10.0; Win64; x64) AppleWebKit/537.36 (KHTML, like Gecko) Chrome/139.0.0.0 Safari/537.36","WebKit","Chrome","139.0.0.0","Windows","10.0","https://app.prolific.com/","en-US,en;q=0.9","672c8a3b9fb83ab9c5f02fd2","6877649eabb845cf142cd221","68931740f234574ab4e758b4","1","672c8a3b9fb83ab9c5f02fd2","1","","","","","","","","","","","","","","","[{""page_index"":0,""viewing_time"":5381}]","","","","","","","","","","","","","","","","","","","","","","","","","","","",""
"4021","","<p>Before you start with this game please answer the following three questions yourself. </p>
  <p>Through this game, we measure several aspects of your cognitive performance, such as reaction times, multi-tasking capabilities </p>
  <p>and the ability to assess the situation you are in.</p>
  <p></p>
  <p><b>How good do you usually are in such tasks?</b></p>","90","html-slider-response","10","261599","0.0-6.0-0.0","126","1","2025-08-06 08:50:16","36c45c0696341be0efffe67d72a12abb","216.120.189.142","Mozilla/5.0 (Windows NT 10.0; Win64; x64) AppleWebKit/537.36 (KHTML, like Gecko) Chrome/139.0.0.0 Safari/537.36","WebKit","Chrome","139.0.0.0","Windows","10.0","https://app.prolific.com/","en-US,en;q=0.9","672c8a3b9fb83ab9c5f02fd2","6877649eabb845cf142cd221","68931740f234574ab4e758b4","1","672c8a3b9fb83ab9c5f02fd2","1","2025-08-06T08:54:30.499Z","","","","PreSkillQ","","","","","","","","","","","50","","","","","","","","","","","","","","","","","","","","","","","","","","",""
"4502","","<div style=""width:500px;"">
  <p>How well do you think you will perform in this task compared to other participants?</p>
  </div>","100","html-slider-response","11","266103","0.0-6.0-1.0","126","1","2025-08-06 08:50:16","36c45c0696341be0efffe67d72a12abb","216.120.189.142","Mozilla/5.0 (Windows NT 10.0; Win64; x64) AppleWebKit/537.36 (KHTML, like Gecko) Chrome/139.0.0.0 Safari/537.36","WebKit","Chrome","139.0.0.0","Windows","10.0","https://app.prolific.com/","en-US,en;q=0.9","672c8a3b9fb83ab9c5f02fd2","6877649eabb845cf142cd221","68931740f234574ab4e758b4","1","672c8a3b9fb83ab9c5f02fd2","1","2025-08-06T08:54:35.003Z","","","","PrePerfQ","","","","","","","","","","","50","","","","","","","","","","","","","","","","","","","","","","","","","","",""
"3784","","<div style=""width:500px;"">
  <p>What best describes how you currently feel?</p>
  </div>","100","html-slider-response","12","269888","0.0-6.0-2.0","126","1","2025-08-06 08:50:16","36c45c0696341be0efffe67d72a12abb","216.120.189.142","Mozilla/5.0 (Windows NT 10.0; Win64; x64) AppleWebKit/537.36 (KHTML, like Gecko) Chrome/139.0.0.0 Safari/537.36","WebKit","Chrome","139.0.0.0","Windows","10.0","https://app.prolific.com/","en-US,en;q=0.9","672c8a3b9fb83ab9c5f02fd2","6877649eabb845cf142cd221","68931740f234574ab4e758b4","1","672c8a3b9fb83ab9c5f02fd2","1","2025-08-06T08:54:38.788Z","","","","PreMotivationQ","","","","","","","","","","","50","","","","","","","","","","","","","","","","","","","","","","","","","","",""
"","","","","ctl-task-cpt","13","303860","0.0-7.0-0.0","126","1","2025-08-06 08:50:16","36c45c0696341be0efffe67d72a12abb","216.120.189.142","Mozilla/5.0 (Windows NT 10.0; Win64; x64) AppleWebKit/537.36 (KHTML, like Gecko) Chrome/139.0.0.0 Safari/537.36","WebKit","Chrome","139.0.0.0","Windows","10.0","https://app.prolific.com/","en-US,en;q=0.9","672c8a3b9fb83ab9c5f02fd2","6877649eabb845cf142cd221","68931740f234574ab4e758b4","1","672c8a3b9fb83ab9c5f02fd2","1","2025-08-06T08:55:12.760Z","","","","","","","","","","","","","","","","win-only","2","g1:SE,g2:NW","1","1","0","274764.3","2234.8","7237.1","30962.8","1","4","8","6","2","8","8","8","0","0.06060606060606061","1816.1","3000","785","[""left"",""up""]","{""num_key_presses"":6,""num_perfect"":6,""num_errors"":0,""num_randdir"":0,""num_randdir_good_moves"":0,""num_whilered"":0,""num_whileblue"":0,""num_blue"":2,""num_good_moves"":6}","[293.22232142857143,290.12857142857143,0.2,293.22232142857143,290.12857142857143,100.8,293.22232142857143,289.12857142857143,205.7,293.22232142857143,289.12857142857143,307.6,303.22232142857143,298.12857142857143,411,367.22232142857143,335.12857142857143,511.3,532.2223214285714,407.12857142857143,611.9,533.2223214285714,407.12857142857143,716.5,537.2223214285714,267.12857142857143,822.7,374.22232142857143,128.12857142857143,926.8,348.22232142857143,96.12857142857143,1028.2,173.22232142857143,67.12857142857143,1131.8,123.22232142857143,32.128571428571426,1236.3,113.22232142857143,26.128571428571426,1336.3,112.22232142857143,32.128571428571426,1441.1,94.22232142857143,39.128571428571426,1545.1,69.22232142857143,42.128571428571426,1646.8,66.22232142857143,40.128571428571426,1752.6,65.22232142857143,38.128571428571426,1857.8,65.22232142857143,38.128571428571426,1975.1,65.22232142857143,39.128571428571426,2076.3,104.22232142857143,63.128571428571426,2176.4,117.22232142857143,62.128571428571426,2277.3,117.22232142857143,62.128571428571426,2381.5,117.22232142857143,62.128571428571426,2486,119.22232142857143,61.128571428571426,2590.8,120.22232142857143,61.128571428571426,2695.7,120.22232142857143,61.128571428571426,2796.5,120.22232142857143,61.128571428571426,2903.5,120.22232142857143,61.128571428571426,3006.9,120.22232142857143,61.128571428571426,3111.8,122.22232142857143,57.128571428571426,3215.7,125.22232142857143,54.128571428571426,3316,125.22232142857143,54.128571428571426,3416.1,120.22232142857143,54.128571428571426,3516.1,120.22232142857143,54.128571428571426,3616.4,120.22232142857143,54.128571428571426,3721.7,120.22232142857143,54.128571428571426,3825.9,120.22232142857143,54.128571428571426,3926.9,120.22232142857143,54.128571428571426,4032,120.22232142857143,54.128571428571426,4132.5,120.22232142857143,54.128571428571426,4237.3,120.22232142857143,54.128571428571426,4340.7,120.22232142857143,54.128571428571426,4442,120.22232142857143,54.128571428571426,4546,120.22232142857143,54.128571428571426,4646,120.22232142857143,54.128571428571426,4750.8,120.22232142857143,54.128571428571426,4850.9,120.22232142857143,54.128571428571426,4951.3]","[5573.6,5573.2,3173,2003.8,396.8,""smooth"",""up"",""up"",""good_move"",9036,3462,3103.6,5574.1,358.4,""smooth"",""up"",""up"",""good_move"",12003.1,2966.8,2544.1,9036.3,422.7,""smooth"",""up"",""up"",""good_move"",18868.8,6865.4,2556.4,15954.2,358.2,""smooth"",""left"",""left"",""good_move"",21006.8,2137.6,1748.4,18869.3,389.1,""smooth"",""left"",""left"",""good_move"",23619.4,2611.7,2275.3,21007.8,336.3,""smooth"",""left"",""left"",""good_move""]"
"4393","","<div style=""width:500px;"">
  <p>What determined the result of this run?</p>
  </div>","53","html-slider-response","14","308255","0.0-7.0-1.0","126","1","2025-08-06 08:50:16","36c45c0696341be0efffe67d72a12abb","216.120.189.142","Mozilla/5.0 (Windows NT 10.0; Win64; x64) AppleWebKit/537.36 (KHTML, like Gecko) Chrome/139.0.0.0 Safari/537.36","WebKit","Chrome","139.0.0.0","Windows","10.0","https://app.prolific.com/","en-US,en;q=0.9","672c8a3b9fb83ab9c5f02fd2","6877649eabb845cf142cd221","68931740f234574ab4e758b4","1","672c8a3b9fb83ab9c5f02fd2","1","2025-08-06T08:55:17.155Z","","","","AttribQ","","","","","","","","","","","50","","","","","","","","","","","","","","","","","","","","","","","","","","",""
"5224","","<div style=""width:500px;"">
  <p>How much control did you have over the ball?</p>
  </div>","71","html-slider-response","15","313481","0.0-7.0-2.0","126","1","2025-08-06 08:50:16","36c45c0696341be0efffe67d72a12abb","216.120.189.142","Mozilla/5.0 (Windows NT 10.0; Win64; x64) AppleWebKit/537.36 (KHTML, like Gecko) Chrome/139.0.0.0 Safari/537.36","WebKit","Chrome","139.0.0.0","Windows","10.0","https://app.prolific.com/","en-US,en;q=0.9","672c8a3b9fb83ab9c5f02fd2","6877649eabb845cf142cd221","68931740f234574ab4e758b4","1","672c8a3b9fb83ab9c5f02fd2","1","2025-08-06T08:55:22.382Z","","","","ControlQ","","","","","","","","","","","50","","","","","","","","","","","","","","","","","","","","","","","","","","",""
"2781","","<div style=""width:500px;"">
  <p>How would you describe your current emotional state?</p>
  </div>","0","html-slider-response","16","316266","0.0-7.0-3.0","126","1","2025-08-06 08:50:16","36c45c0696341be0efffe67d72a12abb","216.120.189.142","Mozilla/5.0 (Windows NT 10.0; Win64; x64) AppleWebKit/537.36 (KHTML, like Gecko) Chrome/139.0.0.0 Safari/537.36","WebKit","Chrome","139.0.0.0","Windows","10.0","https://app.prolific.com/","en-US,en;q=0.9","672c8a3b9fb83ab9c5f02fd2","6877649eabb845cf142cd221","68931740f234574ab4e758b4","1","672c8a3b9fb83ab9c5f02fd2","1","2025-08-06T08:55:25.166Z","","","","StressQ","","","","","","","","","","","50","","","","","","","","","","","","","","","","","","","","","","","","","","",""
"2757","","<div style=""width:500px;"">
  <p>What best describes how you currently feel?</p>
  </div>","97","html-slider-response","17","319024","0.0-7.0-4.0","126","1","2025-08-06 08:50:16","36c45c0696341be0efffe67d72a12abb","216.120.189.142","Mozilla/5.0 (Windows NT 10.0; Win64; x64) AppleWebKit/537.36 (KHTML, like Gecko) Chrome/139.0.0.0 Safari/537.36","WebKit","Chrome","139.0.0.0","Windows","10.0","https://app.prolific.com/","en-US,en;q=0.9","672c8a3b9fb83ab9c5f02fd2","6877649eabb845cf142cd221","68931740f234574ab4e758b4","1","672c8a3b9fb83ab9c5f02fd2","1","2025-08-06T08:55:27.924Z","","","","MotivationQ","","","","","","","","","","","50","","","","","","","","","","","","","","","","","","","","","","","","","","",""
"","","","","ctl-task-cpt","18","354064","0.0-7.0-0.1","126","1","2025-08-06 08:50:16","36c45c0696341be0efffe67d72a12abb","216.120.189.142","Mozilla/5.0 (Windows NT 10.0; Win64; x64) AppleWebKit/537.36 (KHTML, like Gecko) Chrome/139.0.0.0 Safari/537.36","WebKit","Chrome","139.0.0.0","Windows","10.0","https://app.prolific.com/","en-US,en;q=0.9","672c8a3b9fb83ab9c5f02fd2","6877649eabb845cf142cd221","68931740f234574ab4e758b4","1","672c8a3b9fb83ab9c5f02fd2","1","2025-08-06T08:56:02.964Z","","","","","","","","","","","","","","","","win-only","0","g1:NW,g2:SE","0.9","2","0","323898","1065.8","6071.4","32022.1","1","4","4","6","2","4","4","12","8","0.09090909090909091","2085.2","3000","420","[""down"",""right""]","{""num_key_presses"":6,""num_perfect"":6,""num_errors"":0,""num_randdir"":0,""num_randdir_good_moves"":0,""num_whilered"":0,""num_whileblue"":0,""num_blue"":3,""num_good_moves"":6}","[287.22232142857143,299.12857142857143,1,287.22232142857143,299.12857142857143,104.3,287.22232142857143,299.12857142857143,204.9,287.22232142857143,300.12857142857143,304.9,287.22232142857143,305.12857142857143,405.7,287.22232142857143,305.12857142857143,510,285.22232142857143,308.12857142857143,610.2,282.22232142857143,343.12857142857143,710.4,280.22232142857143,356.12857142857143,810.4,280.22232142857143,356.12857142857143,916.5,281.22232142857143,356.12857142857143,1017.1,281.22232142857143,356.12857142857143,1117.4,281.22232142857143,356.12857142857143,1218.3,281.22232142857143,356.12857142857143,1319.7,313.22232142857143,393.12857142857143,1420,425.22232142857143,557.1285714285714,1520.1,494.22232142857143,637.1285714285714,1624.6,516.2223214285714,626.1285714285714,1724.9,526.2223214285714,601.1285714285714,1825,527.2223214285714,589.1285714285714,1925.8,538.2223214285714,551.1285714285714,2034.9,538.2223214285714,551.1285714285714,2136.1,538.2223214285714,551.1285714285714,2240.1,539.2223214285714,551.1285714285714,2345.9,539.2223214285714,551.1285714285714,2449.9,539.2223214285714,551.1285714285714,2550.4,538.2223214285714,549.1285714285714,2656,538.2223214285714,549.1285714285714,2760.9,535.2223214285714,548.1285714285714,2865.7,533.2223214285714,546.1285714285714,2967.1,528.2223214285714,544.1285714285714,3070.6,528.2223214285714,542.1285714285714,3170.6,533.2223214285714,539.1285714285714,3275.8,533.2223214285714,539.1285714285714,3379.9,533.2223214285714,539.1285714285714,3481.2,533.2223214285714,539.1285714285714,3585.8,538.2223214285714,523.1285714285714,3689.9,538.2223214285714,522.1285714285714,3790.5,538.2223214285714,522.1285714285714,3890.6,538.2223214285714,522.1285714285714,3990.6,538.2223214285714,522.1285714285714,4091.1,538.2223214285714,522.1285714285714,4192.5,538.2223214285714,522.1285714285714,4295.9,538.2223214285714,522.1285714285714,4400,538.2223214285714,522.1285714285714,4500.3,538.2223214285714,522.1285714285714,4606.7,538.2223214285714,522.1285714285714,4708.2,538.2223214285714,522.1285714285714,4810.6,538.2223214285714,522.1285714285714,4911.4]","[7940.9,7940.9,2357.3,5249.5,334.1,""smooth"",""right"",""right"",""good_move"",11030,3088.3,2721.1,7941.7,367.2,""smooth"",""right"",""right"",""good_move"",13546.7,2516.3,2187.5,11030.4,328.8,""smooth"",""right"",""right"",""good_move"",16137.9,2590.9,2217.7,13547,373.2,""smooth"",""down"",""down"",""good_move"",23055.7,6917,3070.2,19544.5,441.1,""smooth"",""down"",""down"",""good_move"",25854.3,2798.2,2023.2,23056.1,775,""smooth"",""down"",""down"",""good_move""]"
"8566","","<div style=""width:500px;"">
  <p>What determined the result of this run?</p>
  </div>","92","html-slider-response","19","362631","0.0-7.0-1.1","126","1","2025-08-06 08:50:16","36c45c0696341be0efffe67d72a12abb","216.120.189.142","Mozilla/5.0 (Windows NT 10.0; Win64; x64) AppleWebKit/537.36 (KHTML, like Gecko) Chrome/139.0.0.0 Safari/537.36","WebKit","Chrome","139.0.0.0","Windows","10.0","https://app.prolific.com/","en-US,en;q=0.9","672c8a3b9fb83ab9c5f02fd2","6877649eabb845cf142cd221","68931740f234574ab4e758b4","1","672c8a3b9fb83ab9c5f02fd2","1","2025-08-06T08:56:11.531Z","","","","AttribQ","","","","","","","","","","","50","","","","","","","","","","","","","","","","","","","","","","","","","","",""
"2609","","<div style=""width:500px;"">
  <p>How much control did you have over the ball?</p>
  </div>","89","html-slider-response","20","365242","0.0-7.0-2.1","126","1","2025-08-06 08:50:16","36c45c0696341be0efffe67d72a12abb","216.120.189.142","Mozilla/5.0 (Windows NT 10.0; Win64; x64) AppleWebKit/537.36 (KHTML, like Gecko) Chrome/139.0.0.0 Safari/537.36","WebKit","Chrome","139.0.0.0","Windows","10.0","https://app.prolific.com/","en-US,en;q=0.9","672c8a3b9fb83ab9c5f02fd2","6877649eabb845cf142cd221","68931740f234574ab4e758b4","1","672c8a3b9fb83ab9c5f02fd2","1","2025-08-06T08:56:14.142Z","","","","ControlQ","","","","","","","","","","","50","","","","","","","","","","","","","","","","","","","","","","","","","","",""
"2868","","<div style=""width:500px;"">
  <p>How would you describe your current emotional state?</p>
  </div>","0","html-slider-response","21","368112","0.0-7.0-3.1","126","1","2025-08-06 08:50:16","36c45c0696341be0efffe67d72a12abb","216.120.189.142","Mozilla/5.0 (Windows NT 10.0; Win64; x64) AppleWebKit/537.36 (KHTML, like Gecko) Chrome/139.0.0.0 Safari/537.36","WebKit","Chrome","139.0.0.0","Windows","10.0","https://app.prolific.com/","en-US,en;q=0.9","672c8a3b9fb83ab9c5f02fd2","6877649eabb845cf142cd221","68931740f234574ab4e758b4","1","672c8a3b9fb83ab9c5f02fd2","1","2025-08-06T08:56:17.013Z","","","","StressQ","","","","","","","","","","","50","","","","","","","","","","","","","","","","","","","","","","","","","","",""
"3456","","<div style=""width:500px;"">
  <p>What best describes how you currently feel?</p>
  </div>","100","html-slider-response","22","371571","0.0-7.0-4.1","126","1","2025-08-06 08:50:16","36c45c0696341be0efffe67d72a12abb","216.120.189.142","Mozilla/5.0 (Windows NT 10.0; Win64; x64) AppleWebKit/537.36 (KHTML, like Gecko) Chrome/139.0.0.0 Safari/537.36","WebKit","Chrome","139.0.0.0","Windows","10.0","https://app.prolific.com/","en-US,en;q=0.9","672c8a3b9fb83ab9c5f02fd2","6877649eabb845cf142cd221","68931740f234574ab4e758b4","1","672c8a3b9fb83ab9c5f02fd2","1","2025-08-06T08:56:20.471Z","","","","MotivationQ","","","","","","","","","","","50","","","","","","","","","","","","","","","","","","","","","","","","","","",""
"","","","","ctl-task-cpt","23","412994","0.0-7.0-0.2","126","1","2025-08-06 08:50:16","36c45c0696341be0efffe67d72a12abb","216.120.189.142","Mozilla/5.0 (Windows NT 10.0; Win64; x64) AppleWebKit/537.36 (KHTML, like Gecko) Chrome/139.0.0.0 Safari/537.36","WebKit","Chrome","139.0.0.0","Windows","10.0","https://app.prolific.com/","en-US,en;q=0.9","672c8a3b9fb83ab9c5f02fd2","6877649eabb845cf142cd221","68931740f234574ab4e758b4","1","672c8a3b9fb83ab9c5f02fd2","1","2025-08-06T08:57:01.894Z","","","","","","","","","","","","","","","","win-only","0","g1:NW,g2:SE","0.8","3","0","376448.3","1099.7","6102.8","38412.1","1","4","4","6","2","-4","-5","7","12","0.05303030303030303","2691.9","3000","-2545","[""down"",""right""]","{""num_key_presses"":8,""num_perfect"":6,""num_errors"":1,""num_randdir"":1,""num_randdir_good_moves"":0,""num_whilered"":0,""num_whileblue"":1,""num_blue"":3,""num_good_moves"":6}","[292.22232142857143,298.12857142857143,0.3,292.22232142857143,298.12857142857143,101.6,292.22232142857143,298.12857142857143,207.8,289.22232142857143,319.12857142857143,317.1,289.22232142857143,319.12857142857143,421.4,289.22232142857143,319.12857142857143,522.2,353.22232142857143,381.12857142857143,632.5,368.22232142857143,409.12857142857143,736.3,368.22232142857143,404.12857142857143,836.5,368.22232142857143,404.12857142857143,945.3,368.22232142857143,404.12857142857143,1045.8,368.22232142857143,404.12857142857143,1146.2,368.22232142857143,404.12857142857143,1246.4,443.22232142857143,438.12857142857143,1351.5,623.2223214285714,615.1285714285714,1451.6,668.2223214285714,658.1285714285714,1552,664.2223214285714,649.1285714285714,1660.8,618.2223214285714,586.1285714285714,1764.4,596.2223214285714,556.1285714285714,1865.8,596.2223214285714,554.1285714285714,1965.9,593.2223214285714,553.1285714285714,2075.1,593.2223214285714,553.1285714285714,2176.6,593.2223214285714,553.1285714285714,2281.8,592.2223214285714,553.1285714285714,2386.5,592.2223214285714,553.1285714285714,2493.3,564.2223214285714,549.1285714285714,2596.5,563.2223214285714,548.1285714285714,2706.6,563.2223214285714,548.1285714285714,2807.3,563.2223214285714,548.1285714285714,2910.7,563.2223214285714,548.1285714285714,3012.4,575.2223214285714,548.1285714285714,3116.5,627.2223214285714,554.1285714285714,3221.3,627.2223214285714,554.1285714285714,3321.6,627.2223214285714,554.1285714285714,3426,627.2223214285714,554.1285714285714,3526.7,620.2223214285714,550.1285714285714,3631.5,613.2223214285714,545.1285714285714,3736.6,603.2223214285714,531.1285714285714,3842.3,587.2223214285714,513.1285714285714,3943.6,586.2223214285714,512.1285714285714,4046.4,575.2223214285714,512.1285714285714,4149.6,574.2223214285714,512.1285714285714,4251.9,574.2223214285714,513.1285714285714,4351.9,574.2223214285714,530.1285714285714,4454.5,574.2223214285714,530.1285714285714,4555.4,576.2223214285714,528.1285714285714,4657.7,576.2223214285714,527.1285714285714,4761.5,570.2223214285714,527.1285714285714,4863.9,569.2223214285714,527.1285714285714,4970.8]","[1975.2,1975.2,1000,0.1,975.1,""smooth"",""right"",""right"",""good_move"",4910.5,2934.3,2360.8,1976.2,573.5,""smooth"",""right"",""right"",""good_move"",11402.3,6491.4,2368.2,8682.2,351.9,""oops"",""right"",""left"",""bad_move"",18482.1,7079.4,2500.2,15668.2,313.7,""smooth"",""down"",""down"",""good_move"",21181.6,2699,2335.7,18482.6,363.4,""smooth"",""down"",""down"",""good_move"",24066.2,2884.3,2507.8,21181.9,376.5,""smooth"",""down"",""down"",""good_move"",26613.7,2547.1,2236.2,24066.6,310.9,""while_blue"",""right"",""up"",""bad_move"",29593.2,2978.8,2610.3,26614.4,368.5,""smooth"",""right"",""right"",""good_move""]"
"5646","","<div style=""width:500px;"">
  <p>What determined the result of this run?</p>
  </div>","50","html-slider-response","24","418642","0.0-7.0-1.2","126","1","2025-08-06 08:50:16","36c45c0696341be0efffe67d72a12abb","216.120.189.142","Mozilla/5.0 (Windows NT 10.0; Win64; x64) AppleWebKit/537.36 (KHTML, like Gecko) Chrome/139.0.0.0 Safari/537.36","WebKit","Chrome","139.0.0.0","Windows","10.0","https://app.prolific.com/","en-US,en;q=0.9","672c8a3b9fb83ab9c5f02fd2","6877649eabb845cf142cd221","68931740f234574ab4e758b4","1","672c8a3b9fb83ab9c5f02fd2","1","2025-08-06T08:57:07.542Z","","","","AttribQ","","","","","","","","","","","50","","","","","","","","","","","","","","","","","","","","","","","","","","",""
"3954","","<div style=""width:500px;"">
  <p>How much control did you have over the ball?</p>
  </div>","52","html-slider-response","25","422599","0.0-7.0-2.2","126","1","2025-08-06 08:50:16","36c45c0696341be0efffe67d72a12abb","216.120.189.142","Mozilla/5.0 (Windows NT 10.0; Win64; x64) AppleWebKit/537.36 (KHTML, like Gecko) Chrome/139.0.0.0 Safari/537.36","WebKit","Chrome","139.0.0.0","Windows","10.0","https://app.prolific.com/","en-US,en;q=0.9","672c8a3b9fb83ab9c5f02fd2","6877649eabb845cf142cd221","68931740f234574ab4e758b4","1","672c8a3b9fb83ab9c5f02fd2","1","2025-08-06T08:57:11.499Z","","","","ControlQ","","","","","","","","","","","50","","","","","","","","","","","","","","","","","","","","","","","","","","",""
"2615","","<div style=""width:500px;"">
  <p>How would you describe your current emotional state?</p>
  </div>","4","html-slider-response","26","425216","0.0-7.0-3.2","126","1","2025-08-06 08:50:16","36c45c0696341be0efffe67d72a12abb","216.120.189.142","Mozilla/5.0 (Windows NT 10.0; Win64; x64) AppleWebKit/537.36 (KHTML, like Gecko) Chrome/139.0.0.0 Safari/537.36","WebKit","Chrome","139.0.0.0","Windows","10.0","https://app.prolific.com/","en-US,en;q=0.9","672c8a3b9fb83ab9c5f02fd2","6877649eabb845cf142cd221","68931740f234574ab4e758b4","1","672c8a3b9fb83ab9c5f02fd2","1","2025-08-06T08:57:14.116Z","","","","StressQ","","","","","","","","","","","50","","","","","","","","","","","","","","","","","","","","","","","","","","",""
"3389","","<div style=""width:500px;"">
  <p>What best describes how you currently feel?</p>
  </div>","84","html-slider-response","27","428607","0.0-7.0-4.2","126","1","2025-08-06 08:50:16","36c45c0696341be0efffe67d72a12abb","216.120.189.142","Mozilla/5.0 (Windows NT 10.0; Win64; x64) AppleWebKit/537.36 (KHTML, like Gecko) Chrome/139.0.0.0 Safari/537.36","WebKit","Chrome","139.0.0.0","Windows","10.0","https://app.prolific.com/","en-US,en;q=0.9","672c8a3b9fb83ab9c5f02fd2","6877649eabb845cf142cd221","68931740f234574ab4e758b4","1","672c8a3b9fb83ab9c5f02fd2","1","2025-08-06T08:57:17.507Z","","","","MotivationQ","","","","","","","","","","","50","","","","","","","","","","","","","","","","","","","","","","","","","","",""
"","","","","ctl-task-cpt","28","453930","0.0-7.0-0.3","126","1","2025-08-06 08:50:16","36c45c0696341be0efffe67d72a12abb","216.120.189.142","Mozilla/5.0 (Windows NT 10.0; Win64; x64) AppleWebKit/537.36 (KHTML, like Gecko) Chrome/139.0.0.0 Safari/537.36","WebKit","Chrome","139.0.0.0","Windows","10.0","https://app.prolific.com/","en-US,en;q=0.9","672c8a3b9fb83ab9c5f02fd2","6877649eabb845cf142cd221","68931740f234574ab4e758b4","1","672c8a3b9fb83ab9c5f02fd2","1","2025-08-06T08:57:42.830Z","","","","","","","","","","","","","","","","win-only","1","g1:NE,g2:SW","0.7","4","0","433482","942.2","5942.5","22301.1","1","4","8","6","2","8","8","15","7","0.11363636363636363","1431","3000","1240","[""down"",""left""]","{""num_key_presses"":6,""num_perfect"":5,""num_errors"":0,""num_randdir"":1,""num_randdir_good_moves"":1,""num_whilered"":0,""num_whileblue"":0,""num_blue"":0,""num_good_moves"":6}","[294.22232142857143,296.12857142857143,0.3,294.22232142857143,296.12857142857143,105,294.22232142857143,296.12857142857143,205.3,290.22232142857143,307.12857142857143,305.4,290.22232142857143,307.12857142857143,409.1,285.22232142857143,306.12857142857143,509.7,211.22232142857143,363.12857142857143,613.3,45.222321428571426,459.12857142857143,714.7,42.222321428571426,465.12857142857143,819.4,60.222321428571426,463.12857142857143,924.8,111.22232142857143,476.12857142857143,1025.1,122.22232142857143,489.12857142857143,1125.1,83.22232142857143,535.1285714285714,1225.6,72.22232142857143,539.1285714285714,1331.5,70.22232142857143,538.1285714285714,1440.6,70.22232142857143,536.1285714285714,1540.9,74.22232142857143,534.1285714285714,1644.6,83.22232142857143,535.1285714285714,1753.4,83.22232142857143,535.1285714285714,1854,83.22232142857143,535.1285714285714,1956,83.22232142857143,535.1285714285714,2059,83.22232142857143,535.1285714285714,2164,83.22232142857143,535.1285714285714,2273.8,83.22232142857143,535.1285714285714,2375.4,83.22232142857143,535.1285714285714,2478.5,83.22232142857143,535.1285714285714,2578.7,83.22232142857143,535.1285714285714,2686.8,74.22232142857143,531.1285714285714,2791.8,56.222321428571426,531.1285714285714,2895,56.222321428571426,531.1285714285714,3004.9,56.222321428571426,531.1285714285714,3105.1,56.222321428571426,531.1285714285714,3209.2,56.222321428571426,531.1285714285714,3315.2,56.222321428571426,531.1285714285714,3415.4,56.222321428571426,531.1285714285714,3519.9,56.222321428571426,531.1285714285714,3623.6,56.222321428571426,531.1285714285714,3724.4,56.222321428571426,531.1285714285714,3824.6,56.222321428571426,531.1285714285714,3929.2,56.222321428571426,531.1285714285714,4034.6,56.222321428571426,531.1285714285714,4138.2,56.222321428571426,531.1285714285714,4239.5,56.222321428571426,531.1285714285714,4343.9,56.222321428571426,531.1285714285714,4444.3,56.222321428571426,531.1285714285714,4550.1,56.222321428571426,531.1285714285714,4652.5,56.222321428571426,531.1285714285714,4754.1,56.222321428571426,531.1285714285714,4854.4,56.222321428571426,531.1285714285714,4954.4]","[1431.7,1431.7,1000,0,431.7,""smooth"",""down"",""down"",""good_move"",4696.6,3264.4,2905.1,1432.2,359.3,""smooth"",""down"",""down"",""good_move"",7832.5,3135.5,2751.5,4697,384,""oops"",""down"",""down"",""good_move"",10700.9,2866.3,2496.9,7834.7,369.4,""smooth"",""left"",""left"",""good_move"",13431.4,2729.8,2390.2,10701.6,339.6,""smooth"",""left"",""left"",""good_move"",16251.9,2817.3,2494.2,13434.6,323.1,""smooth"",""left"",""left"",""good_move""]"
"5164","","<div style=""width:500px;"">
  <p>What determined the result of this run?</p>
  </div>","80","html-slider-response","29","459096","0.0-7.0-1.3","126","1","2025-08-06 08:50:16","36c45c0696341be0efffe67d72a12abb","216.120.189.142","Mozilla/5.0 (Windows NT 10.0; Win64; x64) AppleWebKit/537.36 (KHTML, like Gecko) Chrome/139.0.0.0 Safari/537.36","WebKit","Chrome","139.0.0.0","Windows","10.0","https://app.prolific.com/","en-US,en;q=0.9","672c8a3b9fb83ab9c5f02fd2","6877649eabb845cf142cd221","68931740f234574ab4e758b4","1","672c8a3b9fb83ab9c5f02fd2","1","2025-08-06T08:57:47.996Z","","","","AttribQ","","","","","","","","","","","50","","","","","","","","","","","","","","","","","","","","","","","","","","",""
"2910","","<div style=""width:500px;"">
  <p>How much control did you have over the ball?</p>
  </div>","74","html-slider-response","30","462007","0.0-7.0-2.3","126","1","2025-08-06 08:50:16","36c45c0696341be0efffe67d72a12abb","216.120.189.142","Mozilla/5.0 (Windows NT 10.0; Win64; x64) AppleWebKit/537.36 (KHTML, like Gecko) Chrome/139.0.0.0 Safari/537.36","WebKit","Chrome","139.0.0.0","Windows","10.0","https://app.prolific.com/","en-US,en;q=0.9","672c8a3b9fb83ab9c5f02fd2","6877649eabb845cf142cd221","68931740f234574ab4e758b4","1","672c8a3b9fb83ab9c5f02fd2","1","2025-08-06T08:57:50.907Z","","","","ControlQ","","","","","","","","","","","50","","","","","","","","","","","","","","","","","","","","","","","","","","",""
"2975","","<div style=""width:500px;"">
  <p>How would you describe your current emotional state?</p>
  </div>","0","html-slider-response","31","464985","0.0-7.0-3.3","126","1","2025-08-06 08:50:16","36c45c0696341be0efffe67d72a12abb","216.120.189.142","Mozilla/5.0 (Windows NT 10.0; Win64; x64) AppleWebKit/537.36 (KHTML, like Gecko) Chrome/139.0.0.0 Safari/537.36","WebKit","Chrome","139.0.0.0","Windows","10.0","https://app.prolific.com/","en-US,en;q=0.9","672c8a3b9fb83ab9c5f02fd2","6877649eabb845cf142cd221","68931740f234574ab4e758b4","1","672c8a3b9fb83ab9c5f02fd2","1","2025-08-06T08:57:53.885Z","","","","StressQ","","","","","","","","","","","50","","","","","","","","","","","","","","","","","","","","","","","","","","",""
"3373","","<div style=""width:500px;"">
  <p>What best describes how you currently feel?</p>
  </div>","100","html-slider-response","32","468360","0.0-7.0-4.3","126","1","2025-08-06 08:50:16","36c45c0696341be0efffe67d72a12abb","216.120.189.142","Mozilla/5.0 (Windows NT 10.0; Win64; x64) AppleWebKit/537.36 (KHTML, like Gecko) Chrome/139.0.0.0 Safari/537.36","WebKit","Chrome","139.0.0.0","Windows","10.0","https://app.prolific.com/","en-US,en;q=0.9","672c8a3b9fb83ab9c5f02fd2","6877649eabb845cf142cd221","68931740f234574ab4e758b4","1","672c8a3b9fb83ab9c5f02fd2","1","2025-08-06T08:57:57.260Z","","","","MotivationQ","","","","","","","","","","","50","","","","","","","","","","","","","","","","","","","","","","","","","","",""
"","","","","ctl-task-cpt","33","524819","0.0-7.0-0.4","126","1","2025-08-06 08:50:16","36c45c0696341be0efffe67d72a12abb","216.120.189.142","Mozilla/5.0 (Windows NT 10.0; Win64; x64) AppleWebKit/537.36 (KHTML, like Gecko) Chrome/139.0.0.0 Safari/537.36","WebKit","Chrome","139.0.0.0","Windows","10.0","https://app.prolific.com/","en-US,en;q=0.9","672c8a3b9fb83ab9c5f02fd2","6877649eabb845cf142cd221","68931740f234574ab4e758b4","1","672c8a3b9fb83ab9c5f02fd2","1","2025-08-06T08:58:53.720Z","","","","","","","","","","","","","","","","win-only","2","g1:SE,g2:NW","0.6","5","0","473234.5","1171.6","6177","53436.5","1","4","8","6","2","-8","-9","6","15","0.045454545454545456","1042.7","3000","-2310","[""left"",""up""]","{""num_key_presses"":12,""num_perfect"":6,""num_errors"":1,""num_randdir"":5,""num_randdir_good_moves"":1,""num_whilered"":0,""num_whileblue"":1,""num_blue"":4,""num_good_moves"":7}","[292.22232142857143,297.12857142857143,0.3,292.22232142857143,297.12857142857143,100.3,291.22232142857143,297.12857142857143,203.7,282.22232142857143,315.12857142857143,304.5,285.22232142857143,352.12857142857143,405.3,287.22232142857143,362.12857142857143,510.5,243.22232142857143,280.12857142857143,616.1,88.22232142857143,143.12857142857143,720,53.222321428571426,88.12857142857143,820,54.222321428571426,82.12857142857143,921,55.222321428571426,75.12857142857143,1034.6,55.222321428571426,75.12857142857143,1150.6,55.222321428571426,75.12857142857143,1260.4,62.222321428571426,82.12857142857143,1362.8,138.22232142857143,117.12857142857143,1472.1,216.22232142857143,151.12857142857143,1592.1,424.22232142857143,165.12857142857143,1695.1,494.22232142857143,166.12857142857143,1800.2,494.22232142857143,166.12857142857143,1913.2,494.22232142857143,166.12857142857143,2015.8,494.22232142857143,166.12857142857143,2116.3,491.22232142857143,154.12857142857143,2219.5,491.22232142857143,151.12857142857143,2327.6,503.22232142857143,149.12857142857143,2428.8,554.2223214285714,147.12857142857143,2530.4,605.2223214285714,142.12857142857143,2631.6,617.2223214285714,145.12857142857143,2741.2,624.2223214285714,146.12857142857143,2842.5,625.2223214285714,146.12857142857143,2944.2,625.2223214285714,146.12857142857143,3046.5,625.2223214285714,146.12857142857143,3148.7,625.2223214285714,146.12857142857143,3249.7,625.2223214285714,146.12857142857143,3356.5,625.2223214285714,146.12857142857143,3457.4,625.2223214285714,146.12857142857143,3559.5,625.2223214285714,146.12857142857143,3660.1,625.2223214285714,146.12857142857143,3760.8,625.2223214285714,146.12857142857143,3866.9,625.2223214285714,146.12857142857143,3970.4,625.2223214285714,146.12857142857143,4073,625.2223214285714,146.12857142857143,4174.7,625.2223214285714,146.12857142857143,4278.6,625.2223214285714,146.12857142857143,4388.2,625.2223214285714,146.12857142857143,4490.3,625.2223214285714,146.12857142857143,4602.4,625.2223214285714,146.12857142857143,4705.5,625.2223214285714,146.12857142857143,4806.9,625.2223214285714,146.12857142857143,4909.9]","[4758,4758,2416.5,2011.5,330,""oops"",""up"",""right"",""bad_move"",8765.2,4006.1,3628.5,4759.1,377.6,""smooth"",""up"",""up"",""good_move"",14803.6,6037.9,2993.1,11480.6,329.9,""smooth"",""up"",""up"",""good_move"",21461.1,6656.9,2657.6,18415.7,387.8,""smooth"",""up"",""up"",""good_move"",24425.3,2964,2600.5,21461.4,363.5,""smooth"",""left"",""left"",""good_move"",26784.2,2358.2,1911,24426,447.2,""oops"",""left"",""left"",""good_move"",30301.3,3516.2,3109.4,26785.1,406.8,""smooth"",""left"",""left"",""good_move"",33217.2,2915.1,2546.4,30302.1,368.7,""oops"",""left"",""down"",""bad_move"",36527.6,3310,2957,33217.7,352.9,""smooth"",""left"",""left"",""good_move"",38967.3,2439.5,2093,36527.9,346.5,""while_blue"",""up"",""down"",""bad_move"",41587.2,2618.9,2266.6,38968.3,352.3,""oops"",""up"",""down"",""bad_move"",44995,3406.5,3021.7,41588.5,384.8,""oops"",""up"",""down"",""bad_move""]"
"3770","","<div style=""width:500px;"">
  <p>What determined the result of this run?</p>
  </div>","50","html-slider-response","34","528592","0.0-7.0-1.4","126","1","2025-08-06 08:50:16","36c45c0696341be0efffe67d72a12abb","216.120.189.142","Mozilla/5.0 (Windows NT 10.0; Win64; x64) AppleWebKit/537.36 (KHTML, like Gecko) Chrome/139.0.0.0 Safari/537.36","WebKit","Chrome","139.0.0.0","Windows","10.0","https://app.prolific.com/","en-US,en;q=0.9","672c8a3b9fb83ab9c5f02fd2","6877649eabb845cf142cd221","68931740f234574ab4e758b4","1","672c8a3b9fb83ab9c5f02fd2","1","2025-08-06T08:58:57.493Z","","","","AttribQ","","","","","","","","","","","50","","","","","","","","","","","","","","","","","","","","","","","","","","",""
"3468","","<div style=""width:500px;"">
  <p>How much control did you have over the ball?</p>
  </div>","50","html-slider-response","35","532064","0.0-7.0-2.4","126","1","2025-08-06 08:50:16","36c45c0696341be0efffe67d72a12abb","216.120.189.142","Mozilla/5.0 (Windows NT 10.0; Win64; x64) AppleWebKit/537.36 (KHTML, like Gecko) Chrome/139.0.0.0 Safari/537.36","WebKit","Chrome","139.0.0.0","Windows","10.0","https://app.prolific.com/","en-US,en;q=0.9","672c8a3b9fb83ab9c5f02fd2","6877649eabb845cf142cd221","68931740f234574ab4e758b4","1","672c8a3b9fb83ab9c5f02fd2","1","2025-08-06T08:59:00.965Z","","","","ControlQ","","","","","","","","","","","50","","","","","","","","","","","","","","","","","","","","","","","","","","",""
"3529","","<div style=""width:500px;"">
  <p>How would you describe your current emotional state?</p>
  </div>","0","html-slider-response","36","535596","0.0-7.0-3.4","126","1","2025-08-06 08:50:16","36c45c0696341be0efffe67d72a12abb","216.120.189.142","Mozilla/5.0 (Windows NT 10.0; Win64; x64) AppleWebKit/537.36 (KHTML, like Gecko) Chrome/139.0.0.0 Safari/537.36","WebKit","Chrome","139.0.0.0","Windows","10.0","https://app.prolific.com/","en-US,en;q=0.9","672c8a3b9fb83ab9c5f02fd2","6877649eabb845cf142cd221","68931740f234574ab4e758b4","1","672c8a3b9fb83ab9c5f02fd2","1","2025-08-06T08:59:04.496Z","","","","StressQ","","","","","","","","","","","50","","","","","","","","","","","","","","","","","","","","","","","","","","",""
"2845","","<div style=""width:500px;"">
  <p>What best describes how you currently feel?</p>
  </div>","100","html-slider-response","37","538442","0.0-7.0-4.4","126","1","2025-08-06 08:50:16","36c45c0696341be0efffe67d72a12abb","216.120.189.142","Mozilla/5.0 (Windows NT 10.0; Win64; x64) AppleWebKit/537.36 (KHTML, like Gecko) Chrome/139.0.0.0 Safari/537.36","WebKit","Chrome","139.0.0.0","Windows","10.0","https://app.prolific.com/","en-US,en;q=0.9","672c8a3b9fb83ab9c5f02fd2","6877649eabb845cf142cd221","68931740f234574ab4e758b4","1","672c8a3b9fb83ab9c5f02fd2","1","2025-08-06T08:59:07.343Z","","","","MotivationQ","","","","","","","","","","","50","","","","","","","","","","","","","","","","","","","","","","","","","","",""
"","","","","ctl-task-cpt","38","572529","0.0-7.0-0.5","126","1","2025-08-06 08:50:16","36c45c0696341be0efffe67d72a12abb","216.120.189.142","Mozilla/5.0 (Windows NT 10.0; Win64; x64) AppleWebKit/537.36 (KHTML, like Gecko) Chrome/139.0.0.0 Safari/537.36","WebKit","Chrome","139.0.0.0","Windows","10.0","https://app.prolific.com/","en-US,en;q=0.9","672c8a3b9fb83ab9c5f02fd2","6877649eabb845cf142cd221","68931740f234574ab4e758b4","1","672c8a3b9fb83ab9c5f02fd2","1","2025-08-06T08:59:41.429Z","","","","","","","","","","","","","","","","win-only","1","g1:NE,g2:SW","0.5","6","0","543317.6","2865.6","7867","31067.5","1","4","4","6","2","4","4","10","6","0.07575757575757576","1368","3000","690","[""down"",""left""]","{""num_key_presses"":8,""num_perfect"":5,""num_errors"":0,""num_randdir"":3,""num_randdir_good_moves"":2,""num_whilered"":0,""num_whileblue"":0,""num_blue"":0,""num_good_moves"":7}","[295.22232142857143,296.12857142857143,0.4,295.22232142857143,296.12857142857143,107.5,295.22232142857143,296.12857142857143,216.5,294.22232142857143,296.12857142857143,322.4,294.22232142857143,296.12857142857143,426.5,214.22232142857143,353.12857142857143,533.4,-65.77767857142857,534.1285714285714,636.2,-120.77767857142857,639.1285714285714,738.8,-107.77767857142857,654.1285714285714,849.6,-85.77767857142857,645.1285714285714,953.5,-29.777678571428574,598.1285714285714,1064.6,9.222321428571426,571.1285714285714,1165.8,37.222321428571426,560.1285714285714,1279.1,38.222321428571426,559.1285714285714,1380.1,38.222321428571426,559.1285714285714,1481.4,32.222321428571426,562.1285714285714,1593.7,32.222321428571426,562.1285714285714,1694,32.222321428571426,562.1285714285714,1796,32.222321428571426,562.1285714285714,1896.9,31.222321428571426,560.1285714285714,2008.4,31.222321428571426,559.1285714285714,2108.5,31.222321428571426,559.1285714285714,2211.2,31.222321428571426,559.1285714285714,2312.1,31.222321428571426,559.1285714285714,2422.1,31.222321428571426,559.1285714285714,2525.7,31.222321428571426,559.1285714285714,2629.6,31.222321428571426,559.1285714285714,2737.7,31.222321428571426,559.1285714285714,2840.6,31.222321428571426,559.1285714285714,2947.7,31.222321428571426,559.1285714285714,3056.4,31.222321428571426,559.1285714285714,3160.8,31.222321428571426,559.1285714285714,3264.3,31.222321428571426,559.1285714285714,3369.4,31.222321428571426,559.1285714285714,3472.4,31.222321428571426,559.1285714285714,3576.4,31.222321428571426,559.1285714285714,3676.8,31.222321428571426,559.1285714285714,3777.4,31.222321428571426,559.1285714285714,3880.3,31.222321428571426,559.1285714285714,3989.6,31.222321428571426,559.1285714285714,4092.6,31.222321428571426,559.1285714285714,4205.1,31.222321428571426,559.1285714285714,4306.3,31.222321428571426,559.1285714285714,4411.3,31.222321428571426,559.1285714285714,4511.4,31.222321428571426,559.1285714285714,4616.4,31.222321428571426,559.1285714285714,4721.2,31.222321428571426,559.1285714285714,4821.8,31.222321428571426,559.1285714285714,4925.4]","[1481.5,1481.5,1000,0,481.5,""smooth"",""down"",""down"",""good_move"",4745.4,3263,2855.5,1482.4,407.5,""oops"",""down"",""down"",""good_move"",8551.8,3804.8,3415.9,4747,388.9,""oops"",""down"",""right"",""bad_move"",11500.3,2947.7,2535.5,8552.7,412.1,""oops"",""down"",""down"",""good_move"",14909,3408.5,3019.8,11500.5,388.7,""smooth"",""left"",""left"",""good_move"",17647.8,2738.4,2313.4,14909.4,425,""smooth"",""left"",""left"",""good_move"",20271.5,2622.5,2239.4,17649.1,383,""smooth"",""left"",""left"",""good_move"",23090,2818,2455,20272,363,""smooth"",""left"",""left"",""good_move""]"
"3215","","<div style=""width:500px;"">
  <p>What determined the result of this run?</p>
  </div>","50","html-slider-response","39","575747","0.0-7.0-1.5","126","1","2025-08-06 08:50:16","36c45c0696341be0efffe67d72a12abb","216.120.189.142","Mozilla/5.0 (Windows NT 10.0; Win64; x64) AppleWebKit/537.36 (KHTML, like Gecko) Chrome/139.0.0.0 Safari/537.36","WebKit","Chrome","139.0.0.0","Windows","10.0","https://app.prolific.com/","en-US,en;q=0.9","672c8a3b9fb83ab9c5f02fd2","6877649eabb845cf142cd221","68931740f234574ab4e758b4","1","672c8a3b9fb83ab9c5f02fd2","1","2025-08-06T08:59:44.647Z","","","","AttribQ","","","","","","","","","","","50","","","","","","","","","","","","","","","","","","","","","","","","","","",""
"5236","","<div style=""width:500px;"">
  <p>How much control did you have over the ball?</p>
  </div>","86","html-slider-response","40","580986","0.0-7.0-2.5","126","1","2025-08-06 08:50:16","36c45c0696341be0efffe67d72a12abb","216.120.189.142","Mozilla/5.0 (Windows NT 10.0; Win64; x64) AppleWebKit/537.36 (KHTML, like Gecko) Chrome/139.0.0.0 Safari/537.36","WebKit","Chrome","139.0.0.0","Windows","10.0","https://app.prolific.com/","en-US,en;q=0.9","672c8a3b9fb83ab9c5f02fd2","6877649eabb845cf142cd221","68931740f234574ab4e758b4","1","672c8a3b9fb83ab9c5f02fd2","1","2025-08-06T08:59:49.886Z","","","","ControlQ","","","","","","","","","","","50","","","","","","","","","","","","","","","","","","","","","","","","","","",""
"2349","","<div style=""width:500px;"">
  <p>How would you describe your current emotional state?</p>
  </div>","0","html-slider-response","41","583337","0.0-7.0-3.5","126","1","2025-08-06 08:50:16","36c45c0696341be0efffe67d72a12abb","216.120.189.142","Mozilla/5.0 (Windows NT 10.0; Win64; x64) AppleWebKit/537.36 (KHTML, like Gecko) Chrome/139.0.0.0 Safari/537.36","WebKit","Chrome","139.0.0.0","Windows","10.0","https://app.prolific.com/","en-US,en;q=0.9","672c8a3b9fb83ab9c5f02fd2","6877649eabb845cf142cd221","68931740f234574ab4e758b4","1","672c8a3b9fb83ab9c5f02fd2","1","2025-08-06T08:59:52.238Z","","","","StressQ","","","","","","","","","","","50","","","","","","","","","","","","","","","","","","","","","","","","","","",""
"3709","","<div style=""width:500px;"">
  <p>What best describes how you currently feel?</p>
  </div>","99","html-slider-response","42","587049","0.0-7.0-4.5","126","1","2025-08-06 08:50:16","36c45c0696341be0efffe67d72a12abb","216.120.189.142","Mozilla/5.0 (Windows NT 10.0; Win64; x64) AppleWebKit/537.36 (KHTML, like Gecko) Chrome/139.0.0.0 Safari/537.36","WebKit","Chrome","139.0.0.0","Windows","10.0","https://app.prolific.com/","en-US,en;q=0.9","672c8a3b9fb83ab9c5f02fd2","6877649eabb845cf142cd221","68931740f234574ab4e758b4","1","672c8a3b9fb83ab9c5f02fd2","1","2025-08-06T08:59:55.950Z","","","","MotivationQ","","","","","","","","","","","50","","","","","","","","","","","","","","","","","","","","","","","","","","",""
"","","","","ctl-task-cpt","43","645022","0.0-7.0-0.6","126","1","2025-08-06 08:50:16","36c45c0696341be0efffe67d72a12abb","216.120.189.142","Mozilla/5.0 (Windows NT 10.0; Win64; x64) AppleWebKit/537.36 (KHTML, like Gecko) Chrome/139.0.0.0 Safari/537.36","WebKit","Chrome","139.0.0.0","Windows","10.0","https://app.prolific.com/","en-US,en;q=0.9","672c8a3b9fb83ab9c5f02fd2","6877649eabb845cf142cd221","68931740f234574ab4e758b4","1","672c8a3b9fb83ab9c5f02fd2","1","2025-08-06T09:00:53.922Z","","","","","","","","","","","","","","","","win-only","3","g1:SW,g2:NE","0.4","7","0","591926.9","1809.6","6810.9","54947","1","4","4","6","2","-4","-4","6","10","0.045454545454545456","1411.9","3000","-2035","[""up"",""right""]","{""num_key_presses"":11,""num_perfect"":5,""num_errors"":0,""num_randdir"":6,""num_randdir_good_moves"":3,""num_whilered"":0,""num_whileblue"":0,""num_blue"":5,""num_good_moves"":8}","[296.22232142857143,297.12857142857143,0.7,296.22232142857143,297.12857142857143,102.2,296.22232142857143,297.12857142857143,204,296.22232142857143,297.12857142857143,308.3,296.22232142857143,297.12857142857143,409,296.22232142857143,297.12857142857143,513.4,291.22232142857143,305.12857142857143,616.9,315.22232142857143,287.12857142857143,733.1,438.22232142857143,121.12857142857143,839.4,481.22232142857143,33.128571428571426,947.5,480.22232142857143,46.128571428571426,1048.1,490.22232142857143,46.128571428571426,1150.8,537.2223214285714,41.128571428571426,1251.3,551.2223214285714,36.128571428571426,1351.5,551.2223214285714,35.128571428571426,1464.3,551.2223214285714,35.128571428571426,1566.6,544.2223214285714,37.128571428571426,1667.2,544.2223214285714,37.128571428571426,1774.9,544.2223214285714,37.128571428571426,1883,544.2223214285714,37.128571428571426,1999.1,540.2223214285714,38.128571428571426,2099.4,549.2223214285714,89.12857142857143,2213.4,699.2223214285714,257.12857142857143,2321.9,793.2223214285714,386.12857142857143,2424.4,795.2223214285714,391.12857142857143,2531.5,795.2223214285714,391.12857142857143,2632.2,795.2223214285714,392.12857142857143,2732.4,795.2223214285714,392.12857142857143,2840.1,795.2223214285714,392.12857142857143,2941.8,795.2223214285714,392.12857142857143,3047.5,795.2223214285714,392.12857142857143,3159.6,795.2223214285714,392.12857142857143,3267.9,795.2223214285714,392.12857142857143,3372.4,795.2223214285714,392.12857142857143,3474.8,795.2223214285714,392.12857142857143,3577.6,795.2223214285714,392.12857142857143,3693.4,795.2223214285714,392.12857142857143,3796.7,795.2223214285714,392.12857142857143,3897.4,795.2223214285714,392.12857142857143,4009.2,795.2223214285714,392.12857142857143,4111.3,795.2223214285714,392.12857142857143,4219.5,795.2223214285714,392.12857142857143,4324.4,795.2223214285714,392.12857142857143,4428,795.2223214285714,392.12857142857143,4530.9,795.2223214285714,392.12857142857143,4633.7,795.2223214285714,392.12857142857143,4735.6,795.2223214285714,392.12857142857143,4836.9,795.2223214285714,392.12857142857143,4944.3]","[3718.1,3718.1,1292.6,2015,410.5,""smooth"",""right"",""right"",""good_move"",10040.1,6321.4,2091.3,7584.8,364,""oops"",""right"",""right"",""good_move"",12749.5,2707.1,2290.1,10042.5,416.9,""oops"",""right"",""right"",""good_move"",18445.4,5695,2467.5,15609.7,368.3,""oops"",""up"",""down"",""bad_move"",20864.5,2418.4,2036,18446.1,382.4,""smooth"",""up"",""up"",""good_move"",24053.7,3188.7,2812.3,20865,376.4,""oops"",""up"",""down"",""bad_move"",26671,2616.6,2206,24054.4,410.6,""smooth"",""up"",""up"",""good_move"",30453.8,3781.8,3419.3,26672.2,362.4,""oops"",""up"",""down"",""bad_move"",36432.2,5977.4,2490.1,33556.2,385.9,""smooth"",""up"",""up"",""good_move"",39691.5,3258.9,2907.8,36432.8,351,""oops"",""up"",""up"",""good_move"",45297.3,5604.8,2468.3,42522.6,306.4,""smooth"",""up"",""up"",""good_move""]"
"4520","","<div style=""width:500px;"">
  <p>What determined the result of this run?</p>
  </div>","50","html-slider-response","44","649545","0.0-7.0-1.6","126","1","2025-08-06 08:50:16","36c45c0696341be0efffe67d72a12abb","216.120.189.142","Mozilla/5.0 (Windows NT 10.0; Win64; x64) AppleWebKit/537.36 (KHTML, like Gecko) Chrome/139.0.0.0 Safari/537.36","WebKit","Chrome","139.0.0.0","Windows","10.0","https://app.prolific.com/","en-US,en;q=0.9","672c8a3b9fb83ab9c5f02fd2","6877649eabb845cf142cd221","68931740f234574ab4e758b4","1","672c8a3b9fb83ab9c5f02fd2","1","2025-08-06T09:00:58.446Z","","","","AttribQ","","","","","","","","","","","50","","","","","","","","","","","","","","","","","","","","","","","","","","",""
"2674","","<div style=""width:500px;"">
  <p>How much control did you have over the ball?</p>
  </div>","50","html-slider-response","45","652227","0.0-7.0-2.6","126","1","2025-08-06 08:50:16","36c45c0696341be0efffe67d72a12abb","216.120.189.142","Mozilla/5.0 (Windows NT 10.0; Win64; x64) AppleWebKit/537.36 (KHTML, like Gecko) Chrome/139.0.0.0 Safari/537.36","WebKit","Chrome","139.0.0.0","Windows","10.0","https://app.prolific.com/","en-US,en;q=0.9","672c8a3b9fb83ab9c5f02fd2","6877649eabb845cf142cd221","68931740f234574ab4e758b4","1","672c8a3b9fb83ab9c5f02fd2","1","2025-08-06T09:01:01.127Z","","","","ControlQ","","","","","","","","","","","50","","","","","","","","","","","","","","","","","","","","","","","","","","",""
"1850","","<div style=""width:500px;"">
  <p>How would you describe your current emotional state?</p>
  </div>","11","html-slider-response","46","654081","0.0-7.0-3.6","126","1","2025-08-06 08:50:16","36c45c0696341be0efffe67d72a12abb","216.120.189.142","Mozilla/5.0 (Windows NT 10.0; Win64; x64) AppleWebKit/537.36 (KHTML, like Gecko) Chrome/139.0.0.0 Safari/537.36","WebKit","Chrome","139.0.0.0","Windows","10.0","https://app.prolific.com/","en-US,en;q=0.9","672c8a3b9fb83ab9c5f02fd2","6877649eabb845cf142cd221","68931740f234574ab4e758b4","1","672c8a3b9fb83ab9c5f02fd2","1","2025-08-06T09:01:02.981Z","","","","StressQ","","","","","","","","","","","50","","","","","","","","","","","","","","","","","","","","","","","","","","",""
"2438","","<div style=""width:500px;"">
  <p>What best describes how you currently feel?</p>
  </div>","96","html-slider-response","47","656522","0.0-7.0-4.6","126","1","2025-08-06 08:50:16","36c45c0696341be0efffe67d72a12abb","216.120.189.142","Mozilla/5.0 (Windows NT 10.0; Win64; x64) AppleWebKit/537.36 (KHTML, like Gecko) Chrome/139.0.0.0 Safari/537.36","WebKit","Chrome","139.0.0.0","Windows","10.0","https://app.prolific.com/","en-US,en;q=0.9","672c8a3b9fb83ab9c5f02fd2","6877649eabb845cf142cd221","68931740f234574ab4e758b4","1","672c8a3b9fb83ab9c5f02fd2","1","2025-08-06T09:01:05.423Z","","","","MotivationQ","","","","","","","","","","","50","","","","","","","","","","","","","","","","","","","","","","","","","","",""
"","","","","ctl-task-cpt","48","735213","0.0-7.0-0.7","126","1","2025-08-06 08:50:16","36c45c0696341be0efffe67d72a12abb","216.120.189.142","Mozilla/5.0 (Windows NT 10.0; Win64; x64) AppleWebKit/537.36 (KHTML, like Gecko) Chrome/139.0.0.0 Safari/537.36","WebKit","Chrome","139.0.0.0","Windows","10.0","https://app.prolific.com/","en-US,en;q=0.9","672c8a3b9fb83ab9c5f02fd2","6877649eabb845cf142cd221","68931740f234574ab4e758b4","1","672c8a3b9fb83ab9c5f02fd2","1","2025-08-06T09:02:24.113Z","","","","","","","","","","","","","","","","win-only","2","g1:SE,g2:NW","0.3","8","0","661399.3","1750.5","6754.9","75659.8","1","4","8","6","2","-8","-8","0","6","0","1467.2","3000","-1865","[""left"",""up""]","{""num_key_presses"":16,""num_perfect"":4,""num_errors"":0,""num_randdir"":12,""num_randdir_good_moves"":5,""num_whilered"":0,""num_whileblue"":0,""num_blue"":6,""num_good_moves"":9}","[288.22232142857143,299.12857142857143,0.2,288.22232142857143,299.12857142857143,101.5,288.22232142857143,299.12857142857143,205.8,289.22232142857143,299.12857142857143,323.8,293.22232142857143,298.12857142857143,426.5,267.22232142857143,271.12857142857143,532,16.222321428571426,94.12857142857143,633.6,-62.777678571428574,34.128571428571426,740.9,-63.777678571428574,23.128571428571426,841.6,-36.777678571428574,34.128571428571426,953.1,-19.777678571428574,59.128571428571426,1053.3,-12.777678571428574,61.128571428571426,1179.3,-1.7776785714285737,62.128571428571426,1281,20.222321428571426,63.128571428571426,1385.6,26.222321428571426,67.12857142857143,1487.9,26.222321428571426,67.12857142857143,1602.2,23.222321428571426,67.12857142857143,1710.5,-2.7776785714285737,83.12857142857143,1810.6,-2.7776785714285737,83.12857142857143,1912.2,-2.7776785714285737,83.12857142857143,2024.1,4.222321428571426,83.12857142857143,2136.3,28.222321428571426,92.12857142857143,2238.5,60.222321428571426,107.12857142857143,2355.1,66.22232142857143,112.12857142857143,2457.5,65.22232142857143,114.12857142857143,2566.3,65.22232142857143,115.12857142857143,2670.6,65.22232142857143,115.12857142857143,2775.8,65.22232142857143,115.12857142857143,2883.1,65.22232142857143,115.12857142857143,2987,65.22232142857143,115.12857142857143,3092,65.22232142857143,115.12857142857143,3196.1,65.22232142857143,115.12857142857143,3301.2,65.22232142857143,115.12857142857143,3406.1,65.22232142857143,115.12857142857143,3507.4,65.22232142857143,115.12857142857143,3621.7,65.22232142857143,115.12857142857143,3722.7,65.22232142857143,115.12857142857143,3827.3,65.22232142857143,115.12857142857143,3930.6,65.22232142857143,115.12857142857143,4034.8,65.22232142857143,115.12857142857143,4140.3,65.22232142857143,115.12857142857143,4243,65.22232142857143,115.12857142857143,4345.2,65.22232142857143,115.12857142857143,4458,65.22232142857143,115.12857142857143,4565.7,65.22232142857143,115.12857142857143,4671.2,65.22232142857143,115.12857142857143,4774,65.22232142857143,115.12857142857143,4881.5,65.22232142857143,115.12857142857143,4993.4]","[1523,1523.1,1000,0,523.1,""oops"",""up"",""up"",""good_move"",3874.8,2348.9,1910.7,1526,438.2,""oops"",""up"",""left"",""good_move"",6893.9,3017.8,2611.1,3876.2,406.7,""oops"",""up"",""up"",""good_move"",17660.6,10765.7,2554.3,14758.5,347.8,""smooth"",""up"",""up"",""good_move"",20720.1,3058.5,2634,17661.7,424.4,""smooth"",""left"",""left"",""good_move"",23717.5,2996.2,2578,20721.4,418.1,""oops"",""left"",""right"",""bad_move"",26494.1,2776,2353.3,23718.2,422.7,""oops"",""left"",""down"",""bad_move"",29735.9,3240.6,2833.6,26495.3,407,""oops"",""left"",""up"",""good_move"",33469.7,3733.5,2032.8,29736.3,1700.6,""oops"",""left"",""right"",""bad_move"",45129.2,11659.1,2323.2,42435.9,370.1,""smooth"",""left"",""left"",""good_move"",48506,3375.9,3021.2,45130.1,354.7,""oops"",""left"",""right"",""bad_move"",50771.2,2264.1,1799.5,48507.1,464.6,""smooth"",""left"",""left"",""good_move"",53967.8,3196.5,2793.2,50771.4,403.3,""oops"",""left"",""right"",""bad_move"",60390.6,6422.2,2689.6,57298.9,402.1,""oops"",""left"",""right"",""bad_move"",63256.8,2865.1,2440.2,60391.7,424.9,""oops"",""left"",""down"",""bad_move"",66534.8,3277,2881.6,63257.8,395.4,""oops"",""left"",""up"",""good_move""]"
"3778","","<div style=""width:500px;"">
  <p>What determined the result of this run?</p>
  </div>","50","html-slider-response","49","738994","0.0-7.0-1.7","126","1","2025-08-06 08:50:16","36c45c0696341be0efffe67d72a12abb","216.120.189.142","Mozilla/5.0 (Windows NT 10.0; Win64; x64) AppleWebKit/537.36 (KHTML, like Gecko) Chrome/139.0.0.0 Safari/537.36","WebKit","Chrome","139.0.0.0","Windows","10.0","https://app.prolific.com/","en-US,en;q=0.9","672c8a3b9fb83ab9c5f02fd2","6877649eabb845cf142cd221","68931740f234574ab4e758b4","1","672c8a3b9fb83ab9c5f02fd2","1","2025-08-06T09:02:27.894Z","","","","AttribQ","","","","","","","","","","","50","","","","","","","","","","","","","","","","","","","","","","","","","","",""
"1940","","<div style=""width:500px;"">
  <p>How much control did you have over the ball?</p>
  </div>","50","html-slider-response","50","740937","0.0-7.0-2.7","126","1","2025-08-06 08:50:16","36c45c0696341be0efffe67d72a12abb","216.120.189.142","Mozilla/5.0 (Windows NT 10.0; Win64; x64) AppleWebKit/537.36 (KHTML, like Gecko) Chrome/139.0.0.0 Safari/537.36","WebKit","Chrome","139.0.0.0","Windows","10.0","https://app.prolific.com/","en-US,en;q=0.9","672c8a3b9fb83ab9c5f02fd2","6877649eabb845cf142cd221","68931740f234574ab4e758b4","1","672c8a3b9fb83ab9c5f02fd2","1","2025-08-06T09:02:29.837Z","","","","ControlQ","","","","","","","","","","","50","","","","","","","","","","","","","","","","","","","","","","","","","","",""
"2837","","<div style=""width:500px;"">
  <p>How would you describe your current emotional state?</p>
  </div>","4","html-slider-response","51","743777","0.0-7.0-3.7","126","1","2025-08-06 08:50:16","36c45c0696341be0efffe67d72a12abb","216.120.189.142","Mozilla/5.0 (Windows NT 10.0; Win64; x64) AppleWebKit/537.36 (KHTML, like Gecko) Chrome/139.0.0.0 Safari/537.36","WebKit","Chrome","139.0.0.0","Windows","10.0","https://app.prolific.com/","en-US,en;q=0.9","672c8a3b9fb83ab9c5f02fd2","6877649eabb845cf142cd221","68931740f234574ab4e758b4","1","672c8a3b9fb83ab9c5f02fd2","1","2025-08-06T09:02:32.677Z","","","","StressQ","","","","","","","","","","","50","","","","","","","","","","","","","","","","","","","","","","","","","","",""
"2885","","<div style=""width:500px;"">
  <p>What best describes how you currently feel?</p>
  </div>","100","html-slider-response","52","746665","0.0-7.0-4.7","126","1","2025-08-06 08:50:16","36c45c0696341be0efffe67d72a12abb","216.120.189.142","Mozilla/5.0 (Windows NT 10.0; Win64; x64) AppleWebKit/537.36 (KHTML, like Gecko) Chrome/139.0.0.0 Safari/537.36","WebKit","Chrome","139.0.0.0","Windows","10.0","https://app.prolific.com/","en-US,en;q=0.9","672c8a3b9fb83ab9c5f02fd2","6877649eabb845cf142cd221","68931740f234574ab4e758b4","1","672c8a3b9fb83ab9c5f02fd2","1","2025-08-06T09:02:35.565Z","","","","MotivationQ","","","","","","","","","","","50","","","","","","","","","","","","","","","","","","","","","","","","","","",""
"","","","","ctl-task-cpt","53","782656","0.0-7.0-0.8","126","1","2025-08-06 08:50:16","36c45c0696341be0efffe67d72a12abb","216.120.189.142","Mozilla/5.0 (Windows NT 10.0; Win64; x64) AppleWebKit/537.36 (KHTML, like Gecko) Chrome/139.0.0.0 Safari/537.36","WebKit","Chrome","139.0.0.0","Windows","10.0","https://app.prolific.com/","en-US,en;q=0.9","672c8a3b9fb83ab9c5f02fd2","6877649eabb845cf142cd221","68931740f234574ab4e758b4","1","672c8a3b9fb83ab9c5f02fd2","1","2025-08-06T09:03:11.557Z","","","","","","","","","","","","","","","","win-only","3","g1:SW,g2:NE","0.4","9","0","751540.6","3405.7","8408","32966.1","1","4","8","6","2","8","8","8","0","0.06060606060606061","1727.7","3000","1500","[""up"",""right""]","{""num_key_presses"":8,""num_perfect"":3,""num_errors"":0,""num_randdir"":5,""num_randdir_good_moves"":4,""num_whilered"":0,""num_whileblue"":0,""num_blue"":1,""num_good_moves"":7}","[296.22232142857143,292.12857142857143,0.4,296.22232142857143,292.12857142857143,107.2,296.22232142857143,292.12857142857143,210.3,296.22232142857143,292.12857142857143,317.3,296.22232142857143,292.12857142857143,417.8,290.22232142857143,293.12857142857143,518.1,309.22232142857143,217.12857142857143,623.1,372.22232142857143,151.12857142857143,733.9,425.22232142857143,128.12857142857143,839.3,457.22232142857143,118.12857142857143,948.6,472.22232142857143,126.12857142857143,1053.4,474.22232142857143,126.12857142857143,1161,474.22232142857143,126.12857142857143,1261.4,481.22232142857143,118.12857142857143,1366.7,505.22232142857143,98.12857142857143,1471.6,510.22232142857143,83.12857142857143,1577.9,513.2223214285714,76.12857142857143,1680,513.2223214285714,76.12857142857143,1781.4,513.2223214285714,76.12857142857143,1884.2,513.2223214285714,76.12857142857143,1985.3,516.2223214285714,83.12857142857143,2095.3,526.2223214285714,92.12857142857143,2200.4,526.2223214285714,92.12857142857143,2302.6,526.2223214285714,92.12857142857143,2409.8,526.2223214285714,92.12857142857143,2513.4,566.2223214285714,82.12857142857143,2623.5,672.2223214285714,84.12857142857143,2732.9,731.2223214285714,93.12857142857143,2834.1,743.2223214285714,115.12857142857143,2943.5,743.2223214285714,116.12857142857143,3044.1,737.2223214285714,116.12857142857143,3149.8,736.2223214285714,116.12857142857143,3255,736.2223214285714,116.12857142857143,3359.3,733.2223214285714,115.12857142857143,3463.4,730.2223214285714,115.12857142857143,3563.6,727.2223214285714,115.12857142857143,3665.1,712.2223214285714,115.12857142857143,3772.9,692.2223214285714,114.12857142857143,3894.2,660.2223214285714,111.12857142857143,4000.9,556.2223214285714,116.12857142857143,4110.2,267.22232142857143,161.12857142857143,4215.4,-386.77767857142857,395.12857142857143,4333.8,-386.77767857142857,683.1285714285714,4434.4,-362.77767857142857,683.1285714285714,4537.2,-386.77767857142857,683.1285714285714,4641.6,-386.77767857142857,683.1285714285714,4750.6,-386.77767857142857,683.1285714285714,4854.9,-386.77767857142857,683.1285714285714,4960.2]","[1627.7,1627.7,1000,0,627.7,""oops"",""up"",""right"",""good_move"",3763.3,2134.7,1744.4,1628.6,390.3,""oops"",""up"",""up"",""good_move"",6968.8,3204.2,2795.7,3764.6,408.5,""smooth"",""up"",""up"",""good_move"",10044.1,3074.8,2709.7,6969.3,365.1,""oops"",""up"",""left"",""bad_move"",12971.3,2925.8,2551.2,10045.5,374.6,""oops"",""up"",""up"",""good_move"",19007.6,6036,2094.7,16540.8,372.1,""smooth"",""right"",""right"",""good_move"",21650.7,2642.5,2264.3,19008.2,378.2,""oops"",""right"",""right"",""good_move"",24337.3,2682.5,2259.8,21654.9,422.6,""smooth"",""right"",""right"",""good_move""]"
"4899","","<div style=""width:500px;"">
  <p>What determined the result of this run?</p>
  </div>","50","html-slider-response","54","787559","0.0-7.0-1.8","126","1","2025-08-06 08:50:16","36c45c0696341be0efffe67d72a12abb","216.120.189.142","Mozilla/5.0 (Windows NT 10.0; Win64; x64) AppleWebKit/537.36 (KHTML, like Gecko) Chrome/139.0.0.0 Safari/537.36","WebKit","Chrome","139.0.0.0","Windows","10.0","https://app.prolific.com/","en-US,en;q=0.9","672c8a3b9fb83ab9c5f02fd2","6877649eabb845cf142cd221","68931740f234574ab4e758b4","1","672c8a3b9fb83ab9c5f02fd2","1","2025-08-06T09:03:16.459Z","","","","AttribQ","","","","","","","","","","","50","","","","","","","","","","","","","","","","","","","","","","","","","","",""
"3368","","<div style=""width:500px;"">
  <p>How much control did you have over the ball?</p>
  </div>","50","html-slider-response","55","790932","0.0-7.0-2.8","126","1","2025-08-06 08:50:16","36c45c0696341be0efffe67d72a12abb","216.120.189.142","Mozilla/5.0 (Windows NT 10.0; Win64; x64) AppleWebKit/537.36 (KHTML, like Gecko) Chrome/139.0.0.0 Safari/537.36","WebKit","Chrome","139.0.0.0","Windows","10.0","https://app.prolific.com/","en-US,en;q=0.9","672c8a3b9fb83ab9c5f02fd2","6877649eabb845cf142cd221","68931740f234574ab4e758b4","1","672c8a3b9fb83ab9c5f02fd2","1","2025-08-06T09:03:19.832Z","","","","ControlQ","","","","","","","","","","","50","","","","","","","","","","","","","","","","","","","","","","","","","","",""
"3649","","<div style=""width:500px;"">
  <p>How would you describe your current emotional state?</p>
  </div>","0","html-slider-response","56","794584","0.0-7.0-3.8","126","1","2025-08-06 08:50:16","36c45c0696341be0efffe67d72a12abb","216.120.189.142","Mozilla/5.0 (Windows NT 10.0; Win64; x64) AppleWebKit/537.36 (KHTML, like Gecko) Chrome/139.0.0.0 Safari/537.36","WebKit","Chrome","139.0.0.0","Windows","10.0","https://app.prolific.com/","en-US,en;q=0.9","672c8a3b9fb83ab9c5f02fd2","6877649eabb845cf142cd221","68931740f234574ab4e758b4","1","672c8a3b9fb83ab9c5f02fd2","1","2025-08-06T09:03:23.484Z","","","","StressQ","","","","","","","","","","","50","","","","","","","","","","","","","","","","","","","","","","","","","","",""
"4467","","<div style=""width:500px;"">
  <p>What best describes how you currently feel?</p>
  </div>","100","html-slider-response","57","799054","0.0-7.0-4.8","126","1","2025-08-06 08:50:16","36c45c0696341be0efffe67d72a12abb","216.120.189.142","Mozilla/5.0 (Windows NT 10.0; Win64; x64) AppleWebKit/537.36 (KHTML, like Gecko) Chrome/139.0.0.0 Safari/537.36","WebKit","Chrome","139.0.0.0","Windows","10.0","https://app.prolific.com/","en-US,en;q=0.9","672c8a3b9fb83ab9c5f02fd2","6877649eabb845cf142cd221","68931740f234574ab4e758b4","1","672c8a3b9fb83ab9c5f02fd2","1","2025-08-06T09:03:27.954Z","","","","MotivationQ","","","","","","","","","","","50","","","","","","","","","","","","","","","","","","","","","","","","","","",""
"","","","","ctl-task-cpt","58","832495","0.0-7.0-0.9","126","1","2025-08-06 08:50:16","36c45c0696341be0efffe67d72a12abb","216.120.189.142","Mozilla/5.0 (Windows NT 10.0; Win64; x64) AppleWebKit/537.36 (KHTML, like Gecko) Chrome/139.0.0.0 Safari/537.36","WebKit","Chrome","139.0.0.0","Windows","10.0","https://app.prolific.com/","en-US,en;q=0.9","672c8a3b9fb83ab9c5f02fd2","6877649eabb845cf142cd221","68931740f234574ab4e758b4","1","672c8a3b9fb83ab9c5f02fd2","1","2025-08-06T09:04:01.395Z","","","","","","","","","","","","","","","","win-only","1","g1:NE,g2:SW","0.5","10","0","803929.2","2884.1","7890.1","30420.8","1","4","4","6","2","4","4","12","8","0.09090909090909091","2090.1","3000","2030","[""down"",""left""]","{""num_key_presses"":6,""num_perfect"":4,""num_errors"":0,""num_randdir"":2,""num_randdir_good_moves"":2,""num_whilered"":0,""num_whileblue"":0,""num_blue"":2,""num_good_moves"":6}","[296.22232142857143,292.12857142857143,2.2,296.22232142857143,292.12857142857143,116.5,296.22232142857143,292.12857142857143,228,296.22232142857143,292.12857142857143,334.3,296.22232142857143,292.12857142857143,448,296.22232142857143,292.12857142857143,555.8,223.22232142857143,373.12857142857143,661.7,165.22232142857143,470.12857142857143,775.7,158.22232142857143,490.12857142857143,888.3,155.22232142857143,512.1285714285714,989.8,155.22232142857143,512.1285714285714,1094.8,155.22232142857143,512.1285714285714,1195.4,138.22232142857143,514.1285714285714,1299.4,128.22232142857143,518.1285714285714,1412.3,120.22232142857143,521.1285714285714,1518.7,81.22232142857143,544.1285714285714,1626.1,64.22232142857143,544.1285714285714,1736.7,54.222321428571426,542.1285714285714,1839.5,54.222321428571426,542.1285714285714,1943.2,54.222321428571426,542.1285714285714,2051.3,54.222321428571426,542.1285714285714,2176.3,54.222321428571426,542.1285714285714,2283.6,54.222321428571426,542.1285714285714,2385.6,54.222321428571426,542.1285714285714,2488.9,54.222321428571426,542.1285714285714,2599.5,364.22232142857143,382.12857142857143,2701.5,737.2223214285714,336.12857142857143,2809.8,737.2223214285714,336.12857142857143,2917.7,737.2223214285714,336.12857142857143,3025.1,737.2223214285714,336.12857142857143,3135.4,737.2223214285714,336.12857142857143,3248.3,737.2223214285714,336.12857142857143,3352.3,737.2223214285714,336.12857142857143,3459.4,737.2223214285714,336.12857142857143,3564.7,737.2223214285714,336.12857142857143,3676.8,737.2223214285714,336.12857142857143,3781.2,737.2223214285714,336.12857142857143,3881.3,737.2223214285714,336.12857142857143,3992.1,737.2223214285714,336.12857142857143,4092.6,737.2223214285714,336.12857142857143,4193.3,737.2223214285714,336.12857142857143,4309.7,737.2223214285714,336.12857142857143,4421,737.2223214285714,336.12857142857143,4530.2,737.2223214285714,336.12857142857143,4633.9,737.2223214285714,336.12857142857143,4744,737.2223214285714,336.12857142857143,4855.4,737.2223214285714,336.12857142857143,4968.1]","[1453.8,1453.8,1000,0,453.8,""oops"",""down"",""down"",""good_move"",7280.1,5825.4,2040.4,4868.5,371.3,""smooth"",""down"",""down"",""good_move"",10047.6,2766.3,2292.1,7281.3,474.2,""oops"",""down"",""down"",""good_move"",16138.7,6090.8,2036.8,13640.9,461,""smooth"",""left"",""left"",""good_move"",19477.7,3338.4,2891,16139.3,447.4,""smooth"",""left"",""left"",""good_move"",22290.1,2811.4,2176.1,19478.7,635.3,""smooth"",""left"",""left"",""good_move""]"
"4600","","<div style=""width:500px;"">
  <p>What determined the result of this run?</p>
  </div>","53","html-slider-response","59","837098","0.0-7.0-1.9","126","1","2025-08-06 08:50:16","36c45c0696341be0efffe67d72a12abb","216.120.189.142","Mozilla/5.0 (Windows NT 10.0; Win64; x64) AppleWebKit/537.36 (KHTML, like Gecko) Chrome/139.0.0.0 Safari/537.36","WebKit","Chrome","139.0.0.0","Windows","10.0","https://app.prolific.com/","en-US,en;q=0.9","672c8a3b9fb83ab9c5f02fd2","6877649eabb845cf142cd221","68931740f234574ab4e758b4","1","672c8a3b9fb83ab9c5f02fd2","1","2025-08-06T09:04:05.998Z","","","","AttribQ","","","","","","","","","","","50","","","","","","","","","","","","","","","","","","","","","","","","","","",""
"4748","","<div style=""width:500px;"">
  <p>How much control did you have over the ball?</p>
  </div>","50","html-slider-response","60","841849","0.0-7.0-2.9","126","1","2025-08-06 08:50:16","36c45c0696341be0efffe67d72a12abb","216.120.189.142","Mozilla/5.0 (Windows NT 10.0; Win64; x64) AppleWebKit/537.36 (KHTML, like Gecko) Chrome/139.0.0.0 Safari/537.36","WebKit","Chrome","139.0.0.0","Windows","10.0","https://app.prolific.com/","en-US,en;q=0.9","672c8a3b9fb83ab9c5f02fd2","6877649eabb845cf142cd221","68931740f234574ab4e758b4","1","672c8a3b9fb83ab9c5f02fd2","1","2025-08-06T09:04:10.749Z","","","","ControlQ","","","","","","","","","","","50","","","","","","","","","","","","","","","","","","","","","","","","","","",""
"6101","","<div style=""width:500px;"">
  <p>How would you describe your current emotional state?</p>
  </div>","0","html-slider-response","61","847954","0.0-7.0-3.9","126","1","2025-08-06 08:50:16","36c45c0696341be0efffe67d72a12abb","216.120.189.142","Mozilla/5.0 (Windows NT 10.0; Win64; x64) AppleWebKit/537.36 (KHTML, like Gecko) Chrome/139.0.0.0 Safari/537.36","WebKit","Chrome","139.0.0.0","Windows","10.0","https://app.prolific.com/","en-US,en;q=0.9","672c8a3b9fb83ab9c5f02fd2","6877649eabb845cf142cd221","68931740f234574ab4e758b4","1","672c8a3b9fb83ab9c5f02fd2","1","2025-08-06T09:04:16.855Z","","","","StressQ","","","","","","","","","","","50","","","","","","","","","","","","","","","","","","","","","","","","","","",""
"4397","","<div style=""width:500px;"">
  <p>What best describes how you currently feel?</p>
  </div>","96","html-slider-response","62","852354","0.0-7.0-4.9","126","1","2025-08-06 08:50:16","36c45c0696341be0efffe67d72a12abb","216.120.189.142","Mozilla/5.0 (Windows NT 10.0; Win64; x64) AppleWebKit/537.36 (KHTML, like Gecko) Chrome/139.0.0.0 Safari/537.36","WebKit","Chrome","139.0.0.0","Windows","10.0","https://app.prolific.com/","en-US,en;q=0.9","672c8a3b9fb83ab9c5f02fd2","6877649eabb845cf142cd221","68931740f234574ab4e758b4","1","672c8a3b9fb83ab9c5f02fd2","1","2025-08-06T09:04:21.254Z","","","","MotivationQ","","","","","","","","","","","50","","","","","","","","","","","","","","","","","","","","","","","","","","",""
"","","","","ctl-task-cpt","63","906894","0.0-7.0-0.10","126","1","2025-08-06 08:50:16","36c45c0696341be0efffe67d72a12abb","216.120.189.142","Mozilla/5.0 (Windows NT 10.0; Win64; x64) AppleWebKit/537.36 (KHTML, like Gecko) Chrome/139.0.0.0 Safari/537.36","WebKit","Chrome","139.0.0.0","Windows","10.0","https://app.prolific.com/","en-US,en;q=0.9","672c8a3b9fb83ab9c5f02fd2","6877649eabb845cf142cd221","68931740f234574ab4e758b4","1","672c8a3b9fb83ab9c5f02fd2","1","2025-08-06T09:05:15.794Z","","","","","","","","","","","","","","","","win-only","2","g1:SE,g2:NW","0.6","11","0","857230.3","3310.1","8316.2","51502.8","1","4","4","6","2","4","4","16","12","0.12121212121212122","2015.3","3000","1150","[""left"",""up""]","{""num_key_presses"":10,""num_perfect"":6,""num_errors"":0,""num_randdir"":4,""num_randdir_good_moves"":2,""num_whilered"":0,""num_whileblue"":0,""num_blue"":4,""num_good_moves"":8}","[292.22232142857143,296.12857142857143,1.1,292.22232142857143,296.12857142857143,100.2,292.22232142857143,296.12857142857143,221.7,292.22232142857143,296.12857142857143,325,292.22232142857143,296.12857142857143,443.5,292.22232142857143,296.12857142857143,547.3,133.22232142857143,161.12857142857143,662.5,59.222321428571426,96.12857142857143,781,47.222321428571426,85.12857142857143,894.5,47.222321428571426,85.12857142857143,1007.9,47.222321428571426,85.12857142857143,1123.6,47.222321428571426,85.12857142857143,1227.3,47.222321428571426,85.12857142857143,1336.5,47.222321428571426,85.12857142857143,1449.8,47.222321428571426,85.12857142857143,1553.8,47.222321428571426,85.12857142857143,1664.4,47.222321428571426,85.12857142857143,1777.5,47.222321428571426,85.12857142857143,1887.3,47.222321428571426,85.12857142857143,1999.4,47.222321428571426,85.12857142857143,2103.5,47.222321428571426,85.12857142857143,2220.2,47.222321428571426,85.12857142857143,2331,47.222321428571426,85.12857142857143,2439.2,47.222321428571426,85.12857142857143,2552.3,53.222321428571426,83.12857142857143,2667.8,530.2223214285714,-50.871428571428574,2787.4,637.2223214285714,-48.871428571428574,2889.6,650.2223214285714,-44.871428571428574,2994.1,650.2223214285714,-44.871428571428574,3094.7,650.2223214285714,-44.871428571428574,3202.1,650.2223214285714,-44.871428571428574,3324.3,650.2223214285714,-44.871428571428574,3438.3,650.2223214285714,-44.871428571428574,3542.2,650.2223214285714,-44.871428571428574,3655.2,650.2223214285714,-44.871428571428574,3767.9,650.2223214285714,-44.871428571428574,3881,650.2223214285714,-44.871428571428574,3993.4,650.2223214285714,-44.871428571428574,4107.5,650.2223214285714,-44.871428571428574,4221.5,650.2223214285714,-44.871428571428574,4329.7,650.2223214285714,-44.871428571428574,4440.7,650.2223214285714,-44.871428571428574,4559.7,650.2223214285714,-44.871428571428574,4667.7,650.2223214285714,-44.871428571428574,4778.4,650.2223214285714,-44.871428571428574,4889.3]","[2115.6,2115.5,1000,0.1,1115.5,""smooth"",""up"",""up"",""good_move"",4664.5,2548.1,2151.6,2116.5,396.4,""smooth"",""up"",""up"",""good_move"",7484,2819.2,2395.5,4664.8,423.7,""oops"",""up"",""left"",""good_move"",10560.7,3075.7,2682.8,7485,392.9,""oops"",""up"",""left"",""good_move"",13914.8,3353.2,2904.2,10561.6,449,""smooth"",""up"",""up"",""good_move"",19477.9,5562.1,1769.8,17241,467.1,""oops"",""left"",""right"",""bad_move"",22761.7,3282.9,2895.9,19478.9,386.9,""oops"",""left"",""right"",""bad_move"",25462.1,2700.1,2323.5,22762,376.6,""smooth"",""left"",""left"",""good_move"",39730.7,14267.7,2599.5,36676.7,454.6,""smooth"",""left"",""left"",""good_move"",42849,3117.7,1873.6,39731.4,1244.1,""smooth"",""left"",""left"",""good_move""]"
"5624","","<div style=""width:500px;"">
  <p>What determined the result of this run?</p>
  </div>","54","html-slider-response","64","912521","0.0-7.0-1.10","126","1","2025-08-06 08:50:16","36c45c0696341be0efffe67d72a12abb","216.120.189.142","Mozilla/5.0 (Windows NT 10.0; Win64; x64) AppleWebKit/537.36 (KHTML, like Gecko) Chrome/139.0.0.0 Safari/537.36","WebKit","Chrome","139.0.0.0","Windows","10.0","https://app.prolific.com/","en-US,en;q=0.9","672c8a3b9fb83ab9c5f02fd2","6877649eabb845cf142cd221","68931740f234574ab4e758b4","1","672c8a3b9fb83ab9c5f02fd2","1","2025-08-06T09:05:21.421Z","","","","AttribQ","","","","","","","","","","","50","","","","","","","","","","","","","","","","","","","","","","","","","","",""
"4195","","<div style=""width:500px;"">
  <p>How much control did you have over the ball?</p>
  </div>","50","html-slider-response","65","916719","0.0-7.0-2.10","126","1","2025-08-06 08:50:16","36c45c0696341be0efffe67d72a12abb","216.120.189.142","Mozilla/5.0 (Windows NT 10.0; Win64; x64) AppleWebKit/537.36 (KHTML, like Gecko) Chrome/139.0.0.0 Safari/537.36","WebKit","Chrome","139.0.0.0","Windows","10.0","https://app.prolific.com/","en-US,en;q=0.9","672c8a3b9fb83ab9c5f02fd2","6877649eabb845cf142cd221","68931740f234574ab4e758b4","1","672c8a3b9fb83ab9c5f02fd2","1","2025-08-06T09:05:25.619Z","","","","ControlQ","","","","","","","","","","","50","","","","","","","","","","","","","","","","","","","","","","","","","","",""
"3981","","<div style=""width:500px;"">
  <p>How would you describe your current emotional state?</p>
  </div>","0","html-slider-response","66","920704","0.0-7.0-3.10","126","1","2025-08-06 08:50:16","36c45c0696341be0efffe67d72a12abb","216.120.189.142","Mozilla/5.0 (Windows NT 10.0; Win64; x64) AppleWebKit/537.36 (KHTML, like Gecko) Chrome/139.0.0.0 Safari/537.36","WebKit","Chrome","139.0.0.0","Windows","10.0","https://app.prolific.com/","en-US,en;q=0.9","672c8a3b9fb83ab9c5f02fd2","6877649eabb845cf142cd221","68931740f234574ab4e758b4","1","672c8a3b9fb83ab9c5f02fd2","1","2025-08-06T09:05:29.604Z","","","","StressQ","","","","","","","","","","","50","","","","","","","","","","","","","","","","","","","","","","","","","","",""
"4745","","<div style=""width:500px;"">
  <p>What best describes how you currently feel?</p>
  </div>","100","html-slider-response","67","925454","0.0-7.0-4.10","126","1","2025-08-06 08:50:16","36c45c0696341be0efffe67d72a12abb","216.120.189.142","Mozilla/5.0 (Windows NT 10.0; Win64; x64) AppleWebKit/537.36 (KHTML, like Gecko) Chrome/139.0.0.0 Safari/537.36","WebKit","Chrome","139.0.0.0","Windows","10.0","https://app.prolific.com/","en-US,en;q=0.9","672c8a3b9fb83ab9c5f02fd2","6877649eabb845cf142cd221","68931740f234574ab4e758b4","1","672c8a3b9fb83ab9c5f02fd2","1","2025-08-06T09:05:34.355Z","","","","MotivationQ","","","","","","","","","","","50","","","","","","","","","","","","","","","","","","","","","","","","","","",""
"","","","","ctl-task-cpt","68","978755","0.0-7.0-0.11","126","1","2025-08-06 08:50:16","36c45c0696341be0efffe67d72a12abb","216.120.189.142","Mozilla/5.0 (Windows NT 10.0; Win64; x64) AppleWebKit/537.36 (KHTML, like Gecko) Chrome/139.0.0.0 Safari/537.36","WebKit","Chrome","139.0.0.0","Windows","10.0","https://app.prolific.com/","en-US,en;q=0.9","672c8a3b9fb83ab9c5f02fd2","6877649eabb845cf142cd221","68931740f234574ab4e758b4","1","672c8a3b9fb83ab9c5f02fd2","1","2025-08-06T09:06:27.655Z","","","","","","","","","","","","","","","","win-only","2","g1:SE,g2:NW","0.7","12","0","930330.8","2168.1","7170.9","50267.8","1","4","8","6","2","8","8","24","16","0.18181818181818182","1685","3000","1575","[""left"",""up""]","{""num_key_presses"":10,""num_perfect"":7,""num_errors"":0,""num_randdir"":3,""num_randdir_good_moves"":1,""num_whilered"":0,""num_whileblue"":0,""num_blue"":4,""num_good_moves"":8}","[296.22232142857143,300.12857142857143,1.7,296.22232142857143,300.12857142857143,106.8,296.22232142857143,300.12857142857143,217.1,296.22232142857143,300.12857142857143,318.2,296.22232142857143,300.12857142857143,428.5,296.22232142857143,300.12857142857143,541.3,296.22232142857143,300.12857142857143,643.3,213.22232142857143,227.12857142857143,749.8,139.22232142857143,119.12857142857143,856.5,120.22232142857143,100.12857142857143,969.9,90.22232142857143,95.12857142857143,1072.2,61.222321428571426,85.12857142857143,1182.7,56.222321428571426,81.12857142857143,1293.9,56.222321428571426,81.12857142857143,1394.3,56.222321428571426,81.12857142857143,1504.6,56.222321428571426,81.12857142857143,1606.3,56.222321428571426,81.12857142857143,1709.5,56.222321428571426,81.12857142857143,1811.1,56.222321428571426,81.12857142857143,1913.3,56.222321428571426,81.12857142857143,2024.3,56.222321428571426,81.12857142857143,2124.4,56.222321428571426,81.12857142857143,2236.3,56.222321428571426,81.12857142857143,2337,56.222321428571426,81.12857142857143,2452.6,56.222321428571426,81.12857142857143,2564.9,139.22232142857143,56.128571428571426,2670.8,296.22232142857143,76.12857142857143,2779.3,381.22232142857143,128.12857142857143,2888.5,415.22232142857143,176.12857142857143,3001.3,421.22232142857143,186.12857142857143,3107.6,421.22232142857143,186.12857142857143,3217.2,421.22232142857143,186.12857142857143,3320.5,421.22232142857143,186.12857142857143,3424.3,421.22232142857143,186.12857142857143,3525.6,421.22232142857143,186.12857142857143,3631.2,421.22232142857143,186.12857142857143,3736.8,421.22232142857143,186.12857142857143,3849.7,421.22232142857143,186.12857142857143,3986.4,421.22232142857143,186.12857142857143,4093,421.22232142857143,186.12857142857143,4195.8,421.22232142857143,186.12857142857143,4327.9,421.22232142857143,186.12857142857143,4432.4,421.22232142857143,186.12857142857143,4534.4,421.22232142857143,186.12857142857143,4636.9,421.22232142857143,186.12857142857143,4748,421.22232142857143,186.12857142857143,4858.5,421.22232142857143,186.12857142857143,4960.6]","[1472.9,1472.9,1000,0,472.9,""smooth"",""up"",""up"",""good_move"",15417.9,13943.4,2483.5,12451.6,482.8,""smooth"",""up"",""up"",""good_move"",22062.1,6643.6,2658.2,19016.7,387.3,""smooth"",""up"",""up"",""good_move"",25715.2,3651.9,2677.3,22063.3,974.6,""oops"",""left"",""right"",""bad_move"",28754.1,3037.8,2619.3,25716.4,418.4,""oops"",""left"",""right"",""bad_move"",31252.4,2497.6,2074,28754.8,423.7,""smooth"",""left"",""left"",""good_move"",33944.5,2690.8,2308.4,31253.7,382.4,""smooth"",""left"",""left"",""good_move"",37029.3,3083.8,2591.4,33945.5,492.4,""smooth"",""left"",""left"",""good_move"",40251.4,3221.4,2824,37030,397.4,""smooth"",""left"",""left"",""good_move"",42889.6,2637.5,2208.7,40252.1,428.8,""oops"",""left"",""left"",""good_move""]"
"3461","","<div style=""width:500px;"">
  <p>What determined the result of this run?</p>
  </div>","50","html-slider-response","69","982219","0.0-7.0-1.11","126","1","2025-08-06 08:50:16","36c45c0696341be0efffe67d72a12abb","216.120.189.142","Mozilla/5.0 (Windows NT 10.0; Win64; x64) AppleWebKit/537.36 (KHTML, like Gecko) Chrome/139.0.0.0 Safari/537.36","WebKit","Chrome","139.0.0.0","Windows","10.0","https://app.prolific.com/","en-US,en;q=0.9","672c8a3b9fb83ab9c5f02fd2","6877649eabb845cf142cd221","68931740f234574ab4e758b4","1","672c8a3b9fb83ab9c5f02fd2","1","2025-08-06T09:06:31.119Z","","","","AttribQ","","","","","","","","","","","50","","","","","","","","","","","","","","","","","","","","","","","","","","",""
"5025","","<div style=""width:500px;"">
  <p>How much control did you have over the ball?</p>
  </div>","50","html-slider-response","70","987247","0.0-7.0-2.11","126","1","2025-08-06 08:50:16","36c45c0696341be0efffe67d72a12abb","216.120.189.142","Mozilla/5.0 (Windows NT 10.0; Win64; x64) AppleWebKit/537.36 (KHTML, like Gecko) Chrome/139.0.0.0 Safari/537.36","WebKit","Chrome","139.0.0.0","Windows","10.0","https://app.prolific.com/","en-US,en;q=0.9","672c8a3b9fb83ab9c5f02fd2","6877649eabb845cf142cd221","68931740f234574ab4e758b4","1","672c8a3b9fb83ab9c5f02fd2","1","2025-08-06T09:06:36.147Z","","","","ControlQ","","","","","","","","","","","50","","","","","","","","","","","","","","","","","","","","","","","","","","",""
"4522","","<div style=""width:500px;"">
  <p>How would you describe your current emotional state?</p>
  </div>","1","html-slider-response","71","991773","0.0-7.0-3.11","126","1","2025-08-06 08:50:16","36c45c0696341be0efffe67d72a12abb","216.120.189.142","Mozilla/5.0 (Windows NT 10.0; Win64; x64) AppleWebKit/537.36 (KHTML, like Gecko) Chrome/139.0.0.0 Safari/537.36","WebKit","Chrome","139.0.0.0","Windows","10.0","https://app.prolific.com/","en-US,en;q=0.9","672c8a3b9fb83ab9c5f02fd2","6877649eabb845cf142cd221","68931740f234574ab4e758b4","1","672c8a3b9fb83ab9c5f02fd2","1","2025-08-06T09:06:40.673Z","","","","StressQ","","","","","","","","","","","50","","","","","","","","","","","","","","","","","","","","","","","","","","",""
"7412","","<div style=""width:500px;"">
  <p>What best describes how you currently feel?</p>
  </div>","99","html-slider-response","72","999188","0.0-7.0-4.11","126","1","2025-08-06 08:50:16","36c45c0696341be0efffe67d72a12abb","216.120.189.142","Mozilla/5.0 (Windows NT 10.0; Win64; x64) AppleWebKit/537.36 (KHTML, like Gecko) Chrome/139.0.0.0 Safari/537.36","WebKit","Chrome","139.0.0.0","Windows","10.0","https://app.prolific.com/","en-US,en;q=0.9","672c8a3b9fb83ab9c5f02fd2","6877649eabb845cf142cd221","68931740f234574ab4e758b4","1","672c8a3b9fb83ab9c5f02fd2","1","2025-08-06T09:06:48.088Z","","","","MotivationQ","","","","","","","","","","","50","","","","","","","","","","","","","","","","","","","","","","","","","","",""
"","","","","ctl-task-cpt","73","1034525","0.0-7.0-0.12","126","1","2025-08-06 08:50:16","36c45c0696341be0efffe67d72a12abb","216.120.189.142","Mozilla/5.0 (Windows NT 10.0; Win64; x64) AppleWebKit/537.36 (KHTML, like Gecko) Chrome/139.0.0.0 Safari/537.36","WebKit","Chrome","139.0.0.0","Windows","10.0","https://app.prolific.com/","en-US,en;q=0.9","672c8a3b9fb83ab9c5f02fd2","6877649eabb845cf142cd221","68931740f234574ab4e758b4","1","672c8a3b9fb83ab9c5f02fd2","1","2025-08-06T09:07:23.425Z","","","","","","","","","","","","","","","","win-only","2","g1:SE,g2:NW","0.8","13","0","1004064.2","2073.3","7082.6","32308.8","1","4","4","6","2","4","4","28","24","0.21212121212121213","1713","3000","1850","[""left"",""up""]","{""num_key_presses"":8,""num_perfect"":6,""num_errors"":0,""num_randdir"":2,""num_randdir_good_moves"":1,""num_whilered"":0,""num_whileblue"":0,""num_blue"":1,""num_good_moves"":7}","[291.22232142857143,293.12857142857143,1.2,291.22232142857143,293.12857142857143,105.4,291.22232142857143,293.12857142857143,206.9,291.22232142857143,293.12857142857143,310.9,291.22232142857143,293.12857142857143,423.4,291.22232142857143,293.12857142857143,532.3,291.22232142857143,293.12857142857143,645.7,290.22232142857143,292.12857142857143,754.3,43.222321428571426,117.12857142857143,863.4,-14.777678571428574,94.12857142857143,978.1,-34.777678571428574,77.12857142857143,1084.6,1.2223214285714263,60.128571428571426,1189.8,13.222321428571426,59.128571428571426,1294.9,17.222321428571426,59.128571428571426,1408.8,17.222321428571426,59.128571428571426,1510,17.222321428571426,59.128571428571426,1614.1,17.222321428571426,59.128571428571426,1730.2,17.222321428571426,59.128571428571426,1830.8,17.222321428571426,59.128571428571426,1932,17.222321428571426,59.128571428571426,2051.1,17.222321428571426,59.128571428571426,2159.3,17.222321428571426,59.128571428571426,2273.5,17.222321428571426,59.128571428571426,2401.8,17.222321428571426,59.128571428571426,2517.4,17.222321428571426,59.128571428571426,2618.3,17.222321428571426,59.128571428571426,2738.1,17.222321428571426,59.128571428571426,2849.7,17.222321428571426,59.128571428571426,2962.4,17.222321428571426,59.128571428571426,3065.9,17.222321428571426,59.128571428571426,3171.7,17.222321428571426,59.128571428571426,3272.5,17.222321428571426,59.128571428571426,3380.8,17.222321428571426,59.128571428571426,3488.7,17.222321428571426,59.128571428571426,3602.9,17.222321428571426,59.128571428571426,3719.4,17.222321428571426,59.128571428571426,3836.9,17.222321428571426,59.128571428571426,3948.9,17.222321428571426,59.128571428571426,4050.3,17.222321428571426,59.128571428571426,4156.9,17.222321428571426,59.128571428571426,4271.1,17.222321428571426,59.128571428571426,4373.4,17.222321428571426,59.128571428571426,4488.7,17.222321428571426,59.128571428571426,4602.2,17.222321428571426,59.128571428571426,4719.6,17.222321428571426,59.128571428571426,4825.8,17.222321428571426,59.128571428571426,4945.6]","[1549.7,1549.7,1000,0,549.7,""smooth"",""up"",""up"",""good_move"",4254.5,2703.6,1698.6,1550.9,1005,""oops"",""up"",""down"",""bad_move"",7600.6,3343.7,2921.5,4256.9,422.2,""smooth"",""up"",""up"",""good_move"",10806.8,3205.2,1398.2,7601.6,1807,""smooth"",""left"",""left"",""good_move"",14000.4,3192.2,2003.7,10808.2,1188.5,""oops"",""left"",""left"",""good_move"",19226.5,5225.6,1659.5,17141.4,425.7,""smooth"",""left"",""left"",""good_move"",22067.1,2839.8,2442.4,19227.3,397.4,""smooth"",""up"",""up"",""good_move"",24925.2,2856.1,2382.7,22069.1,473.4,""smooth"",""up"",""up"",""good_move""]"
"4216","","<div style=""width:500px;"">
  <p>What determined the result of this run?</p>
  </div>","50","html-slider-response","74","1038743","0.0-7.0-1.12","126","1","2025-08-06 08:50:16","36c45c0696341be0efffe67d72a12abb","216.120.189.142","Mozilla/5.0 (Windows NT 10.0; Win64; x64) AppleWebKit/537.36 (KHTML, like Gecko) Chrome/139.0.0.0 Safari/537.36","WebKit","Chrome","139.0.0.0","Windows","10.0","https://app.prolific.com/","en-US,en;q=0.9","672c8a3b9fb83ab9c5f02fd2","6877649eabb845cf142cd221","68931740f234574ab4e758b4","1","672c8a3b9fb83ab9c5f02fd2","1","2025-08-06T09:07:27.644Z","","","","AttribQ","","","","","","","","","","","50","","","","","","","","","","","","","","","","","","","","","","","","","","",""
"3775","","<div style=""width:500px;"">
  <p>How much control did you have over the ball?</p>
  </div>","50","html-slider-response","75","1042523","0.0-7.0-2.12","126","1","2025-08-06 08:50:16","36c45c0696341be0efffe67d72a12abb","216.120.189.142","Mozilla/5.0 (Windows NT 10.0; Win64; x64) AppleWebKit/537.36 (KHTML, like Gecko) Chrome/139.0.0.0 Safari/537.36","WebKit","Chrome","139.0.0.0","Windows","10.0","https://app.prolific.com/","en-US,en;q=0.9","672c8a3b9fb83ab9c5f02fd2","6877649eabb845cf142cd221","68931740f234574ab4e758b4","1","672c8a3b9fb83ab9c5f02fd2","1","2025-08-06T09:07:31.424Z","","","","ControlQ","","","","","","","","","","","50","","","","","","","","","","","","","","","","","","","","","","","","","","",""
"5146","","<div style=""width:500px;"">
  <p>How would you describe your current emotional state?</p>
  </div>","2","html-slider-response","76","1047673","0.0-7.0-3.12","126","1","2025-08-06 08:50:16","36c45c0696341be0efffe67d72a12abb","216.120.189.142","Mozilla/5.0 (Windows NT 10.0; Win64; x64) AppleWebKit/537.36 (KHTML, like Gecko) Chrome/139.0.0.0 Safari/537.36","WebKit","Chrome","139.0.0.0","Windows","10.0","https://app.prolific.com/","en-US,en;q=0.9","672c8a3b9fb83ab9c5f02fd2","6877649eabb845cf142cd221","68931740f234574ab4e758b4","1","672c8a3b9fb83ab9c5f02fd2","1","2025-08-06T09:07:36.573Z","","","","StressQ","","","","","","","","","","","50","","","","","","","","","","","","","","","","","","","","","","","","","","",""
"3983","","<div style=""width:500px;"">
  <p>What best describes how you currently feel?</p>
  </div>","100","html-slider-response","77","1051660","0.0-7.0-4.12","126","1","2025-08-06 08:50:16","36c45c0696341be0efffe67d72a12abb","216.120.189.142","Mozilla/5.0 (Windows NT 10.0; Win64; x64) AppleWebKit/537.36 (KHTML, like Gecko) Chrome/139.0.0.0 Safari/537.36","WebKit","Chrome","139.0.0.0","Windows","10.0","https://app.prolific.com/","en-US,en;q=0.9","672c8a3b9fb83ab9c5f02fd2","6877649eabb845cf142cd221","68931740f234574ab4e758b4","1","672c8a3b9fb83ab9c5f02fd2","1","2025-08-06T09:07:40.560Z","","","","MotivationQ","","","","","","","","","","","50","","","","","","","","","","","","","","","","","","","","","","","","","","",""
