"rt","response_timestamp","stimulus","response","trial_type","trial_index","time_elapsed","internal_node_id","run_id","condition","recorded_at","source_code_version","ip","user_agent","device","browser","browser_version","platform","platform_version","referer","accept_language","PROLIFIC_PID","STUDY_ID","SESSION_ID","BATCH","prolific_id","batch","realtime","success","question_order","question_id","eventType","responses","item_order","radio_event_ids","radio_event_times","key_event_times","mouse_event_times","straightlining","zigzagging","honeypot","view_history","slider_start","which_type","canvas_config","goals_layout","control_level","trial_number","tutorial_trial_number","trial_start_time","phase1_start_time","phase2_start_time","phase3_start_time","goal_1_value","goal_1_distance","goal_2_value","goal_2_distance","goal_selected","outcome","outcome_total","participant_final_score","participant_initial_score","participant_final_score_prop","goal_choice_rt","allocated_time","allocated_time_remaining","goal_direction","counts","mouse_movements","key_presses"
"4401","1753864750311","<p style='font-size:40px;line-height:1.25'><strong>Welcome to the experiment!</strong></p><p style='font-size:1.1em;line-height:1.25'>Thank you for participanting in our experiment again! You will be asked to play the Dysfunctional Ball Game again. We will briefly recap the rules before we start.</p><p style='font-size:1.1em;line-height:1.25'>Press <strong>Next</strong> to continue.</p>","0","custom-html-button-response","0","4405","0.0-0.0","19","1","2025-07-30 08:39:04","36c45c0696341be0efffe67d72a12abb","152.37.64.141","Mozilla/5.0 (Macintosh; Intel Mac OS X 10_15_7) AppleWebKit/537.36 (KHTML, like Gecko) Chrome/138.0.0.0 Safari/537.36","Macintosh","Chrome","138.0.0.0","OS X","10_15_7","https://app.prolific.com/","en-GB,en-US;q=0.9,en;q=0.8","672de198be1065a8f288300d","687a19d2168e237449fb8af4","6889da2540faaf86c4e45bd0","0","672de198be1065a8f288300d","0","2025-07-30T08:39:10.313Z","","","","","","","","","","","","","","","","","","","","","","","","","","","","","","","","","","","","","","","","","",""
"19994","","","","fullscreen","1","25406","0.0-1.0","19","1","2025-07-30 08:39:04","36c45c0696341be0efffe67d72a12abb","152.37.64.141","Mozilla/5.0 (Macintosh; Intel Mac OS X 10_15_7) AppleWebKit/537.36 (KHTML, like Gecko) Chrome/138.0.0.0 Safari/537.36","Macintosh","Chrome","138.0.0.0","OS X","10_15_7","https://app.prolific.com/","en-GB,en-US;q=0.9,en;q=0.8","672de198be1065a8f288300d","687a19d2168e237449fb8af4","6889da2540faaf86c4e45bd0","0","672de198be1065a8f288300d","0","","true","","","","","","","","","","","","","","","","","","","","","","","","","","","","","","","","","","","","","","","","",""
"5776","1753864777091"," <p style='font-size:1.1em;line-height:1.25'>Thank you for closing all other tabs.</p><p style='font-size:1.1em;line-height:1.25'>We will now invite you to fill in some questionnaires, before starting the game.<br>This will take about 5 minutes.<br></p><p style='font-size:1.1em;line-height:1.25'>Press the <strong>Next</strong> button to continue.</p>","0","custom-html-button-response","2","31185","0.0-2.0","19","1","2025-07-30 08:39:04","36c45c0696341be0efffe67d72a12abb","152.37.64.141","Mozilla/5.0 (Macintosh; Intel Mac OS X 10_15_7) AppleWebKit/537.36 (KHTML, like Gecko) Chrome/138.0.0.0 Safari/537.36","Macintosh","Chrome","138.0.0.0","OS X","10_15_7","https://app.prolific.com/","en-GB,en-US;q=0.9,en;q=0.8","672de198be1065a8f288300d","687a19d2168e237449fb8af4","6889da2540faaf86c4e45bd0","0","672de198be1065a8f288300d","0","2025-07-30T08:39:37.092Z","","","","","","","","","","","","","","","","","","","","","","","","","","","","","","","","","","","","","","","","","",""
"3697","","","{""assigned_sex"":""male""}","survey-multi-choice","3","34885","0.0-3.0-0.0","19","1","2025-07-30 08:39:04","36c45c0696341be0efffe67d72a12abb","152.37.64.141","Mozilla/5.0 (Macintosh; Intel Mac OS X 10_15_7) AppleWebKit/537.36 (KHTML, like Gecko) Chrome/138.0.0.0 Safari/537.36","Macintosh","Chrome","138.0.0.0","OS X","10_15_7","https://app.prolific.com/","en-GB,en-US;q=0.9,en;q=0.8","672de198be1065a8f288300d","687a19d2168e237449fb8af4","6889da2540faaf86c4e45bd0","0","672de198be1065a8f288300d","0","","","[0]","0","demographics","","","","","","","","","","","","","","","","","","","","","","","","","","","","","","","","","","","","","",""
"6849","1753864787642","<p style='font-size:1.1em;line-height:1.25'>In the following, we will perform a baseline assessment. This means that we will ask you a few questions relating to your experiences over the past month.<br></p><p style='font-size:1.1em;line-height:1.25'>Press the <strong>Next</strong> button to continue.</p>","0","custom-html-button-response","4","41736","0.0-4.0-0.0","19","1","2025-07-30 08:39:04","36c45c0696341be0efffe67d72a12abb","152.37.64.141","Mozilla/5.0 (Macintosh; Intel Mac OS X 10_15_7) AppleWebKit/537.36 (KHTML, like Gecko) Chrome/138.0.0.0 Safari/537.36","Macintosh","Chrome","138.0.0.0","OS X","10_15_7","https://app.prolific.com/","en-GB,en-US;q=0.9,en;q=0.8","672de198be1065a8f288300d","687a19d2168e237449fb8af4","6889da2540faaf86c4e45bd0","0","672de198be1065a8f288300d","0","2025-07-30T08:39:47.643Z","","","","","","","","","","","","","","","","","","","","","","","","","","","","","","","","","","","","","","","","","",""
"61905.39999999944","","","","survey-template","5","103650","0.0-4.0-1.0","19","1","2025-07-30 08:39:04","36c45c0696341be0efffe67d72a12abb","152.37.64.141","Mozilla/5.0 (Macintosh; Intel Mac OS X 10_15_7) AppleWebKit/537.36 (KHTML, like Gecko) Chrome/138.0.0.0 Safari/537.36","Macintosh","Chrome","138.0.0.0","OS X","10_15_7","https://app.prolific.com/","en-GB,en-US;q=0.9,en;q=0.8","672de198be1065a8f288300d","687a19d2168e237449fb8af4","6889da2540faaf86c4e45bd0","0","672de198be1065a8f288300d","0","2025-07-30T08:40:49.557Z","","","","pss","{""Q01"":""1"",""Q02"":""0"",""Q03"":""2"",""Q04"":""1"",""Q05"":""2"",""Q06"":""1"",""Q07"":""0"",""Q08"":""2"",""Q09"":""2"",""Q10"":""0""}","[0,1,2,3,4,5,6,7,8,9]","[""Q01"",""Q03"",""Q04"",""Q05"",""Q06"",""Q07"",""Q08"",""Q09"",""Q10"",""Q02""]","[7491.799999999814,14329.899999999441,19705.599999999627,23105.599999999627,29083.699999999255,37303.5,42586.299999999814,47281.699999999255,53359.39999999944,60883.699999999255]","[]","[0.09999999962747097,7491.799999999814,11343.799999999814,14329.899999999441,19705.599999999627,23105.599999999627,29083.699999999255,35247.699999999255,36365.299999999814,37303.5,42115.699999999255,42586.299999999814,47281.699999999255,51687.799999999814,52789.39999999944,53359.39999999944,54227.299999999814,54759.799999999814,55165.09999999963,57824.299999999814,60883.699999999255,61899.89999999944]","0.4","0.4444444444444444","0","","","","","","","","","","","","","","","","","","","","","","","","","","","","",""
"5169","1753864854727","<p style='font-size:1.1em;line-height:1.25'>Thank you for your answers! Now we will ask you a few more questions relating to your feelings in the last 24 hours.<br></p><p style='font-size:1.1em;line-height:1.25'>Press the <strong>Next</strong> button to continue.</p>","0","custom-html-button-response","6","108820","0.0-4.0-2.0","19","1","2025-07-30 08:39:04","36c45c0696341be0efffe67d72a12abb","152.37.64.141","Mozilla/5.0 (Macintosh; Intel Mac OS X 10_15_7) AppleWebKit/537.36 (KHTML, like Gecko) Chrome/138.0.0.0 Safari/537.36","Macintosh","Chrome","138.0.0.0","OS X","10_15_7","https://app.prolific.com/","en-GB,en-US;q=0.9,en;q=0.8","672de198be1065a8f288300d","687a19d2168e237449fb8af4","6889da2540faaf86c4e45bd0","0","672de198be1065a8f288300d","0","2025-07-30T08:40:54.727Z","","","","","","","","","","","","","","","","","","","","","","","","","","","","","","","","","","","","","","","","","",""
"49000.39999999944","","","","survey-template","7","157829","0.0-4.0-3.0","19","1","2025-07-30 08:39:04","36c45c0696341be0efffe67d72a12abb","152.37.64.141","Mozilla/5.0 (Macintosh; Intel Mac OS X 10_15_7) AppleWebKit/537.36 (KHTML, like Gecko) Chrome/138.0.0.0 Safari/537.36","Macintosh","Chrome","138.0.0.0","OS X","10_15_7","https://app.prolific.com/","en-GB,en-US;q=0.9,en;q=0.8","672de198be1065a8f288300d","687a19d2168e237449fb8af4","6889da2540faaf86c4e45bd0","0","672de198be1065a8f288300d","0","2025-07-30T08:41:43.736Z","","","","drsp","{""Q01"":""0"",""Q02"":""0"",""Q03"":""0"",""Q04"":""1"",""Q05"":""0"",""Q06"":""0"",""Q07"":""0"",""Q08"":""0"",""Q09"":""0"",""Q10"":""0"",""Q11"":""0"",""Q12"":""2"",""Q13"":""0"",""Q14"":""3"",""Q15"":""0"",""Q16"":""0"",""Q17"":""0"",""Q18"":""0"",""Q19"":""0"",""Q20"":""0"",""Q21"":""0"",""Q22"":""0""}","[0,1,2,3,4,5,6,7,8,9,10,11,12,13,14,15,16,17,18,19,20,21]","[""Q01"",""Q02"",""Q03"",""Q04"",""Q05"",""Q06"",""Q07"",""Q08"",""Q09"",""Q10"",""Q11"",""Q12"",""Q13"",""Q14"",""Q15"",""Q16"",""Q17"",""Q18"",""Q20"",""Q21"",""Q22"",""Q19""]","[4468.5999999996275,5185.899999999441,6217.5,9890.399999999441,12851.899999999441,14124.5,15583.899999999441,16741.5,18327.699999999255,19475.699999999255,20459.699999999255,23319.799999999814,24233.599999999627,27586.39999999944,29828.199999999255,32335.799999999814,33281.5,34397.39999999944,39555.699999999255,41582.799999999814,45017.799999999814,48066.59999999963]","[]","[0.09999999962747097,4468.5999999996275,5185.899999999441,6217.5,9890.399999999441,10710.199999999255,12851.899999999441,14124.5,15583.899999999441,16741.5,18327.699999999255,19475.699999999255,20459.699999999255,23319.799999999814,24233.599999999627,26259,27586.39999999944,29828.199999999255,32335.799999999814,33281.5,34397.39999999944,36914.5,39555.699999999255,41582.799999999814,43369.59999999963,44001.89999999944,45017.799999999814,45790.299999999814,48066.59999999963,48991.89999999944]","0.8636363636363636","0.09523809523809523","0","","","","","","","","","","","","","","","","","","","","","","","","","","","","",""
"12864","","","","survey-template","8","170696","0.0-4.0-4.0","19","1","2025-07-30 08:39:04","36c45c0696341be0efffe67d72a12abb","152.37.64.141","Mozilla/5.0 (Macintosh; Intel Mac OS X 10_15_7) AppleWebKit/537.36 (KHTML, like Gecko) Chrome/138.0.0.0 Safari/537.36","Macintosh","Chrome","138.0.0.0","OS X","10_15_7","https://app.prolific.com/","en-GB,en-US;q=0.9,en;q=0.8","672de198be1065a8f288300d","687a19d2168e237449fb8af4","6889da2540faaf86c4e45bd0","0","672de198be1065a8f288300d","0","2025-07-30T08:41:56.603Z","","","","stress","{""Q01"":""1"",""Q02"":""2"",""Q03"":""0""}","[0,1,2]","[""Q01"",""Q03"",""Q02""]","[4026.7000000001863,9744.5,11839.400000000373]","[]","[4026.7000000001863,6714.5999999996275,8808.299999999814,9744.5,11839.400000000373,12862.400000000373]","0.3333333333333333","0","0","","","","","","","","","","","","","","","","","","","","","","","","","","","","",""
"30242","","","","instructions","9","200940","0.0-5.0-0.0","19","1","2025-07-30 08:39:04","36c45c0696341be0efffe67d72a12abb","152.37.64.141","Mozilla/5.0 (Macintosh; Intel Mac OS X 10_15_7) AppleWebKit/537.36 (KHTML, like Gecko) Chrome/138.0.0.0 Safari/537.36","Macintosh","Chrome","138.0.0.0","OS X","10_15_7","https://app.prolific.com/","en-GB,en-US;q=0.9,en;q=0.8","672de198be1065a8f288300d","687a19d2168e237449fb8af4","6889da2540faaf86c4e45bd0","0","672de198be1065a8f288300d","0","","","","","","","","","","","","","","","[{""page_index"":0,""viewing_time"":30241}]","","","","","","","","","","","","","","","","","","","","","","","","","","","",""
"5718","","<p>Before you start with this game please answer the following three questions yourself. </p>
  <p>Through this game, we measure several aspects of your cognitive performance, such as reaction times, multi-tasking capabilities </p>
  <p>and the ability to assess the situation you are in.</p>
  <p></p>
  <p><b>How good do you usually are in such tasks?</b></p>","72","html-slider-response","10","206661","0.0-6.0-0.0","19","1","2025-07-30 08:39:04","36c45c0696341be0efffe67d72a12abb","152.37.64.141","Mozilla/5.0 (Macintosh; Intel Mac OS X 10_15_7) AppleWebKit/537.36 (KHTML, like Gecko) Chrome/138.0.0.0 Safari/537.36","Macintosh","Chrome","138.0.0.0","OS X","10_15_7","https://app.prolific.com/","en-GB,en-US;q=0.9,en;q=0.8","672de198be1065a8f288300d","687a19d2168e237449fb8af4","6889da2540faaf86c4e45bd0","0","672de198be1065a8f288300d","0","2025-07-30T08:42:32.568Z","","","","PreSkillQ","","","","","","","","","","","50","","","","","","","","","","","","","","","","","","","","","","","","","","",""
"3614","","<div style=""width:500px;"">
  <p>How well do you think you will perform in this task compared to other participants?</p>
  </div>","51","html-slider-response","11","210276","0.0-6.0-1.0","19","1","2025-07-30 08:39:04","36c45c0696341be0efffe67d72a12abb","152.37.64.141","Mozilla/5.0 (Macintosh; Intel Mac OS X 10_15_7) AppleWebKit/537.36 (KHTML, like Gecko) Chrome/138.0.0.0 Safari/537.36","Macintosh","Chrome","138.0.0.0","OS X","10_15_7","https://app.prolific.com/","en-GB,en-US;q=0.9,en;q=0.8","672de198be1065a8f288300d","687a19d2168e237449fb8af4","6889da2540faaf86c4e45bd0","0","672de198be1065a8f288300d","0","2025-07-30T08:42:36.184Z","","","","PrePerfQ","","","","","","","","","","","50","","","","","","","","","","","","","","","","","","","","","","","","","","",""
"3974","","<div style=""width:500px;"">
  <p>What best describes how you currently feel?</p>
  </div>","68","html-slider-response","12","214253","0.0-6.0-2.0","19","1","2025-07-30 08:39:04","36c45c0696341be0efffe67d72a12abb","152.37.64.141","Mozilla/5.0 (Macintosh; Intel Mac OS X 10_15_7) AppleWebKit/537.36 (KHTML, like Gecko) Chrome/138.0.0.0 Safari/537.36","Macintosh","Chrome","138.0.0.0","OS X","10_15_7","https://app.prolific.com/","en-GB,en-US;q=0.9,en;q=0.8","672de198be1065a8f288300d","687a19d2168e237449fb8af4","6889da2540faaf86c4e45bd0","0","672de198be1065a8f288300d","0","2025-07-30T08:42:40.160Z","","","","PreMotivationQ","","","","","","","","","","","50","","","","","","","","","","","","","","","","","","","","","","","","","","",""
"","","","","ctl-task-cpt","13","250800","0.0-7.0-0.0","19","1","2025-07-30 08:39:04","36c45c0696341be0efffe67d72a12abb","152.37.64.141","Mozilla/5.0 (Macintosh; Intel Mac OS X 10_15_7) AppleWebKit/537.36 (KHTML, like Gecko) Chrome/138.0.0.0 Safari/537.36","Macintosh","Chrome","138.0.0.0","OS X","10_15_7","https://app.prolific.com/","en-GB,en-US;q=0.9,en;q=0.8","672de198be1065a8f288300d","687a19d2168e237449fb8af4","6889da2540faaf86c4e45bd0","0","672de198be1065a8f288300d","0","2025-07-30T08:43:16.708Z","","","","","","","","","","","","","","","","win-only","3","g1:SW,g2:NE","1","1","0","215464.9","2621.3","7626.2","33539.7","1","4","4","6","2","4","2","2","0","0.015151515151515152","5004.8","3000","300","[""up"",""right""]","{""num_key_presses"":8,""num_perfect"":6,""num_errors"":2,""num_randdir"":0,""num_randdir_good_moves"":0,""num_whilered"":0,""num_whileblue"":0,""num_blue"":1,""num_good_moves"":6}","[556.4285714285714,557.3348214285714,0.3,556.4285714285714,557.3348214285714,100.3,555.4285714285714,562.3348214285714,200.7,555.4285714285714,571.3348214285714,304.3,555.4285714285714,571.3348214285714,404.9,555.4285714285714,571.3348214285714,505.2,555.4285714285714,571.3348214285714,606.8,555.4285714285714,571.3348214285714,709.6,555.4285714285714,571.3348214285714,811.3,555.4285714285714,571.3348214285714,915.5,555.4285714285714,571.3348214285714,1015.6,555.4285714285714,571.3348214285714,1120.7,555.4285714285714,571.3348214285714,1221.1,555.4285714285714,571.3348214285714,1327.2,555.4285714285714,571.3348214285714,1431,555.4285714285714,571.3348214285714,1534.6,555.4285714285714,571.3348214285714,1635.8,555.4285714285714,571.3348214285714,1740.3,555.4285714285714,571.3348214285714,1840.8,555.4285714285714,571.3348214285714,1941.1,555.4285714285714,571.3348214285714,2041.1,555.4285714285714,571.3348214285714,2141.3,555.4285714285714,571.3348214285714,2245.8,555.4285714285714,571.3348214285714,2350.6,555.4285714285714,571.3348214285714,2455.6,555.4285714285714,571.3348214285714,2556,555.4285714285714,571.3348214285714,2660.2,555.4285714285714,571.3348214285714,2761,555.4285714285714,571.3348214285714,2861.4,555.4285714285714,571.3348214285714,2961.9,555.4285714285714,571.3348214285714,3065.9,555.4285714285714,571.3348214285714,3170.3,555.4285714285714,571.3348214285714,3274.7,555.4285714285714,571.3348214285714,3380.5,555.4285714285714,571.3348214285714,3484.9,555.4285714285714,571.3348214285714,3590.5,555.4285714285714,571.3348214285714,3691,555.4285714285714,571.3348214285714,3791.3,555.4285714285714,571.3348214285714,3891.6,555.4285714285714,571.3348214285714,3995.7,555.4285714285714,571.3348214285714,4096.8,555.4285714285714,571.3348214285714,4200,555.4285714285714,571.3348214285714,4300.6,555.4285714285714,571.3348214285714,4405.4,555.4285714285714,571.3348214285714,4510.4,555.4285714285714,571.3348214285714,4611.3,555.4285714285714,571.3348214285714,4715,555.4285714285714,571.3348214285714,4815.4,555.4285714285714,571.3348214285714,4920.4]","[780.2,780.1,1000,0.1,-219.9,""error"",""-"",""-"",""no_move"",3955.9,3175.4,1706.2,1785.7,464,""smooth"",""right"",""right"",""good_move"",4493.8,537.5,2255.6,3956.3,-1718.1,""error"",""-"",""-"",""no_move"",9805.6,5311.6,3871.2,5495.3,439.1,""smooth"",""right"",""right"",""good_move"",12591.8,2786.3,2281.3,9805.7,505,""smooth"",""up"",""up"",""good_move"",15273.9,2681.6,2233.1,12592.3,448.5,""smooth"",""up"",""up"",""good_move"",22647.6,7373.5,3340.2,18924.7,382.7,""smooth"",""up"",""up"",""good_move"",25818.2,3170.5,2632.1,22647.8,538.5,""smooth"",""right"",""right"",""good_move""]"
"3492","","<div style=""width:500px;"">
  <p>What determined the result of this run?</p>
  </div>","94","html-slider-response","14","254294","0.0-7.0-1.0","19","1","2025-07-30 08:39:04","36c45c0696341be0efffe67d72a12abb","152.37.64.141","Mozilla/5.0 (Macintosh; Intel Mac OS X 10_15_7) AppleWebKit/537.36 (KHTML, like Gecko) Chrome/138.0.0.0 Safari/537.36","Macintosh","Chrome","138.0.0.0","OS X","10_15_7","https://app.prolific.com/","en-GB,en-US;q=0.9,en;q=0.8","672de198be1065a8f288300d","687a19d2168e237449fb8af4","6889da2540faaf86c4e45bd0","0","672de198be1065a8f288300d","0","2025-07-30T08:43:20.202Z","","","","AttribQ","","","","","","","","","","","50","","","","","","","","","","","","","","","","","","","","","","","","","","",""
"2967","","<div style=""width:500px;"">
  <p>How much control did you have over the ball?</p>
  </div>","98","html-slider-response","15","257263","0.0-7.0-2.0","19","1","2025-07-30 08:39:04","36c45c0696341be0efffe67d72a12abb","152.37.64.141","Mozilla/5.0 (Macintosh; Intel Mac OS X 10_15_7) AppleWebKit/537.36 (KHTML, like Gecko) Chrome/138.0.0.0 Safari/537.36","Macintosh","Chrome","138.0.0.0","OS X","10_15_7","https://app.prolific.com/","en-GB,en-US;q=0.9,en;q=0.8","672de198be1065a8f288300d","687a19d2168e237449fb8af4","6889da2540faaf86c4e45bd0","0","672de198be1065a8f288300d","0","2025-07-30T08:43:23.170Z","","","","ControlQ","","","","","","","","","","","50","","","","","","","","","","","","","","","","","","","","","","","","","","",""
"3927","","<div style=""width:500px;"">
  <p>How would you describe your current emotional state?</p>
  </div>","18","html-slider-response","16","261192","0.0-7.0-3.0","19","1","2025-07-30 08:39:04","36c45c0696341be0efffe67d72a12abb","152.37.64.141","Mozilla/5.0 (Macintosh; Intel Mac OS X 10_15_7) AppleWebKit/537.36 (KHTML, like Gecko) Chrome/138.0.0.0 Safari/537.36","Macintosh","Chrome","138.0.0.0","OS X","10_15_7","https://app.prolific.com/","en-GB,en-US;q=0.9,en;q=0.8","672de198be1065a8f288300d","687a19d2168e237449fb8af4","6889da2540faaf86c4e45bd0","0","672de198be1065a8f288300d","0","2025-07-30T08:43:27.099Z","","","","StressQ","","","","","","","","","","","50","","","","","","","","","","","","","","","","","","","","","","","","","","",""
"10538","","<div style=""width:500px;"">
  <p>What best describes how you currently feel?</p>
  </div>","76","html-slider-response","17","271732","0.0-7.0-4.0","19","1","2025-07-30 08:39:04","36c45c0696341be0efffe67d72a12abb","152.37.64.141","Mozilla/5.0 (Macintosh; Intel Mac OS X 10_15_7) AppleWebKit/537.36 (KHTML, like Gecko) Chrome/138.0.0.0 Safari/537.36","Macintosh","Chrome","138.0.0.0","OS X","10_15_7","https://app.prolific.com/","en-GB,en-US;q=0.9,en;q=0.8","672de198be1065a8f288300d","687a19d2168e237449fb8af4","6889da2540faaf86c4e45bd0","0","672de198be1065a8f288300d","0","2025-07-30T08:43:37.640Z","","","","MotivationQ","","","","","","","","","","","50","","","","","","","","","","","","","","","","","","","","","","","","","","",""
"","","","","ctl-task-cpt","18","293170","0.0-7.0-0.1","19","1","2025-07-30 08:39:04","36c45c0696341be0efffe67d72a12abb","152.37.64.141","Mozilla/5.0 (Macintosh; Intel Mac OS X 10_15_7) AppleWebKit/537.36 (KHTML, like Gecko) Chrome/138.0.0.0 Safari/537.36","Macintosh","Chrome","138.0.0.0","OS X","10_15_7","https://app.prolific.com/","en-GB,en-US;q=0.9,en;q=0.8","672de198be1065a8f288300d","687a19d2168e237449fb8af4","6889da2540faaf86c4e45bd0","0","672de198be1065a8f288300d","0","2025-07-30T08:43:59.077Z","","","","","","","","","","","","","","","","win-only","0","g1:NW,g2:SE","0.9","2","0","272939.9","1340.1","6342.4","18421.5","1","4","8","6","1","1","1","3","2","0.022727272727272728","5002.3","3000","1340","[""left"",""up""]","{""num_key_presses"":4,""num_perfect"":4,""num_errors"":0,""num_randdir"":0,""num_randdir_good_moves"":0,""num_whilered"":0,""num_whileblue"":0,""num_blue"":0,""num_good_moves"":4}","[564.4285714285714,568.3348214285714,0.2,564.4285714285714,568.3348214285714,101.7,564.4285714285714,568.3348214285714,209,615.4285714285714,596.3348214285714,311.4,804.4285714285714,656.3348214285714,415.3,935.4285714285714,680.3348214285714,516.5,944.4285714285714,682.3348214285714,616.7,944.4285714285714,682.3348214285714,723.6,944.4285714285714,682.3348214285714,825,944.4285714285714,682.3348214285714,926.6,944.4285714285714,682.3348214285714,1033.2,944.4285714285714,682.3348214285714,1135.9,944.4285714285714,682.3348214285714,1236,944.4285714285714,682.3348214285714,1341.4,944.4285714285714,682.3348214285714,1444.3,944.4285714285714,682.3348214285714,1550.4,944.4285714285714,682.3348214285714,1651.3,944.4285714285714,682.3348214285714,1751.5,944.4285714285714,682.3348214285714,1851.5,944.4285714285714,682.3348214285714,1951.5,944.4285714285714,682.3348214285714,2057.2,944.4285714285714,682.3348214285714,2160.4,944.4285714285714,682.3348214285714,2265.3,944.4285714285714,682.3348214285714,2365.4,944.4285714285714,682.3348214285714,2467.6,944.4285714285714,682.3348214285714,2570.7,944.4285714285714,682.3348214285714,2671.4,944.4285714285714,682.3348214285714,2778.4,944.4285714285714,682.3348214285714,2879.3,944.4285714285714,682.3348214285714,2985,944.4285714285714,682.3348214285714,3086.5,944.4285714285714,682.3348214285714,3193.4,944.4285714285714,682.3348214285714,3299.1,944.4285714285714,682.3348214285714,3402.1,944.4285714285714,682.3348214285714,3505.9,944.4285714285714,682.3348214285714,3605.9,944.4285714285714,682.3348214285714,3710.5,944.4285714285714,682.3348214285714,3812.1,944.4285714285714,682.3348214285714,3916.4,944.4285714285714,682.3348214285714,4021.1,944.4285714285714,682.3348214285714,4121.4,944.4285714285714,682.3348214285714,4225.9,944.4285714285714,682.3348214285714,4328.5,944.4285714285714,682.3348214285714,4429.3,944.4285714285714,682.3348214285714,4531.8,944.4285714285714,682.3348214285714,4635.9,944.4285714285714,682.3348214285714,4738.7,944.4285714285714,682.3348214285714,4841.6,944.4285714285714,682.3348214285714,4945.4]","[1561.6,1561.6,1000,0,561.6,""smooth"",""up"",""up"",""good_move"",5091.1,3529.2,2943.4,1561.9,585.8,""smooth"",""left"",""left"",""good_move"",8174.2,3082.8,2669.5,5091.4,413.3,""smooth"",""left"",""left"",""good_move"",11977.3,3802.6,3413.3,8174.8,389.4,""smooth"",""up"",""up"",""good_move""]"
"3403","","<div style=""width:500px;"">
  <p>What determined the result of this run?</p>
  </div>","50","html-slider-response","19","296574","0.0-7.0-1.1","19","1","2025-07-30 08:39:04","36c45c0696341be0efffe67d72a12abb","152.37.64.141","Mozilla/5.0 (Macintosh; Intel Mac OS X 10_15_7) AppleWebKit/537.36 (KHTML, like Gecko) Chrome/138.0.0.0 Safari/537.36","Macintosh","Chrome","138.0.0.0","OS X","10_15_7","https://app.prolific.com/","en-GB,en-US;q=0.9,en;q=0.8","672de198be1065a8f288300d","687a19d2168e237449fb8af4","6889da2540faaf86c4e45bd0","0","672de198be1065a8f288300d","0","2025-07-30T08:44:02.481Z","","","","AttribQ","","","","","","","","","","","50","","","","","","","","","","","","","","","","","","","","","","","","","","",""
"3215","","<div style=""width:500px;"">
  <p>How much control did you have over the ball?</p>
  </div>","74","html-slider-response","20","299790","0.0-7.0-2.1","19","1","2025-07-30 08:39:04","36c45c0696341be0efffe67d72a12abb","152.37.64.141","Mozilla/5.0 (Macintosh; Intel Mac OS X 10_15_7) AppleWebKit/537.36 (KHTML, like Gecko) Chrome/138.0.0.0 Safari/537.36","Macintosh","Chrome","138.0.0.0","OS X","10_15_7","https://app.prolific.com/","en-GB,en-US;q=0.9,en;q=0.8","672de198be1065a8f288300d","687a19d2168e237449fb8af4","6889da2540faaf86c4e45bd0","0","672de198be1065a8f288300d","0","2025-07-30T08:44:05.698Z","","","","ControlQ","","","","","","","","","","","50","","","","","","","","","","","","","","","","","","","","","","","","","","",""
"3158","","<div style=""width:500px;"">
  <p>How would you describe your current emotional state?</p>
  </div>","25","html-slider-response","21","302950","0.0-7.0-3.1","19","1","2025-07-30 08:39:04","36c45c0696341be0efffe67d72a12abb","152.37.64.141","Mozilla/5.0 (Macintosh; Intel Mac OS X 10_15_7) AppleWebKit/537.36 (KHTML, like Gecko) Chrome/138.0.0.0 Safari/537.36","Macintosh","Chrome","138.0.0.0","OS X","10_15_7","https://app.prolific.com/","en-GB,en-US;q=0.9,en;q=0.8","672de198be1065a8f288300d","687a19d2168e237449fb8af4","6889da2540faaf86c4e45bd0","0","672de198be1065a8f288300d","0","2025-07-30T08:44:08.857Z","","","","StressQ","","","","","","","","","","","50","","","","","","","","","","","","","","","","","","","","","","","","","","",""
"4694","","<div style=""width:500px;"">
  <p>What best describes how you currently feel?</p>
  </div>","76","html-slider-response","22","307647","0.0-7.0-4.1","19","1","2025-07-30 08:39:04","36c45c0696341be0efffe67d72a12abb","152.37.64.141","Mozilla/5.0 (Macintosh; Intel Mac OS X 10_15_7) AppleWebKit/537.36 (KHTML, like Gecko) Chrome/138.0.0.0 Safari/537.36","Macintosh","Chrome","138.0.0.0","OS X","10_15_7","https://app.prolific.com/","en-GB,en-US;q=0.9,en;q=0.8","672de198be1065a8f288300d","687a19d2168e237449fb8af4","6889da2540faaf86c4e45bd0","0","672de198be1065a8f288300d","0","2025-07-30T08:44:13.554Z","","","","MotivationQ","","","","","","","","","","","50","","","","","","","","","","","","","","","","","","","","","","","","","","",""
"","","","","ctl-task-cpt","23","337454","0.0-7.0-0.2","19","1","2025-07-30 08:39:04","36c45c0696341be0efffe67d72a12abb","152.37.64.141","Mozilla/5.0 (Macintosh; Intel Mac OS X 10_15_7) AppleWebKit/537.36 (KHTML, like Gecko) Chrome/138.0.0.0 Safari/537.36","Macintosh","Chrome","138.0.0.0","OS X","10_15_7","https://app.prolific.com/","en-GB,en-US;q=0.9,en;q=0.8","672de198be1065a8f288300d","687a19d2168e237449fb8af4","6889da2540faaf86c4e45bd0","0","672de198be1065a8f288300d","0","2025-07-30T08:44:43.362Z","","","","","","","","","","","","","","","","win-only","1","g1:NE,g2:SW","0.8","3","0","308853.5","1636.1","6641.7","26797.1","1","4","4","6","2","4","4","7","3","0.05303030303030303","5005.6","3000","575","[""down"",""left""]","{""num_key_presses"":6,""num_perfect"":4,""num_errors"":0,""num_randdir"":2,""num_randdir_good_moves"":2,""num_whilered"":0,""num_whileblue"":0,""num_blue"":1,""num_good_moves"":6}","[548.4285714285714,569.3348214285714,0.3,548.4285714285714,568.3348214285714,101,548.4285714285714,568.3348214285714,205.3,548.4285714285714,569.3348214285714,309.3,548.4285714285714,569.3348214285714,409.5,548.4285714285714,569.3348214285714,509.9,548.4285714285714,569.3348214285714,610.2,548.4285714285714,569.3348214285714,721.8,548.4285714285714,569.3348214285714,824.8,553.4285714285714,570.3348214285714,926.6,1002.4285714285714,583.3348214285714,1029.5,1468.4285714285713,629.3348214285714,1129.7,1484.4285714285713,631.3348214285714,1230.2,1484.4285714285713,631.3348214285714,1335.4,1484.4285714285713,631.3348214285714,1435.9,1484.4285714285713,631.3348214285714,1541.2,1484.4285714285713,631.3348214285714,1645.4,1484.4285714285713,631.3348214285714,1745.6,1484.4285714285713,631.3348214285714,1855.4,1484.4285714285713,631.3348214285714,1956,1484.4285714285713,631.3348214285714,2056,1484.4285714285713,631.3348214285714,2160.5,1484.4285714285713,631.3348214285714,2269.7,1484.4285714285713,631.3348214285714,2371.2,1484.4285714285713,631.3348214285714,2475.1,1484.4285714285713,631.3348214285714,2575.1,1484.4285714285713,631.3348214285714,2679.4,1484.4285714285713,631.3348214285714,2784.5,1484.4285714285713,631.3348214285714,2885.6,1484.4285714285713,631.3348214285714,2989.9,1484.4285714285713,631.3348214285714,3090.7,1484.4285714285713,631.3348214285714,3195.5,1484.4285714285713,631.3348214285714,3300.3,1484.4285714285713,631.3348214285714,3408.2,1484.4285714285713,631.3348214285714,3509.6,1484.4285714285713,631.3348214285714,3614.8,1484.4285714285713,631.3348214285714,3715.3,1484.4285714285713,631.3348214285714,3821.9,1484.4285714285713,631.3348214285714,3925.6,1484.4285714285713,631.3348214285714,4030.6,1484.4285714285713,631.3348214285714,4143.2,1484.4285714285713,631.3348214285714,4244.3,1484.4285714285713,631.3348214285714,4346.1,1484.4285714285713,631.3348214285714,4456.8,1484.4285714285713,631.3348214285714,4560.4,1484.4285714285713,631.3348214285714,4665.6,1484.4285714285713,631.3348214285714,4775.9,1484.4285714285713,631.3348214285714,4877.3,1484.4285714285713,631.3348214285714,4979.7]","[1402.8,1402.8,1000,0,402.8,""oops"",""down"",""left"",""good_move"",4628.8,3225.5,2847.7,1403.3,377.8,""smooth"",""down"",""down"",""good_move"",7290.5,2661.1,1969.5,4629.4,691.7,""smooth"",""down"",""down"",""good_move"",13969.5,6678.4,2433,11094.2,442.3,""smooth"",""down"",""down"",""good_move"",17098.4,3128.7,2546.3,13969.7,582.4,""oops"",""left"",""left"",""good_move"",20017.7,2919.2,2277.7,17098.6,641.5,""smooth"",""left"",""left"",""good_move""]"
"2625","","<div style=""width:500px;"">
  <p>What determined the result of this run?</p>
  </div>","66","html-slider-response","24","340084","0.0-7.0-1.2","19","1","2025-07-30 08:39:04","36c45c0696341be0efffe67d72a12abb","152.37.64.141","Mozilla/5.0 (Macintosh; Intel Mac OS X 10_15_7) AppleWebKit/537.36 (KHTML, like Gecko) Chrome/138.0.0.0 Safari/537.36","Macintosh","Chrome","138.0.0.0","OS X","10_15_7","https://app.prolific.com/","en-GB,en-US;q=0.9,en;q=0.8","672de198be1065a8f288300d","687a19d2168e237449fb8af4","6889da2540faaf86c4e45bd0","0","672de198be1065a8f288300d","0","2025-07-30T08:44:45.991Z","","","","AttribQ","","","","","","","","","","","50","","","","","","","","","","","","","","","","","","","","","","","","","","",""
"2688","","<div style=""width:500px;"">
  <p>How much control did you have over the ball?</p>
  </div>","67","html-slider-response","25","342780","0.0-7.0-2.2","19","1","2025-07-30 08:39:04","36c45c0696341be0efffe67d72a12abb","152.37.64.141","Mozilla/5.0 (Macintosh; Intel Mac OS X 10_15_7) AppleWebKit/537.36 (KHTML, like Gecko) Chrome/138.0.0.0 Safari/537.36","Macintosh","Chrome","138.0.0.0","OS X","10_15_7","https://app.prolific.com/","en-GB,en-US;q=0.9,en;q=0.8","672de198be1065a8f288300d","687a19d2168e237449fb8af4","6889da2540faaf86c4e45bd0","0","672de198be1065a8f288300d","0","2025-07-30T08:44:48.687Z","","","","ControlQ","","","","","","","","","","","50","","","","","","","","","","","","","","","","","","","","","","","","","","",""
"2299","","<div style=""width:500px;"">
  <p>How would you describe your current emotional state?</p>
  </div>","27","html-slider-response","26","345081","0.0-7.0-3.2","19","1","2025-07-30 08:39:04","36c45c0696341be0efffe67d72a12abb","152.37.64.141","Mozilla/5.0 (Macintosh; Intel Mac OS X 10_15_7) AppleWebKit/537.36 (KHTML, like Gecko) Chrome/138.0.0.0 Safari/537.36","Macintosh","Chrome","138.0.0.0","OS X","10_15_7","https://app.prolific.com/","en-GB,en-US;q=0.9,en;q=0.8","672de198be1065a8f288300d","687a19d2168e237449fb8af4","6889da2540faaf86c4e45bd0","0","672de198be1065a8f288300d","0","2025-07-30T08:44:50.988Z","","","","StressQ","","","","","","","","","","","50","","","","","","","","","","","","","","","","","","","","","","","","","","",""
"3325","","<div style=""width:500px;"">
  <p>What best describes how you currently feel?</p>
  </div>","70","html-slider-response","27","348409","0.0-7.0-4.2","19","1","2025-07-30 08:39:04","36c45c0696341be0efffe67d72a12abb","152.37.64.141","Mozilla/5.0 (Macintosh; Intel Mac OS X 10_15_7) AppleWebKit/537.36 (KHTML, like Gecko) Chrome/138.0.0.0 Safari/537.36","Macintosh","Chrome","138.0.0.0","OS X","10_15_7","https://app.prolific.com/","en-GB,en-US;q=0.9,en;q=0.8","672de198be1065a8f288300d","687a19d2168e237449fb8af4","6889da2540faaf86c4e45bd0","0","672de198be1065a8f288300d","0","2025-07-30T08:44:54.316Z","","","","MotivationQ","","","","","","","","","","","50","","","","","","","","","","","","","","","","","","","","","","","","","","",""
"","","","","ctl-task-cpt","28","377156","0.0-7.0-0.3","19","1","2025-07-30 08:39:04","36c45c0696341be0efffe67d72a12abb","152.37.64.141","Mozilla/5.0 (Macintosh; Intel Mac OS X 10_15_7) AppleWebKit/537.36 (KHTML, like Gecko) Chrome/138.0.0.0 Safari/537.36","Macintosh","Chrome","138.0.0.0","OS X","10_15_7","https://app.prolific.com/","en-GB,en-US;q=0.9,en;q=0.8","672de198be1065a8f288300d","687a19d2168e237449fb8af4","6889da2540faaf86c4e45bd0","0","672de198be1065a8f288300d","0","2025-07-30T08:45:23.063Z","","","","","","","","","","","","","","","","win-only","1","g1:NE,g2:SW","0.7","4","0","349620.1","1100.3","6114.4","25724","1","4","8","6","1","1","1","8","7","0.06060606060606061","5014.1","3000","1595","[""up"",""right""]","{""num_key_presses"":4,""num_perfect"":4,""num_errors"":0,""num_randdir"":0,""num_randdir_good_moves"":0,""num_whilered"":0,""num_whileblue"":0,""num_blue"":2,""num_good_moves"":4}","[560.4285714285714,553.3348214285714,0.1,561.4285714285714,553.3348214285714,119.5,847.4285714285714,665.3348214285714,236.6,1233.4285714285713,712.3348214285714,338.9,1290.4285714285713,724.3348214285714,447.7,1290.4285714285713,724.3348214285714,553.1,1290.4285714285713,724.3348214285714,663.8,1290.4285714285713,724.3348214285714,765.5,1290.4285714285713,724.3348214285714,874.9,1290.4285714285713,724.3348214285714,983.2,1290.4285714285713,724.3348214285714,1093.6,1290.4285714285713,724.3348214285714,1212.6,1290.4285714285713,724.3348214285714,1315.8,1290.4285714285713,724.3348214285714,1421.6,1290.4285714285713,724.3348214285714,1525.1,1290.4285714285713,724.3348214285714,1627.9,1290.4285714285713,724.3348214285714,1732.4,1290.4285714285713,724.3348214285714,1840.8,1290.4285714285713,724.3348214285714,1948.4,1290.4285714285713,724.3348214285714,2056.5,1290.4285714285713,724.3348214285714,2157.2,1290.4285714285713,724.3348214285714,2261.2,1290.4285714285713,724.3348214285714,2363,1290.4285714285713,724.3348214285714,2469.1,1290.4285714285713,724.3348214285714,2571.2,1290.4285714285713,724.3348214285714,2671.4,1290.4285714285713,724.3348214285714,2772.5,1290.4285714285713,724.3348214285714,2878.1,1290.4285714285713,724.3348214285714,2981.5,1290.4285714285713,724.3348214285714,3085.6,1290.4285714285713,724.3348214285714,3188.7,1290.4285714285713,724.3348214285714,3303.5,1290.4285714285713,724.3348214285714,3411.9,1290.4285714285713,724.3348214285714,3522.1,1290.4285714285713,724.3348214285714,3625.2,1290.4285714285713,724.3348214285714,3735,1290.4285714285713,724.3348214285714,3838.3,1290.4285714285713,724.3348214285714,3941,1290.4285714285713,724.3348214285714,4053.5,1290.4285714285713,724.3348214285714,4156.8,1290.4285714285713,724.3348214285714,4259.6,1290.4285714285713,724.3348214285714,4365.9,1290.4285714285713,724.3348214285714,4475,1290.4285714285713,724.3348214285714,4578.4,1290.4285714285713,724.3348214285714,4682.8,1290.4285714285713,724.3348214285714,4785.8,1290.4285714285713,724.3348214285714,4887.3,1290.4285714285713,724.3348214285714,4996.5]","[1690,1690,1000,0,690.1,""smooth"",""right"",""right"",""good_move"",5368.1,3676.2,2894.7,1691.9,781.5,""smooth"",""right"",""right"",""good_move"",15979.8,10610.2,2420,13114.3,445.7,""smooth"",""up"",""up"",""good_move"",19450.2,3461,2851.2,15989.3,609.7,""smooth"",""up"",""up"",""good_move""]"
"4021","","<div style=""width:500px;"">
  <p>What determined the result of this run?</p>
  </div>","50","html-slider-response","29","381178","0.0-7.0-1.3","19","1","2025-07-30 08:39:04","36c45c0696341be0efffe67d72a12abb","152.37.64.141","Mozilla/5.0 (Macintosh; Intel Mac OS X 10_15_7) AppleWebKit/537.36 (KHTML, like Gecko) Chrome/138.0.0.0 Safari/537.36","Macintosh","Chrome","138.0.0.0","OS X","10_15_7","https://app.prolific.com/","en-GB,en-US;q=0.9,en;q=0.8","672de198be1065a8f288300d","687a19d2168e237449fb8af4","6889da2540faaf86c4e45bd0","0","672de198be1065a8f288300d","0","2025-07-30T08:45:27.085Z","","","","AttribQ","","","","","","","","","","","50","","","","","","","","","","","","","","","","","","","","","","","","","","",""
"2408","","<div style=""width:500px;"">
  <p>How much control did you have over the ball?</p>
  </div>","71","html-slider-response","30","383589","0.0-7.0-2.3","19","1","2025-07-30 08:39:04","36c45c0696341be0efffe67d72a12abb","152.37.64.141","Mozilla/5.0 (Macintosh; Intel Mac OS X 10_15_7) AppleWebKit/537.36 (KHTML, like Gecko) Chrome/138.0.0.0 Safari/537.36","Macintosh","Chrome","138.0.0.0","OS X","10_15_7","https://app.prolific.com/","en-GB,en-US;q=0.9,en;q=0.8","672de198be1065a8f288300d","687a19d2168e237449fb8af4","6889da2540faaf86c4e45bd0","0","672de198be1065a8f288300d","0","2025-07-30T08:45:29.496Z","","","","ControlQ","","","","","","","","","","","50","","","","","","","","","","","","","","","","","","","","","","","","","","",""
"2588","","<div style=""width:500px;"">
  <p>How would you describe your current emotional state?</p>
  </div>","21","html-slider-response","31","386178","0.0-7.0-3.3","19","1","2025-07-30 08:39:04","36c45c0696341be0efffe67d72a12abb","152.37.64.141","Mozilla/5.0 (Macintosh; Intel Mac OS X 10_15_7) AppleWebKit/537.36 (KHTML, like Gecko) Chrome/138.0.0.0 Safari/537.36","Macintosh","Chrome","138.0.0.0","OS X","10_15_7","https://app.prolific.com/","en-GB,en-US;q=0.9,en;q=0.8","672de198be1065a8f288300d","687a19d2168e237449fb8af4","6889da2540faaf86c4e45bd0","0","672de198be1065a8f288300d","0","2025-07-30T08:45:32.085Z","","","","StressQ","","","","","","","","","","","50","","","","","","","","","","","","","","","","","","","","","","","","","","",""
"2425","","<div style=""width:500px;"">
  <p>What best describes how you currently feel?</p>
  </div>","83","html-slider-response","32","388606","0.0-7.0-4.3","19","1","2025-07-30 08:39:04","36c45c0696341be0efffe67d72a12abb","152.37.64.141","Mozilla/5.0 (Macintosh; Intel Mac OS X 10_15_7) AppleWebKit/537.36 (KHTML, like Gecko) Chrome/138.0.0.0 Safari/537.36","Macintosh","Chrome","138.0.0.0","OS X","10_15_7","https://app.prolific.com/","en-GB,en-US;q=0.9,en;q=0.8","672de198be1065a8f288300d","687a19d2168e237449fb8af4","6889da2540faaf86c4e45bd0","0","672de198be1065a8f288300d","0","2025-07-30T08:45:34.514Z","","","","MotivationQ","","","","","","","","","","","50","","","","","","","","","","","","","","","","","","","","","","","","","","",""
"","","","","ctl-task-cpt","33","425928","0.0-7.0-0.4","19","1","2025-07-30 08:39:04","36c45c0696341be0efffe67d72a12abb","152.37.64.141","Mozilla/5.0 (Macintosh; Intel Mac OS X 10_15_7) AppleWebKit/537.36 (KHTML, like Gecko) Chrome/138.0.0.0 Safari/537.36","Macintosh","Chrome","138.0.0.0","OS X","10_15_7","https://app.prolific.com/","en-GB,en-US;q=0.9,en;q=0.8","672de198be1065a8f288300d","687a19d2168e237449fb8af4","6889da2540faaf86c4e45bd0","0","672de198be1065a8f288300d","0","2025-07-30T08:46:11.835Z","","","","","","","","","","","","","","","","win-only","1","g1:NE,g2:SW","0.6","5","0","389814.5","1153.5","6162.7","34305.2","1","4","8","6","1","1","1","9","8","0.06818181818181818","5009.2","3000","705","[""up"",""right""]","{""num_key_presses"":8,""num_perfect"":4,""num_errors"":0,""num_randdir"":4,""num_randdir_good_moves"":2,""num_whilered"":0,""num_whileblue"":0,""num_blue"":1,""num_good_moves"":6}","[547.4285714285714,551.3348214285714,1.2,558.4285714285714,571.3348214285714,129.4,1233.4285714285713,737.3348214285714,235.5,1655.4285714285713,768.3348214285714,342.4,1834.4285714285713,817.3348214285714,443.7,1834.4285714285713,817.3348214285714,544.9,1834.4285714285713,817.3348214285714,646.6,1834.4285714285713,817.3348214285714,759.3,1834.4285714285713,817.3348214285714,861.4,1834.4285714285713,817.3348214285714,963.7,1834.4285714285713,817.3348214285714,1073.3,1834.4285714285713,817.3348214285714,1176.5,1834.4285714285713,817.3348214285714,1292.7,1834.4285714285713,817.3348214285714,1395.9,1834.4285714285713,817.3348214285714,1502.6,1834.4285714285713,817.3348214285714,1606.2,1834.4285714285713,817.3348214285714,1710.3,1834.4285714285713,817.3348214285714,1813.9,1834.4285714285713,817.3348214285714,1919.7,1834.4285714285713,817.3348214285714,2028.9,1834.4285714285713,817.3348214285714,2130.8,1834.4285714285713,817.3348214285714,2234.2,1834.4285714285713,817.3348214285714,2339.9,1834.4285714285713,817.3348214285714,2451.4,1834.4285714285713,817.3348214285714,2556.9,1834.4285714285713,817.3348214285714,2667.7,1834.4285714285713,817.3348214285714,2771.4,1834.4285714285713,817.3348214285714,2873.2,1834.4285714285713,817.3348214285714,2980.9,1834.4285714285713,817.3348214285714,3083.7,1834.4285714285713,817.3348214285714,3190.8,1834.4285714285713,817.3348214285714,3296.2,1834.4285714285713,817.3348214285714,3412.9,1834.4285714285713,817.3348214285714,3514.4,1834.4285714285713,817.3348214285714,3628,1834.4285714285713,817.3348214285714,3737,1834.4285714285713,817.3348214285714,3840.3,1834.4285714285713,817.3348214285714,3944.9,1834.4285714285713,817.3348214285714,4047.9,1834.4285714285713,817.3348214285714,4148.1,1834.4285714285713,817.3348214285714,4250.3,1834.4285714285713,817.3348214285714,4353.7,1834.4285714285713,817.3348214285714,4458.9,1834.4285714285713,817.3348214285714,4560.2,1834.4285714285713,817.3348214285714,4667.7,1834.4285714285713,817.3348214285714,4777.7,1834.4285714285713,817.3348214285714,4881.6,1834.4285714285713,817.3348214285714,4985.3]","[4898.9,4898.9,2394.2,2017.4,487.3,""smooth"",""up"",""up"",""good_move"",8100.6,3200.9,2564.9,4900,635.8,""smooth"",""right"",""right"",""good_move"",11604.3,3502.9,3047.8,8101.4,455.1,""oops"",""up"",""right"",""good_move"",15089.4,3484.8,3015.2,11604.6,469.7,""oops"",""up"",""down"",""bad_move"",17787.3,2693,2138.8,15094.4,554.1,""smooth"",""up"",""up"",""good_move"",21075.9,3288.5,2773.2,17787.5,515.3,""oops"",""up"",""down"",""bad_move"",24791.9,3713.5,3310.4,21078.5,403.1,""oops"",""up"",""up"",""good_move"",27987.3,3194.9,2677,24792.4,517.9,""smooth"",""up"",""up"",""good_move""]"
"2702","","<div style=""width:500px;"">
  <p>What determined the result of this run?</p>
  </div>","24","html-slider-response","34","428631","0.0-7.0-1.4","19","1","2025-07-30 08:39:04","36c45c0696341be0efffe67d72a12abb","152.37.64.141","Mozilla/5.0 (Macintosh; Intel Mac OS X 10_15_7) AppleWebKit/537.36 (KHTML, like Gecko) Chrome/138.0.0.0 Safari/537.36","Macintosh","Chrome","138.0.0.0","OS X","10_15_7","https://app.prolific.com/","en-GB,en-US;q=0.9,en;q=0.8","672de198be1065a8f288300d","687a19d2168e237449fb8af4","6889da2540faaf86c4e45bd0","0","672de198be1065a8f288300d","0","2025-07-30T08:46:14.538Z","","","","AttribQ","","","","","","","","","","","50","","","","","","","","","","","","","","","","","","","","","","","","","","",""
"1630","","<div style=""width:500px;"">
  <p>How much control did you have over the ball?</p>
  </div>","39","html-slider-response","35","430263","0.0-7.0-2.4","19","1","2025-07-30 08:39:04","36c45c0696341be0efffe67d72a12abb","152.37.64.141","Mozilla/5.0 (Macintosh; Intel Mac OS X 10_15_7) AppleWebKit/537.36 (KHTML, like Gecko) Chrome/138.0.0.0 Safari/537.36","Macintosh","Chrome","138.0.0.0","OS X","10_15_7","https://app.prolific.com/","en-GB,en-US;q=0.9,en;q=0.8","672de198be1065a8f288300d","687a19d2168e237449fb8af4","6889da2540faaf86c4e45bd0","0","672de198be1065a8f288300d","0","2025-07-30T08:46:16.170Z","","","","ControlQ","","","","","","","","","","","50","","","","","","","","","","","","","","","","","","","","","","","","","","",""
"3310","","<div style=""width:500px;"">
  <p>How would you describe your current emotional state?</p>
  </div>","23","html-slider-response","36","433574","0.0-7.0-3.4","19","1","2025-07-30 08:39:04","36c45c0696341be0efffe67d72a12abb","152.37.64.141","Mozilla/5.0 (Macintosh; Intel Mac OS X 10_15_7) AppleWebKit/537.36 (KHTML, like Gecko) Chrome/138.0.0.0 Safari/537.36","Macintosh","Chrome","138.0.0.0","OS X","10_15_7","https://app.prolific.com/","en-GB,en-US;q=0.9,en;q=0.8","672de198be1065a8f288300d","687a19d2168e237449fb8af4","6889da2540faaf86c4e45bd0","0","672de198be1065a8f288300d","0","2025-07-30T08:46:19.482Z","","","","StressQ","","","","","","","","","","","50","","","","","","","","","","","","","","","","","","","","","","","","","","",""
"2706","","<div style=""width:500px;"">
  <p>What best describes how you currently feel?</p>
  </div>","78","html-slider-response","37","436282","0.0-7.0-4.4","19","1","2025-07-30 08:39:04","36c45c0696341be0efffe67d72a12abb","152.37.64.141","Mozilla/5.0 (Macintosh; Intel Mac OS X 10_15_7) AppleWebKit/537.36 (KHTML, like Gecko) Chrome/138.0.0.0 Safari/537.36","Macintosh","Chrome","138.0.0.0","OS X","10_15_7","https://app.prolific.com/","en-GB,en-US;q=0.9,en;q=0.8","672de198be1065a8f288300d","687a19d2168e237449fb8af4","6889da2540faaf86c4e45bd0","0","672de198be1065a8f288300d","0","2025-07-30T08:46:22.189Z","","","","MotivationQ","","","","","","","","","","","50","","","","","","","","","","","","","","","","","","","","","","","","","","",""
"","","","","ctl-task-cpt","38","480098","0.0-7.0-0.5","19","1","2025-07-30 08:39:04","36c45c0696341be0efffe67d72a12abb","152.37.64.141","Mozilla/5.0 (Macintosh; Intel Mac OS X 10_15_7) AppleWebKit/537.36 (KHTML, like Gecko) Chrome/138.0.0.0 Safari/537.36","Macintosh","Chrome","138.0.0.0","OS X","10_15_7","https://app.prolific.com/","en-GB,en-US;q=0.9,en;q=0.8","672de198be1065a8f288300d","687a19d2168e237449fb8af4","6889da2540faaf86c4e45bd0","0","672de198be1065a8f288300d","0","2025-07-30T08:47:06.005Z","","","","","","","","","","","","","","","","win-only","1","g1:NE,g2:SW","0.5","6","0","437489.7","1189.8","6191.1","40782.6","1","4","4","6","2","4","4","13","9","0.09848484848484848","5001.3","3000","830","[""down"",""left""]","{""num_key_presses"":8,""num_perfect"":4,""num_errors"":0,""num_randdir"":4,""num_randdir_good_moves"":3,""num_whilered"":0,""num_whileblue"":0,""num_blue"":3,""num_good_moves"":7}","[553.4285714285714,542.3348214285714,0.2,553.4285714285714,543.3348214285714,113.3,553.4285714285714,545.3348214285714,220.1,553.4285714285714,546.3348214285714,329.3,553.4285714285714,546.3348214285714,436.5,553.4285714285714,546.3348214285714,548.2,553.4285714285714,546.3348214285714,653.8,553.4285714285714,546.3348214285714,766.4,602.4285714285714,546.3348214285714,876.4,602.4285714285714,546.3348214285714,984.1,824.4285714285714,513.3348214285714,1095.1,842.4285714285714,511.33482142857144,1204.7,842.4285714285714,511.33482142857144,1307.6,842.4285714285714,511.33482142857144,1411.1,842.4285714285714,511.33482142857144,1511.2,842.4285714285714,511.33482142857144,1619.3,842.4285714285714,511.33482142857144,1721.8,842.4285714285714,511.33482142857144,1827.4,842.4285714285714,511.33482142857144,1932.2,842.4285714285714,511.33482142857144,2032.5,842.4285714285714,511.33482142857144,2137.6,842.4285714285714,511.33482142857144,2251.1,842.4285714285714,511.33482142857144,2351.2,842.4285714285714,511.33482142857144,2453.4,842.4285714285714,511.33482142857144,2564.8,842.4285714285714,511.33482142857144,2674,842.4285714285714,511.33482142857144,2783.7,842.4285714285714,511.33482142857144,2890.1,842.4285714285714,511.33482142857144,2992.3,842.4285714285714,511.33482142857144,3094.2,842.4285714285714,511.33482142857144,3196.3,842.4285714285714,511.33482142857144,3305.1,842.4285714285714,511.33482142857144,3413,842.4285714285714,511.33482142857144,3517.7,842.4285714285714,511.33482142857144,3622.9,842.4285714285714,511.33482142857144,3724.7,842.4285714285714,511.33482142857144,3835.3,842.4285714285714,511.33482142857144,3936.8,842.4285714285714,511.33482142857144,4053.8,842.4285714285714,511.33482142857144,4158.8,842.4285714285714,511.33482142857144,4259.3,842.4285714285714,511.33482142857144,4368.3,842.4285714285714,511.33482142857144,4469.6,842.4285714285714,511.33482142857144,4570.4,842.4285714285714,511.33482142857144,4682.5,842.4285714285714,511.33482142857144,4784.6,842.4285714285714,511.33482142857144,4901.2]","[1120.1,1120.1,1000,0,120.1,""oops"",""down"",""left"",""good_move"",4824,3703.3,2599.7,1120.7,1103.6,""smooth"",""down"",""down"",""good_move"",18393.5,13568.2,2305,15294.8,793.7,""oops"",""left"",""right"",""bad_move"",21889.7,3495.3,2864.7,18394.4,630.6,""oops"",""down"",""down"",""good_move"",25341.7,3451.8,2773.6,21889.9,678.2,""smooth"",""left"",""left"",""good_move"",28662.5,3318.4,2823.1,25344.1,495.3,""oops"",""left"",""down"",""good_move"",31212.6,2550,2142.8,28662.6,407.2,""smooth"",""left"",""left"",""good_move"",34407.5,3194.6,2640,31212.9,554.6,""smooth"",""left"",""left"",""good_move""]"
"2433","","<div style=""width:500px;"">
  <p>What determined the result of this run?</p>
  </div>","64","html-slider-response","39","482535","0.0-7.0-1.5","19","1","2025-07-30 08:39:04","36c45c0696341be0efffe67d72a12abb","152.37.64.141","Mozilla/5.0 (Macintosh; Intel Mac OS X 10_15_7) AppleWebKit/537.36 (KHTML, like Gecko) Chrome/138.0.0.0 Safari/537.36","Macintosh","Chrome","138.0.0.0","OS X","10_15_7","https://app.prolific.com/","en-GB,en-US;q=0.9,en;q=0.8","672de198be1065a8f288300d","687a19d2168e237449fb8af4","6889da2540faaf86c4e45bd0","0","672de198be1065a8f288300d","0","2025-07-30T08:47:08.442Z","","","","AttribQ","","","","","","","","","","","50","","","","","","","","","","","","","","","","","","","","","","","","","","",""
"2188","","<div style=""width:500px;"">
  <p>How much control did you have over the ball?</p>
  </div>","61","html-slider-response","40","484726","0.0-7.0-2.5","19","1","2025-07-30 08:39:04","36c45c0696341be0efffe67d72a12abb","152.37.64.141","Mozilla/5.0 (Macintosh; Intel Mac OS X 10_15_7) AppleWebKit/537.36 (KHTML, like Gecko) Chrome/138.0.0.0 Safari/537.36","Macintosh","Chrome","138.0.0.0","OS X","10_15_7","https://app.prolific.com/","en-GB,en-US;q=0.9,en;q=0.8","672de198be1065a8f288300d","687a19d2168e237449fb8af4","6889da2540faaf86c4e45bd0","0","672de198be1065a8f288300d","0","2025-07-30T08:47:10.633Z","","","","ControlQ","","","","","","","","","","","50","","","","","","","","","","","","","","","","","","","","","","","","","","",""
"2024","","<div style=""width:500px;"">
  <p>How would you describe your current emotional state?</p>
  </div>","20","html-slider-response","41","486753","0.0-7.0-3.5","19","1","2025-07-30 08:39:04","36c45c0696341be0efffe67d72a12abb","152.37.64.141","Mozilla/5.0 (Macintosh; Intel Mac OS X 10_15_7) AppleWebKit/537.36 (KHTML, like Gecko) Chrome/138.0.0.0 Safari/537.36","Macintosh","Chrome","138.0.0.0","OS X","10_15_7","https://app.prolific.com/","en-GB,en-US;q=0.9,en;q=0.8","672de198be1065a8f288300d","687a19d2168e237449fb8af4","6889da2540faaf86c4e45bd0","0","672de198be1065a8f288300d","0","2025-07-30T08:47:12.660Z","","","","StressQ","","","","","","","","","","","50","","","","","","","","","","","","","","","","","","","","","","","","","","",""
"1737","","<div style=""width:500px;"">
  <p>What best describes how you currently feel?</p>
  </div>","81","html-slider-response","42","488492","0.0-7.0-4.5","19","1","2025-07-30 08:39:04","36c45c0696341be0efffe67d72a12abb","152.37.64.141","Mozilla/5.0 (Macintosh; Intel Mac OS X 10_15_7) AppleWebKit/537.36 (KHTML, like Gecko) Chrome/138.0.0.0 Safari/537.36","Macintosh","Chrome","138.0.0.0","OS X","10_15_7","https://app.prolific.com/","en-GB,en-US;q=0.9,en;q=0.8","672de198be1065a8f288300d","687a19d2168e237449fb8af4","6889da2540faaf86c4e45bd0","0","672de198be1065a8f288300d","0","2025-07-30T08:47:14.399Z","","","","MotivationQ","","","","","","","","","","","50","","","","","","","","","","","","","","","","","","","","","","","","","","",""
"","","","","ctl-task-cpt","43","554422","0.0-7.0-0.6","19","1","2025-07-30 08:39:04","36c45c0696341be0efffe67d72a12abb","152.37.64.141","Mozilla/5.0 (Macintosh; Intel Mac OS X 10_15_7) AppleWebKit/537.36 (KHTML, like Gecko) Chrome/138.0.0.0 Safari/537.36","Macintosh","Chrome","138.0.0.0","OS X","10_15_7","https://app.prolific.com/","en-GB,en-US;q=0.9,en;q=0.8","672de198be1065a8f288300d","687a19d2168e237449fb8af4","6889da2540faaf86c4e45bd0","0","672de198be1065a8f288300d","0","2025-07-30T08:48:20.329Z","","","","","","","","","","","","","","","","win-only","2","g1:SE,g2:NW","0.4","7","0","489695.8","942.9","5945.1","62908","1","4","8","6","2","-8","-9","4","13","0.030303030303030304","1052.9","3000","-1100","[""left"",""up""]","{""num_key_presses"":16,""num_perfect"":7,""num_errors"":1,""num_randdir"":8,""num_randdir_good_moves"":2,""num_whilered"":0,""num_whileblue"":0,""num_blue"":2,""num_good_moves"":8}","[551.4285714285714,565.3348214285714,1.2,551.4285714285714,565.3348214285714,117.1,551.4285714285714,565.3348214285714,227,550.4285714285714,567.3348214285714,338.6,639.4285714285714,673.3348214285714,447.7,963.4285714285714,923.3348214285714,558.4,898.4285714285714,862.3348214285714,682.1,223.42857142857144,291.33482142857144,787.8,131.42857142857144,184.33482142857144,890.3,104.42857142857143,160.33482142857144,998.6,103.42857142857143,159.33482142857144,1108.7,103.42857142857143,159.33482142857144,1215.2,103.42857142857143,163.33482142857144,1316.7,132.42857142857144,232.33482142857144,1420.9,220.42857142857144,335.33482142857144,1523.8,366.42857142857144,435.33482142857144,1624.9,470.42857142857144,541.3348214285714,1743.9,628.4285714285714,756.3348214285714,1844.5,817.4285714285714,879.3348214285714,1955.5,1167.4285714285713,591.3348214285714,2060.4,1403.4285714285713,431.33482142857144,2160.8,1481.4285714285713,410.33482142857144,2263.3,1481.4285714285713,410.33482142857144,2363.5,1481.4285714285713,410.33482142857144,2468.4,1481.4285714285713,410.33482142857144,2577,1481.4285714285713,410.33482142857144,2679.3,1481.4285714285713,410.33482142857144,2786.9,1481.4285714285713,410.33482142857144,2899.5,1481.4285714285713,410.33482142857144,3001.2,1481.4285714285713,410.33482142857144,3107.4,1481.4285714285713,410.33482142857144,3210.1,1481.4285714285713,410.33482142857144,3316.7,1481.4285714285713,410.33482142857144,3428.4,1481.4285714285713,410.33482142857144,3533.2,1481.4285714285713,410.33482142857144,3636.5,1481.4285714285713,410.33482142857144,3738.7,1481.4285714285713,410.33482142857144,3848.9,1481.4285714285713,410.33482142857144,3952.3,1481.4285714285713,410.33482142857144,4067.1,1481.4285714285713,410.33482142857144,4168.3,1481.4285714285713,410.33482142857144,4269.8,1481.4285714285713,410.33482142857144,4385.9,1481.4285714285713,410.33482142857144,4491.4,1481.4285714285713,410.33482142857144,4603.3,1481.4285714285713,410.33482142857144,4711.1,1481.4285714285713,410.33482142857144,4814.1,1481.4285714285713,410.33482142857144,4916.3]","[507.7,507.7,1000,0,-492.3,""error"",""-"",""-"",""no_move"",3959.8,3451.9,1870.3,1509.5,580,""oops"",""left"",""right"",""bad_move"",9360.9,5400.2,2309,6570.7,481.2,""oops"",""up"",""down"",""bad_move"",11990.3,2629.2,1767.9,9361.1,861.3,""oops"",""left"",""right"",""bad_move"",15463.5,3471.8,3091.4,11991.7,380.4,""smooth"",""down"",""down"",""bad_move"",18154.1,2688.5,1618.9,15465.7,1069.5,""oops"",""left"",""up"",""good_move"",21395.8,3240.7,2709.9,18155.1,530.8,""oops"",""left"",""down"",""bad_move"",27953.8,6556.5,2224.6,25165.3,563.9,""smooth"",""left"",""left"",""good_move"",31734.1,3779.6,3277.2,27954.5,502.4,""smooth"",""left"",""left"",""good_move"",35054.2,3318.8,2768.9,31735.4,549.9,""oops"",""up"",""right"",""bad_move"",38456.9,3400.1,2951.8,35057,448.2,""smooth"",""up"",""up"",""good_move"",41877.4,3416.8,2678.9,38460.6,737.9,""oops"",""up"",""down"",""bad_move"",45094.2,3214.6,2718.5,41879.6,496.1,""smooth"",""up"",""up"",""good_move"",48133,3036.7,2507.8,45096.3,528.9,""smooth"",""up"",""up"",""good_move"",51230.9,3092,2711.8,48139,380.1,""smooth"",""up"",""up"",""good_move"",54179.5,2947.4,2631.2,51232.1,316.2,""oops"",""left"",""up"",""good_move""]"
"4889","","<div style=""width:500px;"">
  <p>What determined the result of this run?</p>
  </div>","4","html-slider-response","44","559316","0.0-7.0-1.6","19","1","2025-07-30 08:39:04","36c45c0696341be0efffe67d72a12abb","152.37.64.141","Mozilla/5.0 (Macintosh; Intel Mac OS X 10_15_7) AppleWebKit/537.36 (KHTML, like Gecko) Chrome/138.0.0.0 Safari/537.36","Macintosh","Chrome","138.0.0.0","OS X","10_15_7","https://app.prolific.com/","en-GB,en-US;q=0.9,en;q=0.8","672de198be1065a8f288300d","687a19d2168e237449fb8af4","6889da2540faaf86c4e45bd0","0","672de198be1065a8f288300d","0","2025-07-30T08:48:25.223Z","","","","AttribQ","","","","","","","","","","","50","","","","","","","","","","","","","","","","","","","","","","","","","","",""
"1534","","<div style=""width:500px;"">
  <p>How much control did you have over the ball?</p>
  </div>","2","html-slider-response","45","560853","0.0-7.0-2.6","19","1","2025-07-30 08:39:04","36c45c0696341be0efffe67d72a12abb","152.37.64.141","Mozilla/5.0 (Macintosh; Intel Mac OS X 10_15_7) AppleWebKit/537.36 (KHTML, like Gecko) Chrome/138.0.0.0 Safari/537.36","Macintosh","Chrome","138.0.0.0","OS X","10_15_7","https://app.prolific.com/","en-GB,en-US;q=0.9,en;q=0.8","672de198be1065a8f288300d","687a19d2168e237449fb8af4","6889da2540faaf86c4e45bd0","0","672de198be1065a8f288300d","0","2025-07-30T08:48:26.760Z","","","","ControlQ","","","","","","","","","","","50","","","","","","","","","","","","","","","","","","","","","","","","","","",""
"2695","","<div style=""width:500px;"">
  <p>How would you describe your current emotional state?</p>
  </div>","50","html-slider-response","46","563550","0.0-7.0-3.6","19","1","2025-07-30 08:39:04","36c45c0696341be0efffe67d72a12abb","152.37.64.141","Mozilla/5.0 (Macintosh; Intel Mac OS X 10_15_7) AppleWebKit/537.36 (KHTML, like Gecko) Chrome/138.0.0.0 Safari/537.36","Macintosh","Chrome","138.0.0.0","OS X","10_15_7","https://app.prolific.com/","en-GB,en-US;q=0.9,en;q=0.8","672de198be1065a8f288300d","687a19d2168e237449fb8af4","6889da2540faaf86c4e45bd0","0","672de198be1065a8f288300d","0","2025-07-30T08:48:29.458Z","","","","StressQ","","","","","","","","","","","50","","","","","","","","","","","","","","","","","","","","","","","","","","",""
"2665","","<div style=""width:500px;"">
  <p>What best describes how you currently feel?</p>
  </div>","69","html-slider-response","47","566218","0.0-7.0-4.6","19","1","2025-07-30 08:39:04","36c45c0696341be0efffe67d72a12abb","152.37.64.141","Mozilla/5.0 (Macintosh; Intel Mac OS X 10_15_7) AppleWebKit/537.36 (KHTML, like Gecko) Chrome/138.0.0.0 Safari/537.36","Macintosh","Chrome","138.0.0.0","OS X","10_15_7","https://app.prolific.com/","en-GB,en-US;q=0.9,en;q=0.8","672de198be1065a8f288300d","687a19d2168e237449fb8af4","6889da2540faaf86c4e45bd0","0","672de198be1065a8f288300d","0","2025-07-30T08:48:32.126Z","","","","MotivationQ","","","","","","","","","","","50","","","","","","","","","","","","","","","","","","","","","","","","","","",""
"","","","","ctl-task-cpt","48","668066","0.0-7.0-0.7","19","1","2025-07-30 08:39:04","36c45c0696341be0efffe67d72a12abb","152.37.64.141","Mozilla/5.0 (Macintosh; Intel Mac OS X 10_15_7) AppleWebKit/537.36 (KHTML, like Gecko) Chrome/138.0.0.0 Safari/537.36","Macintosh","Chrome","138.0.0.0","OS X","10_15_7","https://app.prolific.com/","en-GB,en-US;q=0.9,en;q=0.8","672de198be1065a8f288300d","687a19d2168e237449fb8af4","6889da2540faaf86c4e45bd0","0","672de198be1065a8f288300d","0","2025-07-30T08:50:13.973Z","","","","","","","","","","","","","","","","win-only","1","g1:NE,g2:SW","0.3","8","0","567420.9","1435.1","6445.6","98816.8","1","4","4","6","1","-1","-3","1","4","0.007575757575757576","1937.7","3000","-1000","[""up"",""right""]","{""num_key_presses"":23,""num_perfect"":6,""num_errors"":2,""num_randdir"":15,""num_randdir_good_moves"":6,""num_whilered"":0,""num_whileblue"":1,""num_blue"":6,""num_good_moves"":12}","[548.4285714285714,556.3348214285714,2.4,548.4285714285714,555.3348214285714,112,548.4285714285714,555.3348214285714,220.6,548.4285714285714,555.3348214285714,327.4,548.4285714285714,555.3348214285714,427.5,548.4285714285714,555.3348214285714,529.1,299.42857142857144,793.3348214285714,641.4,157.42857142857144,950.3348214285714,757,122.42857142857143,988.3348214285714,860,117.42857142857143,998.3348214285714,962.2,117.42857142857143,1002.3348214285714,1081.4,117.42857142857143,1002.3348214285714,1182.3,117.42857142857143,1002.3348214285714,1287.7,117.42857142857143,1002.3348214285714,1399.5,381.42857142857144,808.3348214285714,1518.9,831.4285714285714,383.33482142857144,1639.1,999.4285714285714,178.33482142857144,1742.5,1014.4285714285714,138.33482142857144,1848.6,1013.4285714285714,128.33482142857144,1959.6,1012.4285714285714,129.33482142857144,2075.6,1053.4285714285713,261.33482142857144,2193.5,1245.4285714285713,462.33482142857144,2297.8,1270.4285714285713,485.33482142857144,2400.2,1270.4285714285713,485.33482142857144,2506.4,1270.4285714285713,485.33482142857144,2624.6,1270.4285714285713,485.33482142857144,2729.2,1270.4285714285713,485.33482142857144,2838.2,1270.4285714285713,485.33482142857144,2941.3,1270.4285714285713,485.33482142857144,3048.1,1270.4285714285713,485.33482142857144,3153.9,1270.4285714285713,485.33482142857144,3254.3,1270.4285714285713,485.33482142857144,3364.1,1270.4285714285713,485.33482142857144,3478.6,1270.4285714285713,485.33482142857144,3596.2,1270.4285714285713,485.33482142857144,3713.8,1270.4285714285713,485.33482142857144,3817.9,1270.4285714285713,485.33482142857144,3933.3,1270.4285714285713,485.33482142857144,4050.2,1270.4285714285713,485.33482142857144,4157.1,1270.4285714285713,485.33482142857144,4269.1,1270.4285714285713,485.33482142857144,4378.3,1270.4285714285713,485.33482142857144,4479.8,1270.4285714285713,485.33482142857144,4583.8,1270.4285714285713,485.33482142857144,4693.8,1270.4285714285713,485.33482142857144,4802.5,1270.4285714285713,485.33482142857144,4919.8]","[476.5,476.5,1000,0,-523.5,""error"",""-"",""-"",""no_move"",4269.7,3792.6,2247.7,1489.3,532.7,""smooth"",""right"",""right"",""good_move"",7525.8,3255.7,2651.7,4270.1,604,""smooth"",""up"",""up"",""good_move"",10605.6,3077.9,2492.2,7527.7,585.7,""smooth"",""right"",""right"",""good_move"",13660.4,3054.2,2696.3,10606.2,357.9,""oops"",""up"",""down"",""bad_move"",16447.7,2786,2417.4,13661.8,368.5,""oops"",""up"",""down"",""bad_move"",19151.8,2703.7,2294.1,16448.1,409.6,""oops"",""up"",""up"",""good_move"",22582.8,3429.1,2911.9,19153.7,517.2,""oops"",""up"",""up"",""good_move"",26100.1,3515.7,3095.7,22584.4,420,""oops"",""up"",""left"",""bad_move"",29230.5,3128.9,2739.3,26101.6,389.6,""oops"",""up"",""down"",""bad_move"",32139.8,2909.1,2509.4,29230.7,399.7,""oops"",""up"",""left"",""bad_move"",35127.6,2987.6,2640.6,32140,347,""smooth"",""right"",""right"",""good_move"",37791.6,2660.8,2024.9,35130.9,635.8,""oops"",""right"",""right"",""good_move"",40838.4,3046.6,2681.2,37791.8,365.4,""smooth"",""up"",""up"",""good_move"",48320,7480.1,2573.5,45301.7,444.8,""oops"",""up"",""down"",""bad_move"",51891.7,3571.2,3109.7,48320.5,461.5,""oops"",""up"",""down"",""bad_move"",54347.9,2454.2,1955.4,51893.7,498.8,""smooth"",""up"",""up"",""good_move"",57559.6,3211.5,1897.3,54348.1,1314.2,""oops"",""up"",""left"",""bad_move"",60814.8,3254.2,2660.6,57560.6,593.6,""oops"",""up"",""right"",""good_move"",64081.4,3266.5,2743.7,60814.9,522.8,""oops"",""up"",""down"",""bad_move"",67031.3,2948.8,2485.3,64082.5,463.5,""while_blue"",""up"",""left"",""bad_move"",74157.4,7124.6,2939.7,70700.2,517.5,""oops"",""up"",""up"",""good_move"",77783.2,3625.3,2179.8,74158,1445.4,""oops"",""up"",""up"",""good_move""]"
"10215","","<div style=""width:500px;"">
  <p>What determined the result of this run?</p>
  </div>","4","html-slider-response","49","678282","0.0-7.0-1.7","19","1","2025-07-30 08:39:04","36c45c0696341be0efffe67d72a12abb","152.37.64.141","Mozilla/5.0 (Macintosh; Intel Mac OS X 10_15_7) AppleWebKit/537.36 (KHTML, like Gecko) Chrome/138.0.0.0 Safari/537.36","Macintosh","Chrome","138.0.0.0","OS X","10_15_7","https://app.prolific.com/","en-GB,en-US;q=0.9,en;q=0.8","672de198be1065a8f288300d","687a19d2168e237449fb8af4","6889da2540faaf86c4e45bd0","0","672de198be1065a8f288300d","0","2025-07-30T08:50:24.189Z","","","","AttribQ","","","","","","","","","","","50","","","","","","","","","","","","","","","","","","","","","","","","","","",""
"1874","","<div style=""width:500px;"">
  <p>How much control did you have over the ball?</p>
  </div>","21","html-slider-response","50","680159","0.0-7.0-2.7","19","1","2025-07-30 08:39:04","36c45c0696341be0efffe67d72a12abb","152.37.64.141","Mozilla/5.0 (Macintosh; Intel Mac OS X 10_15_7) AppleWebKit/537.36 (KHTML, like Gecko) Chrome/138.0.0.0 Safari/537.36","Macintosh","Chrome","138.0.0.0","OS X","10_15_7","https://app.prolific.com/","en-GB,en-US;q=0.9,en;q=0.8","672de198be1065a8f288300d","687a19d2168e237449fb8af4","6889da2540faaf86c4e45bd0","0","672de198be1065a8f288300d","0","2025-07-30T08:50:26.067Z","","","","ControlQ","","","","","","","","","","","50","","","","","","","","","","","","","","","","","","","","","","","","","","",""
"2332","","<div style=""width:500px;"">
  <p>How would you describe your current emotional state?</p>
  </div>","65","html-slider-response","51","682494","0.0-7.0-3.7","19","1","2025-07-30 08:39:04","36c45c0696341be0efffe67d72a12abb","152.37.64.141","Mozilla/5.0 (Macintosh; Intel Mac OS X 10_15_7) AppleWebKit/537.36 (KHTML, like Gecko) Chrome/138.0.0.0 Safari/537.36","Macintosh","Chrome","138.0.0.0","OS X","10_15_7","https://app.prolific.com/","en-GB,en-US;q=0.9,en;q=0.8","672de198be1065a8f288300d","687a19d2168e237449fb8af4","6889da2540faaf86c4e45bd0","0","672de198be1065a8f288300d","0","2025-07-30T08:50:28.401Z","","","","StressQ","","","","","","","","","","","50","","","","","","","","","","","","","","","","","","","","","","","","","","",""
"1715","","<div style=""width:500px;"">
  <p>What best describes how you currently feel?</p>
  </div>","35","html-slider-response","52","684211","0.0-7.0-4.7","19","1","2025-07-30 08:39:04","36c45c0696341be0efffe67d72a12abb","152.37.64.141","Mozilla/5.0 (Macintosh; Intel Mac OS X 10_15_7) AppleWebKit/537.36 (KHTML, like Gecko) Chrome/138.0.0.0 Safari/537.36","Macintosh","Chrome","138.0.0.0","OS X","10_15_7","https://app.prolific.com/","en-GB,en-US;q=0.9,en;q=0.8","672de198be1065a8f288300d","687a19d2168e237449fb8af4","6889da2540faaf86c4e45bd0","0","672de198be1065a8f288300d","0","2025-07-30T08:50:30.118Z","","","","MotivationQ","","","","","","","","","","","50","","","","","","","","","","","","","","","","","","","","","","","","","","",""
"","","","","ctl-task-cpt","53","767559","0.0-7.0-0.8","19","1","2025-07-30 08:39:04","36c45c0696341be0efffe67d72a12abb","152.37.64.141","Mozilla/5.0 (Macintosh; Intel Mac OS X 10_15_7) AppleWebKit/537.36 (KHTML, like Gecko) Chrome/138.0.0.0 Safari/537.36","Macintosh","Chrome","138.0.0.0","OS X","10_15_7","https://app.prolific.com/","en-GB,en-US;q=0.9,en;q=0.8","672de198be1065a8f288300d","687a19d2168e237449fb8af4","6889da2540faaf86c4e45bd0","0","672de198be1065a8f288300d","0","2025-07-30T08:51:53.466Z","","","","","","","","","","","","","","","","win-only","3","g1:SW,g2:NE","0.4","9","0","685406.5","1136.5","6147.7","80440.2","1","4","4","6","2","4","4","5","1","0.03787878787878788","1097.1","3000","945","[""up"",""right""]","{""num_key_presses"":14,""num_perfect"":7,""num_errors"":0,""num_randdir"":7,""num_randdir_good_moves"":3,""num_whilered"":0,""num_whileblue"":0,""num_blue"":9,""num_good_moves"":10}","[571.4285714285714,554.3348214285714,0.2,571.4285714285714,553.3348214285714,101,571.4285714285714,554.3348214285714,201.4,569.4285714285714,556.3348214285714,317.7,569.4285714285714,556.3348214285714,429.2,569.4285714285714,556.3348214285714,529.4,569.4285714285714,556.3348214285714,631,643.4285714285714,481.33482142857144,742.9,926.4285714285714,199.33482142857144,844.8,961.4285714285714,148.33482142857144,962.7,989.4285714285714,127.33482142857143,1072.1,989.4285714285714,127.33482142857143,1183.2,988.4285714285714,127.33482142857143,1288,988.4285714285714,127.33482142857143,1408.6,988.4285714285714,127.33482142857143,1512.8,988.4285714285714,127.33482142857143,1630.9,988.4285714285714,127.33482142857143,1741.5,988.4285714285714,127.33482142857143,1845.2,988.4285714285714,127.33482142857143,1952.8,988.4285714285714,127.33482142857143,2061.2,988.4285714285714,127.33482142857143,2163.8,988.4285714285714,127.33482142857143,2285.8,988.4285714285714,127.33482142857143,2400.9,988.4285714285714,127.33482142857143,2505.1,988.4285714285714,127.33482142857143,2614.4,988.4285714285714,127.33482142857143,2721.3,988.4285714285714,127.33482142857143,2825.1,988.4285714285714,127.33482142857143,2933.9,988.4285714285714,127.33482142857143,3035.7,988.4285714285714,127.33482142857143,3137.2,988.4285714285714,127.33482142857143,3255.7,988.4285714285714,127.33482142857143,3366.5,988.4285714285714,127.33482142857143,3471.7,988.4285714285714,127.33482142857143,3577.4,988.4285714285714,127.33482142857143,3681.6,988.4285714285714,127.33482142857143,3782.2,988.4285714285714,127.33482142857143,3882.8,988.4285714285714,127.33482142857143,3984.2,988.4285714285714,127.33482142857143,4096.6,988.4285714285714,127.33482142857143,4197.7,988.4285714285714,127.33482142857143,4305.9,988.4285714285714,127.33482142857143,4412.2,988.4285714285714,127.33482142857143,4524.4,988.4285714285714,127.33482142857143,4628.1,988.4285714285714,127.33482142857143,4739.5,988.4285714285714,127.33482142857143,4840.9,988.4285714285714,127.33482142857143,4946.7]","[5275.8,5275.8,2758.3,2033.7,483.8,""smooth"",""up"",""up"",""good_move"",13576.3,8300,2864.5,10247.8,464.1,""smooth"",""up"",""up"",""good_move"",17246.4,3668.9,2360.2,13577.5,1308.7,""oops"",""right"",""down"",""bad_move"",27451,10203.1,2158.8,24824.4,467.8,""oops"",""up"",""down"",""bad_move"",30571.9,3112.6,2427,27459.3,685.6,""smooth"",""right"",""right"",""good_move"",33367.8,2794.3,2010.4,30573.6,783.8,""smooth"",""right"",""right"",""good_move"",36327.2,2959.2,2468.9,33368,490.3,""oops"",""right"",""up"",""good_move"",39923.1,3593.7,2150.6,36329.4,1443.1,""oops"",""right"",""up"",""good_move"",46482.5,6559,1982.3,43931.8,568.4,""oops"",""right"",""down"",""bad_move"",49130.5,2643.2,2180.4,46487.4,462.7,""oops"",""right"",""down"",""bad_move"",52070.4,2936.3,2567.4,49134.1,368.9,""smooth"",""right"",""right"",""good_move"",58605.1,6531.1,2655,55477.8,472.3,""oops"",""up"",""up"",""good_move"",68209.4,9602.9,2383.5,65352.5,473.4,""smooth"",""up"",""up"",""good_move"",74010.5,5799.9,1557.4,71952.3,500.8,""smooth"",""up"",""up"",""good_move""]"
"4050","","<div style=""width:500px;"">
  <p>What determined the result of this run?</p>
  </div>","50","html-slider-response","54","771612","0.0-7.0-1.8","19","1","2025-07-30 08:39:04","36c45c0696341be0efffe67d72a12abb","152.37.64.141","Mozilla/5.0 (Macintosh; Intel Mac OS X 10_15_7) AppleWebKit/537.36 (KHTML, like Gecko) Chrome/138.0.0.0 Safari/537.36","Macintosh","Chrome","138.0.0.0","OS X","10_15_7","https://app.prolific.com/","en-GB,en-US;q=0.9,en;q=0.8","672de198be1065a8f288300d","687a19d2168e237449fb8af4","6889da2540faaf86c4e45bd0","0","672de198be1065a8f288300d","0","2025-07-30T08:51:57.519Z","","","","AttribQ","","","","","","","","","","","50","","","","","","","","","","","","","","","","","","","","","","","","","","",""
"2638","","<div style=""width:500px;"">
  <p>How much control did you have over the ball?</p>
  </div>","60","html-slider-response","55","774251","0.0-7.0-2.8","19","1","2025-07-30 08:39:04","36c45c0696341be0efffe67d72a12abb","152.37.64.141","Mozilla/5.0 (Macintosh; Intel Mac OS X 10_15_7) AppleWebKit/537.36 (KHTML, like Gecko) Chrome/138.0.0.0 Safari/537.36","Macintosh","Chrome","138.0.0.0","OS X","10_15_7","https://app.prolific.com/","en-GB,en-US;q=0.9,en;q=0.8","672de198be1065a8f288300d","687a19d2168e237449fb8af4","6889da2540faaf86c4e45bd0","0","672de198be1065a8f288300d","0","2025-07-30T08:52:00.159Z","","","","ControlQ","","","","","","","","","","","50","","","","","","","","","","","","","","","","","","","","","","","","","","",""
"2541","","<div style=""width:500px;"">
  <p>How would you describe your current emotional state?</p>
  </div>","50","html-slider-response","56","776795","0.0-7.0-3.8","19","1","2025-07-30 08:39:04","36c45c0696341be0efffe67d72a12abb","152.37.64.141","Mozilla/5.0 (Macintosh; Intel Mac OS X 10_15_7) AppleWebKit/537.36 (KHTML, like Gecko) Chrome/138.0.0.0 Safari/537.36","Macintosh","Chrome","138.0.0.0","OS X","10_15_7","https://app.prolific.com/","en-GB,en-US;q=0.9,en;q=0.8","672de198be1065a8f288300d","687a19d2168e237449fb8af4","6889da2540faaf86c4e45bd0","0","672de198be1065a8f288300d","0","2025-07-30T08:52:02.702Z","","","","StressQ","","","","","","","","","","","50","","","","","","","","","","","","","","","","","","","","","","","","","","",""
"3887","","<div style=""width:500px;"">
  <p>What best describes how you currently feel?</p>
  </div>","49","html-slider-response","57","780686","0.0-7.0-4.8","19","1","2025-07-30 08:39:04","36c45c0696341be0efffe67d72a12abb","152.37.64.141","Mozilla/5.0 (Macintosh; Intel Mac OS X 10_15_7) AppleWebKit/537.36 (KHTML, like Gecko) Chrome/138.0.0.0 Safari/537.36","Macintosh","Chrome","138.0.0.0","OS X","10_15_7","https://app.prolific.com/","en-GB,en-US;q=0.9,en;q=0.8","672de198be1065a8f288300d","687a19d2168e237449fb8af4","6889da2540faaf86c4e45bd0","0","672de198be1065a8f288300d","0","2025-07-30T08:52:06.593Z","","","","MotivationQ","","","","","","","","","","","50","","","","","","","","","","","","","","","","","","","","","","","","","","",""
"","","","","ctl-task-cpt","58","828609","0.0-7.0-0.9","19","1","2025-07-30 08:39:04","36c45c0696341be0efffe67d72a12abb","152.37.64.141","Mozilla/5.0 (Macintosh; Intel Mac OS X 10_15_7) AppleWebKit/537.36 (KHTML, like Gecko) Chrome/138.0.0.0 Safari/537.36","Macintosh","Chrome","138.0.0.0","OS X","10_15_7","https://app.prolific.com/","en-GB,en-US;q=0.9,en;q=0.8","672de198be1065a8f288300d","687a19d2168e237449fb8af4","6889da2540faaf86c4e45bd0","0","672de198be1065a8f288300d","0","2025-07-30T08:52:54.516Z","","","","","","","","","","","","","","","","win-only","0","g1:NW,g2:SE","0.5","10","0","782002.5","1064","6067.7","44893.8","1","4","8","6","2","8","8","13","5","0.09848484848484848","1427.4","3000","2095","[""down"",""right""]","{""num_key_presses"":6,""num_perfect"":4,""num_errors"":0,""num_randdir"":2,""num_randdir_good_moves"":2,""num_whilered"":0,""num_whileblue"":0,""num_blue"":6,""num_good_moves"":6}","[550.4285714285714,561.3348214285714,0.3,550.4285714285714,561.3348214285714,104.4,550.4285714285714,561.3348214285714,209.2,550.4285714285714,561.3348214285714,316.6,550.4285714285714,561.3348214285714,419.9,550.4285714285714,561.3348214285714,534.5,550.4285714285714,561.3348214285714,638.2,550.4285714285714,561.3348214285714,746,550.4285714285714,561.3348214285714,855.9,555.4285714285714,568.3348214285714,967.7,704.4285714285714,737.3348214285714,1084.6,849.4285714285714,899.3348214285714,1202.1,959.4285714285714,975.3348214285714,1315.5,982.4285714285714,987.3348214285714,1420.6,982.4285714285714,987.3348214285714,1525.5,987.4285714285714,989.3348214285714,1626.6,1296.4285714285713,971.3348214285714,1731.6,1663.4285714285713,865.3348214285714,1835.5,1776.4285714285713,828.3348214285714,1938.9,1776.4285714285713,828.3348214285714,2040.7,1776.4285714285713,828.3348214285714,2154.9,1776.4285714285713,828.3348214285714,2270.6,1776.4285714285713,828.3348214285714,2407.1,1776.4285714285713,828.3348214285714,2520.3,1776.4285714285713,828.3348214285714,2627.5,1776.4285714285713,828.3348214285714,2737.6,1776.4285714285713,828.3348214285714,2856.7,1776.4285714285713,828.3348214285714,2960.7,1776.4285714285713,828.3348214285714,3061.7,1776.4285714285713,828.3348214285714,3170.6,1776.4285714285713,828.3348214285714,3285.1,1776.4285714285713,828.3348214285714,3394.8,1776.4285714285713,828.3348214285714,3498.8,1776.4285714285713,828.3348214285714,3605.1,1776.4285714285713,828.3348214285714,3717.3,1776.4285714285713,828.3348214285714,3821.3,1776.4285714285713,828.3348214285714,3939.2,1776.4285714285713,828.3348214285714,4049.9,1776.4285714285713,828.3348214285714,4158.5,1776.4285714285713,828.3348214285714,4271.4,1776.4285714285713,828.3348214285714,4371.9,1776.4285714285713,828.3348214285714,4486.2,1776.4285714285713,828.3348214285714,4603,1776.4285714285713,828.3348214285714,4710.8,1776.4285714285713,828.3348214285714,4828.4,1776.4285714285713,828.3348214285714,4945.2]","[9493.7,9493.8,2582.3,6360.6,550.9,""smooth"",""down"",""down"",""good_move"",12710.3,3216.3,2668.4,9494,547.9,""smooth"",""right"",""right"",""good_move"",23237.9,10524.9,2561.6,20161.4,514.9,""oops"",""down"",""down"",""good_move"",26259.2,3019.7,2479.6,23239.5,540.1,""oops"",""right"",""down"",""good_move"",29394.5,3133,2494.7,26261.5,638.3,""smooth"",""right"",""right"",""good_move"",38530,9130.7,1430.6,36481.2,618.3,""smooth"",""right"",""right"",""good_move""]"
"3018","","<div style=""width:500px;"">
  <p>What determined the result of this run?</p>
  </div>","75","html-slider-response","59","831628","0.0-7.0-1.9","19","1","2025-07-30 08:39:04","36c45c0696341be0efffe67d72a12abb","152.37.64.141","Mozilla/5.0 (Macintosh; Intel Mac OS X 10_15_7) AppleWebKit/537.36 (KHTML, like Gecko) Chrome/138.0.0.0 Safari/537.36","Macintosh","Chrome","138.0.0.0","OS X","10_15_7","https://app.prolific.com/","en-GB,en-US;q=0.9,en;q=0.8","672de198be1065a8f288300d","687a19d2168e237449fb8af4","6889da2540faaf86c4e45bd0","0","672de198be1065a8f288300d","0","2025-07-30T08:52:57.535Z","","","","AttribQ","","","","","","","","","","","50","","","","","","","","","","","","","","","","","","","","","","","","","","",""
"3501","","<div style=""width:500px;"">
  <p>How much control did you have over the ball?</p>
  </div>","76","html-slider-response","60","835131","0.0-7.0-2.9","19","1","2025-07-30 08:39:04","36c45c0696341be0efffe67d72a12abb","152.37.64.141","Mozilla/5.0 (Macintosh; Intel Mac OS X 10_15_7) AppleWebKit/537.36 (KHTML, like Gecko) Chrome/138.0.0.0 Safari/537.36","Macintosh","Chrome","138.0.0.0","OS X","10_15_7","https://app.prolific.com/","en-GB,en-US;q=0.9,en;q=0.8","672de198be1065a8f288300d","687a19d2168e237449fb8af4","6889da2540faaf86c4e45bd0","0","672de198be1065a8f288300d","0","2025-07-30T08:53:01.038Z","","","","ControlQ","","","","","","","","","","","50","","","","","","","","","","","","","","","","","","","","","","","","","","",""
"2735","","<div style=""width:500px;"">
  <p>How would you describe your current emotional state?</p>
  </div>","29","html-slider-response","61","837868","0.0-7.0-3.9","19","1","2025-07-30 08:39:04","36c45c0696341be0efffe67d72a12abb","152.37.64.141","Mozilla/5.0 (Macintosh; Intel Mac OS X 10_15_7) AppleWebKit/537.36 (KHTML, like Gecko) Chrome/138.0.0.0 Safari/537.36","Macintosh","Chrome","138.0.0.0","OS X","10_15_7","https://app.prolific.com/","en-GB,en-US;q=0.9,en;q=0.8","672de198be1065a8f288300d","687a19d2168e237449fb8af4","6889da2540faaf86c4e45bd0","0","672de198be1065a8f288300d","0","2025-07-30T08:53:03.775Z","","","","StressQ","","","","","","","","","","","50","","","","","","","","","","","","","","","","","","","","","","","","","","",""
"2715","","<div style=""width:500px;"">
  <p>What best describes how you currently feel?</p>
  </div>","54","html-slider-response","62","840587","0.0-7.0-4.9","19","1","2025-07-30 08:39:04","36c45c0696341be0efffe67d72a12abb","152.37.64.141","Mozilla/5.0 (Macintosh; Intel Mac OS X 10_15_7) AppleWebKit/537.36 (KHTML, like Gecko) Chrome/138.0.0.0 Safari/537.36","Macintosh","Chrome","138.0.0.0","OS X","10_15_7","https://app.prolific.com/","en-GB,en-US;q=0.9,en;q=0.8","672de198be1065a8f288300d","687a19d2168e237449fb8af4","6889da2540faaf86c4e45bd0","0","672de198be1065a8f288300d","0","2025-07-30T08:53:06.495Z","","","","MotivationQ","","","","","","","","","","","50","","","","","","","","","","","","","","","","","","","","","","","","","","",""
"","","","","ctl-task-cpt","63","886356","0.0-7.0-0.10","19","1","2025-07-30 08:39:04","36c45c0696341be0efffe67d72a12abb","152.37.64.141","Mozilla/5.0 (Macintosh; Intel Mac OS X 10_15_7) AppleWebKit/537.36 (KHTML, like Gecko) Chrome/138.0.0.0 Safari/537.36","Macintosh","Chrome","138.0.0.0","OS X","10_15_7","https://app.prolific.com/","en-GB,en-US;q=0.9,en;q=0.8","672de198be1065a8f288300d","687a19d2168e237449fb8af4","6889da2540faaf86c4e45bd0","0","672de198be1065a8f288300d","0","2025-07-30T08:53:52.263Z","","","","","","","","","","","","","","","","win-only","3","g1:SW,g2:NE","0.6","11","0","841910.5","1406","6409.9","42741.2","1","4","4","6","1","1","0","13","13","0.09848484848484848","1886.9","3000","1690","[""down"",""left""]","{""num_key_presses"":11,""num_perfect"":6,""num_errors"":1,""num_randdir"":4,""num_randdir_good_moves"":1,""num_whilered"":0,""num_whileblue"":0,""num_blue"":0,""num_good_moves"":7}","[545.4285714285714,558.3348214285714,0.1,545.4285714285714,558.3348214285714,103.9,545.4285714285714,558.3348214285714,218.6,544.4285714285714,560.3348214285714,337.7,544.4285714285714,560.3348214285714,447.5,544.4285714285714,560.3348214285714,552.9,544.4285714285714,560.3348214285714,661.8,544.4285714285714,560.3348214285714,779.7,544.4285714285714,560.3348214285714,880.5,544.4285714285714,560.3348214285714,992.7,544.4285714285714,560.3348214285714,1117.3,544.4285714285714,560.3348214285714,1237.7,544.4285714285714,560.3348214285714,1357.2,544.4285714285714,560.3348214285714,1460.6,509.42857142857144,585.3348214285714,1569.5,202.42857142857144,849.3348214285714,1676.4,120.42857142857143,930.3348214285714,1776.7,113.42857142857143,941.3348214285714,1890.2,113.42857142857143,941.3348214285714,1998.7,133.42857142857144,944.3348214285714,2128,619.4285714285714,963.3348214285714,2228.6,1086.4285714285713,1015.3348214285714,2343.6,1086.4285714285713,1015.3348214285714,2447.1,1086.4285714285713,1015.3348214285714,2568.8,1086.4285714285713,1015.3348214285714,2669.4,1086.4285714285713,1015.3348214285714,2783.1,1086.4285714285713,1015.3348214285714,2886.8,1086.4285714285713,1015.3348214285714,3005.8,1086.4285714285713,1015.3348214285714,3118.9,1086.4285714285713,1015.3348214285714,3223,1086.4285714285713,1015.3348214285714,3345.9,1086.4285714285713,1015.3348214285714,3463.5,1086.4285714285713,1015.3348214285714,3568.4,1086.4285714285713,1015.3348214285714,3674,1086.4285714285713,1015.3348214285714,3787.3,1086.4285714285713,1015.3348214285714,3889.3,1086.4285714285713,1015.3348214285714,3996.4,1086.4285714285713,1015.3348214285714,4100.6,1086.4285714285713,1015.3348214285714,4208,1086.4285714285713,1015.3348214285714,4318.9,1086.4285714285713,1015.3348214285714,4431.4,1086.4285714285713,1015.3348214285714,4539.6,1086.4285714285713,1015.3348214285714,4658.2,1086.4285714285713,1015.3348214285714,4758.4,1086.4285714285713,1015.3348214285714,4870.9,1086.4285714285713,1015.3348214285714,4992.1]","[1531.6,1531.6,1000,0,531.6,""smooth"",""down"",""down"",""good_move"",4498.8,2966.3,2519.9,1532.5,446.4,""smooth"",""left"",""left"",""good_move"",7987,3483.6,2083.8,4503.5,1399.8,""oops"",""down"",""right"",""bad_move"",11493.3,3504.3,3001.9,7989,502.4,""oops"",""down"",""right"",""bad_move"",14540.9,3044.5,2026.3,11496.4,1018.2,""oops"",""down"",""up"",""bad_move"",17243.8,2702.6,3051.4,14541.3,-348.9,""error"",""-"",""-"",""no_move"",20788.7,3544.1,2018.2,18269.5,501,""smooth"",""left"",""left"",""good_move"",24524.3,3733.6,2798.9,20790.7,934.7,""smooth"",""left"",""left"",""good_move"",28455.3,3929.3,2731.7,24526.2,1197.5,""oops"",""left"",""left"",""good_move"",32518,4060.6,2119.7,28457.4,1940.9,""smooth"",""down"",""down"",""good_move"",35956.1,3437.3,2935.1,32518.9,502.1,""smooth"",""down"",""down"",""good_move""]"
"2032","","<div style=""width:500px;"">
  <p>What determined the result of this run?</p>
  </div>","61","html-slider-response","64","888388","0.0-7.0-1.10","19","1","2025-07-30 08:39:04","36c45c0696341be0efffe67d72a12abb","152.37.64.141","Mozilla/5.0 (Macintosh; Intel Mac OS X 10_15_7) AppleWebKit/537.36 (KHTML, like Gecko) Chrome/138.0.0.0 Safari/537.36","Macintosh","Chrome","138.0.0.0","OS X","10_15_7","https://app.prolific.com/","en-GB,en-US;q=0.9,en;q=0.8","672de198be1065a8f288300d","687a19d2168e237449fb8af4","6889da2540faaf86c4e45bd0","0","672de198be1065a8f288300d","0","2025-07-30T08:53:54.295Z","","","","AttribQ","","","","","","","","","","","50","","","","","","","","","","","","","","","","","","","","","","","","","","",""
"2115","","<div style=""width:500px;"">
  <p>How much control did you have over the ball?</p>
  </div>","56","html-slider-response","65","890505","0.0-7.0-2.10","19","1","2025-07-30 08:39:04","36c45c0696341be0efffe67d72a12abb","152.37.64.141","Mozilla/5.0 (Macintosh; Intel Mac OS X 10_15_7) AppleWebKit/537.36 (KHTML, like Gecko) Chrome/138.0.0.0 Safari/537.36","Macintosh","Chrome","138.0.0.0","OS X","10_15_7","https://app.prolific.com/","en-GB,en-US;q=0.9,en;q=0.8","672de198be1065a8f288300d","687a19d2168e237449fb8af4","6889da2540faaf86c4e45bd0","0","672de198be1065a8f288300d","0","2025-07-30T08:53:56.412Z","","","","ControlQ","","","","","","","","","","","50","","","","","","","","","","","","","","","","","","","","","","","","","","",""
"3282","","<div style=""width:500px;"">
  <p>How would you describe your current emotional state?</p>
  </div>","40","html-slider-response","66","893791","0.0-7.0-3.10","19","1","2025-07-30 08:39:04","36c45c0696341be0efffe67d72a12abb","152.37.64.141","Mozilla/5.0 (Macintosh; Intel Mac OS X 10_15_7) AppleWebKit/537.36 (KHTML, like Gecko) Chrome/138.0.0.0 Safari/537.36","Macintosh","Chrome","138.0.0.0","OS X","10_15_7","https://app.prolific.com/","en-GB,en-US;q=0.9,en;q=0.8","672de198be1065a8f288300d","687a19d2168e237449fb8af4","6889da2540faaf86c4e45bd0","0","672de198be1065a8f288300d","0","2025-07-30T08:53:59.698Z","","","","StressQ","","","","","","","","","","","50","","","","","","","","","","","","","","","","","","","","","","","","","","",""
"1960","","<div style=""width:500px;"">
  <p>What best describes how you currently feel?</p>
  </div>","51","html-slider-response","67","895753","0.0-7.0-4.10","19","1","2025-07-30 08:39:04","36c45c0696341be0efffe67d72a12abb","152.37.64.141","Mozilla/5.0 (Macintosh; Intel Mac OS X 10_15_7) AppleWebKit/537.36 (KHTML, like Gecko) Chrome/138.0.0.0 Safari/537.36","Macintosh","Chrome","138.0.0.0","OS X","10_15_7","https://app.prolific.com/","en-GB,en-US;q=0.9,en;q=0.8","672de198be1065a8f288300d","687a19d2168e237449fb8af4","6889da2540faaf86c4e45bd0","0","672de198be1065a8f288300d","0","2025-07-30T08:54:01.660Z","","","","MotivationQ","","","","","","","","","","","50","","","","","","","","","","","","","","","","","","","","","","","","","","",""
"","","","","ctl-task-cpt","68","945318","0.0-7.0-0.11","19","1","2025-07-30 08:39:04","36c45c0696341be0efffe67d72a12abb","152.37.64.141","Mozilla/5.0 (Macintosh; Intel Mac OS X 10_15_7) AppleWebKit/537.36 (KHTML, like Gecko) Chrome/138.0.0.0 Safari/537.36","Macintosh","Chrome","138.0.0.0","OS X","10_15_7","https://app.prolific.com/","en-GB,en-US;q=0.9,en;q=0.8","672de198be1065a8f288300d","687a19d2168e237449fb8af4","6889da2540faaf86c4e45bd0","0","672de198be1065a8f288300d","0","2025-07-30T08:54:51.225Z","","","","","","","","","","","","","","","","win-only","3","g1:SW,g2:NE","0.7","12","0","897075.8","1583.6","6604.2","46544.5","1","4","8","6","2","8","8","21","13","0.1590909090909091","898.4","3000","1890","[""up"",""right""]","{""num_key_presses"":8,""num_perfect"":6,""num_errors"":0,""num_randdir"":2,""num_randdir_good_moves"":1,""num_whilered"":0,""num_whileblue"":0,""num_blue"":3,""num_good_moves"":7}","[555.4285714285714,548.3348214285714,0.2,555.4285714285714,548.3348214285714,114.2,555.4285714285714,548.3348214285714,234.9,555.4285714285714,550.3348214285714,354.6,560.4285714285714,543.3348214285714,460.5,755.4285714285714,311.33482142857144,571.4,1003.4285714285714,75.33482142857143,689.1,1013.4285714285714,53.33482142857143,792.5,1013.4285714285714,52.33482142857143,920.7,1013.4285714285714,52.33482142857143,1029.9,1013.4285714285714,52.33482142857143,1134.2,1193.4285714285713,169.33482142857144,1242.6,1834.4285714285713,444.33482142857144,1357,1834.4285714285713,459.33482142857144,1469.8,1834.4285714285713,459.33482142857144,1574.9,1834.4285714285713,459.33482142857144,1675.6,1834.4285714285713,459.33482142857144,1802.2,1834.4285714285713,459.33482142857144,1917.3,1834.4285714285713,459.33482142857144,2031.4,1834.4285714285713,459.33482142857144,2148.9,1834.4285714285713,459.33482142857144,2251,1834.4285714285713,459.33482142857144,2364.8,1834.4285714285713,459.33482142857144,2470.2,1834.4285714285713,459.33482142857144,2583.7,1834.4285714285713,459.33482142857144,2689.5,1834.4285714285713,459.33482142857144,2798.3,1834.4285714285713,459.33482142857144,2906.7,1834.4285714285713,459.33482142857144,3021.9,1834.4285714285713,459.33482142857144,3122.2,1834.4285714285713,459.33482142857144,3240.8,1834.4285714285713,459.33482142857144,3353.1,1834.4285714285713,459.33482142857144,3479.2,1834.4285714285713,459.33482142857144,3590,1834.4285714285713,459.33482142857144,3698.1,1834.4285714285713,459.33482142857144,3810.3,1834.4285714285713,459.33482142857144,3913.3,1834.4285714285713,459.33482142857144,4020,1834.4285714285713,459.33482142857144,4124.4,1834.4285714285713,459.33482142857144,4234.7,1834.4285714285713,459.33482142857144,4346.2,1834.4285714285713,459.33482142857144,4457.3,1834.4285714285713,459.33482142857144,4560.9,1834.4285714285713,459.33482142857144,4685.2,1834.4285714285713,459.33482142857144,4806.3,1834.4285714285713,459.33482142857144,4919.6]","[9684.4,9684.4,3092.8,6058,533.6,""smooth"",""up"",""up"",""good_move"",13667.8,3981.7,2473,9686.1,1508.7,""smooth"",""up"",""up"",""good_move"",17610.3,3941.9,2666.3,13668.5,1275.5,""smooth"",""right"",""right"",""good_move"",24269.7,6659,2778.2,20862.7,628.8,""oops"",""right"",""right"",""good_move"",27979.2,3708.4,3015.8,24270.8,692.6,""smooth"",""right"",""right"",""good_move"",31760.3,3779.7,2820.7,27980.6,959,""oops"",""up"",""down"",""bad_move"",35019.2,3258.5,2843.6,31760.7,414.9,""smooth"",""up"",""up"",""good_move"",39542.2,4520,2668.6,35022.3,1851.3,""smooth"",""up"",""up"",""good_move""]"
"3371","","<div style=""width:500px;"">
  <p>What determined the result of this run?</p>
  </div>","51","html-slider-response","69","948691","0.0-7.0-1.11","19","1","2025-07-30 08:39:04","36c45c0696341be0efffe67d72a12abb","152.37.64.141","Mozilla/5.0 (Macintosh; Intel Mac OS X 10_15_7) AppleWebKit/537.36 (KHTML, like Gecko) Chrome/138.0.0.0 Safari/537.36","Macintosh","Chrome","138.0.0.0","OS X","10_15_7","https://app.prolific.com/","en-GB,en-US;q=0.9,en;q=0.8","672de198be1065a8f288300d","687a19d2168e237449fb8af4","6889da2540faaf86c4e45bd0","0","672de198be1065a8f288300d","0","2025-07-30T08:54:54.598Z","","","","AttribQ","","","","","","","","","","","50","","","","","","","","","","","","","","","","","","","","","","","","","","",""
"2138","","<div style=""width:500px;"">
  <p>How much control did you have over the ball?</p>
  </div>","70","html-slider-response","70","950831","0.0-7.0-2.11","19","1","2025-07-30 08:39:04","36c45c0696341be0efffe67d72a12abb","152.37.64.141","Mozilla/5.0 (Macintosh; Intel Mac OS X 10_15_7) AppleWebKit/537.36 (KHTML, like Gecko) Chrome/138.0.0.0 Safari/537.36","Macintosh","Chrome","138.0.0.0","OS X","10_15_7","https://app.prolific.com/","en-GB,en-US;q=0.9,en;q=0.8","672de198be1065a8f288300d","687a19d2168e237449fb8af4","6889da2540faaf86c4e45bd0","0","672de198be1065a8f288300d","0","2025-07-30T08:54:56.740Z","","","","ControlQ","","","","","","","","","","","50","","","","","","","","","","","","","","","","","","","","","","","","","","",""
"1763","","<div style=""width:500px;"">
  <p>How would you describe your current emotional state?</p>
  </div>","41","html-slider-response","71","952599","0.0-7.0-3.11","19","1","2025-07-30 08:39:04","36c45c0696341be0efffe67d72a12abb","152.37.64.141","Mozilla/5.0 (Macintosh; Intel Mac OS X 10_15_7) AppleWebKit/537.36 (KHTML, like Gecko) Chrome/138.0.0.0 Safari/537.36","Macintosh","Chrome","138.0.0.0","OS X","10_15_7","https://app.prolific.com/","en-GB,en-US;q=0.9,en;q=0.8","672de198be1065a8f288300d","687a19d2168e237449fb8af4","6889da2540faaf86c4e45bd0","0","672de198be1065a8f288300d","0","2025-07-30T08:54:58.506Z","","","","StressQ","","","","","","","","","","","50","","","","","","","","","","","","","","","","","","","","","","","","","","",""
"1903","","<div style=""width:500px;"">
  <p>What best describes how you currently feel?</p>
  </div>","55","html-slider-response","72","954503","0.0-7.0-4.11","19","1","2025-07-30 08:39:04","36c45c0696341be0efffe67d72a12abb","152.37.64.141","Mozilla/5.0 (Macintosh; Intel Mac OS X 10_15_7) AppleWebKit/537.36 (KHTML, like Gecko) Chrome/138.0.0.0 Safari/537.36","Macintosh","Chrome","138.0.0.0","OS X","10_15_7","https://app.prolific.com/","en-GB,en-US;q=0.9,en;q=0.8","672de198be1065a8f288300d","687a19d2168e237449fb8af4","6889da2540faaf86c4e45bd0","0","672de198be1065a8f288300d","0","2025-07-30T08:55:00.411Z","","","","MotivationQ","","","","","","","","","","","50","","","","","","","","","","","","","","","","","","","","","","","","","","",""
"","","","","ctl-task-cpt","73","1004442","0.0-7.0-0.12","19","1","2025-07-30 08:39:04","36c45c0696341be0efffe67d72a12abb","152.37.64.141","Mozilla/5.0 (Macintosh; Intel Mac OS X 10_15_7) AppleWebKit/537.36 (KHTML, like Gecko) Chrome/138.0.0.0 Safari/537.36","Macintosh","Chrome","138.0.0.0","OS X","10_15_7","https://app.prolific.com/","en-GB,en-US;q=0.9,en;q=0.8","672de198be1065a8f288300d","687a19d2168e237449fb8af4","6889da2540faaf86c4e45bd0","0","672de198be1065a8f288300d","0","2025-07-30T08:55:50.349Z","","","","","","","","","","","","","","","","win-only","1","g1:NE,g2:SW","0.8","13","0","955829.7","1351.9","6361.9","46888.4","1","4","8","6","2","8","8","29","21","0.2196969696969697","1374.4","3000","2220","[""down"",""left""]","{""num_key_presses"":6,""num_perfect"":6,""num_errors"":0,""num_randdir"":0,""num_randdir_good_moves"":0,""num_whilered"":0,""num_whileblue"":0,""num_blue"":6,""num_good_moves"":6}","[556.4285714285714,561.3348214285714,3.6,556.4285714285714,561.3348214285714,109.3,556.4285714285714,561.3348214285714,225.2,556.4285714285714,561.3348214285714,330.8,556.4285714285714,561.3348214285714,442,420.42857142857144,692.3348214285714,562.2,275.42857142857144,852.3348214285714,677,275.42857142857144,852.3348214285714,785.5,240.42857142857144,872.3348214285714,905,240.42857142857144,872.3348214285714,1014.8,215.42857142857144,876.3348214285714,1136,111.42857142857143,974.3348214285714,1259.6,68.42857142857143,1057.3348214285713,1366,68.42857142857143,1059.3348214285713,1468,68.42857142857143,1063.3348214285713,1576,418.42857142857144,1049.3348214285713,1676.1,1834.4285714285713,962.3348214285714,1787.9,1834.4285714285713,772.3348214285714,1910.7,1834.4285714285713,762.3348214285714,2024.2,1834.4285714285713,762.3348214285714,2136.5,1834.4285714285713,762.3348214285714,2250.8,1834.4285714285713,762.3348214285714,2368,1834.4285714285713,762.3348214285714,2478.8,1834.4285714285713,761.3348214285714,2582,1834.4285714285713,761.3348214285714,2703.9,1834.4285714285713,761.3348214285714,2808.2,1834.4285714285713,761.3348214285714,2926.2,1834.4285714285713,761.3348214285714,3029.9,1834.4285714285713,761.3348214285714,3147.6,1834.4285714285713,761.3348214285714,3263.2,1834.4285714285713,761.3348214285714,3372,1834.4285714285713,761.3348214285714,3483.5,1834.4285714285713,761.3348214285714,3586.1,1834.4285714285713,761.3348214285714,3696.3,1834.4285714285713,761.3348214285714,3812.8,1834.4285714285713,761.3348214285714,3913.9,1834.4285714285713,761.3348214285714,4023.1,1834.4285714285713,761.3348214285714,4124.9,1834.4285714285713,761.3348214285714,4226.9,1834.4285714285713,761.3348214285714,4351.2,1834.4285714285713,761.3348214285714,4469.7,1834.4285714285713,761.3348214285714,4576.6,1834.4285714285713,761.3348214285714,4701,1834.4285714285713,761.3348214285714,4815.4,1834.4285714285713,761.3348214285714,4928.2]","[11871.4,11871.4,2173.9,9109,588.5,""smooth"",""down"",""down"",""good_move"",15389.5,3517.8,2889.2,11871.7,628.6,""smooth"",""down"",""down"",""good_move"",19049.9,3660.2,2930.1,15389.7,730.1,""smooth"",""left"",""left"",""good_move"",26135.7,7084.4,1944.4,23664,527.3,""smooth"",""left"",""left"",""good_move"",33854,7713.4,2256.5,30920.2,677.3,""smooth"",""down"",""down"",""good_move"",40046.4,6192.2,2251,37266.6,528.8,""smooth"",""left"",""left"",""good_move""]"
"2263","","<div style=""width:500px;"">
  <p>What determined the result of this run?</p>
  </div>","95","html-slider-response","74","1006708","0.0-7.0-1.12","19","1","2025-07-30 08:39:04","36c45c0696341be0efffe67d72a12abb","152.37.64.141","Mozilla/5.0 (Macintosh; Intel Mac OS X 10_15_7) AppleWebKit/537.36 (KHTML, like Gecko) Chrome/138.0.0.0 Safari/537.36","Macintosh","Chrome","138.0.0.0","OS X","10_15_7","https://app.prolific.com/","en-GB,en-US;q=0.9,en;q=0.8","672de198be1065a8f288300d","687a19d2168e237449fb8af4","6889da2540faaf86c4e45bd0","0","672de198be1065a8f288300d","0","2025-07-30T08:55:52.615Z","","","","AttribQ","","","","","","","","","","","50","","","","","","","","","","","","","","","","","","","","","","","","","","",""
"2353","","<div style=""width:500px;"">
  <p>How much control did you have over the ball?</p>
  </div>","99","html-slider-response","75","1009068","0.0-7.0-2.12","19","1","2025-07-30 08:39:04","36c45c0696341be0efffe67d72a12abb","152.37.64.141","Mozilla/5.0 (Macintosh; Intel Mac OS X 10_15_7) AppleWebKit/537.36 (KHTML, like Gecko) Chrome/138.0.0.0 Safari/537.36","Macintosh","Chrome","138.0.0.0","OS X","10_15_7","https://app.prolific.com/","en-GB,en-US;q=0.9,en;q=0.8","672de198be1065a8f288300d","687a19d2168e237449fb8af4","6889da2540faaf86c4e45bd0","0","672de198be1065a8f288300d","0","2025-07-30T08:55:54.975Z","","","","ControlQ","","","","","","","","","","","50","","","","","","","","","","","","","","","","","","","","","","","","","","",""
"1702","","<div style=""width:500px;"">
  <p>How would you describe your current emotional state?</p>
