"rt","response_timestamp","stimulus","response","trial_type","trial_index","time_elapsed","internal_node_id","run_id","condition","recorded_at","source_code_version","ip","user_agent","device","browser","browser_version","platform","platform_version","referer","accept_language","PROLIFIC_PID","STUDY_ID","SESSION_ID","BATCH","prolific_id","batch","realtime","success","question_order","question_id","eventType","responses","item_order","radio_event_ids","radio_event_times","key_event_times","mouse_event_times","straightlining","zigzagging","honeypot","view_history","slider_start","which_type","canvas_config","goals_layout","control_level","trial_number","tutorial_trial_number","trial_start_time","phase1_start_time","phase2_start_time","phase3_start_time","goal_1_value","goal_1_distance","goal_2_value","goal_2_distance","goal_selected","outcome","outcome_total","participant_final_score","participant_initial_score","participant_final_score_prop","goal_choice_rt","allocated_time","allocated_time_remaining","goal_direction","counts","mouse_movements","key_presses"
"9997","1753864879188","<p style='font-size:40px;line-height:1.25'><strong>Welcome to the experiment!</strong></p><p style='font-size:1.1em;line-height:1.25'>Thank you for participanting in our experiment again! You will be asked to play the Dysfunctional Ball Game again. We will briefly recap the rules before we start.</p><p style='font-size:1.1em;line-height:1.25'>Press <strong>Next</strong> to continue.</p>","0","custom-html-button-response","0","10006","0.0-0.0","34","1","2025-07-30 08:41:19","36c45c0696341be0efffe67d72a12abb","213.137.81.202","Mozilla/5.0 (Windows NT 10.0; Win64; x64) AppleWebKit/537.36 (KHTML, like Gecko) Chrome/137.0.0.0 Safari/537.36","WebKit","Chrome","137.0.0.0","Windows","10.0","https://app.prolific.com/","en-GB,en;q=0.9","672f51ea346fba23ddd5a793","687a19d2168e237449fb8af4","6889d9dc3b91135c2f3989f4","0","672f51ea346fba23ddd5a793","0","2025-07-30T08:41:19.191Z","","","","","","","","","","","","","","","","","","","","","","","","","","","","","","","","","","","","","","","","","",""
"53023","","","","fullscreen","1","64056","0.0-1.0","34","1","2025-07-30 08:41:19","36c45c0696341be0efffe67d72a12abb","213.137.81.202","Mozilla/5.0 (Windows NT 10.0; Win64; x64) AppleWebKit/537.36 (KHTML, like Gecko) Chrome/137.0.0.0 Safari/537.36","WebKit","Chrome","137.0.0.0","Windows","10.0","https://app.prolific.com/","en-GB,en;q=0.9","672f51ea346fba23ddd5a793","687a19d2168e237449fb8af4","6889d9dc3b91135c2f3989f4","0","672f51ea346fba23ddd5a793","0","","true","","","","","","","","","","","","","","","","","","","","","","","","","","","","","","","","","","","","","","","","",""
"5729","1753864938974"," <p style='font-size:1.1em;line-height:1.25'>Thank you for closing all other tabs.</p><p style='font-size:1.1em;line-height:1.25'>We will now invite you to fill in some questionnaires, before starting the game.<br>This will take about 5 minutes.<br></p><p style='font-size:1.1em;line-height:1.25'>Press the <strong>Next</strong> button to continue.</p>","0","custom-html-button-response","2","69790","0.0-2.0","34","1","2025-07-30 08:41:19","36c45c0696341be0efffe67d72a12abb","213.137.81.202","Mozilla/5.0 (Windows NT 10.0; Win64; x64) AppleWebKit/537.36 (KHTML, like Gecko) Chrome/137.0.0.0 Safari/537.36","WebKit","Chrome","137.0.0.0","Windows","10.0","https://app.prolific.com/","en-GB,en;q=0.9","672f51ea346fba23ddd5a793","687a19d2168e237449fb8af4","6889d9dc3b91135c2f3989f4","0","672f51ea346fba23ddd5a793","0","2025-07-30T08:42:18.975Z","","","","","","","","","","","","","","","","","","","","","","","","","","","","","","","","","","","","","","","","","",""
"4166","","","{""assigned_sex"":""male""}","survey-multi-choice","3","73963","0.0-3.0-0.0","34","1","2025-07-30 08:41:19","36c45c0696341be0efffe67d72a12abb","213.137.81.202","Mozilla/5.0 (Windows NT 10.0; Win64; x64) AppleWebKit/537.36 (KHTML, like Gecko) Chrome/137.0.0.0 Safari/537.36","WebKit","Chrome","137.0.0.0","Windows","10.0","https://app.prolific.com/","en-GB,en;q=0.9","672f51ea346fba23ddd5a793","687a19d2168e237449fb8af4","6889d9dc3b91135c2f3989f4","0","672f51ea346fba23ddd5a793","0","","","[0]","0","demographics","","","","","","","","","","","","","","","","","","","","","","","","","","","","","","","","","","","","","",""
"7461","1753864950612","<p style='font-size:1.1em;line-height:1.25'>In the following, we will perform a baseline assessment. This means that we will ask you a few questions relating to your experiences over the past month.<br></p><p style='font-size:1.1em;line-height:1.25'>Press the <strong>Next</strong> button to continue.</p>","0","custom-html-button-response","4","81427","0.0-4.0-0.0","34","1","2025-07-30 08:41:19","36c45c0696341be0efffe67d72a12abb","213.137.81.202","Mozilla/5.0 (Windows NT 10.0; Win64; x64) AppleWebKit/537.36 (KHTML, like Gecko) Chrome/137.0.0.0 Safari/537.36","WebKit","Chrome","137.0.0.0","Windows","10.0","https://app.prolific.com/","en-GB,en;q=0.9","672f51ea346fba23ddd5a793","687a19d2168e237449fb8af4","6889d9dc3b91135c2f3989f4","0","672f51ea346fba23ddd5a793","0","2025-07-30T08:42:30.613Z","","","","","","","","","","","","","","","","","","","","","","","","","","","","","","","","","","","","","","","","","",""
"83542.29999995232","","","","survey-template","5","165001","0.0-4.0-1.0","34","1","2025-07-30 08:41:19","36c45c0696341be0efffe67d72a12abb","213.137.81.202","Mozilla/5.0 (Windows NT 10.0; Win64; x64) AppleWebKit/537.36 (KHTML, like Gecko) Chrome/137.0.0.0 Safari/537.36","WebKit","Chrome","137.0.0.0","Windows","10.0","https://app.prolific.com/","en-GB,en;q=0.9","672f51ea346fba23ddd5a793","687a19d2168e237449fb8af4","6889d9dc3b91135c2f3989f4","0","672f51ea346fba23ddd5a793","0","2025-07-30T08:43:54.187Z","","","","pss","{""Q01"":""1"",""Q02"":""0"",""Q03"":""1"",""Q04"":""0"",""Q05"":""1"",""Q06"":""1"",""Q07"":""0"",""Q08"":""1"",""Q09"":""0"",""Q10"":""0""}","[0,1,2,3,4,5,6,7,8,9]","[""Q01"",""Q02"",""Q03"",""Q04"",""Q05"",""Q05"",""Q06"",""Q07"",""Q08"",""Q09"",""Q10"",""Q10""]","[27776.099999904633,34017.89999985695,38500,43164.799999952316,46913.799999952316,49442,55495.09999990463,64417.89999985695,69238.89999985695,74187,81053.59999990463,81856.39999985695]","[]","[0.2999999523162842,27776.099999904633,34017.89999985695,38500,43164.799999952316,46913.799999952316,49442,55495.09999990463,64417.89999985695,69238.89999985695,74187,81053.59999990463,81856.39999985695,83533.59999990463]","0.3","0.4444444444444444","0","","","","","","","","","","","","","","","","","","","","","","","","","","","","",""
"5188","1753865039377","<p style='font-size:1.1em;line-height:1.25'>Thank you for your answers! Now we will ask you a few more questions relating to your feelings in the last 24 hours.<br></p><p style='font-size:1.1em;line-height:1.25'>Press the <strong>Next</strong> button to continue.</p>","0","custom-html-button-response","6","170193","0.0-4.0-2.0","34","1","2025-07-30 08:41:19","36c45c0696341be0efffe67d72a12abb","213.137.81.202","Mozilla/5.0 (Windows NT 10.0; Win64; x64) AppleWebKit/537.36 (KHTML, like Gecko) Chrome/137.0.0.0 Safari/537.36","WebKit","Chrome","137.0.0.0","Windows","10.0","https://app.prolific.com/","en-GB,en;q=0.9","672f51ea346fba23ddd5a793","687a19d2168e237449fb8af4","6889d9dc3b91135c2f3989f4","0","672f51ea346fba23ddd5a793","0","2025-07-30T08:43:59.378Z","","","","","","","","","","","","","","","","","","","","","","","","","","","","","","","","","","","","","","","","","",""
"94763.5","","","","survey-template","7","265005","0.0-4.0-3.0","34","1","2025-07-30 08:41:19","36c45c0696341be0efffe67d72a12abb","213.137.81.202","Mozilla/5.0 (Windows NT 10.0; Win64; x64) AppleWebKit/537.36 (KHTML, like Gecko) Chrome/137.0.0.0 Safari/537.36","WebKit","Chrome","137.0.0.0","Windows","10.0","https://app.prolific.com/","en-GB,en;q=0.9","672f51ea346fba23ddd5a793","687a19d2168e237449fb8af4","6889d9dc3b91135c2f3989f4","0","672f51ea346fba23ddd5a793","0","2025-07-30T08:45:34.190Z","","","","drsp","{""Q01"":""0"",""Q02"":""0"",""Q03"":""0"",""Q04"":""0"",""Q05"":""0"",""Q06"":""0"",""Q07"":""0"",""Q08"":""0"",""Q09"":""0"",""Q10"":""0"",""Q11"":""0"",""Q12"":""0"",""Q13"":""5"",""Q14"":""0"",""Q15"":""0"",""Q16"":""0"",""Q17"":""1"",""Q18"":""0"",""Q19"":""0"",""Q20"":""0"",""Q21"":""0"",""Q22"":""0""}","[0,1,2,3,4,5,6,7,8,9,10,11,12,13,14,15,16,17,18,19,20,21]","[""Q01"",""Q02"",""Q03"",""Q05"",""Q07"",""Q08"",""Q10"",""Q09"",""Q11"",""Q12"",""Q13"",""Q12"",""Q14"",""Q15"",""Q16"",""Q18"",""Q17"",""Q19"",""Q20"",""Q21"",""Q22"",""Q04"",""Q06""]","[3323.600000143051,4798.900000095367,5180.799999952316,7303.200000047684,10337.400000095367,11930.200000047684,14446.400000095367,14866.700000047684,15837.100000143051,21941.799999952316,25941.60000014305,33361.10000014305,34832.90000009537,38973.799999952316,42038.90000009537,46993.5,51615.700000047684,58640.299999952316,65035.700000047684,65556.40000009537,71142.70000004768,80274.40000009537,86172]","[]","[0.10000014305114746,3323.600000143051,4798.900000095367,5180.799999952316,6448.200000047684,7303.200000047684,7957.900000095367,10337.400000095367,11930.200000047684,12358,14446.400000095367,14866.700000047684,15837.100000143051,16300.900000095367,21941.799999952316,25941.60000014305,33361.10000014305,33849.200000047684,34832.90000009537,38973.799999952316,42038.90000009537,46993.5,51615.700000047684,58640.299999952316,65035.700000047684,65556.40000009537,71142.70000004768,79661.70000004768,80274.40000009537,83606.79999995232,86172,94749.20000004768]","0.9090909090909091","0.19047619047619047","0","","","","","","","","","","","","","","","","","","","","","","","","","","","","",""
"18298.5","","","","survey-template","8","283314","0.0-4.0-4.0","34","1","2025-07-30 08:41:19","36c45c0696341be0efffe67d72a12abb","213.137.81.202","Mozilla/5.0 (Windows NT 10.0; Win64; x64) AppleWebKit/537.36 (KHTML, like Gecko) Chrome/137.0.0.0 Safari/537.36","WebKit","Chrome","137.0.0.0","Windows","10.0","https://app.prolific.com/","en-GB,en;q=0.9","672f51ea346fba23ddd5a793","687a19d2168e237449fb8af4","6889d9dc3b91135c2f3989f4","0","672f51ea346fba23ddd5a793","0","2025-07-30T08:45:52.499Z","","","","stress","{""Q01"":""0"",""Q02"":""1"",""Q03"":""0""}","[0,1,2]","[""Q01"",""Q02"",""Q03""]","[2505.5,8830.299999952316,12077]","[]","[2505.5,8830.299999952316,12077,18295.799999952316]","0.6666666666666666","0","0","","","","","","","","","","","","","","","","","","","","","","","","","","","","",""
"65266","","","","instructions","9","348582","0.0-5.0-0.0","34","1","2025-07-30 08:41:19","36c45c0696341be0efffe67d72a12abb","213.137.81.202","Mozilla/5.0 (Windows NT 10.0; Win64; x64) AppleWebKit/537.36 (KHTML, like Gecko) Chrome/137.0.0.0 Safari/537.36","WebKit","Chrome","137.0.0.0","Windows","10.0","https://app.prolific.com/","en-GB,en;q=0.9","672f51ea346fba23ddd5a793","687a19d2168e237449fb8af4","6889d9dc3b91135c2f3989f4","0","672f51ea346fba23ddd5a793","0","","","","","","","","","","","","","","","[{""page_index"":0,""viewing_time"":65265}]","","","","","","","","","","","","","","","","","","","","","","","","","","","",""
"15208","","<p>Before you start with this game please answer the following three questions yourself. </p>
  <p>Through this game, we measure several aspects of your cognitive performance, such as reaction times, multi-tasking capabilities </p>
  <p>and the ability to assess the situation you are in.</p>
  <p></p>
  <p><b>How good do you usually are in such tasks?</b></p>","100","html-slider-response","10","363797","0.0-6.0-0.0","34","1","2025-07-30 08:41:19","36c45c0696341be0efffe67d72a12abb","213.137.81.202","Mozilla/5.0 (Windows NT 10.0; Win64; x64) AppleWebKit/537.36 (KHTML, like Gecko) Chrome/137.0.0.0 Safari/537.36","WebKit","Chrome","137.0.0.0","Windows","10.0","https://app.prolific.com/","en-GB,en;q=0.9","672f51ea346fba23ddd5a793","687a19d2168e237449fb8af4","6889d9dc3b91135c2f3989f4","0","672f51ea346fba23ddd5a793","0","2025-07-30T08:47:12.982Z","","","","PreSkillQ","","","","","","","","","","","50","","","","","","","","","","","","","","","","","","","","","","","","","","",""
"14451","","<div style=""width:500px;"">
  <p>How well do you think you will perform in this task compared to other participants?</p>
  </div>","92","html-slider-response","11","378253","0.0-6.0-1.0","34","1","2025-07-30 08:41:19","36c45c0696341be0efffe67d72a12abb","213.137.81.202","Mozilla/5.0 (Windows NT 10.0; Win64; x64) AppleWebKit/537.36 (KHTML, like Gecko) Chrome/137.0.0.0 Safari/537.36","WebKit","Chrome","137.0.0.0","Windows","10.0","https://app.prolific.com/","en-GB,en;q=0.9","672f51ea346fba23ddd5a793","687a19d2168e237449fb8af4","6889d9dc3b91135c2f3989f4","0","672f51ea346fba23ddd5a793","0","2025-07-30T08:47:27.438Z","","","","PrePerfQ","","","","","","","","","","","50","","","","","","","","","","","","","","","","","","","","","","","","","","",""
"4454","","<div style=""width:500px;"">
  <p>What best describes how you currently feel?</p>
  </div>","100","html-slider-response","12","382712","0.0-6.0-2.0","34","1","2025-07-30 08:41:19","36c45c0696341be0efffe67d72a12abb","213.137.81.202","Mozilla/5.0 (Windows NT 10.0; Win64; x64) AppleWebKit/537.36 (KHTML, like Gecko) Chrome/137.0.0.0 Safari/537.36","WebKit","Chrome","137.0.0.0","Windows","10.0","https://app.prolific.com/","en-GB,en;q=0.9","672f51ea346fba23ddd5a793","687a19d2168e237449fb8af4","6889d9dc3b91135c2f3989f4","0","672f51ea346fba23ddd5a793","0","2025-07-30T08:47:31.897Z","","","","PreMotivationQ","","","","","","","","","","","50","","","","","","","","","","","","","","","","","","","","","","","","","","",""
"","","","","ctl-task-cpt","13","420885","0.0-7.0-0.0","34","1","2025-07-30 08:41:19","36c45c0696341be0efffe67d72a12abb","213.137.81.202","Mozilla/5.0 (Windows NT 10.0; Win64; x64) AppleWebKit/537.36 (KHTML, like Gecko) Chrome/137.0.0.0 Safari/537.36","WebKit","Chrome","137.0.0.0","Windows","10.0","https://app.prolific.com/","en-GB,en;q=0.9","672f51ea346fba23ddd5a793","687a19d2168e237449fb8af4","6889d9dc3b91135c2f3989f4","0","672f51ea346fba23ddd5a793","0","2025-07-30T08:48:10.070Z","","","","","","","","","","","","","","","","win-only","1","g1:NE,g2:SW","1","1","0","397305.1","19660.2","24662.7","35147.8","1","4","4","6","1","1","0","0","0","0","5002.4","3000","1985","[""up"",""right""]","{""num_key_presses"":4,""num_perfect"":3,""num_errors"":1,""num_randdir"":0,""num_randdir_good_moves"":0,""num_whilered"":0,""num_whileblue"":1,""num_blue"":1,""num_good_moves"":4}","[417.57142857142856,413.47767857142856,1,417.57142857142856,413.47767857142856,101.4,417.57142857142856,413.47767857142856,202.5,417.57142857142856,413.47767857142856,305.8,417.57142857142856,413.47767857142856,406.4,417.57142857142856,413.47767857142856,514.5,417.57142857142856,413.47767857142856,615.6,417.57142857142856,413.47767857142856,716.2,417.57142857142856,413.47767857142856,816.8,417.57142857142856,413.47767857142856,921.6,417.57142857142856,413.47767857142856,1021.7,417.57142857142856,413.47767857142856,1125.7,417.57142857142856,413.47767857142856,1231.8,417.57142857142856,413.47767857142856,1336,417.57142857142856,413.47767857142856,1441.7,417.57142857142856,413.47767857142856,1546,417.57142857142856,413.47767857142856,1647,417.57142857142856,413.47767857142856,1751.5,417.57142857142856,413.47767857142856,1860.8,417.57142857142856,413.47767857142856,1963.3,417.57142857142856,413.47767857142856,2064.8,417.57142857142856,413.47767857142856,2167.1,417.57142857142856,413.47767857142856,2271.8,417.57142857142856,413.47767857142856,2372.3,417.57142857142856,413.47767857142856,2474.9,417.57142857142856,413.47767857142856,2575.8,417.57142857142856,413.47767857142856,2677.2,417.57142857142856,413.47767857142856,2778.4,417.57142857142856,413.47767857142856,2881.9,417.57142857142856,413.47767857142856,2986.4,417.57142857142856,413.47767857142856,3095.9,417.57142857142856,413.47767857142856,3200.7,417.57142857142856,413.47767857142856,3307.8,417.57142857142856,413.47767857142856,3410.8,417.57142857142856,413.47767857142856,3511.6,417.57142857142856,413.47767857142856,3616.1,417.57142857142856,413.47767857142856,3720.6,417.57142857142856,413.47767857142856,3821.4,417.57142857142856,413.47767857142856,3926.1,417.57142857142856,413.47767857142856,4030.3,417.57142857142856,413.47767857142856,4132.5,417.57142857142856,413.47767857142856,4236.7,417.57142857142856,413.47767857142856,4347.4,417.57142857142856,413.47767857142856,4451.6,417.57142857142856,413.47767857142856,4559.6,417.57142857142856,413.47767857142856,4661.1,417.57142857142856,413.47767857142856,4765.8,417.57142857142856,413.47767857142856,4866.6,417.57142857142856,413.47767857142856,4971.7]","[1173.2,1173.2,1000,0,173.2,""smooth"",""right"",""right"",""good_move"",4257.4,3082.3,2437.8,1175.2,644.4,""smooth"",""right"",""right"",""good_move"",7436.7,3179.1,2724.8,4257.6,454.3,""smooth"",""up"",""up"",""good_move"",10382.9,2945.8,2596.7,7437.2,349,""while_blue"",""up"",""up"",""good_move""]"
"5152","","<div style=""width:500px;"">
  <p>What determined the result of this run?</p>
  </div>","90","html-slider-response","14","426042","0.0-7.0-1.0","34","1","2025-07-30 08:41:19","36c45c0696341be0efffe67d72a12abb","213.137.81.202","Mozilla/5.0 (Windows NT 10.0; Win64; x64) AppleWebKit/537.36 (KHTML, like Gecko) Chrome/137.0.0.0 Safari/537.36","WebKit","Chrome","137.0.0.0","Windows","10.0","https://app.prolific.com/","en-GB,en;q=0.9","672f51ea346fba23ddd5a793","687a19d2168e237449fb8af4","6889d9dc3b91135c2f3989f4","0","672f51ea346fba23ddd5a793","0","2025-07-30T08:48:15.227Z","","","","AttribQ","","","","","","","","","","","50","","","","","","","","","","","","","","","","","","","","","","","","","","",""
"3078","","<div style=""width:500px;"">
  <p>How much control did you have over the ball?</p>
  </div>","91","html-slider-response","15","429123","0.0-7.0-2.0","34","1","2025-07-30 08:41:19","36c45c0696341be0efffe67d72a12abb","213.137.81.202","Mozilla/5.0 (Windows NT 10.0; Win64; x64) AppleWebKit/537.36 (KHTML, like Gecko) Chrome/137.0.0.0 Safari/537.36","WebKit","Chrome","137.0.0.0","Windows","10.0","https://app.prolific.com/","en-GB,en;q=0.9","672f51ea346fba23ddd5a793","687a19d2168e237449fb8af4","6889d9dc3b91135c2f3989f4","0","672f51ea346fba23ddd5a793","0","2025-07-30T08:48:18.309Z","","","","ControlQ","","","","","","","","","","","50","","","","","","","","","","","","","","","","","","","","","","","","","","",""
"6474","","<div style=""width:500px;"">
  <p>How would you describe your current emotional state?</p>
  </div>","13","html-slider-response","16","435604","0.0-7.0-3.0","34","1","2025-07-30 08:41:19","36c45c0696341be0efffe67d72a12abb","213.137.81.202","Mozilla/5.0 (Windows NT 10.0; Win64; x64) AppleWebKit/537.36 (KHTML, like Gecko) Chrome/137.0.0.0 Safari/537.36","WebKit","Chrome","137.0.0.0","Windows","10.0","https://app.prolific.com/","en-GB,en;q=0.9","672f51ea346fba23ddd5a793","687a19d2168e237449fb8af4","6889d9dc3b91135c2f3989f4","0","672f51ea346fba23ddd5a793","0","2025-07-30T08:48:24.789Z","","","","StressQ","","","","","","","","","","","50","","","","","","","","","","","","","","","","","","","","","","","","","","",""
"3482","","<div style=""width:500px;"">
  <p>What best describes how you currently feel?</p>
  </div>","100","html-slider-response","17","439091","0.0-7.0-4.0","34","1","2025-07-30 08:41:19","36c45c0696341be0efffe67d72a12abb","213.137.81.202","Mozilla/5.0 (Windows NT 10.0; Win64; x64) AppleWebKit/537.36 (KHTML, like Gecko) Chrome/137.0.0.0 Safari/537.36","WebKit","Chrome","137.0.0.0","Windows","10.0","https://app.prolific.com/","en-GB,en;q=0.9","672f51ea346fba23ddd5a793","687a19d2168e237449fb8af4","6889d9dc3b91135c2f3989f4","0","672f51ea346fba23ddd5a793","0","2025-07-30T08:48:28.276Z","","","","MotivationQ","","","","","","","","","","","50","","","","","","","","","","","","","","","","","","","","","","","","","","",""
"","","","","ctl-task-cpt","18","469848","0.0-7.0-0.1","34","1","2025-07-30 08:41:19","36c45c0696341be0efffe67d72a12abb","213.137.81.202","Mozilla/5.0 (Windows NT 10.0; Win64; x64) AppleWebKit/537.36 (KHTML, like Gecko) Chrome/137.0.0.0 Safari/537.36","WebKit","Chrome","137.0.0.0","Windows","10.0","https://app.prolific.com/","en-GB,en;q=0.9","672f51ea346fba23ddd5a793","687a19d2168e237449fb8af4","6889d9dc3b91135c2f3989f4","0","672f51ea346fba23ddd5a793","0","2025-07-30T08:48:59.033Z","","","","","","","","","","","","","","","","win-only","2","g1:SE,g2:NW","0.9","2","0","453673.5","3926.5","8942.1","27742.2","1","4","8","6","1","1","1","1","0","0.007575757575757576","5015.6","3000","725","[""down"",""right""]","{""num_key_presses"":4,""num_perfect"":3,""num_errors"":0,""num_randdir"":1,""num_randdir_good_moves"":1,""num_whilered"":0,""num_whileblue"":0,""num_blue"":2,""num_good_moves"":4}","[420.57142857142856,417.47767857142856,0.1,420.57142857142856,417.47767857142856,106.1,420.57142857142856,417.47767857142856,221.9,420.57142857142856,417.47767857142856,341.8,420.57142857142856,417.47767857142856,445.4,420.57142857142856,417.47767857142856,550.1,420.57142857142856,417.47767857142856,650.1,420.57142857142856,417.47767857142856,751.2,420.57142857142856,417.47767857142856,852.8,420.57142857142856,417.47767857142856,953.5,420.57142857142856,417.47767857142856,1055.7,420.57142857142856,417.47767857142856,1159.8,420.57142857142856,417.47767857142856,1263.1,420.57142857142856,417.47767857142856,1364.7,420.57142857142856,417.47767857142856,1469.4,420.57142857142856,417.47767857142856,1569.4,420.57142857142856,417.47767857142856,1669.8,420.57142857142856,417.47767857142856,1769.8,420.57142857142856,417.47767857142856,1875,420.57142857142856,417.47767857142856,1980.1,420.57142857142856,417.47767857142856,2084.5,420.57142857142856,417.47767857142856,2189.6,420.57142857142856,417.47767857142856,2298.4,420.57142857142856,417.47767857142856,2399.4,420.57142857142856,417.47767857142856,2499.5,420.57142857142856,417.47767857142856,2599.8,420.57142857142856,417.47767857142856,2705.1,420.57142857142856,417.47767857142856,2814.5,420.57142857142856,417.47767857142856,2918.4,420.57142857142856,417.47767857142856,3019.1,420.57142857142856,417.47767857142856,3119.7,420.57142857142856,417.47767857142856,3224.8,420.57142857142856,417.47767857142856,3329.8,420.57142857142856,417.47767857142856,3432.5,420.57142857142856,417.47767857142856,3534.8,420.57142857142856,417.47767857142856,3646.4,420.57142857142856,417.47767857142856,3749.6,420.57142857142856,417.47767857142856,3850.8,420.57142857142856,417.47767857142856,3954.3,420.57142857142856,417.47767857142856,4054.3,420.57142857142856,417.47767857142856,4170.3,420.57142857142856,417.47767857142856,4278.7,420.57142857142856,417.47767857142856,4379.4,420.57142857142856,417.47767857142856,4482.1,420.57142857142856,417.47767857142856,4585.1,420.57142857142856,417.47767857142856,4685.2,420.57142857142856,417.47767857142856,4789.4,420.57142857142856,417.47767857142856,4894.7,420.57142857142856,417.47767857142856,4995.8]","[8376.3,8376.3,2540.5,5418.5,417.3,""smooth"",""right"",""right"",""good_move"",12477.9,4100.8,3088.5,8377.1,1012.3,""smooth"",""right"",""right"",""good_move"",15382.8,2904.3,2216.3,12478.5,688,""smooth"",""down"",""down"",""good_move"",18680.7,3297,2485.5,15383.8,811.5,""oops"",""down"",""down"",""good_move""]"
"3308","","<div style=""width:500px;"">
  <p>What determined the result of this run?</p>
  </div>","100","html-slider-response","19","473161","0.0-7.0-1.1","34","1","2025-07-30 08:41:19","36c45c0696341be0efffe67d72a12abb","213.137.81.202","Mozilla/5.0 (Windows NT 10.0; Win64; x64) AppleWebKit/537.36 (KHTML, like Gecko) Chrome/137.0.0.0 Safari/537.36","WebKit","Chrome","137.0.0.0","Windows","10.0","https://app.prolific.com/","en-GB,en;q=0.9","672f51ea346fba23ddd5a793","687a19d2168e237449fb8af4","6889d9dc3b91135c2f3989f4","0","672f51ea346fba23ddd5a793","0","2025-07-30T08:49:02.346Z","","","","AttribQ","","","","","","","","","","","50","","","","","","","","","","","","","","","","","","","","","","","","","","",""
"6059","","<div style=""width:500px;"">
  <p>How much control did you have over the ball?</p>
  </div>","100","html-slider-response","20","479224","0.0-7.0-2.1","34","1","2025-07-30 08:41:19","36c45c0696341be0efffe67d72a12abb","213.137.81.202","Mozilla/5.0 (Windows NT 10.0; Win64; x64) AppleWebKit/537.36 (KHTML, like Gecko) Chrome/137.0.0.0 Safari/537.36","WebKit","Chrome","137.0.0.0","Windows","10.0","https://app.prolific.com/","en-GB,en;q=0.9","672f51ea346fba23ddd5a793","687a19d2168e237449fb8af4","6889d9dc3b91135c2f3989f4","0","672f51ea346fba23ddd5a793","0","2025-07-30T08:49:08.409Z","","","","ControlQ","","","","","","","","","","","50","","","","","","","","","","","","","","","","","","","","","","","","","","",""
"5197","","<div style=""width:500px;"">
  <p>How would you describe your current emotional state?</p>
  </div>","0","html-slider-response","21","484426","0.0-7.0-3.1","34","1","2025-07-30 08:41:19","36c45c0696341be0efffe67d72a12abb","213.137.81.202","Mozilla/5.0 (Windows NT 10.0; Win64; x64) AppleWebKit/537.36 (KHTML, like Gecko) Chrome/137.0.0.0 Safari/537.36","WebKit","Chrome","137.0.0.0","Windows","10.0","https://app.prolific.com/","en-GB,en;q=0.9","672f51ea346fba23ddd5a793","687a19d2168e237449fb8af4","6889d9dc3b91135c2f3989f4","0","672f51ea346fba23ddd5a793","0","2025-07-30T08:49:13.611Z","","","","StressQ","","","","","","","","","","","50","","","","","","","","","","","","","","","","","","","","","","","","","","",""
"2190","","<div style=""width:500px;"">
  <p>What best describes how you currently feel?</p>
  </div>","100","html-slider-response","22","486620","0.0-7.0-4.1","34","1","2025-07-30 08:41:19","36c45c0696341be0efffe67d72a12abb","213.137.81.202","Mozilla/5.0 (Windows NT 10.0; Win64; x64) AppleWebKit/537.36 (KHTML, like Gecko) Chrome/137.0.0.0 Safari/537.36","WebKit","Chrome","137.0.0.0","Windows","10.0","https://app.prolific.com/","en-GB,en;q=0.9","672f51ea346fba23ddd5a793","687a19d2168e237449fb8af4","6889d9dc3b91135c2f3989f4","0","672f51ea346fba23ddd5a793","0","2025-07-30T08:49:15.805Z","","","","MotivationQ","","","","","","","","","","","50","","","","","","","","","","","","","","","","","","","","","","","","","","",""
"","","","","ctl-task-cpt","23","524691","0.0-7.0-0.2","34","1","2025-07-30 08:41:19","36c45c0696341be0efffe67d72a12abb","213.137.81.202","Mozilla/5.0 (Windows NT 10.0; Win64; x64) AppleWebKit/537.36 (KHTML, like Gecko) Chrome/137.0.0.0 Safari/537.36","WebKit","Chrome","137.0.0.0","Windows","10.0","https://app.prolific.com/","en-GB,en;q=0.9","672f51ea346fba23ddd5a793","687a19d2168e237449fb8af4","6889d9dc3b91135c2f3989f4","0","672f51ea346fba23ddd5a793","0","2025-07-30T08:49:53.877Z","","","","","","","","","","","","","","","","win-only","0","g1:NW,g2:SE","0.8","3","0","501201.7","5145.9","10151.6","35056.9","1","4","4","6","1","1","1","2","1","0.015151515151515152","5005.7","3000","125","[""left"",""up""]","{""num_key_presses"":6,""num_perfect"":5,""num_errors"":0,""num_randdir"":1,""num_randdir_good_moves"":0,""num_whilered"":0,""num_whileblue"":0,""num_blue"":2,""num_good_moves"":5}","[418.57142857142856,412.47767857142856,0.6,418.57142857142856,412.47767857142856,105.2,418.57142857142856,412.47767857142856,205.8,418.57142857142856,412.47767857142856,306.1,418.57142857142856,412.47767857142856,416.1,418.57142857142856,412.47767857142856,517.2,418.57142857142856,412.47767857142856,619.8,418.57142857142856,412.47767857142856,719.9,418.57142857142856,412.47767857142856,827.4,418.57142857142856,412.47767857142856,930.6,418.57142857142856,412.47767857142856,1032.4,418.57142857142856,412.47767857142856,1133.8,418.57142857142856,412.47767857142856,1235.9,418.57142857142856,412.47767857142856,1339.7,418.57142857142856,412.47767857142856,1440.7,418.57142857142856,412.47767857142856,1541.6,418.57142857142856,412.47767857142856,1647.5,418.57142857142856,412.47767857142856,1749.9,418.57142857142856,412.47767857142856,1853.1,418.57142857142856,412.47767857142856,1961,418.57142857142856,412.47767857142856,2061.8,418.57142857142856,412.47767857142856,2166.6,418.57142857142856,412.47767857142856,2270.1,418.57142857142856,412.47767857142856,2370.8,418.57142857142856,412.47767857142856,2475.3,418.57142857142856,412.47767857142856,2575.7,418.57142857142856,412.47767857142856,2679.7,418.57142857142856,412.47767857142856,2780.8,418.57142857142856,412.47767857142856,2885.2,418.57142857142856,412.47767857142856,2997.1,418.57142857142856,412.47767857142856,3111.1,418.57142857142856,412.47767857142856,3211.5,418.57142857142856,412.47767857142856,3316.7,418.57142857142856,412.47767857142856,3430.1,418.57142857142856,412.47767857142856,3531.3,418.57142857142856,412.47767857142856,3634.9,418.57142857142856,412.47767857142856,3735.6,418.57142857142856,412.47767857142856,3836.5,418.57142857142856,412.47767857142856,3943.3,418.57142857142856,412.47767857142856,4047.7,418.57142857142856,412.47767857142856,4148,418.57142857142856,412.47767857142856,4262.9,418.57142857142856,412.47767857142856,4364.8,418.57142857142856,412.47767857142856,4471.4,418.57142857142856,412.47767857142856,4575.1,418.57142857142856,412.47767857142856,4676.7,418.57142857142856,412.47767857142856,4780.6,418.57142857142856,412.47767857142856,4894.3,418.57142857142856,412.47767857142856,4994.9]","[2055,2055,1000,0,1055,""smooth"",""left"",""left"",""good_move"",5698.6,3642.7,2809.7,2055.9,833,""smooth"",""left"",""left"",""good_move"",8605.4,2906,2392.3,5699.5,513.7,""smooth"",""up"",""up"",""good_move"",11570.6,2964.7,2296.5,8606,668.2,""oops"",""up"",""right"",""bad_move"",18623,7051.5,2890.6,15134.4,598,""smooth"",""up"",""up"",""good_move"",24782,6158.8,2086.3,22274.9,420.9,""smooth"",""left"",""left"",""good_move""]"
"4156","","<div style=""width:500px;"">
  <p>What determined the result of this run?</p>
  </div>","93","html-slider-response","24","528852","0.0-7.0-1.2","34","1","2025-07-30 08:41:19","36c45c0696341be0efffe67d72a12abb","213.137.81.202","Mozilla/5.0 (Windows NT 10.0; Win64; x64) AppleWebKit/537.36 (KHTML, like Gecko) Chrome/137.0.0.0 Safari/537.36","WebKit","Chrome","137.0.0.0","Windows","10.0","https://app.prolific.com/","en-GB,en;q=0.9","672f51ea346fba23ddd5a793","687a19d2168e237449fb8af4","6889d9dc3b91135c2f3989f4","0","672f51ea346fba23ddd5a793","0","2025-07-30T08:49:58.037Z","","","","AttribQ","","","","","","","","","","","50","","","","","","","","","","","","","","","","","","","","","","","","","","",""
"3109","","<div style=""width:500px;"">
  <p>How much control did you have over the ball?</p>
  </div>","67","html-slider-response","25","531964","0.0-7.0-2.2","34","1","2025-07-30 08:41:19","36c45c0696341be0efffe67d72a12abb","213.137.81.202","Mozilla/5.0 (Windows NT 10.0; Win64; x64) AppleWebKit/537.36 (KHTML, like Gecko) Chrome/137.0.0.0 Safari/537.36","WebKit","Chrome","137.0.0.0","Windows","10.0","https://app.prolific.com/","en-GB,en;q=0.9","672f51ea346fba23ddd5a793","687a19d2168e237449fb8af4","6889d9dc3b91135c2f3989f4","0","672f51ea346fba23ddd5a793","0","2025-07-30T08:50:01.149Z","","","","ControlQ","","","","","","","","","","","50","","","","","","","","","","","","","","","","","","","","","","","","","","",""
"2575","","<div style=""width:500px;"">
  <p>How would you describe your current emotional state?</p>
  </div>","13","html-slider-response","26","534543","0.0-7.0-3.2","34","1","2025-07-30 08:41:19","36c45c0696341be0efffe67d72a12abb","213.137.81.202","Mozilla/5.0 (Windows NT 10.0; Win64; x64) AppleWebKit/537.36 (KHTML, like Gecko) Chrome/137.0.0.0 Safari/537.36","WebKit","Chrome","137.0.0.0","Windows","10.0","https://app.prolific.com/","en-GB,en;q=0.9","672f51ea346fba23ddd5a793","687a19d2168e237449fb8af4","6889d9dc3b91135c2f3989f4","0","672f51ea346fba23ddd5a793","0","2025-07-30T08:50:03.728Z","","","","StressQ","","","","","","","","","","","50","","","","","","","","","","","","","","","","","","","","","","","","","","",""
"1807","","<div style=""width:500px;"">
  <p>What best describes how you currently feel?</p>
  </div>","100","html-slider-response","27","536354","0.0-7.0-4.2","34","1","2025-07-30 08:41:19","36c45c0696341be0efffe67d72a12abb","213.137.81.202","Mozilla/5.0 (Windows NT 10.0; Win64; x64) AppleWebKit/537.36 (KHTML, like Gecko) Chrome/137.0.0.0 Safari/537.36","WebKit","Chrome","137.0.0.0","Windows","10.0","https://app.prolific.com/","en-GB,en;q=0.9","672f51ea346fba23ddd5a793","687a19d2168e237449fb8af4","6889d9dc3b91135c2f3989f4","0","672f51ea346fba23ddd5a793","0","2025-07-30T08:50:05.539Z","","","","MotivationQ","","","","","","","","","","","50","","","","","","","","","","","","","","","","","","","","","","","","","","",""
"","","","","ctl-task-cpt","28","575912","0.0-7.0-0.3","34","1","2025-07-30 08:41:19","36c45c0696341be0efffe67d72a12abb","213.137.81.202","Mozilla/5.0 (Windows NT 10.0; Win64; x64) AppleWebKit/537.36 (KHTML, like Gecko) Chrome/137.0.0.0 Safari/537.36","WebKit","Chrome","137.0.0.0","Windows","10.0","https://app.prolific.com/","en-GB,en;q=0.9","672f51ea346fba23ddd5a793","687a19d2168e237449fb8af4","6889d9dc3b91135c2f3989f4","0","672f51ea346fba23ddd5a793","0","2025-07-30T08:50:45.098Z","","","","","","","","","","","","","","","","win-only","2","g1:SE,g2:NW","0.7","4","0","550936.3","6848.6","11863.6","36528.2","1","4","8","6","2","-8","-8","0","2","0","1170.4","3000","-2225","[""left"",""up""]","{""num_key_presses"":6,""num_perfect"":3,""num_errors"":0,""num_randdir"":3,""num_randdir_good_moves"":1,""num_whilered"":0,""num_whileblue"":0,""num_blue"":1,""num_good_moves"":4}","[422.57142857142856,415.47767857142856,0.8,422.57142857142856,415.47767857142856,103.2,422.57142857142856,415.47767857142856,223.5,422.57142857142856,415.47767857142856,334.1,422.57142857142856,415.47767857142856,441.4,422.57142857142856,415.47767857142856,544,242.57142857142856,236.47767857142856,647.2,84.57142857142857,59.47767857142857,750.3,71.57142857142857,45.47767857142857,854.3,58.57142857142857,38.47767857142857,957.2,59.57142857142857,36.47767857142857,1062.3,59.57142857142857,36.47767857142857,1174.6,59.57142857142857,36.47767857142857,1278,59.57142857142857,36.47767857142857,1382.2,59.57142857142857,36.47767857142857,1487.1,59.57142857142857,36.47767857142857,1590.5,59.57142857142857,36.47767857142857,1692.9,59.57142857142857,36.47767857142857,1809.5,59.57142857142857,36.47767857142857,1912.8,59.57142857142857,36.47767857142857,2014.5,59.57142857142857,36.47767857142857,2117.9,59.57142857142857,36.47767857142857,2224.2,59.57142857142857,36.47767857142857,2340.5,59.57142857142857,36.47767857142857,2452.3,59.57142857142857,36.47767857142857,2554.9,59.57142857142857,36.47767857142857,2664.3,59.57142857142857,36.47767857142857,2773.1,59.57142857142857,36.47767857142857,2885.3,59.57142857142857,36.47767857142857,2985.5,59.57142857142857,36.47767857142857,3088.3,59.57142857142857,36.47767857142857,3188.5,59.57142857142857,36.47767857142857,3292.2,59.57142857142857,36.47767857142857,3393.8,59.57142857142857,36.47767857142857,3503.1,59.57142857142857,36.47767857142857,3623.3,59.57142857142857,36.47767857142857,3738,59.57142857142857,36.47767857142857,3839.4,59.57142857142857,36.47767857142857,3942.6,59.57142857142857,36.47767857142857,4053.4,59.57142857142857,36.47767857142857,4157,59.57142857142857,36.47767857142857,4258.3,59.57142857142857,36.47767857142857,4363.8,59.57142857142857,36.47767857142857,4469.1,59.57142857142857,36.47767857142857,4585.7,59.57142857142857,36.47767857142857,4686.8,59.57142857142857,36.47767857142857,4788.2,59.57142857142857,36.47767857142857,4913.7]","[1857.6,1857.6,1000,0,857.6,""smooth"",""up"",""up"",""good_move"",4893.8,3035.3,2360.4,1858.5,674.9,""oops"",""up"",""right"",""bad_move"",12133.6,7239.2,3083.1,8539,511.5,""smooth"",""up"",""up"",""good_move"",15422.5,3288.9,2344.1,12133.8,944.7,""oops"",""up"",""left"",""good_move"",18097.2,2674,1829.7,15423.2,844.3,""smooth"",""left"",""left"",""good_move"",21535.6,3438.2,2917.6,18097.5,520.6,""oops"",""left"",""down"",""bad_move""]"
"4878","","<div style=""width:500px;"">
  <p>What determined the result of this run?</p>
  </div>","9","html-slider-response","29","580796","0.0-7.0-1.3","34","1","2025-07-30 08:41:19","36c45c0696341be0efffe67d72a12abb","213.137.81.202","Mozilla/5.0 (Windows NT 10.0; Win64; x64) AppleWebKit/537.36 (KHTML, like Gecko) Chrome/137.0.0.0 Safari/537.36","WebKit","Chrome","137.0.0.0","Windows","10.0","https://app.prolific.com/","en-GB,en;q=0.9","672f51ea346fba23ddd5a793","687a19d2168e237449fb8af4","6889d9dc3b91135c2f3989f4","0","672f51ea346fba23ddd5a793","0","2025-07-30T08:50:49.981Z","","","","AttribQ","","","","","","","","","","","50","","","","","","","","","","","","","","","","","","","","","","","","","","",""
"4430","","<div style=""width:500px;"">
  <p>How much control did you have over the ball?</p>
  </div>","12","html-slider-response","30","585229","0.0-7.0-2.3","34","1","2025-07-30 08:41:19","36c45c0696341be0efffe67d72a12abb","213.137.81.202","Mozilla/5.0 (Windows NT 10.0; Win64; x64) AppleWebKit/537.36 (KHTML, like Gecko) Chrome/137.0.0.0 Safari/537.36","WebKit","Chrome","137.0.0.0","Windows","10.0","https://app.prolific.com/","en-GB,en;q=0.9","672f51ea346fba23ddd5a793","687a19d2168e237449fb8af4","6889d9dc3b91135c2f3989f4","0","672f51ea346fba23ddd5a793","0","2025-07-30T08:50:54.414Z","","","","ControlQ","","","","","","","","","","","50","","","","","","","","","","","","","","","","","","","","","","","","","","",""
"6104","","<div style=""width:500px;"">
  <p>How would you describe your current emotional state?</p>
  </div>","46","html-slider-response","31","591337","0.0-7.0-3.3","34","1","2025-07-30 08:41:19","36c45c0696341be0efffe67d72a12abb","213.137.81.202","Mozilla/5.0 (Windows NT 10.0; Win64; x64) AppleWebKit/537.36 (KHTML, like Gecko) Chrome/137.0.0.0 Safari/537.36","WebKit","Chrome","137.0.0.0","Windows","10.0","https://app.prolific.com/","en-GB,en;q=0.9","672f51ea346fba23ddd5a793","687a19d2168e237449fb8af4","6889d9dc3b91135c2f3989f4","0","672f51ea346fba23ddd5a793","0","2025-07-30T08:51:00.522Z","","","","StressQ","","","","","","","","","","","50","","","","","","","","","","","","","","","","","","","","","","","","","","",""
"3530","","<div style=""width:500px;"">
  <p>What best describes how you currently feel?</p>
  </div>","93","html-slider-response","32","594870","0.0-7.0-4.3","34","1","2025-07-30 08:41:19","36c45c0696341be0efffe67d72a12abb","213.137.81.202","Mozilla/5.0 (Windows NT 10.0; Win64; x64) AppleWebKit/537.36 (KHTML, like Gecko) Chrome/137.0.0.0 Safari/537.36","WebKit","Chrome","137.0.0.0","Windows","10.0","https://app.prolific.com/","en-GB,en;q=0.9","672f51ea346fba23ddd5a793","687a19d2168e237449fb8af4","6889d9dc3b91135c2f3989f4","0","672f51ea346fba23ddd5a793","0","2025-07-30T08:51:04.055Z","","","","MotivationQ","","","","","","","","","","","50","","","","","","","","","","","","","","","","","","","","","","","","","","",""
"","","","","ctl-task-cpt","33","635752","0.0-7.0-0.4","34","1","2025-07-30 08:41:19","36c45c0696341be0efffe67d72a12abb","213.137.81.202","Mozilla/5.0 (Windows NT 10.0; Win64; x64) AppleWebKit/537.36 (KHTML, like Gecko) Chrome/137.0.0.0 Safari/537.36","WebKit","Chrome","137.0.0.0","Windows","10.0","https://app.prolific.com/","en-GB,en;q=0.9","672f51ea346fba23ddd5a793","687a19d2168e237449fb8af4","6889d9dc3b91135c2f3989f4","0","672f51ea346fba23ddd5a793","0","2025-07-30T08:51:44.937Z","","","","","","","","","","","","","","","","win-only","0","g1:NW,g2:SE","0.6","5","0","609450.5","1831.3","6838.5","37852.7","1","4","8","6","2","-8","-8","0","0","0","1838.7","3000","-2050","[""down"",""right""]","{""num_key_presses"":7,""num_perfect"":4,""num_errors"":0,""num_randdir"":3,""num_randdir_good_moves"":1,""num_whilered"":0,""num_whileblue"":0,""num_blue"":2,""num_good_moves"":5}","[420.57142857142856,422.47767857142856,0.2,420.57142857142856,422.47767857142856,105.5,420.57142857142856,422.47767857142856,210.1,420.57142857142856,422.47767857142856,310.7,420.57142857142856,422.47767857142856,414.8,420.57142857142856,422.47767857142856,533.8,420.57142857142856,422.47767857142856,642.8,420.57142857142856,422.47767857142856,745.2,420.57142857142856,422.47767857142856,847.1,420.57142857142856,422.47767857142856,950.4,420.57142857142856,422.47767857142856,1054.3,420.57142857142856,422.47767857142856,1155.1,420.57142857142856,422.47767857142856,1256.4,420.57142857142856,422.47767857142856,1360.3,420.57142857142856,422.47767857142856,1461.2,420.57142857142856,422.47767857142856,1564.9,420.57142857142856,422.47767857142856,1668.7,772.5714285714286,772.4776785714286,1843.9,772.5714285714286,772.4776785714286,1945.3,772.5714285714286,772.4776785714286,2045.3,772.5714285714286,772.4776785714286,2158,772.5714285714286,772.4776785714286,2262.1,772.5714285714286,772.4776785714286,2364.6,772.5714285714286,772.4776785714286,2469.4,772.5714285714286,772.4776785714286,2576.3,772.5714285714286,772.4776785714286,2703.9,772.5714285714286,772.4776785714286,2809.3,772.5714285714286,772.4776785714286,2911.7,772.5714285714286,772.4776785714286,3020.5,772.5714285714286,772.4776785714286,3134.2,772.5714285714286,772.4776785714286,3237.5,772.5714285714286,772.4776785714286,3340.5,772.5714285714286,772.4776785714286,3464.4,772.5714285714286,772.4776785714286,3578.9,772.5714285714286,772.4776785714286,3683,772.5714285714286,772.4776785714286,3791.9,772.5714285714286,772.4776785714286,3911.6,772.5714285714286,772.4776785714286,4015.7,772.5714285714286,772.4776785714286,4120.7,772.5714285714286,772.4776785714286,4228.9,772.5714285714286,772.4776785714286,4342.6,772.5714285714286,772.4776785714286,4445.8,772.5714285714286,772.4776785714286,4550.1,772.5714285714286,772.4776785714286,4653.5,772.5714285714286,772.4776785714286,4764.6,772.5714285714286,772.4776785714286,4880.8,772.5714285714286,772.4776785714286,4985.2]","[1889.4,1889.4,1000,0,889.4,""smooth"",""right"",""right"",""good_move"",5204.3,3314.1,2272,1890.2,1042.1,""oops"",""right"",""right"",""good_move"",8444.9,3239.9,2767.7,5205,472.2,""smooth"",""right"",""right"",""good_move"",14917.1,6471.9,2422.4,12003.9,490.9,""oops"",""down"",""up"",""bad_move"",17965.8,3048.1,2312,14917.7,736.1,""smooth"",""down"",""down"",""good_move"",21268.7,3302.7,2770,17966.1,532.6,""smooth"",""down"",""down"",""good_move"",27744.4,6475.5,2846.2,24468.2,430.1,""oops"",""down"",""up"",""bad_move""]"
"3702","","<div style=""width:500px;"">
  <p>What determined the result of this run?</p>
  </div>","22","html-slider-response","34","639459","0.0-7.0-1.4","34","1","2025-07-30 08:41:19","36c45c0696341be0efffe67d72a12abb","213.137.81.202","Mozilla/5.0 (Windows NT 10.0; Win64; x64) AppleWebKit/537.36 (KHTML, like Gecko) Chrome/137.0.0.0 Safari/537.36","WebKit","Chrome","137.0.0.0","Windows","10.0","https://app.prolific.com/","en-GB,en;q=0.9","672f51ea346fba23ddd5a793","687a19d2168e237449fb8af4","6889d9dc3b91135c2f3989f4","0","672f51ea346fba23ddd5a793","0","2025-07-30T08:51:48.644Z","","","","AttribQ","","","","","","","","","","","50","","","","","","","","","","","","","","","","","","","","","","","","","","",""
"7470","","<div style=""width:500px;"">
  <p>How much control did you have over the ball?</p>
  </div>","5","html-slider-response","35","646933","0.0-7.0-2.4","34","1","2025-07-30 08:41:19","36c45c0696341be0efffe67d72a12abb","213.137.81.202","Mozilla/5.0 (Windows NT 10.0; Win64; x64) AppleWebKit/537.36 (KHTML, like Gecko) Chrome/137.0.0.0 Safari/537.36","WebKit","Chrome","137.0.0.0","Windows","10.0","https://app.prolific.com/","en-GB,en;q=0.9","672f51ea346fba23ddd5a793","687a19d2168e237449fb8af4","6889d9dc3b91135c2f3989f4","0","672f51ea346fba23ddd5a793","0","2025-07-30T08:51:56.118Z","","","","ControlQ","","","","","","","","","","","50","","","","","","","","","","","","","","","","","","","","","","","","","","",""
"4421","","<div style=""width:500px;"">
  <p>How would you describe your current emotional state?</p>
  </div>","23","html-slider-response","36","651355","0.0-7.0-3.4","34","1","2025-07-30 08:41:19","36c45c0696341be0efffe67d72a12abb","213.137.81.202","Mozilla/5.0 (Windows NT 10.0; Win64; x64) AppleWebKit/537.36 (KHTML, like Gecko) Chrome/137.0.0.0 Safari/537.36","WebKit","Chrome","137.0.0.0","Windows","10.0","https://app.prolific.com/","en-GB,en;q=0.9","672f51ea346fba23ddd5a793","687a19d2168e237449fb8af4","6889d9dc3b91135c2f3989f4","0","672f51ea346fba23ddd5a793","0","2025-07-30T08:52:00.541Z","","","","StressQ","","","","","","","","","","","50","","","","","","","","","","","","","","","","","","","","","","","","","","",""
"5753","","<div style=""width:500px;"">
  <p>What best describes how you currently feel?</p>
  </div>","100","html-slider-response","37","657111","0.0-7.0-4.4","34","1","2025-07-30 08:41:19","36c45c0696341be0efffe67d72a12abb","213.137.81.202","Mozilla/5.0 (Windows NT 10.0; Win64; x64) AppleWebKit/537.36 (KHTML, like Gecko) Chrome/137.0.0.0 Safari/537.36","WebKit","Chrome","137.0.0.0","Windows","10.0","https://app.prolific.com/","en-GB,en;q=0.9","672f51ea346fba23ddd5a793","687a19d2168e237449fb8af4","6889d9dc3b91135c2f3989f4","0","672f51ea346fba23ddd5a793","0","2025-07-30T08:52:06.296Z","","","","MotivationQ","","","","","","","","","","","50","","","","","","","","","","","","","","","","","","","","","","","","","","",""
"","","","","ctl-task-cpt","38","705624","0.0-7.0-0.5","34","1","2025-07-30 08:41:19","36c45c0696341be0efffe67d72a12abb","213.137.81.202","Mozilla/5.0 (Windows NT 10.0; Win64; x64) AppleWebKit/537.36 (KHTML, like Gecko) Chrome/137.0.0.0 Safari/537.36","WebKit","Chrome","137.0.0.0","Windows","10.0","https://app.prolific.com/","en-GB,en;q=0.9","672f51ea346fba23ddd5a793","687a19d2168e237449fb8af4","6889d9dc3b91135c2f3989f4","0","672f51ea346fba23ddd5a793","0","2025-07-30T08:52:54.809Z","","","","","","","","","","","","","","","","win-only","0","g1:NW,g2:SE","0.5","6","0","671692.8","4033.3","9034.6","45487.1","1","4","4","6","2","-4","-4","0","0","0","2224.8","3000","-2005","[""down"",""right""]","{""num_key_presses"":9,""num_perfect"":5,""num_errors"":0,""num_randdir"":4,""num_randdir_good_moves"":1,""num_whilered"":0,""num_whileblue"":0,""num_blue"":2,""num_good_moves"":6}","[425.57142857142856,412.47767857142856,0.4,425.57142857142856,412.47767857142856,147.5,425.57142857142856,412.47767857142856,248.5,425.57142857142856,412.47767857142856,353.5,425.57142857142856,412.47767857142856,457.4,425.57142857142856,412.47767857142856,559,425.57142857142856,412.47767857142856,662.6,425.57142857142856,412.47767857142856,765.3,425.57142857142856,412.47767857142856,867,425.57142857142856,412.47767857142856,968.3,425.57142857142856,412.47767857142856,1073,425.57142857142856,412.47767857142856,1173.2,425.57142857142856,412.47767857142856,1278.4,425.57142857142856,412.47767857142856,1394.1,425.57142857142856,412.47767857142856,1495.7,425.57142857142856,412.47767857142856,1596.6,425.57142857142856,412.47767857142856,1709.3,425.57142857142856,412.47767857142856,1810.2,425.57142857142856,412.47767857142856,1920.7,425.57142857142856,412.47767857142856,2046.5,425.57142857142856,412.47767857142856,2205.1,769.5714285714286,781.4776785714286,2305.4,769.5714285714286,781.4776785714286,2407.8,769.5714285714286,781.4776785714286,2521.3,769.5714285714286,781.4776785714286,2622.1,769.5714285714286,781.4776785714286,2728.3,769.5714285714286,781.4776785714286,2834.7,769.5714285714286,781.4776785714286,2940.5,769.5714285714286,781.4776785714286,3060.9,769.5714285714286,781.4776785714286,3170.2,769.5714285714286,781.4776785714286,3275.7,769.5714285714286,781.4776785714286,3388.2,769.5714285714286,781.4776785714286,3489.3,769.5714285714286,781.4776785714286,3592.7,769.5714285714286,781.4776785714286,3709.2,769.5714285714286,781.4776785714286,3813.7,769.5714285714286,781.4776785714286,3927.6,769.5714285714286,781.4776785714286,4042.2,769.5714285714286,781.4776785714286,4147.8,769.5714285714286,781.4776785714286,4248.5,769.5714285714286,781.4776785714286,4367,769.5714285714286,781.4776785714286,4481.8,769.5714285714286,781.4776785714286,4586,769.5714285714286,781.4776785714286,4686.5,769.5714285714286,781.4776785714286,4797,769.5714285714286,781.4776785714286,4901.4]","[1435.7,1435.7,1000,0,435.7,""oops"",""down"",""left"",""bad_move"",5300.8,3864.8,3068.1,1436,796.7,""oops"",""down"",""right"",""good_move"",8875.8,3574.4,2943.4,5301.4,631,""smooth"",""right"",""right"",""good_move"",15385.4,6509.1,2399.9,12465,520.5,""smooth"",""right"",""right"",""good_move"",21853.2,6467.3,2586.6,18654,612.6,""oops"",""right"",""left"",""bad_move"",24967.7,3114.1,2532,21853.8,582,""smooth"",""right"",""right"",""good_move"",27806,2838,2191.1,24968,646.9,""smooth"",""down"",""down"",""good_move"",30785.1,2978.6,2530.4,27806.5,448.2,""oops"",""down"",""up"",""bad_move"",34020.7,3235.3,2739.4,30785.4,495.9,""smooth"",""down"",""down"",""good_move""]"
"6061","","<div style=""width:500px;"">
  <p>What determined the result of this run?</p>
  </div>","2","html-slider-response","39","711689","0.0-7.0-1.5","34","1","2025-07-30 08:41:19","36c45c0696341be0efffe67d72a12abb","213.137.81.202","Mozilla/5.0 (Windows NT 10.0; Win64; x64) AppleWebKit/537.36 (KHTML, like Gecko) Chrome/137.0.0.0 Safari/537.36","WebKit","Chrome","137.0.0.0","Windows","10.0","https://app.prolific.com/","en-GB,en;q=0.9","672f51ea346fba23ddd5a793","687a19d2168e237449fb8af4","6889d9dc3b91135c2f3989f4","0","672f51ea346fba23ddd5a793","0","2025-07-30T08:53:00.874Z","","","","AttribQ","","","","","","","","","","","50","","","","","","","","","","","","","","","","","","","","","","","","","","",""
"5547","","<div style=""width:500px;"">
  <p>How much control did you have over the ball?</p>
  </div>","15","html-slider-response","40","717239","0.0-7.0-2.5","34","1","2025-07-30 08:41:19","36c45c0696341be0efffe67d72a12abb","213.137.81.202","Mozilla/5.0 (Windows NT 10.0; Win64; x64) AppleWebKit/537.36 (KHTML, like Gecko) Chrome/137.0.0.0 Safari/537.36","WebKit","Chrome","137.0.0.0","Windows","10.0","https://app.prolific.com/","en-GB,en;q=0.9","672f51ea346fba23ddd5a793","687a19d2168e237449fb8af4","6889d9dc3b91135c2f3989f4","0","672f51ea346fba23ddd5a793","0","2025-07-30T08:53:06.424Z","","","","ControlQ","","","","","","","","","","","50","","","","","","","","","","","","","","","","","","","","","","","","","","",""
"5446","","<div style=""width:500px;"">
  <p>How would you describe your current emotional state?</p>
  </div>","14","html-slider-response","41","722689","0.0-7.0-3.5","34","1","2025-07-30 08:41:19","36c45c0696341be0efffe67d72a12abb","213.137.81.202","Mozilla/5.0 (Windows NT 10.0; Win64; x64) AppleWebKit/537.36 (KHTML, like Gecko) Chrome/137.0.0.0 Safari/537.36","WebKit","Chrome","137.0.0.0","Windows","10.0","https://app.prolific.com/","en-GB,en;q=0.9","672f51ea346fba23ddd5a793","687a19d2168e237449fb8af4","6889d9dc3b91135c2f3989f4","0","672f51ea346fba23ddd5a793","0","2025-07-30T08:53:11.874Z","","","","StressQ","","","","","","","","","","","50","","","","","","","","","","","","","","","","","","","","","","","","","","",""
"5295","","<div style=""width:500px;"">
  <p>What best describes how you currently feel?</p>
  </div>","98","html-slider-response","42","727986","0.0-7.0-4.5","34","1","2025-07-30 08:41:19","36c45c0696341be0efffe67d72a12abb","213.137.81.202","Mozilla/5.0 (Windows NT 10.0; Win64; x64) AppleWebKit/537.36 (KHTML, like Gecko) Chrome/137.0.0.0 Safari/537.36","WebKit","Chrome","137.0.0.0","Windows","10.0","https://app.prolific.com/","en-GB,en;q=0.9","672f51ea346fba23ddd5a793","687a19d2168e237449fb8af4","6889d9dc3b91135c2f3989f4","0","672f51ea346fba23ddd5a793","0","2025-07-30T08:53:17.171Z","","","","MotivationQ","","","","","","","","","","","50","","","","","","","","","","","","","","","","","","","","","","","","","","",""
"","","","","ctl-task-cpt","43","774430","0.0-7.0-0.6","34","1","2025-07-30 08:41:19","36c45c0696341be0efffe67d72a12abb","213.137.81.202","Mozilla/5.0 (Windows NT 10.0; Win64; x64) AppleWebKit/537.36 (KHTML, like Gecko) Chrome/137.0.0.0 Safari/537.36","WebKit","Chrome","137.0.0.0","Windows","10.0","https://app.prolific.com/","en-GB,en;q=0.9","672f51ea346fba23ddd5a793","687a19d2168e237449fb8af4","6889d9dc3b91135c2f3989f4","0","672f51ea346fba23ddd5a793","0","2025-07-30T08:54:03.616Z","","","","","","","","","","","","","","","","win-only","0","g1:NW,g2:SE","0.4","7","0","742566.6","5514.4","10535","43420.9","1","4","8","6","2","-8","-8","0","0","0","1690.2","3000","-1810","[""down"",""right""]","{""num_key_presses"":9,""num_perfect"":3,""num_errors"":0,""num_randdir"":6,""num_randdir_good_moves"":2,""num_whilered"":0,""num_whileblue"":0,""num_blue"":1,""num_good_moves"":5}","[418.57142857142856,419.47767857142856,0.7,418.57142857142856,419.47767857142856,184.3,418.57142857142856,419.47767857142856,286,418.57142857142856,419.47767857142856,388.4,418.57142857142856,419.47767857142856,501.9,418.57142857142856,419.47767857142856,606.9,418.57142857142856,419.47767857142856,708.7,418.57142857142856,419.47767857142856,811.3,418.57142857142856,419.47767857142856,919.7,418.57142857142856,419.47767857142856,1028.8,418.57142857142856,419.47767857142856,1138.7,418.57142857142856,419.47767857142856,1252.3,418.57142857142856,419.47767857142856,1359.4,418.57142857142856,419.47767857142856,1462.8,774.5714285714286,782.4776785714286,1692.9,774.5714285714286,782.4776785714286,1795.3,774.5714285714286,782.4776785714286,1899.1,774.5714285714286,782.4776785714286,2001.1,774.5714285714286,782.4776785714286,2103.9,774.5714285714286,782.4776785714286,2216.4,59.57142857142857,36.47767857142857,2317.4,59.57142857142857,36.47767857142857,2421.6,59.57142857142857,36.47767857142857,2527.9,59.57142857142857,36.47767857142857,2629.5,59.57142857142857,36.47767857142857,2733,59.57142857142857,36.47767857142857,2833.5,59.57142857142857,36.47767857142857,2940,59.57142857142857,36.47767857142857,3042.8,59.57142857142857,36.47767857142857,3143.3,59.57142857142857,36.47767857142857,3261.7,59.57142857142857,36.47767857142857,3362.8,59.57142857142857,36.47767857142857,3468.8,59.57142857142857,36.47767857142857,3583.2,59.57142857142857,36.47767857142857,3692.4,59.57142857142857,36.47767857142857,3793.7,59.57142857142857,36.47767857142857,3894.9,59.57142857142857,36.47767857142857,4004.1,59.57142857142857,36.47767857142857,4108.2,59.57142857142857,36.47767857142857,4209.3,59.57142857142857,36.47767857142857,4312.7,59.57142857142857,36.47767857142857,4420.3,59.57142857142857,36.47767857142857,4544.4,59.57142857142857,36.47767857142857,4644.4,59.57142857142857,36.47767857142857,4753.5,59.57142857142857,36.47767857142857,4859.6,59.57142857142857,36.47767857142857,4963.2]","[1545.1,1545.1,1000,0,545.1,""smooth"",""down"",""down"",""good_move"",4788,3242.5,2416,1545.5,826.5,""oops"",""down"",""right"",""good_move"",11521.6,6733.2,2545.3,8482.7,493.6,""oops"",""down"",""right"",""good_move"",14216.5,2694.5,2049.3,11522,645.2,""oops"",""down"",""left"",""bad_move"",17247.4,3030.5,2475.8,14216.9,554.7,""smooth"",""down"",""down"",""good_move"",20461.6,3213.9,2761.4,17247.7,452.5,""oops"",""down"",""left"",""bad_move"",23347.2,2885.3,2323.5,20461.9,561.8,""smooth"",""right"",""right"",""good_move"",26485.9,3138.2,2591,23347.8,547.1,""oops"",""right"",""left"",""bad_move"",29865.2,3378.9,2880.6,26486.3,498.3,""oops"",""down"",""left"",""bad_move""]"
"4376","","<div style=""width:500px;"">
  <p>What determined the result of this run?</p>
  </div>","5","html-slider-response","44","778811","0.0-7.0-1.6","34","1","2025-07-30 08:41:19","36c45c0696341be0efffe67d72a12abb","213.137.81.202","Mozilla/5.0 (Windows NT 10.0; Win64; x64) AppleWebKit/537.36 (KHTML, like Gecko) Chrome/137.0.0.0 Safari/537.36","WebKit","Chrome","137.0.0.0","Windows","10.0","https://app.prolific.com/","en-GB,en;q=0.9","672f51ea346fba23ddd5a793","687a19d2168e237449fb8af4","6889d9dc3b91135c2f3989f4","0","672f51ea346fba23ddd5a793","0","2025-07-30T08:54:07.996Z","","","","AttribQ","","","","","","","","","","","50","","","","","","","","","","","","","","","","","","","","","","","","","","",""
"5878","","<div style=""width:500px;"">
  <p>How much control did you have over the ball?</p>
  </div>","5","html-slider-response","45","784691","0.0-7.0-2.6","34","1","2025-07-30 08:41:19","36c45c0696341be0efffe67d72a12abb","213.137.81.202","Mozilla/5.0 (Windows NT 10.0; Win64; x64) AppleWebKit/537.36 (KHTML, like Gecko) Chrome/137.0.0.0 Safari/537.36","WebKit","Chrome","137.0.0.0","Windows","10.0","https://app.prolific.com/","en-GB,en;q=0.9","672f51ea346fba23ddd5a793","687a19d2168e237449fb8af4","6889d9dc3b91135c2f3989f4","0","672f51ea346fba23ddd5a793","0","2025-07-30T08:54:13.876Z","","","","ControlQ","","","","","","","","","","","50","","","","","","","","","","","","","","","","","","","","","","","","","","",""
"4578","","<div style=""width:500px;"">
  <p>How would you describe your current emotional state?</p>
  </div>","25","html-slider-response","46","789271","0.0-7.0-3.6","34","1","2025-07-30 08:41:19","36c45c0696341be0efffe67d72a12abb","213.137.81.202","Mozilla/5.0 (Windows NT 10.0; Win64; x64) AppleWebKit/537.36 (KHTML, like Gecko) Chrome/137.0.0.0 Safari/537.36","WebKit","Chrome","137.0.0.0","Windows","10.0","https://app.prolific.com/","en-GB,en;q=0.9","672f51ea346fba23ddd5a793","687a19d2168e237449fb8af4","6889d9dc3b91135c2f3989f4","0","672f51ea346fba23ddd5a793","0","2025-07-30T08:54:18.456Z","","","","StressQ","","","","","","","","","","","50","","","","","","","","","","","","","","","","","","","","","","","","","","",""
"4376","","<div style=""width:500px;"">
  <p>What best describes how you currently feel?</p>
  </div>","100","html-slider-response","47","793649","0.0-7.0-4.6","34","1","2025-07-30 08:41:19","36c45c0696341be0efffe67d72a12abb","213.137.81.202","Mozilla/5.0 (Windows NT 10.0; Win64; x64) AppleWebKit/537.36 (KHTML, like Gecko) Chrome/137.0.0.0 Safari/537.36","WebKit","Chrome","137.0.0.0","Windows","10.0","https://app.prolific.com/","en-GB,en;q=0.9","672f51ea346fba23ddd5a793","687a19d2168e237449fb8af4","6889d9dc3b91135c2f3989f4","0","672f51ea346fba23ddd5a793","0","2025-07-30T08:54:22.835Z","","","","MotivationQ","","","","","","","","","","","50","","","","","","","","","","","","","","","","","","","","","","","","","","",""
"","","","","ctl-task-cpt","48","836958","0.0-7.0-0.7","34","1","2025-07-30 08:41:19","36c45c0696341be0efffe67d72a12abb","213.137.81.202","Mozilla/5.0 (Windows NT 10.0; Win64; x64) AppleWebKit/537.36 (KHTML, like Gecko) Chrome/137.0.0.0 Safari/537.36","WebKit","Chrome","137.0.0.0","Windows","10.0","https://app.prolific.com/","en-GB,en;q=0.9","672f51ea346fba23ddd5a793","687a19d2168e237449fb8af4","6889d9dc3b91135c2f3989f4","0","672f51ea346fba23ddd5a793","0","2025-07-30T08:55:06.143Z","","","","","","","","","","","","","","","","win-only","0","g1:NW,g2:SE","0.3","8","0","808231.7","1380.1","6392.9","40286.2","1","4","4","6","1","1","1","1","0","0.007575757575757576","1084.7","3000","620","[""left"",""up""]","{""num_key_presses"":8,""num_perfect"":2,""num_errors"":0,""num_randdir"":6,""num_randdir_good_moves"":4,""num_whilered"":0,""num_whileblue"":0,""num_blue"":3,""num_good_moves"":6}","[422.57142857142856,425.47767857142856,0.2,422.57142857142856,425.47767857142856,103.5,422.57142857142856,425.47767857142856,217.9,422.57142857142856,425.47767857142856,319.7,422.57142857142856,425.47767857142856,438.5,422.57142857142856,425.47767857142856,542.7,422.57142857142856,425.47767857142856,647.3,422.57142857142856,425.47767857142856,748.3,422.57142857142856,425.47767857142856,850.9,422.57142857142856,425.47767857142856,970.1,75.57142857142857,103.47767857142857,1095.4,75.57142857142857,103.47767857142857,1197.1,75.57142857142857,103.47767857142857,1305.8,75.57142857142857,103.47767857142857,1410.8,75.57142857142857,103.47767857142857,1512.3,75.57142857142857,103.47767857142857,1617,75.57142857142857,103.47767857142857,1717.3,75.57142857142857,103.47767857142857,1821.3,75.57142857142857,103.47767857142857,1936.1,75.57142857142857,103.47767857142857,2040.5,75.57142857142857,103.47767857142857,2154.2,75.57142857142857,103.47767857142857,2256.2,75.57142857142857,103.47767857142857,2356.9,75.57142857142857,103.47767857142857,2458.8,75.57142857142857,103.47767857142857,2562.7,75.57142857142857,103.47767857142857,2664.8,75.57142857142857,103.47767857142857,2765.7,75.57142857142857,103.47767857142857,2910,75.57142857142857,103.47767857142857,3021.1,75.57142857142857,103.47767857142857,3123.4,75.57142857142857,103.47767857142857,3243.6,75.57142857142857,103.47767857142857,3345.5,75.57142857142857,103.47767857142857,3451.5,75.57142857142857,103.47767857142857,3553.9,75.57142857142857,103.47767857142857,3658.9,75.57142857142857,103.47767857142857,3768.8,75.57142857142857,103.47767857142857,3870.9,75.57142857142857,103.47767857142857,3984.9,75.57142857142857,103.47767857142857,4091.4,75.57142857142857,103.47767857142857,4205.8,75.57142857142857,103.47767857142857,4318.7,75.57142857142857,103.47767857142857,4430.8,75.57142857142857,103.47767857142857,4539.4,75.57142857142857,103.47767857142857,4647.3,75.57142857142857,103.47767857142857,4756.9,75.57142857142857,103.47767857142857,4861.7,75.57142857142857,103.47767857142857,4985]","[1502.7,1502.7,1000,0,502.7,""oops"",""up"",""up"",""good_move"",7203.5,5700.3,1961.1,4763.3,479.1,""oops"",""up"",""right"",""bad_move"",10732.9,3529.3,2342.9,7203.6,1186.4,""oops"",""up"",""left"",""good_move"",17905.5,7172.4,2901,14570.6,434,""oops"",""left"",""down"",""bad_move"",20464.3,2558.4,2080.9,17906,477.5,""oops"",""left"",""left"",""good_move"",24038.1,3573.3,3083.7,20464.8,489.6,""smooth"",""left"",""left"",""good_move"",26846.6,2808.2,2370.6,24038.4,437.6,""smooth"",""up"",""up"",""good_move"",33729.1,6882.2,2228.8,31016.3,484,""oops"",""up"",""up"",""good_move""]"
"3623","","<div style=""width:500px;"">
  <p>What determined the result of this run?</p>
  </div>","90","html-slider-response","49","840585","0.0-7.0-1.7","34","1","2025-07-30 08:41:19","36c45c0696341be0efffe67d72a12abb","213.137.81.202","Mozilla/5.0 (Windows NT 10.0; Win64; x64) AppleWebKit/537.36 (KHTML, like Gecko) Chrome/137.0.0.0 Safari/537.36","WebKit","Chrome","137.0.0.0","Windows","10.0","https://app.prolific.com/","en-GB,en;q=0.9","672f51ea346fba23ddd5a793","687a19d2168e237449fb8af4","6889d9dc3b91135c2f3989f4","0","672f51ea346fba23ddd5a793","0","2025-07-30T08:55:09.770Z","","","","AttribQ","","","","","","","","","","","50","","","","","","","","","","","","","","","","","","","","","","","","","","",""
"3682","","<div style=""width:500px;"">
  <p>How much control did you have over the ball?</p>
  </div>","98","html-slider-response","50","844271","0.0-7.0-2.7","34","1","2025-07-30 08:41:19","36c45c0696341be0efffe67d72a12abb","213.137.81.202","Mozilla/5.0 (Windows NT 10.0; Win64; x64) AppleWebKit/537.36 (KHTML, like Gecko) Chrome/137.0.0.0 Safari/537.36","WebKit","Chrome","137.0.0.0","Windows","10.0","https://app.prolific.com/","en-GB,en;q=0.9","672f51ea346fba23ddd5a793","687a19d2168e237449fb8af4","6889d9dc3b91135c2f3989f4","0","672f51ea346fba23ddd5a793","0","2025-07-30T08:55:13.456Z","","","","ControlQ","","","","","","","","","","","50","","","","","","","","","","","","","","","","","","","","","","","","","","",""
"5564","","<div style=""width:500px;"">
  <p>How would you describe your current emotional state?</p>
  </div>","0","html-slider-response","51","849838","0.0-7.0-3.7","34","1","2025-07-30 08:41:19","36c45c0696341be0efffe67d72a12abb","213.137.81.202","Mozilla/5.0 (Windows NT 10.0; Win64; x64) AppleWebKit/537.36 (KHTML, like Gecko) Chrome/137.0.0.0 Safari/537.36","WebKit","Chrome","137.0.0.0","Windows","10.0","https://app.prolific.com/","en-GB,en;q=0.9","672f51ea346fba23ddd5a793","687a19d2168e237449fb8af4","6889d9dc3b91135c2f3989f4","0","672f51ea346fba23ddd5a793","0","2025-07-30T08:55:19.023Z","","","","StressQ","","","","","","","","","","","50","","","","","","","","","","","","","","","","","","","","","","","","","","",""
"3990","","<div style=""width:500px;"">
  <p>What best describes how you currently feel?</p>
  </div>","98","html-slider-response","52","853831","0.0-7.0-4.7","34","1","2025-07-30 08:41:19","36c45c0696341be0efffe67d72a12abb","213.137.81.202","Mozilla/5.0 (Windows NT 10.0; Win64; x64) AppleWebKit/537.36 (KHTML, like Gecko) Chrome/137.0.0.0 Safari/537.36","WebKit","Chrome","137.0.0.0","Windows","10.0","https://app.prolific.com/","en-GB,en;q=0.9","672f51ea346fba23ddd5a793","687a19d2168e237449fb8af4","6889d9dc3b91135c2f3989f4","0","672f51ea346fba23ddd5a793","0","2025-07-30T08:55:23.016Z","","","","MotivationQ","","","","","","","","","","","50","","","","","","","","","","","","","","","","","","","","","","","","","","",""
"","","","","ctl-task-cpt","53","903285","0.0-7.0-0.8","34","1","2025-07-30 08:41:19","36c45c0696341be0efffe67d72a12abb","213.137.81.202","Mozilla/5.0 (Windows NT 10.0; Win64; x64) AppleWebKit/537.36 (KHTML, like Gecko) Chrome/137.0.0.0 Safari/537.36","WebKit","Chrome","137.0.0.0","Windows","10.0","https://app.prolific.com/","en-GB,en;q=0.9","672f51ea346fba23ddd5a793","687a19d2168e237449fb8af4","6889d9dc3b91135c2f3989f4","0","672f51ea346fba23ddd5a793","0","2025-07-30T08:56:12.470Z","","","","","","","","","","","","","","","","win-only","1","g1:NE,g2:SW","0.4","9","0","868411.2","1894.3","6909.2","46433.1","1","4","4","6","1","-1","-1","0","1","0","1315.2","3000","-1745","[""up"",""right""]","{""num_key_presses"":10,""num_perfect"":4,""num_errors"":0,""num_randdir"":6,""num_randdir_good_moves"":2,""num_whilered"":0,""num_whileblue"":0,""num_blue"":2,""num_good_moves"":6}","[417.57142857142856,417.47767857142856,0.3,417.57142857142856,417.47767857142856,100.3,417.57142857142856,417.47767857142856,201.5,417.57142857142856,417.47767857142856,312,417.57142857142856,417.47767857142856,430.7,417.57142857142856,417.47767857142856,531.3,417.57142857142856,417.47767857142856,635.6,417.57142857142856,417.47767857142856,742.9,417.57142857142856,417.47767857142856,843.3,417.57142857142856,417.47767857142856,945.9,417.57142857142856,417.47767857142856,1059.6,417.57142857142856,417.47767857142856,1165.4,417.57142857142856,417.47767857142856,1270,760.5714285714286,102.47767857142857,1377.6,760.5714285714286,102.47767857142857,1486.3,760.5714285714286,102.47767857142857,1593,760.5714285714286,102.47767857142857,1705.9,760.5714285714286,102.47767857142857,1807,760.5714285714286,102.47767857142857,1912.2,760.5714285714286,102.47767857142857,2022.6,760.5714285714286,102.47767857142857,2124.1,760.5714285714286,102.47767857142857,2294.4,760.5714285714286,102.47767857142857,2398,760.5714285714286,102.47767857142857,2501.6,760.5714285714286,102.47767857142857,2604.4,760.5714285714286,102.47767857142857,2705.3,760.5714285714286,102.47767857142857,2806.5,760.5714285714286,102.47767857142857,2911.7,760.5714285714286,102.47767857142857,3014.6,760.5714285714286,102.47767857142857,3120.8,760.5714285714286,102.47767857142857,3221.5,760.5714285714286,102.47767857142857,3340.9,760.5714285714286,102.47767857142857,3445.9,760.5714285714286,102.47767857142857,3562.4,760.5714285714286,102.47767857142857,3672.1,760.5714285714286,102.47767857142857,3780,760.5714285714286,102.47767857142857,3882.2,760.5714285714286,102.47767857142857,3985.8,760.5714285714286,102.47767857142857,4187.4,760.5714285714286,102.47767857142857,4287.9,760.5714285714286,102.47767857142857,4401.8,760.5714285714286,102.47767857142857,4502.4,760.5714285714286,102.47767857142857,4610.9,760.5714285714286,102.47767857142857,4711.7,760.5714285714286,102.47767857142857,4812,760.5714285714286,102.47767857142857,4917.5]","[1547.6,1547.6,1000,0,547.6,""oops"",""up"",""down"",""bad_move"",4552,3003.8,2538.4,1548.2,465.4,""oops"",""right"",""right"",""good_move"",8061.2,3508.5,2851.2,4552.7,657.3,""smooth"",""right"",""right"",""good_move"",14997.3,6935.6,2827.6,11690.7,479.1,""smooth"",""up"",""up"",""good_move"",18808.9,3811,3221.7,14998,589.2,""oops"",""up"",""down"",""bad_move"",22061.3,3251.8,2579.9,18809.5,671.9,""smooth"",""up"",""up"",""good_move"",24903,2841.2,2287.7,22061.8,553.6,""oops"",""up"",""up"",""good_move"",27941.5,3037.9,2540.9,24903.6,497,""oops"",""up"",""down"",""bad_move"",30615.8,2673.8,2149.6,27942,524.2,""smooth"",""up"",""up"",""good_move"",36827.5,6211.3,2245.2,34176.2,406.1,""oops"",""up"",""down"",""bad_move""]"
"5144","","<div style=""width:500px;"">
  <p>What determined the result of this run?</p>
  </div>","7","html-slider-response","54","908431","0.0-7.0-1.8","34","1","2025-07-30 08:41:19","36c45c0696341be0efffe67d72a12abb","213.137.81.202","Mozilla/5.0 (Windows NT 10.0; Win64; x64) AppleWebKit/537.36 (KHTML, like Gecko) Chrome/137.0.0.0 Safari/537.36","WebKit","Chrome","137.0.0.0","Windows","10.0","https://app.prolific.com/","en-GB,en;q=0.9","672f51ea346fba23ddd5a793","687a19d2168e237449fb8af4","6889d9dc3b91135c2f3989f4","0","672f51ea346fba23ddd5a793","0","2025-07-30T08:56:17.617Z","","","","AttribQ","","","","","","","","","","","50","","","","","","","","","","","","","","","","","","","","","","","","","","",""
"6160","","<div style=""width:500px;"">
  <p>How much control did you have over the ball?</p>
  </div>","26","html-slider-response","55","914593","0.0-7.0-2.8","34","1","2025-07-30 08:41:19","36c45c0696341be0efffe67d72a12abb","213.137.81.202","Mozilla/5.0 (Windows NT 10.0; Win64; x64) AppleWebKit/537.36 (KHTML, like Gecko) Chrome/137.0.0.0 Safari/537.36","WebKit","Chrome","137.0.0.0","Windows","10.0","https://app.prolific.com/","en-GB,en;q=0.9","672f51ea346fba23ddd5a793","687a19d2168e237449fb8af4","6889d9dc3b91135c2f3989f4","0","672f51ea346fba23ddd5a793","0","2025-07-30T08:56:23.779Z","","","","ControlQ","","","","","","","","","","","50","","","","","","","","","","","","","","","","","","","","","","","","","","",""
"5279","","<div style=""width:500px;"">
  <p>How would you describe your current emotional state?</p>
  </div>","23","html-slider-response","56","919876","0.0-7.0-3.8","34","1","2025-07-30 08:41:19","36c45c0696341be0efffe67d72a12abb","213.137.81.202","Mozilla/5.0 (Windows NT 10.0; Win64; x64) AppleWebKit/537.36 (KHTML, like Gecko) Chrome/137.0.0.0 Safari/537.36","WebKit","Chrome","137.0.0.0","Windows","10.0","https://app.prolific.com/","en-GB,en;q=0.9","672f51ea346fba23ddd5a793","687a19d2168e237449fb8af4","6889d9dc3b91135c2f3989f4","0","672f51ea346fba23ddd5a793","0","2025-07-30T08:56:29.062Z","","","","StressQ","","","","","","","","","","","50","","","","","","","","","","","","","","","","","","","","","","","","","","",""
"4674","","<div style=""width:500px;"">
  <p>What best describes how you currently feel?</p>
  </div>","100","html-slider-response","57","924555","0.0-7.0-4.8","34","1","2025-07-30 08:41:19","36c45c0696341be0efffe67d72a12abb","213.137.81.202","Mozilla/5.0 (Windows NT 10.0; Win64; x64) AppleWebKit/537.36 (KHTML, like Gecko) Chrome/137.0.0.0 Safari/537.36","WebKit","Chrome","137.0.0.0","Windows","10.0","https://app.prolific.com/","en-GB,en;q=0.9","672f51ea346fba23ddd5a793","687a19d2168e237449fb8af4","6889d9dc3b91135c2f3989f4","0","672f51ea346fba23ddd5a793","0","2025-07-30T08:56:33.740Z","","","","MotivationQ","","","","","","","","","","","50","","","","","","","","","","","","","","","","","","","","","","","","","","",""
"","","","","ctl-task-cpt","58","950976","0.0-7.0-0.9","34","1","2025-07-30 08:41:19","36c45c0696341be0efffe67d72a12abb","213.137.81.202","Mozilla/5.0 (Windows NT 10.0; Win64; x64) AppleWebKit/537.36 (KHTML, like Gecko) Chrome/137.0.0.0 Safari/537.36","WebKit","Chrome","137.0.0.0","Windows","10.0","https://app.prolific.com/","en-GB,en;q=0.9","672f51ea346fba23ddd5a793","687a19d2168e237449fb8af4","6889d9dc3b91135c2f3989f4","0","672f51ea346fba23ddd5a793","0","2025-07-30T08:57:00.161Z","","","","","","","","","","","","","","","","win-only","0","g1:NW,g2:SE","0.5","10","0","939137.1","4968.6","9990.7","23403.5","1","4","8","6","1","1","1","1","0","0.007575757575757576","1314.4","3000","1765","[""left"",""up""]","{""num_key_presses"":4,""num_perfect"":3,""num_errors"":0,""num_randdir"":1,""num_randdir_good_moves"":1,""num_whilered"":0,""num_whileblue"":0,""num_blue"":1,""num_good_moves"":4}","[418.57142857142856,420.47767857142856,0.7,418.57142857142856,420.47767857142856,102,418.57142857142856,420.47767857142856,206.5,418.57142857142856,420.47767857142856,315.3,418.57142857142856,420.47767857142856,417.4,418.57142857142856,420.47767857142856,524.2,418.57142857142856,420.47767857142856,626.6,418.57142857142856,420.47767857142856,749.4,418.57142857142856,420.47767857142856,980.6,418.57142857142856,420.47767857142856,1088.9,418.57142857142856,420.47767857142856,1210.2,36.57142857142857,106.47767857142857,1321.5,36.57142857142857,106.47767857142857,1422.7,36.57142857142857,106.47767857142857,1526.2,36.57142857142857,106.47767857142857,1678.8,36.57142857142857,106.47767857142857,1784.8,36.57142857142857,106.47767857142857,1919,36.57142857142857,106.47767857142857,2024.9,36.57142857142857,106.47767857142857,2128.8,36.57142857142857,106.47767857142857,2230.4,36.57142857142857,106.47767857142857,2331.2,36.57142857142857,106.47767857142857,2432.6,36.57142857142857,106.47767857142857,2534.5,36.57142857142857,106.47767857142857,2635.5,36.57142857142857,106.47767857142857,2738.7,36.57142857142857,106.47767857142857,2839.7,36.57142857142857,106.47767857142857,2942.1,36.57142857142857,106.47767857142857,3046.1,36.57142857142857,106.47767857142857,3152.7,36.57142857142857,106.47767857142857,3260.2,36.57142857142857,106.47767857142857,3360.6,36.57142857142857,106.47767857142857,3462.9,36.57142857142857,106.47767857142857,3570,36.57142857142857,106.47767857142857,3674,36.57142857142857,106.47767857142857,3782.2,36.57142857142857,106.47767857142857,3887.8,36.57142857142857,106.47767857142857,3989.5,36.57142857142857,106.47767857142857,4092.9,36.57142857142857,106.47767857142857,4193.6,36.57142857142857,106.47767857142857,4297.5,36.57142857142857,106.47767857142857,4419.5,36.57142857142857,106.47767857142857,4524.4,36.57142857142857,106.47767857142857,4625,36.57142857142857,106.47767857142857,4741.8,36.57142857142857,106.47767857142857,4842.8,36.57142857142857,106.47767857142857,4947.3]","[4865.5,4865.5,2384.6,2012.8,468.1,""smooth"",""up"",""up"",""good_move"",8018.3,3152.2,2190.9,4866.1,961.3,""oops"",""up"",""up"",""good_move"",10934,2914.8,2392.3,8019.2,522.5,""smooth"",""left"",""left"",""good_move"",13228.9,2294,1674.8,10934.9,619.3,""smooth"",""left"",""left"",""good_move""]"
"4516","","<div style=""width:500px;"">
  <p>What determined the result of this run?</p>
  </div>","100","html-slider-response","59","955496","0.0-7.0-1.9","34","1","2025-07-30 08:41:19","36c45c0696341be0efffe67d72a12abb","213.137.81.202","Mozilla/5.0 (Windows NT 10.0; Win64; x64) AppleWebKit/537.36 (KHTML, like Gecko) Chrome/137.0.0.0 Safari/537.36","WebKit","Chrome","137.0.0.0","Windows","10.0","https://app.prolific.com/","en-GB,en;q=0.9","672f51ea346fba23ddd5a793","687a19d2168e237449fb8af4","6889d9dc3b91135c2f3989f4","0","672f51ea346fba23ddd5a793","0","2025-07-30T08:57:04.681Z","","","","AttribQ","","","","","","","","","","","50","","","","","","","","","","","","","","","","","","","","","","","","","","",""
"4879","","<div style=""width:500px;"">
  <p>How much control did you have over the ball?</p>
  </div>","100","html-slider-response","60","960377","0.0-7.0-2.9","34","1","2025-07-30 08:41:19","36c45c0696341be0efffe67d72a12abb","213.137.81.202","Mozilla/5.0 (Windows NT 10.0; Win64; x64) AppleWebKit/537.36 (KHTML, like Gecko) Chrome/137.0.0.0 Safari/537.36","WebKit","Chrome","137.0.0.0","Windows","10.0","https://app.prolific.com/","en-GB,en;q=0.9","672f51ea346fba23ddd5a793","687a19d2168e237449fb8af4","6889d9dc3b91135c2f3989f4","0","672f51ea346fba23ddd5a793","0","2025-07-30T08:57:09.562Z","","","","ControlQ","","","","","","","","","","","50","","","","","","","","","","","","","","","","","","","","","","","","","","",""
"5944","","<div style=""width:500px;"">
  <p>How would you describe your current emotional state?</p>
  </div>","0","html-slider-response","61","966324","0.0-7.0-3.9","34","1","2025-07-30 08:41:19","36c45c0696341be0efffe67d72a12abb","213.137.81.202","Mozilla/5.0 (Windows NT 10.0; Win64; x64) AppleWebKit/537.36 (KHTML, like Gecko) Chrome/137.0.0.0 Safari/537.36","WebKit","Chrome","137.0.0.0","Windows","10.0","https://app.prolific.com/","en-GB,en;q=0.9","672f51ea346fba23ddd5a793","687a19d2168e237449fb8af4","6889d9dc3b91135c2f3989f4","0","672f51ea346fba23ddd5a793","0","2025-07-30T08:57:15.509Z","","","","StressQ","","","","","","","","","","","50","","","","","","","","","","","","","","","","","","","","","","","","","","",""
"7105","","<div style=""width:500px;"">
  <p>What best describes how you currently feel?</p>
  </div>","100","html-slider-response","62","973434","0.0-7.0-4.9","34","1","2025-07-30 08:41:19","36c45c0696341be0efffe67d72a12abb","213.137.81.202","Mozilla/5.0 (Windows NT 10.0; Win64; x64) AppleWebKit/537.36 (KHTML, like Gecko) Chrome/137.0.0.0 Safari/537.36","WebKit","Chrome","137.0.0.0","Windows","10.0","https://app.prolific.com/","en-GB,en;q=0.9","672f51ea346fba23ddd5a793","687a19d2168e237449fb8af4","6889d9dc3b91135c2f3989f4","0","672f51ea346fba23ddd5a793","0","2025-07-30T08:57:22.619Z","","","","MotivationQ","","","","","","","","","","","50","","","","","","","","","","","","","","","","","","","","","","","","","","",""
"","","","","ctl-task-cpt","63","1031774","0.0-7.0-0.10","34","1","2025-07-30 08:41:19","36c45c0696341be0efffe67d72a12abb","213.137.81.202","Mozilla/5.0 (Windows NT 10.0; Win64; x64) AppleWebKit/537.36 (KHTML, like Gecko) Chrome/137.0.0.0 Safari/537.36","WebKit","Chrome","137.0.0.0","Windows","10.0","https://app.prolific.com/","en-GB,en;q=0.9","672f51ea346fba23ddd5a793","687a19d2168e237449fb8af4","6889d9dc3b91135c2f3989f4","0","672f51ea346fba23ddd5a793","0","2025-07-30T08:58:20.959Z","","","","","","","","","","","","","","","","win-only","1","g1:NE,g2:SW","0.6","11","0","988015.2","5511.6","10516.3","55318.8","1","4","8","6","2","-8","-8","0","1","0","2530.3","3000","-1630","[""down"",""left""]","{""num_key_presses"":8,""num_perfect"":5,""num_errors"":0,""num_randdir"":3,""num_randdir_good_moves"":0,""num_whilered"":0,""num_whileblue"":0,""num_blue"":4,""num_good_moves"":4}","[414.57142857142856,411.47767857142856,0.4,414.57142857142856,411.47767857142856,104.6,414.57142857142856,411.47767857142856,210.5,414.57142857142856,411.47767857142856,324.9,414.57142857142856,411.47767857142856,446.3,414.57142857142856,411.47767857142856,552.4,414.57142857142856,411.47767857142856,665.2,414.57142857142856,411.47767857142856,769.9,414.57142857142856,411.47767857142856,963.8,414.57142857142856,411.47767857142856,1066,414.57142857142856,411.47767857142856,1167.7,414.57142857142856,411.47767857142856,1270.6,414.57142857142856,411.47767857142856,1383.1,414.57142857142856,411.47767857142856,1485.8,414.57142857142856,411.47767857142856,1592.5,414.57142857142856,411.47767857142856,1710.9,414.57142857142856,411.47767857142856,1830.8,414.57142857142856,411.47767857142856,1934.2,414.57142857142856,411.47767857142856,2035.1,414.57142857142856,411.47767857142856,2137,414.57142857142856,411.47767857142856,2239.7,414.57142857142856,411.47767857142856,2343.8,414.57142857142856,411.47767857142856,2516.9,79.57142857142857,776.4776785714286,2619.8,79.57142857142857,776.4776785714286,2720.1,79.57142857142857,776.4776785714286,2821.3,79.57142857142857,776.4776785714286,2933.2,79.57142857142857,776.4776785714286,3034.5,79.57142857142857,776.4776785714286,3134.8,79.57142857142857,776.4776785714286,3240.6,79.57142857142857,776.4776785714286,3344.5,79.57142857142857,776.4776785714286,3450.5,79.57142857142857,776.4776785714286,3552.4,79.57142857142857,776.4776785714286,3654.6,79.57142857142857,776.4776785714286,3755.2,79.57142857142857,776.4776785714286,3860.1,79.57142857142857,776.4776785714286,3961,79.57142857142857,776.4776785714286,4070.7,79.57142857142857,776.4776785714286,4183.6,79.57142857142857,776.4776785714286,4299.6,79.57142857142857,776.4776785714286,4407.3,79.57142857142857,776.4776785714286,4511.7,79.57142857142857,776.4776785714286,4614.1,79.57142857142857,776.4776785714286,4714.4,79.57142857142857,776.4776785714286,4816.9,79.57142857142857,776.4776785714286,4917]","[1554.2,1554.3,1000,0,554.3,""oops"",""down"",""up"",""bad_move"",6000.3,4445.5,3865.1,1554.9,580.3,""smooth"",""down"",""down"",""good_move"",9411.7,3410.9,2595.2,6000.8,815.7,""oops"",""down"",""up"",""bad_move"",16473.5,7061.4,2834.8,13065.1,573.6,""smooth"",""down"",""down"",""good_move"",19772.6,3298.8,2776.3,16473.8,522.5,""smooth"",""left"",""left"",""good_move"",26654.7,6881.5,2591.8,23587.4,475.5,""oops"",""left"",""up"",""bad_move"",33198.7,6543.4,2763.3,29831.6,603.8,""smooth"",""right"",""right"",""bad_move"",36341.5,3142.3,2573,33199.2,569.3,""smooth"",""down"",""down"",""good_move""]"
"4429","","<div style=""width:500px;"">
  <p>What determined the result of this run?</p>
  </div>","6","html-slider-response","64","1036206","0.0-7.0-1.10","34","1","2025-07-30 08:41:19","36c45c0696341be0efffe67d72a12abb","213.137.81.202","Mozilla/5.0 (Windows NT 10.0; Win64; x64) AppleWebKit/537.36 (KHTML, like Gecko) Chrome/137.0.0.0 Safari/537.36","WebKit","Chrome","137.0.0.0","Windows","10.0","https://app.prolific.com/","en-GB,en;q=0.9","672f51ea346fba23ddd5a793","687a19d2168e237449fb8af4","6889d9dc3b91135c2f3989f4","0","672f51ea346fba23ddd5a793","0","2025-07-30T08:58:25.391Z","","","","AttribQ","","","","","","","","","","","50","","","","","","","","","","","","","","","","","","","","","","","","","","",""
"6012","","<div style=""width:500px;"">
  <p>How much control did you have over the ball?</p>
  </div>","11","html-slider-response","65","1042223","0.0-7.0-2.10","34","1","2025-07-30 08:41:19","36c45c0696341be0efffe67d72a12abb","213.137.81.202","Mozilla/5.0 (Windows NT 10.0; Win64; x64) AppleWebKit/537.36 (KHTML, like Gecko) Chrome/137.0.0.0 Safari/537.36","WebKit","Chrome","137.0.0.0","Windows","10.0","https://app.prolific.com/","en-GB,en;q=0.9","672f51ea346fba23ddd5a793","687a19d2168e237449fb8af4","6889d9dc3b91135c2f3989f4","0","672f51ea346fba23ddd5a793","0","2025-07-30T08:58:31.408Z","","","","ControlQ","","","","","","","","","","","50","","","","","","","","","","","","","","","","","","","","","","","","","","",""
"7111","","<div style=""width:500px;"">
  <p>How would you describe your current emotional state?</p>
  </div>","9","html-slider-response","66","1049338","0.0-7.0-3.10","34","1","2025-07-30 08:41:19","36c45c0696341be0efffe67d72a12abb","213.137.81.202","Mozilla/5.0 (Windows NT 10.0; Win64; x64) AppleWebKit/537.36 (KHTML, like Gecko) Chrome/137.0.0.0 Safari/537.36","WebKit","Chrome","137.0.0.0","Windows","10.0","https://app.prolific.com/","en-GB,en;q=0.9","672f51ea346fba23ddd5a793","687a19d2168e237449fb8af4","6889d9dc3b91135c2f3989f4","0","672f51ea346fba23ddd5a793","0","2025-07-30T08:58:38.523Z","","","","StressQ","","","","","","","","","","","50","","","","","","","","","","","","","","","","","","","","","","","","","","",""
"5228","","<div style=""width:500px;"">
  <p>What best describes how you currently feel?</p>
  </div>","100","html-slider-response","67","1054570","0.0-7.0-4.10","34","1","2025-07-30 08:41:19","36c45c0696341be0efffe67d72a12abb","213.137.81.202","Mozilla/5.0 (Windows NT 10.0; Win64; x64) AppleWebKit/537.36 (KHTML, like Gecko) Chrome/137.0.0.0 Safari/537.36","WebKit","Chrome","137.0.0.0","Windows","10.0","https://app.prolific.com/","en-GB,en;q=0.9","672f51ea346fba23ddd5a793","687a19d2168e237449fb8af4","6889d9dc3b91135c2f3989f4","0","672f51ea346fba23ddd5a793","0","2025-07-30T08:58:43.755Z","","","","MotivationQ","","","","","","","","","","","50","","","","","","","","","","","","","","","","","","","","","","","","","","",""
"","","","","ctl-task-cpt","68","1100630","0.0-7.0-0.11","34","1","2025-07-30 08:41:19","36c45c0696341be0efffe67d72a12abb","213.137.81.202","Mozilla/5.0 (Windows NT 10.0; Win64; x64) AppleWebKit/537.36 (KHTML, like Gecko) Chrome/137.0.0.0 Safari/537.36","WebKit","Chrome","137.0.0.0","Windows","10.0","https://app.prolific.com/","en-GB,en;q=0.9","672f51ea346fba23ddd5a793","687a19d2168e237449fb8af4","6889d9dc3b91135c2f3989f4","0","672f51ea346fba23ddd5a793","0","2025-07-30T08:59:29.815Z","","","","","","","","","","","","","","","","win-only","0","g1:NW,g2:SE","0.7","12","0","1069151","4572","9581","43037.8","1","4","4","6","1","1","1","1","0","0.007575757575757576","2039.2","3000","1045","[""left"",""up""]","{""num_key_presses"":8,""num_perfect"":6,""num_errors"":0,""num_randdir"":2,""num_randdir_good_moves"":0,""num_whilered"":0,""num_whileblue"":0,""num_blue"":3,""num_good_moves"":6}","[415.57142857142856,415.47767857142856,0.2,415.57142857142856,415.47767857142856,118.7,415.57142857142856,415.47767857142856,223.4,415.57142857142856,415.47767857142856,325,415.57142857142856,415.47767857142856,446.7,415.57142857142856,415.47767857142856,551.7,415.57142857142856,415.47767857142856,656.2,415.57142857142856,415.47767857142856,786.4,415.57142857142856,415.47767857142856,889.6,415.57142857142856,415.47767857142856,998.7,415.57142857142856,415.47767857142856,1100.5,415.57142857142856,415.47767857142856,1210,415.57142857142856,415.47767857142856,1315.5,415.57142857142856,415.47767857142856,1415.6,415.57142857142856,415.47767857142856,1518.9,415.57142857142856,415.47767857142856,1780,415.57142857142856,415.47767857142856,1881.7,121.57142857142857,98.47767857142857,2054.1,121.57142857142857,98.47767857142857,2172.5,121.57142857142857,98.47767857142857,2274.7,121.57142857142857,98.47767857142857,2376.4,121.57142857142857,98.47767857142857,2521.1,121.57142857142857,98.47767857142857,2622.2,121.57142857142857,98.47767857142857,2753.5,121.57142857142857,98.47767857142857,2865.1,121.57142857142857,98.47767857142857,2976.9,121.57142857142857,98.47767857142857,3090.4,121.57142857142857,98.47767857142857,3208.1,121.57142857142857,98.47767857142857,3317.6,121.57142857142857,98.47767857142857,3449,121.57142857142857,98.47767857142857,3556.1,121.57142857142857,98.47767857142857,3661.2,121.57142857142857,98.47767857142857,3780.1,121.57142857142857,98.47767857142857,3885,121.57142857142857,98.47767857142857,3990.3,121.57142857142857,98.47767857142857,4097.7,121.57142857142857,98.47767857142857,4221.4,121.57142857142857,98.47767857142857,4332.7,121.57142857142857,98.47767857142857,4439.8,121.57142857142857,98.47767857142857,4549.6,121.57142857142857,98.47767857142857,4650.6,121.57142857142857,98.47767857142857,4757.1,121.57142857142857,98.47767857142857,4858.2,121.57142857142857,98.47767857142857,4962.4]","[1800.8,1800.8,1000,0,800.8,""smooth"",""up"",""up"",""good_move"",8970.4,7169.3,2419,6030.3,521.1,""smooth"",""up"",""up"",""good_move"",12271.2,3300.6,2687.9,8970.6,612.7,""smooth"",""left"",""left"",""good_move"",14930.5,2658.6,2125.1,12271.9,533.5,""oops"",""left"",""down"",""bad_move"",18042.7,3111.9,2578.2,14930.8,533.7,""oops"",""left"",""right"",""bad_move"",20995.1,2951.8,2535.7,18043.4,416,""smooth"",""up"",""up"",""good_move"",30244.7,9249,3095.4,26720,429.3,""smooth"",""left"",""left"",""good_move"",33259.6,3014.6,2486.9,30245,527.7,""smooth"",""left"",""left"",""good_move""]"
"5378","","<div style=""width:500px;"">
  <p>What determined the result of this run?</p>
  </div>","77","html-slider-response","69","1106010","0.0-7.0-1.11","34","1","2025-07-30 08:41:19","36c45c0696341be0efffe67d72a12abb","213.137.81.202","Mozilla/5.0 (Windows NT 10.0; Win64; x64) AppleWebKit/537.36 (KHTML, like Gecko) Chrome/137.0.0.0 Safari/537.36","WebKit","Chrome","137.0.0.0","Windows","10.0","https://app.prolific.com/","en-GB,en;q=0.9","672f51ea346fba23ddd5a793","687a19d2168e237449fb8af4","6889d9dc3b91135c2f3989f4","0","672f51ea346fba23ddd5a793","0","2025-07-30T08:59:35.195Z","","","","AttribQ","","","","","","","","","","","50","","","","","","","","","","","","","","","","","","","","","","","","","","",""
"4130","","<div style=""width:500px;"">
  <p>How much control did you have over the ball?</p>
  </div>","78","html-slider-response","70","1110143","0.0-7.0-2.11","34","1","2025-07-30 08:41:19","36c45c0696341be0efffe67d72a12abb","213.137.81.202","Mozilla/5.0 (Windows NT 10.0; Win64; x64) AppleWebKit/537.36 (KHTML, like Gecko) Chrome/137.0.0.0 Safari/537.36","WebKit","Chrome","137.0.0.0","Windows","10.0","https://app.prolific.com/","en-GB,en;q=0.9","672f51ea346fba23ddd5a793","687a19d2168e237449fb8af4","6889d9dc3b91135c2f3989f4","0","672f51ea346fba23ddd5a793","0","2025-07-30T08:59:39.329Z","","","","ControlQ","","","","","","","","","","","50","","","","","","","","","","","","","","","","","","","","","","","","","","",""
"5999","","<div style=""width:500px;"">
  <p>How would you describe your current emotional state?</p>
  </div>","16","html-slider-response","71","1116145","0.0-7.0-3.11","34","1","2025-07-30 08:41:19","36c45c0696341be0efffe67d72a12abb","213.137.81.202","Mozilla/5.0 (Windows NT 10.0; Win64; x64) AppleWebKit/537.36 (KHTML, like Gecko) Chrome/137.0.0.0 Safari/537.36","WebKit","Chrome","137.0.0.0","Windows","10.0","https://app.prolific.com/","en-GB,en;q=0.9","672f51ea346fba23ddd5a793","687a19d2168e237449fb8af4","6889d9dc3b91135c2f3989f4","0","672f51ea346fba23ddd5a793","0","2025-07-30T08:59:45.330Z","","","","StressQ","","","","","","","","","","","50","","","","","","","","","","","","","","","","","","","","","","","","","","",""
"3713","","<div style=""width:500px;"">
  <p>What best describes how you currently feel?</p>
  </div>","100","html-slider-response","72","1119860","0.0-7.0-4.11","34","1","2025-07-30 08:41:19","36c45c0696341be0efffe67d72a12abb","213.137.81.202","Mozilla/5.0 (Windows NT 10.0; Win64; x64) AppleWebKit/537.36 (KHTML, like Gecko) Chrome/137.0.0.0 Safari/537.36","WebKit","Chrome","137.0.0.0","Windows","10.0","https://app.prolific.com/","en-GB,en;q=0.9","672f51ea346fba23ddd5a793","687a19d2168e237449fb8af4","6889d9dc3b91135c2f3989f4","0","672f51ea346fba23ddd5a793","0","2025-07-30T08:59:49.045Z","","","","MotivationQ","","","","","","","","","","","50","","","","","","","","","","","","","","","","","","","","","","","","","","",""
"","","","","ctl-task-cpt","73","1155574","0.0-7.0-0.12","34","1","2025-07-30 08:41:19","36c45c0696341be0efffe67d72a12abb","213.137.81.202","Mozilla/5.0 (Windows NT 10.0; Win64; x64) AppleWebKit/537.36 (KHTML, like Gecko) Chrome/137.0.0.0 Safari/537.36","WebKit","Chrome","137.0.0.0","Windows","10.0","https://app.prolific.com/","en-GB,en;q=0.9","672f51ea346fba23ddd5a793","687a19d2168e237449fb8af4","6889d9dc3b91135c2f3989f4","0","672f51ea346fba23ddd5a793","0","2025-07-30T09:00:24.759Z","","","","","","","","","","","","","","","","win-only","3","g1:SW,g2:NE","0.8","13","0","1134440.1","1760.9","6765.4","32695.9","1","4","8","6","1","1","1","2","1","0.015151515151515152","1428","3000","1260","[""down"",""left""]","{""num_key_presses"":6,""num_perfect"":5,""num_errors"":0,""num_randdir"":1,""num_randdir_good_moves"":0,""num_whilered"":0,""num_whileblue"":0,""num_blue"":2,""num_good_moves"":5}","[411.57142857142856,411.47767857142856,0.3,411.57142857142856,411.47767857142856,109,411.57142857142856,411.47767857142856,219.6,411.57142857142856,411.47767857142856,351.3,411.57142857142856,411.47767857142856,452.3,411.57142857142856,411.47767857142856,552.4,411.57142857142856,411.47767857142856,684.8,411.57142857142856,411.47767857142856,803.4,411.57142857142856,411.47767857142856,906.5,411.57142857142856,411.47767857142856,1009.4,411.57142857142856,411.47767857142856,1113.7,411.57142857142856,411.47767857142856,1219,411.57142857142856,411.47767857142856,1320.1,103.57142857142857,753.4776785714286,1433.7,103.57142857142857,753.4776785714286,1540.9,103.57142857142857,753.4776785714286,1644.8,103.57142857142857,753.4776785714286,1751.8,103.57142857142857,753.4776785714286,1862.3,103.57142857142857,753.4776785714286,1965.8,103.57142857142857,753.4776785714286,2068.8,103.57142857142857,753.4776785714286,2178.3,103.57142857142857,753.4776785714286,2288.9,103.57142857142857,753.4776785714286,2401.8,103.57142857142857,753.4776785714286,2504.2,103.57142857142857,753.4776785714286,2615.2,103.57142857142857,753.4776785714286,2715.8,103.57142857142857,753.4776785714286,2816,103.57142857142857,753.4776785714286,2940.1,103.57142857142857,753.4776785714286,3041.7,103.57142857142857,753.4776785714286,3148,103.57142857142857,753.4776785714286,3263,103.57142857142857,753.4776785714286,3376.8,103.57142857142857,753.4776785714286,3483.5,103.57142857142857,753.4776785714286,3587.3,103.57142857142857,753.4776785714286,3688.7,103.57142857142857,753.4776785714286,3792.2,103.57142857142857,753.4776785714286,3919.5,103.57142857142857,753.4776785714286,4033,103.57142857142857,753.4776785714286,4136.6,103.57142857142857,753.4776785714286,4238.8,103.57142857142857,753.4776785714286,4573,103.57142857142857,753.4776785714286,4675.3,103.57142857142857,753.4776785714286,4775.7,103.57142857142857,753.4776785714286,4880.6,103.57142857142857,753.4776785714286,4982.6]","[1601.9,1601.9,1000,0,601.9,""oops"",""down"",""right"",""bad_move"",5106.7,3504.4,2855.8,1602.4,648.5,""smooth"",""down"",""down"",""good_move"",7840.7,2733.7,2020.5,5107,713.2,""smooth"",""down"",""down"",""good_move"",11072,3231,2440.6,7841.1,790.3,""smooth"",""left"",""left"",""good_move"",14023.2,2950.7,2355.6,11072.5,595.1,""smooth"",""left"",""left"",""good_move"",25789.2,11765.5,2779.3,22536.6,473.3,""smooth"",""left"",""left"",""good_move""]"
"4896","","<div style=""width:500px;"">
  <p>What determined the result of this run?</p>
  </div>","77","html-slider-response","74","1160471","0.0-7.0-1.12","34","1","2025-07-30 08:41:19","36c45c0696341be0efffe67d72a12abb","213.137.81.202","Mozilla/5.0 (Windows NT 10.0; Win64; x64) AppleWebKit/537.36 (KHTML, like Gecko) Chrome/137.0.0.0 Safari/537.36","WebKit","Chrome","137.0.0.0","Windows","10.0","https://app.prolific.com/","en-GB,en;q=0.9","672f51ea346fba23ddd5a793","687a19d2168e237449fb8af4","6889d9dc3b91135c2f3989f4","0","672f51ea346fba23ddd5a793","0","2025-07-30T09:00:29.656Z","","","","AttribQ","","","","","","","","","","","50","","","","","","","","","","","","","","","","","","","","","","","","","","",""
"4108","","<div style=""width:500px;"">
  <p>How much control did you have over the ball?</p>
  </div>","78","html-slider-response","75","1164582","0.0-7.0-2.12","34","1","2025-07-30 08:41:19","36c45c0696341be0efffe67d72a12abb","213.137.81.202","Mozilla/5.0 (Windows NT 10.0; Win64; x64) AppleWebKit/537.36 (KHTML, like Gecko) Chrome/137.0.0.0 Safari/537.36","WebKit","Chrome","137.0.0.0","Windows","10.0","https://app.prolific.com/","en-GB,en;q=0.9","672f51ea346fba23ddd5a793","687a19d2168e237449fb8af4","6889d9dc3b91135c2f3989f4","0","672f51ea346fba23ddd5a793","0","2025-07-30T09:00:33.767Z","","","","ControlQ","","","","","","","","","","","50","","","","","","","","","","","","","","","","","","","","","","","","","","",""
"7683","","<div style=""width:500px;"">
  <p>How would you describe your current emotional state?</p>
  </div>","10","html-slider-response","76","1172267","0.0-7.0-3.12","34","1","2025-07-30 08:41:19","36c45c0696341be0efffe67d72a12abb","213.137.81.202","Mozilla/5.0 (Windows NT 10.0; Win64; x64) AppleWebKit/537.36 (KHTML, like Gecko) Chrome/137.0.0.0 Safari/537.36","WebKit","Chrome","137.0.0.0","Windows","10.0","https://app.prolific.com/","en-GB,en;q=0.9","672f51ea346fba23ddd5a793","687a19d2168e237449fb8af4","6889d9dc3b91135c2f3989f4","0","672f51ea346fba23ddd5a793","0","2025-07-30T09:00:41.452Z","","","","StressQ","","","","","","","","","","","50","","","","","","","","","","","","","","","","","","","","","","","","","","",""
"6607","","<div style=""width:500px;"">
  <p>What best describes how you currently feel?</p>
  </div>","96","html-slider-response","77","1178877","0.0-7.0-4.12","34","1","2025-07-30 08:41:19","36c45c0696341be0efffe67d72a12abb","213.137.81.202","Mozilla/5.0 (Windows NT 10.0; Win64; x64) AppleWebKit/537.36 (KHTML, like Gecko) Chrome/137.0.0.0 Safari/537.36","WebKit","Chrome","137.0.0.0","Windows","10.0","https://app.prolific.com/","en-GB,en;q=0.9","672f51ea346fba23ddd5a793","687a19d2168e237449fb8af4","6889d9dc3b91135c2f3989f4","0","672f51ea346fba23ddd5a793","0","2025-07-30T09:00:48.062Z","","","","MotivationQ","","","","","","","","","","","50","","","","","","","","","","","","","","","","","","","","","","","","","","",""
"","","","","ctl-task-cpt","78","1206679","0.0-7.0-0.13","34","1","2025-07-30 08:41:19","36c45c0696341be0efffe67d72a12abb","213.137.81.202","Mozilla/5.0 (Windows NT 10.0; Win64; x64) AppleWebKit/537.36 (KHTML, like Gecko) Chrome/137.0.0.0 Safari/537.36","WebKit","Chrome","137.0.0.0","Windows","10.0","https://app.prolific.com/","en-GB,en;q=0.9","672f51ea346fba23ddd5a793","687a19d2168e237449fb8af4","6889d9dc3b91135c2f3989f4","0","672f51ea346fba23ddd5a793","0","2025-07-30T09:01:15.864Z","","","","","","","","","","","","","","","","win-only","2","g1:SE,g2:NW","0.9","14","0","1193460.7","6125.8","11126.6","24766.4","1","4","4","6","1","1","1","3","2","0.022727272727272728","1858.9","3000","1870","[""down"",""right""]","{""num_key_presses"":4,""num_perfect"":4,""num_errors"":0,""num_randdir"":0,""num_randdir_good_moves"":0,""num_whilered"":0,""num_whileblue"":0,""num_blue"":1,""num_good_moves"":4}","[426.57142857142856,425.47767857142856,0.3,426.57142857142856,425.47767857142856,119.3,426.57142857142856,425.47767857142856,219.5,426.57142857142856,425.47767857142856,325.5,426.57142857142856,425.47767857142856,426.8,426.57142857142856,425.47767857142856,540.7,426.57142857142856,425.47767857142856,642.5,426.57142857142856,425.47767857142856,754.3,426.57142857142856,425.47767857142856,861.9,426.57142857142856,425.47767857142856,962.7,426.57142857142856,425.47767857142856,1248,426.57142857142856,425.47767857142856,1354.9,426.57142857142856,425.47767857142856,1464.8,426.57142857142856,425.47767857142856,1568,426.57142857142856,425.47767857142856,1786.5,766.5714285714286,785.4776785714286,1897.8,766.5714285714286,785.4776785714286,2001.3,766.5714285714286,785.4776785714286,2111.1,766.5714285714286,785.4776785714286,2224,766.5714285714286,785.4776785714286,2330.9,766.5714285714286,785.4776785714286,2436.5,766.5714285714286,785.4776785714286,2555.6,766.5714285714286,785.4776785714286,2656.7,766.5714285714286,785.4776785714286,2769.5,766.5714285714286,785.4776785714286,2871.5,766.5714285714286,785.4776785714286,2988.2,766.5714285714286,785.4776785714286,3097.5,766.5714285714286,785.4776785714286,3201,766.5714285714286,785.4776785714286,3302,766.5714285714286,785.4776785714286,3410,766.5714285714286,785.4776785714286,3515.3,766.5714285714286,785.4776785714286,3615.6,766.5714285714286,785.4776785714286,3718.5,766.5714285714286,785.4776785714286,3827,766.5714285714286,785.4776785714286,3932.5,766.5714285714286,785.4776785714286,4041.1,766.5714285714286,785.4776785714286,4144.2,766.5714285714286,785.4776785714286,4253.3,766.5714285714286,785.4776785714286,4361.6,766.5714285714286,785.4776785714286,4462.8,766.5714285714286,785.4776785714286,4588.6,766.5714285714286,785.4776785714286,4691.8,766.5714285714286,785.4776785714286,4800.3,766.5714285714286,785.4776785714286,4927.6]","[4815.2,4815.2,2326.9,2012,476.3,""smooth"",""down"",""down"",""good_move"",7927.3,3111.7,2207.5,4815.6,904.2,""smooth"",""down"",""down"",""good_move"",10874.4,2946.6,2472.9,7927.8,473.7,""smooth"",""right"",""right"",""good_move"",13443.2,2568.4,2035.7,10874.8,532.8,""smooth"",""right"",""right"",""good_move""]"
"4970","","<div style=""width:500px;"">
  <p>What determined the result of this run?</p>
