"rt","response_timestamp","stimulus","response","trial_type","trial_index","time_elapsed","internal_node_id","run_id","condition","recorded_at","source_code_version","ip","user_agent","device","browser","browser_version","platform","platform_version","referer","accept_language","PROLIFIC_PID","STUDY_ID","SESSION_ID","BATCH","prolific_id","batch","realtime","success","question_order","question_id","eventType","responses","item_order","radio_event_ids","radio_event_times","key_event_times","mouse_event_times","straightlining","zigzagging","honeypot","view_history","slider_start","which_type","canvas_config","goals_layout","control_level","trial_number","tutorial_trial_number","trial_start_time","phase1_start_time","phase2_start_time","phase3_start_time","goal_1_value","goal_1_distance","goal_2_value","goal_2_distance","goal_selected","outcome","outcome_total","participant_final_score","participant_initial_score","participant_final_score_prop","goal_choice_rt","allocated_time","allocated_time_remaining","goal_direction","counts","mouse_movements","key_presses"
"77606","1754512618457","<p style='font-size:40px;line-height:1.25'><strong>Welcome to the experiment!</strong></p><p style='font-size:1.1em;line-height:1.25'>Thank you for participanting in our experiment again! You will be asked to play the Dysfunctional Ball Game again. We will briefly recap the rules before we start.</p><p style='font-size:1.1em;line-height:1.25'>Press <strong>Next</strong> to continue.</p>","0","custom-html-button-response","0","77609","0.0-0.0","219","1","2025-08-06 20:35:37","36c45c0696341be0efffe67d72a12abb","216.120.189.45","Mozilla/5.0 (Windows NT 10.0; Win64; x64) AppleWebKit/537.36 (KHTML, like Gecko) Chrome/138.0.0.0 Safari/537.36","WebKit","Chrome","138.0.0.0","Windows","10.0","https://app.prolific.com/","en-US,en;q=0.9","673594215b1a0b92d5835525","6877649eabb845cf142cd221","6893bc8706036b0c0edde964","1","673594215b1a0b92d5835525","1","2025-08-06T20:36:58.458Z","","","","","","","","","","","","","","","","","","","","","","","","","","","","","","","","","","","","","","","","","",""
"1301","","","","fullscreen","1","79923","0.0-1.0","219","1","2025-08-06 20:35:37","36c45c0696341be0efffe67d72a12abb","216.120.189.45","Mozilla/5.0 (Windows NT 10.0; Win64; x64) AppleWebKit/537.36 (KHTML, like Gecko) Chrome/138.0.0.0 Safari/537.36","WebKit","Chrome","138.0.0.0","Windows","10.0","https://app.prolific.com/","en-US,en;q=0.9","673594215b1a0b92d5835525","6877649eabb845cf142cd221","6893bc8706036b0c0edde964","1","673594215b1a0b92d5835525","1","","true","","","","","","","","","","","","","","","","","","","","","","","","","","","","","","","","","","","","","","","","",""
"2482","1754512623257"," <p style='font-size:1.1em;line-height:1.25'>Thank you for closing all other tabs.</p><p style='font-size:1.1em;line-height:1.25'>We will now invite you to fill in some questionnaires, before starting the game.<br>This will take about 5 minutes.<br></p><p style='font-size:1.1em;line-height:1.25'>Press the <strong>Next</strong> button to continue.</p>","0","custom-html-button-response","2","82408","0.0-2.0","219","1","2025-08-06 20:35:37","36c45c0696341be0efffe67d72a12abb","216.120.189.45","Mozilla/5.0 (Windows NT 10.0; Win64; x64) AppleWebKit/537.36 (KHTML, like Gecko) Chrome/138.0.0.0 Safari/537.36","WebKit","Chrome","138.0.0.0","Windows","10.0","https://app.prolific.com/","en-US,en;q=0.9","673594215b1a0b92d5835525","6877649eabb845cf142cd221","6893bc8706036b0c0edde964","1","673594215b1a0b92d5835525","1","2025-08-06T20:37:03.257Z","","","","","","","","","","","","","","","","","","","","","","","","","","","","","","","","","","","","","","","","","",""
"62921","","","{""assigned_sex"":""female""}","survey-multi-choice","3","145332","0.0-3.0-0.0","219","1","2025-08-06 20:35:37","36c45c0696341be0efffe67d72a12abb","216.120.189.45","Mozilla/5.0 (Windows NT 10.0; Win64; x64) AppleWebKit/537.36 (KHTML, like Gecko) Chrome/138.0.0.0 Safari/537.36","WebKit","Chrome","138.0.0.0","Windows","10.0","https://app.prolific.com/","en-US,en;q=0.9","673594215b1a0b92d5835525","6877649eabb845cf142cd221","6893bc8706036b0c0edde964","1","673594215b1a0b92d5835525","1","","","[0]","0","demographics","","","","","","","","","","","","","","","","","","","","","","","","","","","","","","","","","","","","","",""
"5595","1754512691777","<p style='font-size:1.1em;line-height:1.25'>In the following, we will perform a baseline assessment. This means that we will ask you a few questions relating to your experiences over the past month.<br></p><p style='font-size:1.1em;line-height:1.25'>Press the <strong>Next</strong> button to continue.</p>","0","custom-html-button-response","4","150928","0.0-4.0-0.0","219","1","2025-08-06 20:35:37","36c45c0696341be0efffe67d72a12abb","216.120.189.45","Mozilla/5.0 (Windows NT 10.0; Win64; x64) AppleWebKit/537.36 (KHTML, like Gecko) Chrome/138.0.0.0 Safari/537.36","WebKit","Chrome","138.0.0.0","Windows","10.0","https://app.prolific.com/","en-US,en;q=0.9","673594215b1a0b92d5835525","6877649eabb845cf142cd221","6893bc8706036b0c0edde964","1","673594215b1a0b92d5835525","1","2025-08-06T20:38:11.778Z","","","","","","","","","","","","","","","","","","","","","","","","","","","","","","","","","","","","","","","","","",""
"187680.10000002384","","","","survey-template","5","338613","0.0-4.0-1.0","219","1","2025-08-06 20:35:37","36c45c0696341be0efffe67d72a12abb","216.120.189.45","Mozilla/5.0 (Windows NT 10.0; Win64; x64) AppleWebKit/537.36 (KHTML, like Gecko) Chrome/138.0.0.0 Safari/537.36","WebKit","Chrome","138.0.0.0","Windows","10.0","https://app.prolific.com/","en-US,en;q=0.9","673594215b1a0b92d5835525","6877649eabb845cf142cd221","6893bc8706036b0c0edde964","1","673594215b1a0b92d5835525","1","2025-08-06T20:41:19.462Z","","","","pss","{""Q01"":""2"",""Q02"":""1"",""Q03"":""2"",""Q04"":""0"",""Q05"":""1"",""Q06"":""2"",""Q07"":""1"",""Q08"":""0"",""Q09"":""3"",""Q10"":""1""}","[0,1,2,3,4,5,6,7,8,9]","[""Q01"",""Q02"",""Q03"",""Q03"",""Q04"",""Q04"",""Q05"",""Q06"",""Q07"",""Q08"",""Q09"",""Q10""]","[89324.30000007153,105556.30000007153,110916.20000004768,114084.10000002384,118948.5,123788.39999997616,130956.30000007153,150036.5,158716.39999997616,163612.20000004768,171484.5,184707.89999997616]","[]","[0.10000002384185791,89324.30000007153,104108.39999997616,104892.39999997616,105556.30000007153,110916.20000004768,112476.39999997616,114084.10000002384,118948.5,123788.39999997616,130956.30000007153,141812.10000002384,150036.5,158716.39999997616,163612.20000004768,171484.5,184707.89999997616,187676.39999997616]","0.3","0.7777777777777778","0","","","","","","","","","","","","","","","","","","","","","","","","","","","","",""
"6137","1754512885601","<p style='font-size:1.1em;line-height:1.25'>Thank you for your answers! Now we will ask you a few more questions relating to your feelings in the last 24 hours.<br></p><p style='font-size:1.1em;line-height:1.25'>Press the <strong>Next</strong> button to continue.</p>","0","custom-html-button-response","6","344753","0.0-4.0-2.0","219","1","2025-08-06 20:35:37","36c45c0696341be0efffe67d72a12abb","216.120.189.45","Mozilla/5.0 (Windows NT 10.0; Win64; x64) AppleWebKit/537.36 (KHTML, like Gecko) Chrome/138.0.0.0 Safari/537.36","WebKit","Chrome","138.0.0.0","Windows","10.0","https://app.prolific.com/","en-US,en;q=0.9","673594215b1a0b92d5835525","6877649eabb845cf142cd221","6893bc8706036b0c0edde964","1","673594215b1a0b92d5835525","1","2025-08-06T20:41:25.602Z","","","","","","","","","","","","","","","","","","","","","","","","","","","","","","","","","","","","","","","","","",""
"125731","","","","survey-template","7","470487","0.0-4.0-3.0","219","1","2025-08-06 20:35:37","36c45c0696341be0efffe67d72a12abb","216.120.189.45","Mozilla/5.0 (Windows NT 10.0; Win64; x64) AppleWebKit/537.36 (KHTML, like Gecko) Chrome/138.0.0.0 Safari/537.36","WebKit","Chrome","138.0.0.0","Windows","10.0","https://app.prolific.com/","en-US,en;q=0.9","673594215b1a0b92d5835525","6877649eabb845cf142cd221","6893bc8706036b0c0edde964","1","673594215b1a0b92d5835525","1","2025-08-06T20:43:31.337Z","","","","drsp","{""Q01"":""0"",""Q02"":""0"",""Q03"":""0"",""Q04"":""0"",""Q05"":""0"",""Q06"":""0"",""Q07"":""0"",""Q08"":""0"",""Q09"":""0"",""Q10"":""0"",""Q11"":""0"",""Q12"":""0"",""Q13"":""5"",""Q14"":""1"",""Q15"":""0"",""Q16"":""0"",""Q17"":""0"",""Q18"":""0"",""Q19"":""0"",""Q20"":""0"",""Q21"":""0"",""Q22"":""0""}","[0,1,2,3,4,5,6,7,8,9,10,11,12,13,14,15,16,17,18,19,20,21]","[""Q13"",""Q01"",""Q02"",""Q04"",""Q03"",""Q05"",""Q06"",""Q07"",""Q08"",""Q09"",""Q10"",""Q11"",""Q12"",""Q14"",""Q15"",""Q14"",""Q16"",""Q17"",""Q18"",""Q19"",""Q20"",""Q21"",""Q22""]","[5965.5,87789.70000004768,88541.80000007153,90141.80000007153,90829.70000004768,91957.60000002384,93021.70000004768,94078.60000002384,95677.5,96541,97749.60000002384,98477.30000007153,101741.60000002384,103989.70000004768,105381.70000004768,106357.70000004768,107517.70000004768,109613.60000002384,111557.5,112205.5,113581.5,121797.60000002384,124597.60000002384]","[]","[0,5965.5,87789.70000004768,88541.80000007153,89453.60000002384,90141.80000007153,90829.70000004768,91957.60000002384,93021.70000004768,94078.60000002384,95677.5,96541,97749.60000002384,98477.30000007153,101037.80000007153,101741.60000002384,102557.80000007153,103989.70000004768,104749.39999997616,105381.70000004768,106357.70000004768,107517.70000004768,109613.60000002384,110437.70000004768,111557.5,112205.5,113581.5,121797.60000002384,123237.80000007153,124597.60000002384,125725.80000007153]","0.9090909090909091","0.09523809523809523","0","","","","","","","","","","","","","","","","","","","","","","","","","","","","",""
"5952.299999952316","","","","survey-template","8","476442","0.0-4.0-4.0","219","1","2025-08-06 20:35:37","36c45c0696341be0efffe67d72a12abb","216.120.189.45","Mozilla/5.0 (Windows NT 10.0; Win64; x64) AppleWebKit/537.36 (KHTML, like Gecko) Chrome/138.0.0.0 Safari/537.36","WebKit","Chrome","138.0.0.0","Windows","10.0","https://app.prolific.com/","en-US,en;q=0.9","673594215b1a0b92d5835525","6877649eabb845cf142cd221","6893bc8706036b0c0edde964","1","673594215b1a0b92d5835525","1","2025-08-06T20:43:37.291Z","","","","stress","{""Q01"":""0"",""Q02"":""5"",""Q03"":""0""}","[0,1,2]","[""Q01"",""Q02"",""Q03""]","[1935.0999999046326,2879.2999999523163,5063.299999952316]","[]","[1935.0999999046326,2879.2999999523163,4063.2999999523163,5063.299999952316,5951.299999952316]","1","0","0","","","","","","","","","","","","","","","","","","","","","","","","","","","","",""
"13190","","","","instructions","9","489633","0.0-5.0-0.0","219","1","2025-08-06 20:35:37","36c45c0696341be0efffe67d72a12abb","216.120.189.45","Mozilla/5.0 (Windows NT 10.0; Win64; x64) AppleWebKit/537.36 (KHTML, like Gecko) Chrome/138.0.0.0 Safari/537.36","WebKit","Chrome","138.0.0.0","Windows","10.0","https://app.prolific.com/","en-US,en;q=0.9","673594215b1a0b92d5835525","6877649eabb845cf142cd221","6893bc8706036b0c0edde964","1","673594215b1a0b92d5835525","1","","","","","","","","","","","","","","","[{""page_index"":0,""viewing_time"":13190}]","","","","","","","","","","","","","","","","","","","","","","","","","","","",""
"6757","","<p>Before you start with this game please answer the following three questions yourself. </p>
  <p>Through this game, we measure several aspects of your cognitive performance, such as reaction times, multi-tasking capabilities </p>
  <p>and the ability to assess the situation you are in.</p>
  <p></p>
  <p><b>How good do you usually are in such tasks?</b></p>","88","html-slider-response","10","496393","0.0-6.0-0.0","219","1","2025-08-06 20:35:37","36c45c0696341be0efffe67d72a12abb","216.120.189.45","Mozilla/5.0 (Windows NT 10.0; Win64; x64) AppleWebKit/537.36 (KHTML, like Gecko) Chrome/138.0.0.0 Safari/537.36","WebKit","Chrome","138.0.0.0","Windows","10.0","https://app.prolific.com/","en-US,en;q=0.9","673594215b1a0b92d5835525","6877649eabb845cf142cd221","6893bc8706036b0c0edde964","1","673594215b1a0b92d5835525","1","2025-08-06T20:43:57.242Z","","","","PreSkillQ","","","","","","","","","","","50","","","","","","","","","","","","","","","","","","","","","","","","","","",""
"3343","","<div style=""width:500px;"">
  <p>How well do you think you will perform in this task compared to other participants?</p>
  </div>","83","html-slider-response","11","499736","0.0-6.0-1.0","219","1","2025-08-06 20:35:37","36c45c0696341be0efffe67d72a12abb","216.120.189.45","Mozilla/5.0 (Windows NT 10.0; Win64; x64) AppleWebKit/537.36 (KHTML, like Gecko) Chrome/138.0.0.0 Safari/537.36","WebKit","Chrome","138.0.0.0","Windows","10.0","https://app.prolific.com/","en-US,en;q=0.9","673594215b1a0b92d5835525","6877649eabb845cf142cd221","6893bc8706036b0c0edde964","1","673594215b1a0b92d5835525","1","2025-08-06T20:44:00.585Z","","","","PrePerfQ","","","","","","","","","","","50","","","","","","","","","","","","","","","","","","","","","","","","","","",""
"9823","","<div style=""width:500px;"">
  <p>What best describes how you currently feel?</p>
  </div>","100","html-slider-response","12","509560","0.0-6.0-2.0","219","1","2025-08-06 20:35:37","36c45c0696341be0efffe67d72a12abb","216.120.189.45","Mozilla/5.0 (Windows NT 10.0; Win64; x64) AppleWebKit/537.36 (KHTML, like Gecko) Chrome/138.0.0.0 Safari/537.36","WebKit","Chrome","138.0.0.0","Windows","10.0","https://app.prolific.com/","en-US,en;q=0.9","673594215b1a0b92d5835525","6877649eabb845cf142cd221","6893bc8706036b0c0edde964","1","673594215b1a0b92d5835525","1","2025-08-06T20:44:10.410Z","","","","PreMotivationQ","","","","","","","","","","","50","","","","","","","","","","","","","","","","","","","","","","","","","","",""
"","","","","ctl-task-cpt","13","882773","0.0-7.0-0.0","219","1","2025-08-06 20:35:37","36c45c0696341be0efffe67d72a12abb","216.120.189.45","Mozilla/5.0 (Windows NT 10.0; Win64; x64) AppleWebKit/537.36 (KHTML, like Gecko) Chrome/138.0.0.0 Safari/537.36","WebKit","Chrome","138.0.0.0","Windows","10.0","https://app.prolific.com/","en-US,en;q=0.9","673594215b1a0b92d5835525","6877649eabb845cf142cd221","6893bc8706036b0c0edde964","1","673594215b1a0b92d5835525","1","2025-08-06T20:50:23.622Z","","","","","","","","","","","","","","","","win-only","1","g1:NE,g2:SW","1","1","0","512992.4","339860.4","344861.6","370203.5","1","4","4","6","2","4","3","3","0","0.022727272727272728","1185.6","3000","250","[""down"",""left""]","{""num_key_presses"":8,""num_perfect"":7,""num_errors"":1,""num_randdir"":0,""num_randdir_good_moves"":0,""num_whilered"":0,""num_whileblue"":1,""num_blue"":2,""num_good_moves"":7}","[292.72232142857143,292.62857142857143,1,292.72232142857143,293.62857142857143,115.5,289.72232142857143,290.62857142857143,216.8,279.72232142857143,287.62857142857143,316.9,233.72232142857143,324.62857142857143,420.6,-15.277678571428574,560.6285714285714,520.8,-28.277678571428574,599.6285714285714,621.3,-28.277678571428574,604.6285714285714,725.8,1.7223214285714263,582.6285714285714,826,1.7223214285714263,582.6285714285714,927,8.722321428571426,576.6285714285714,1027.1,36.722321428571426,557.6285714285714,1134.7,36.722321428571426,557.6285714285714,1236.8,36.722321428571426,557.6285714285714,1340.4,36.722321428571426,557.6285714285714,1440.9,-82.27767857142857,526.6285714285714,1550.5,-103.27767857142857,490.62857142857143,1656.3,-87.27767857142857,471.62857142857143,1760.7,-87.27767857142857,470.62857142857143,1866.5,-87.27767857142857,470.62857142857143,1971.2,-87.27767857142857,470.62857142857143,2071.2,-87.27767857142857,470.62857142857143,2171.6,-87.27767857142857,470.62857142857143,2277,-87.27767857142857,470.62857142857143,2383.1,-87.27767857142857,470.62857142857143,2488,-87.27767857142857,470.62857142857143,2590.6,-87.27767857142857,470.62857142857143,2691,-87.27767857142857,470.62857142857143,2792.4,-87.27767857142857,470.62857142857143,2899.5,-87.27767857142857,470.62857142857143,3001,-87.27767857142857,470.62857142857143,3102.2,-87.27767857142857,470.62857142857143,3204.9,-87.27767857142857,470.62857142857143,3307.1,-87.27767857142857,470.62857142857143,3415.7,-87.27767857142857,470.62857142857143,3516.1,-87.27767857142857,470.62857142857143,3621,-87.27767857142857,470.62857142857143,3721.3,-87.27767857142857,470.62857142857143,3825.8,-87.27767857142857,470.62857142857143,3926.5,-87.27767857142857,470.62857142857143,4032.9,-87.27767857142857,470.62857142857143,4136.2,-87.27767857142857,470.62857142857143,4240.2,-87.27767857142857,470.62857142857143,4349.3,-87.27767857142857,470.62857142857143,4449.9,-87.27767857142857,470.62857142857143,4555.5,-87.27767857142857,470.62857142857143,4655.6,-87.27767857142857,470.62857142857143,4755.8,-87.27767857142857,470.62857142857143,4855.8,-87.27767857142857,470.62857142857143,4965.7]","[1384.8,1384.8,1000,0.1,384.7,""smooth"",""down"",""down"",""good_move"",4269,2883.9,2534.1,1385.3,349.7,""smooth"",""left"",""left"",""good_move"",7304.2,3034.2,2683.6,4270,350.6,""smooth"",""down"",""down"",""good_move"",10417.1,3112.6,2818.3,7304.5,294.3,""while_blue"",""left"",""right"",""bad_move"",13651.3,3231.9,2809.4,10419.4,422.5,""smooth"",""left"",""left"",""good_move"",20200.1,6548.6,2829.1,16789.6,581.4,""smooth"",""left"",""left"",""good_move"",22830.8,2630.6,1962.3,20200.2,668.3,""smooth"",""down"",""down"",""good_move"",25237.7,2406.8,2058,22831,348.8,""smooth"",""left"",""left"",""good_move""]"
"5938","","<div style=""width:500px;"">
  <p>What determined the result of this run?</p>
  </div>","100","html-slider-response","14","888713","0.0-7.0-1.0","219","1","2025-08-06 20:35:37","36c45c0696341be0efffe67d72a12abb","216.120.189.45","Mozilla/5.0 (Windows NT 10.0; Win64; x64) AppleWebKit/537.36 (KHTML, like Gecko) Chrome/138.0.0.0 Safari/537.36","WebKit","Chrome","138.0.0.0","Windows","10.0","https://app.prolific.com/","en-US,en;q=0.9","673594215b1a0b92d5835525","6877649eabb845cf142cd221","6893bc8706036b0c0edde964","1","673594215b1a0b92d5835525","1","2025-08-06T20:50:29.562Z","","","","AttribQ","","","","","","","","","","","50","","","","","","","","","","","","","","","","","","","","","","","","","","",""
"4896","","<div style=""width:500px;"">
  <p>How much control did you have over the ball?</p>
  </div>","100","html-slider-response","15","893610","0.0-7.0-2.0","219","1","2025-08-06 20:35:37","36c45c0696341be0efffe67d72a12abb","216.120.189.45","Mozilla/5.0 (Windows NT 10.0; Win64; x64) AppleWebKit/537.36 (KHTML, like Gecko) Chrome/138.0.0.0 Safari/537.36","WebKit","Chrome","138.0.0.0","Windows","10.0","https://app.prolific.com/","en-US,en;q=0.9","673594215b1a0b92d5835525","6877649eabb845cf142cd221","6893bc8706036b0c0edde964","1","673594215b1a0b92d5835525","1","2025-08-06T20:50:34.459Z","","","","ControlQ","","","","","","","","","","","50","","","","","","","","","","","","","","","","","","","","","","","","","","",""
"3942","","<div style=""width:500px;"">
  <p>How would you describe your current emotional state?</p>
  </div>","0","html-slider-response","16","897553","0.0-7.0-3.0","219","1","2025-08-06 20:35:37","36c45c0696341be0efffe67d72a12abb","216.120.189.45","Mozilla/5.0 (Windows NT 10.0; Win64; x64) AppleWebKit/537.36 (KHTML, like Gecko) Chrome/138.0.0.0 Safari/537.36","WebKit","Chrome","138.0.0.0","Windows","10.0","https://app.prolific.com/","en-US,en;q=0.9","673594215b1a0b92d5835525","6877649eabb845cf142cd221","6893bc8706036b0c0edde964","1","673594215b1a0b92d5835525","1","2025-08-06T20:50:38.402Z","","","","StressQ","","","","","","","","","","","50","","","","","","","","","","","","","","","","","","","","","","","","","","",""
"4047","","<div style=""width:500px;"">
  <p>What best describes how you currently feel?</p>
  </div>","100","html-slider-response","17","901601","0.0-7.0-4.0","219","1","2025-08-06 20:35:37","36c45c0696341be0efffe67d72a12abb","216.120.189.45","Mozilla/5.0 (Windows NT 10.0; Win64; x64) AppleWebKit/537.36 (KHTML, like Gecko) Chrome/138.0.0.0 Safari/537.36","WebKit","Chrome","138.0.0.0","Windows","10.0","https://app.prolific.com/","en-US,en;q=0.9","673594215b1a0b92d5835525","6877649eabb845cf142cd221","6893bc8706036b0c0edde964","1","673594215b1a0b92d5835525","1","2025-08-06T20:50:42.450Z","","","","MotivationQ","","","","","","","","","","","50","","","","","","","","","","","","","","","","","","","","","","","","","","",""
"","","","","ctl-task-cpt","18","931565","0.0-7.0-0.1","219","1","2025-08-06 20:35:37","36c45c0696341be0efffe67d72a12abb","216.120.189.45","Mozilla/5.0 (Windows NT 10.0; Win64; x64) AppleWebKit/537.36 (KHTML, like Gecko) Chrome/138.0.0.0 Safari/537.36","WebKit","Chrome","138.0.0.0","Windows","10.0","https://app.prolific.com/","en-US,en;q=0.9","673594215b1a0b92d5835525","6877649eabb845cf142cd221","6893bc8706036b0c0edde964","1","673594215b1a0b92d5835525","1","2025-08-06T20:51:12.414Z","","","","","","","","","","","","","","","","win-only","1","g1:NE,g2:SW","0.9","2","0","905033.4","1534","6536.6","26952.6","1","4","8","6","2","8","8","11","3","0.08333333333333333","1270.8","3000","650","[""down"",""left""]","{""num_key_presses"":6,""num_perfect"":5,""num_errors"":0,""num_randdir"":1,""num_randdir_good_moves"":1,""num_whilered"":0,""num_whileblue"":0,""num_blue"":1,""num_good_moves"":6}","[268.896875,260.303125,0.6,268.896875,260.303125,102.5,268.896875,260.303125,203.1,268.896875,260.303125,306.3,268.896875,261.303125,407.2,249.896875,334.303125,511.4,249.896875,334.303125,611.6,249.896875,334.303125,711.7,119.896875,445.303125,817.2,63.896875,497.303125,921.4,63.896875,497.303125,1021.7,66.896875,491.303125,1121.8,71.896875,488.303125,1222.6,71.896875,488.303125,1327.1,71.896875,488.303125,1428,91.896875,486.303125,1532.9,382.896875,599.303125,1633.3,382.896875,599.303125,1736.9,382.896875,599.303125,1837.6,382.896875,599.303125,1942.7,382.896875,599.303125,2046.4,382.896875,599.303125,2146.9,382.896875,599.303125,2252.2,382.896875,599.303125,2356.6,382.896875,599.303125,2457.1,382.896875,599.303125,2561.9,382.896875,599.303125,2667.3,382.896875,599.303125,2772.1,382.896875,599.303125,2876.3,382.896875,599.303125,2976.6,382.896875,599.303125,3081.8,382.896875,599.303125,3182.7,382.896875,599.303125,3287.9,382.896875,599.303125,3392.4,382.896875,599.303125,3498.1,382.896875,599.303125,3598.2,382.896875,599.303125,3702.3,382.896875,599.303125,3808.1,382.896875,599.303125,3911.4,382.896875,599.303125,4011.5,382.896875,599.303125,4111.6,382.896875,599.303125,4217.3,382.896875,599.303125,4322.5,382.896875,599.303125,4427.2,382.896875,599.303125,4531.7,382.896875,599.303125,4631.9,382.896875,599.303125,4731.9,382.896875,599.303125,4832.2,382.896875,599.303125,4937.5]","[1350.3,1350.3,1000,0,350.3,""smooth"",""down"",""down"",""good_move"",4553,3202.5,2796.7,1350.5,405.8,""smooth"",""left"",""left"",""good_move"",11558.1,7004.8,3160.5,8014.8,382.8,""smooth"",""left"",""left"",""good_move"",14338.6,2780.3,2332.1,11558.3,448.2,""oops"",""left"",""down"",""good_move"",17368.6,3029.8,2623.8,14338.8,406,""smooth"",""down"",""down"",""good_move"",20329.5,2960.7,2554.2,17368.8,406.5,""smooth"",""left"",""left"",""good_move""]"
"12594","","<div style=""width:500px;"">
  <p>What determined the result of this run?</p>
  </div>","100","html-slider-response","19","944160","0.0-7.0-1.1","219","1","2025-08-06 20:35:37","36c45c0696341be0efffe67d72a12abb","216.120.189.45","Mozilla/5.0 (Windows NT 10.0; Win64; x64) AppleWebKit/537.36 (KHTML, like Gecko) Chrome/138.0.0.0 Safari/537.36","WebKit","Chrome","138.0.0.0","Windows","10.0","https://app.prolific.com/","en-US,en;q=0.9","673594215b1a0b92d5835525","6877649eabb845cf142cd221","6893bc8706036b0c0edde964","1","673594215b1a0b92d5835525","1","2025-08-06T20:51:25.009Z","","","","AttribQ","","","","","","","","","","","50","","","","","","","","","","","","","","","","","","","","","","","","","","",""
"3290","","<div style=""width:500px;"">
  <p>How much control did you have over the ball?</p>
  </div>","100","html-slider-response","20","947451","0.0-7.0-2.1","219","1","2025-08-06 20:35:37","36c45c0696341be0efffe67d72a12abb","216.120.189.45","Mozilla/5.0 (Windows NT 10.0; Win64; x64) AppleWebKit/537.36 (KHTML, like Gecko) Chrome/138.0.0.0 Safari/537.36","WebKit","Chrome","138.0.0.0","Windows","10.0","https://app.prolific.com/","en-US,en;q=0.9","673594215b1a0b92d5835525","6877649eabb845cf142cd221","6893bc8706036b0c0edde964","1","673594215b1a0b92d5835525","1","2025-08-06T20:51:28.300Z","","","","ControlQ","","","","","","","","","","","50","","","","","","","","","","","","","","","","","","","","","","","","","","",""
"3877","","<div style=""width:500px;"">
  <p>How would you describe your current emotional state?</p>
  </div>","0","html-slider-response","21","951329","0.0-7.0-3.1","219","1","2025-08-06 20:35:37","36c45c0696341be0efffe67d72a12abb","216.120.189.45","Mozilla/5.0 (Windows NT 10.0; Win64; x64) AppleWebKit/537.36 (KHTML, like Gecko) Chrome/138.0.0.0 Safari/537.36","WebKit","Chrome","138.0.0.0","Windows","10.0","https://app.prolific.com/","en-US,en;q=0.9","673594215b1a0b92d5835525","6877649eabb845cf142cd221","6893bc8706036b0c0edde964","1","673594215b1a0b92d5835525","1","2025-08-06T20:51:32.178Z","","","","StressQ","","","","","","","","","","","50","","","","","","","","","","","","","","","","","","","","","","","","","","",""
"4180","","<div style=""width:500px;"">
  <p>What best describes how you currently feel?</p>
  </div>","100","html-slider-response","22","955510","0.0-7.0-4.1","219","1","2025-08-06 20:35:37","36c45c0696341be0efffe67d72a12abb","216.120.189.45","Mozilla/5.0 (Windows NT 10.0; Win64; x64) AppleWebKit/537.36 (KHTML, like Gecko) Chrome/138.0.0.0 Safari/537.36","WebKit","Chrome","138.0.0.0","Windows","10.0","https://app.prolific.com/","en-US,en;q=0.9","673594215b1a0b92d5835525","6877649eabb845cf142cd221","6893bc8706036b0c0edde964","1","673594215b1a0b92d5835525","1","2025-08-06T20:51:36.359Z","","","","MotivationQ","","","","","","","","","","","50","","","","","","","","","","","","","","","","","","","","","","","","","","",""
"","","","","ctl-task-cpt","23","987604","0.0-7.0-0.2","219","1","2025-08-06 20:35:37","36c45c0696341be0efffe67d72a12abb","216.120.189.45","Mozilla/5.0 (Windows NT 10.0; Win64; x64) AppleWebKit/537.36 (KHTML, like Gecko) Chrome/138.0.0.0 Safari/537.36","WebKit","Chrome","138.0.0.0","Windows","10.0","https://app.prolific.com/","en-US,en;q=0.9","673594215b1a0b92d5835525","6877649eabb845cf142cd221","6893bc8706036b0c0edde964","1","673594215b1a0b92d5835525","1","2025-08-06T20:52:08.453Z","","","","","","","","","","","","","","","","win-only","2","g1:SE,g2:NW","0.8","3","0","958941","1720.2","6722.2","29075.9","1","4","8","6","2","-8","-8","3","11","0.022727272727272728","1616.2","3000","-3010","[""left"",""up""]","{""num_key_presses"":7,""num_perfect"":5,""num_errors"":0,""num_randdir"":2,""num_randdir_good_moves"":1,""num_whilered"":0,""num_whileblue"":0,""num_blue"":0,""num_good_moves"":6}","[267.896875,265.303125,0.9,267.896875,265.303125,101.4,267.896875,265.303125,201.7,267.896875,265.303125,302.2,267.896875,265.303125,402.2,256.896875,280.303125,502.7,273.896875,283.303125,605.7,161.896875,184.303125,706.7,149.896875,184.303125,810.8,149.896875,184.303125,910.8,125.896875,164.303125,1010.8,76.896875,85.303125,1111,72.896875,83.303125,1215.8,72.896875,83.303125,1315.9,72.896875,83.303125,1417.1,72.896875,83.303125,1521.9,72.896875,83.303125,1626.3,72.896875,83.303125,1731.9,72.896875,83.303125,1836.3,72.896875,83.303125,1940.9,72.896875,83.303125,2041,72.896875,83.303125,2141.9,72.896875,83.303125,2245.4,79.896875,125.303125,2345.6,69.896875,185.303125,2447,-196.103125,106.303125,2552,-214.103125,106.303125,2656,-214.103125,106.303125,2761.1,-214.103125,106.303125,2861.5,-214.103125,106.303125,2966.3,-214.103125,106.303125,3070.4,-214.103125,106.303125,3171.9,-214.103125,106.303125,3272,-178.103125,109.303125,3375.4,-108.103125,144.303125,3475.9,-92.103125,150.303125,3580.9,-92.103125,150.303125,3681.9,-92.103125,150.303125,3786.2,-92.103125,150.303125,3888.8,-92.103125,150.303125,3991,-92.103125,150.303125,4091.1,-92.103125,150.303125,4196.2,-92.103125,150.303125,4301.3,-92.103125,150.303125,4405.3,-92.103125,150.303125,4505.9,-92.103125,150.303125,4606,-92.103125,150.303125,4710.7,-92.103125,150.303125,4815.7,-92.103125,150.303125,4916.1]","[1501.7,1501.7,1000,0,501.7,""smooth"",""left"",""left"",""good_move"",5049.1,3547.1,3122.3,1502.1,424.8,""oops"",""left"",""down"",""bad_move"",8198,3147.6,2746.5,5050.4,401.1,""oops"",""left"",""up"",""good_move"",11361.4,3161.9,2744.6,8199.5,417.3,""smooth"",""up"",""up"",""good_move"",14483,3119.5,2741.3,11363.7,378,""smooth"",""left"",""left"",""good_move"",17166.8,2682.7,2276.1,14484.2,406.5,""smooth"",""up"",""up"",""good_move"",20038.5,2871.4,2572,17167.1,299.4,""smooth"",""up"",""up"",""good_move""]"
"9291","","<div style=""width:500px;"">
  <p>What determined the result of this run?</p>
  </div>","100","html-slider-response","24","996897","0.0-7.0-1.2","219","1","2025-08-06 20:35:37","36c45c0696341be0efffe67d72a12abb","216.120.189.45","Mozilla/5.0 (Windows NT 10.0; Win64; x64) AppleWebKit/537.36 (KHTML, like Gecko) Chrome/138.0.0.0 Safari/537.36","WebKit","Chrome","138.0.0.0","Windows","10.0","https://app.prolific.com/","en-US,en;q=0.9","673594215b1a0b92d5835525","6877649eabb845cf142cd221","6893bc8706036b0c0edde964","1","673594215b1a0b92d5835525","1","2025-08-06T20:52:17.746Z","","","","AttribQ","","","","","","","","","","","50","","","","","","","","","","","","","","","","","","","","","","","","","","",""
"2623","","<div style=""width:500px;"">
  <p>How much control did you have over the ball?</p>
  </div>","100","html-slider-response","25","999521","0.0-7.0-2.2","219","1","2025-08-06 20:35:37","36c45c0696341be0efffe67d72a12abb","216.120.189.45","Mozilla/5.0 (Windows NT 10.0; Win64; x64) AppleWebKit/537.36 (KHTML, like Gecko) Chrome/138.0.0.0 Safari/537.36","WebKit","Chrome","138.0.0.0","Windows","10.0","https://app.prolific.com/","en-US,en;q=0.9","673594215b1a0b92d5835525","6877649eabb845cf142cd221","6893bc8706036b0c0edde964","1","673594215b1a0b92d5835525","1","2025-08-06T20:52:20.370Z","","","","ControlQ","","","","","","","","","","","50","","","","","","","","","","","","","","","","","","","","","","","","","","",""
"11661","","<div style=""width:500px;"">
  <p>How would you describe your current emotional state?</p>
  </div>","0","html-slider-response","26","1011183","0.0-7.0-3.2","219","1","2025-08-06 20:35:37","36c45c0696341be0efffe67d72a12abb","216.120.189.45","Mozilla/5.0 (Windows NT 10.0; Win64; x64) AppleWebKit/537.36 (KHTML, like Gecko) Chrome/138.0.0.0 Safari/537.36","WebKit","Chrome","138.0.0.0","Windows","10.0","https://app.prolific.com/","en-US,en;q=0.9","673594215b1a0b92d5835525","6877649eabb845cf142cd221","6893bc8706036b0c0edde964","1","673594215b1a0b92d5835525","1","2025-08-06T20:52:32.032Z","","","","StressQ","","","","","","","","","","","50","","","","","","","","","","","","","","","","","","","","","","","","","","",""
"4182","","<div style=""width:500px;"">
  <p>What best describes how you currently feel?</p>
  </div>","100","html-slider-response","27","1015366","0.0-7.0-4.2","219","1","2025-08-06 20:35:37","36c45c0696341be0efffe67d72a12abb","216.120.189.45","Mozilla/5.0 (Windows NT 10.0; Win64; x64) AppleWebKit/537.36 (KHTML, like Gecko) Chrome/138.0.0.0 Safari/537.36","WebKit","Chrome","138.0.0.0","Windows","10.0","https://app.prolific.com/","en-US,en;q=0.9","673594215b1a0b92d5835525","6877649eabb845cf142cd221","6893bc8706036b0c0edde964","1","673594215b1a0b92d5835525","1","2025-08-06T20:52:36.215Z","","","","MotivationQ","","","","","","","","","","","50","","","","","","","","","","","","","","","","","","","","","","","","","","",""
"","","","","ctl-task-cpt","28","1049166","0.0-7.0-0.3","219","1","2025-08-06 20:35:37","36c45c0696341be0efffe67d72a12abb","216.120.189.45","Mozilla/5.0 (Windows NT 10.0; Win64; x64) AppleWebKit/537.36 (KHTML, like Gecko) Chrome/138.0.0.0 Safari/537.36","WebKit","Chrome","138.0.0.0","Windows","10.0","https://app.prolific.com/","en-US,en;q=0.9","673594215b1a0b92d5835525","6877649eabb845cf142cd221","6893bc8706036b0c0edde964","1","673594215b1a0b92d5835525","1","2025-08-06T20:53:10.015Z","","","","","","","","","","","","","","","","win-only","1","g1:NE,g2:SW","0.7","4","0","1018797.1","2444.4","7447","30781.1","1","4","4","6","2","-4","-4","0","3","0","1402.5","3000","-3010","[""down"",""left""]","{""num_key_presses"":7,""num_perfect"":4,""num_errors"":0,""num_randdir"":3,""num_randdir_good_moves"":1,""num_whilered"":0,""num_whileblue"":0,""num_blue"":0,""num_good_moves"":5}","[264.896875,263.303125,1.1,264.896875,263.303125,101.6,264.896875,263.303125,203.8,264.896875,263.303125,307.8,264.896875,263.303125,411.2,264.896875,263.303125,511.4,77.896875,370.303125,611.7,-2.1031249999999986,478.303125,715.3,-2.1031249999999986,478.303125,816.4,-2.1031249999999986,478.303125,917.5,2.8968750000000014,483.303125,1024.3,13.896875000000001,483.303125,1126.4,16.896875,483.303125,1226.8,16.896875,483.303125,1331.3,16.896875,483.303125,1439,16.896875,483.303125,1539.1,16.896875,483.303125,1639.6,-72.103125,462.303125,1741.2,-101.103125,462.303125,1841.5,-101.103125,462.303125,1942,-101.103125,462.303125,2045.9,-101.103125,462.303125,2145.9,-101.103125,462.303125,2246.4,-101.103125,462.303125,2346.9,-101.103125,462.303125,2451.7,-101.103125,462.303125,2553.9,-101.103125,462.303125,2656.4,-101.103125,462.303125,2757.1,-101.103125,462.303125,2861.2,-101.103125,462.303125,2965.9,-101.103125,462.303125,3065.9,-101.103125,462.303125,3166.9,-101.103125,462.303125,3271.1,-101.103125,462.303125,3371.4,-101.103125,462.303125,3471.6,-101.103125,462.303125,3572.2,-101.103125,462.303125,3672.3,-101.103125,462.303125,3772.9,-101.103125,462.303125,3876.1,-101.103125,462.303125,3980.9,-101.103125,462.303125,4081,-101.103125,462.303125,4181.6,-101.103125,462.303125,4288.3,-101.103125,462.303125,4391.2,-101.103125,462.303125,4495.8,-101.103125,462.303125,4597.2,-101.103125,462.303125,4701.6,-101.103125,462.303125,4803.9,-101.103125,462.303125,4906.5]","[1453.3,1453.3,1000,0,453.3,""smooth"",""left"",""left"",""good_move"",5055,3601.4,3242.9,1453.6,358.5,""smooth"",""left"",""left"",""good_move"",8245.4,3189.9,2707.9,5055.6,482,""oops"",""left"",""right"",""bad_move"",11052.1,2805.1,2400.8,8247.1,404.3,""smooth"",""down"",""down"",""good_move"",14014.7,2962.1,2635.6,11052.6,326.5,""oops"",""left"",""down"",""good_move"",17085.3,3069.8,2688.1,14015.5,381.7,""smooth"",""down"",""down"",""good_move"",19937.3,2851.8,2546.6,17085.5,305.2,""oops"",""left"",""up"",""bad_move""]"
"38205","","<div style=""width:500px;"">
  <p>What determined the result of this run?</p>
  </div>","100","html-slider-response","29","1087372","0.0-7.0-1.3","219","1","2025-08-06 20:35:37","36c45c0696341be0efffe67d72a12abb","216.120.189.45","Mozilla/5.0 (Windows NT 10.0; Win64; x64) AppleWebKit/537.36 (KHTML, like Gecko) Chrome/138.0.0.0 Safari/537.36","WebKit","Chrome","138.0.0.0","Windows","10.0","https://app.prolific.com/","en-US,en;q=0.9","673594215b1a0b92d5835525","6877649eabb845cf142cd221","6893bc8706036b0c0edde964","1","673594215b1a0b92d5835525","1","2025-08-06T20:53:48.221Z","","","","AttribQ","","","","","","","","","","","50","","","","","","","","","","","","","","","","","","","","","","","","","","",""
"5575","","<div style=""width:500px;"">
  <p>How much control did you have over the ball?</p>
  </div>","91","html-slider-response","30","1092949","0.0-7.0-2.3","219","1","2025-08-06 20:35:37","36c45c0696341be0efffe67d72a12abb","216.120.189.45","Mozilla/5.0 (Windows NT 10.0; Win64; x64) AppleWebKit/537.36 (KHTML, like Gecko) Chrome/138.0.0.0 Safari/537.36","WebKit","Chrome","138.0.0.0","Windows","10.0","https://app.prolific.com/","en-US,en;q=0.9","673594215b1a0b92d5835525","6877649eabb845cf142cd221","6893bc8706036b0c0edde964","1","673594215b1a0b92d5835525","1","2025-08-06T20:53:53.798Z","","","","ControlQ","","","","","","","","","","","50","","","","","","","","","","","","","","","","","","","","","","","","","","",""
"3772","","<div style=""width:500px;"">
  <p>How would you describe your current emotional state?</p>
  </div>","0","html-slider-response","31","1096722","0.0-7.0-3.3","219","1","2025-08-06 20:35:37","36c45c0696341be0efffe67d72a12abb","216.120.189.45","Mozilla/5.0 (Windows NT 10.0; Win64; x64) AppleWebKit/537.36 (KHTML, like Gecko) Chrome/138.0.0.0 Safari/537.36","WebKit","Chrome","138.0.0.0","Windows","10.0","https://app.prolific.com/","en-US,en;q=0.9","673594215b1a0b92d5835525","6877649eabb845cf142cd221","6893bc8706036b0c0edde964","1","673594215b1a0b92d5835525","1","2025-08-06T20:53:57.571Z","","","","StressQ","","","","","","","","","","","50","","","","","","","","","","","","","","","","","","","","","","","","","","",""
"4160","","<div style=""width:500px;"">
  <p>What best describes how you currently feel?</p>
  </div>","100","html-slider-response","32","1100884","0.0-7.0-4.3","219","1","2025-08-06 20:35:37","36c45c0696341be0efffe67d72a12abb","216.120.189.45","Mozilla/5.0 (Windows NT 10.0; Win64; x64) AppleWebKit/537.36 (KHTML, like Gecko) Chrome/138.0.0.0 Safari/537.36","WebKit","Chrome","138.0.0.0","Windows","10.0","https://app.prolific.com/","en-US,en;q=0.9","673594215b1a0b92d5835525","6877649eabb845cf142cd221","6893bc8706036b0c0edde964","1","673594215b1a0b92d5835525","1","2025-08-06T20:54:01.733Z","","","","MotivationQ","","","","","","","","","","","50","","","","","","","","","","","","","","","","","","","","","","","","","","",""
"","","","","ctl-task-cpt","33","1132948","0.0-7.0-0.4","219","1","2025-08-06 20:35:37","36c45c0696341be0efffe67d72a12abb","216.120.189.45","Mozilla/5.0 (Windows NT 10.0; Win64; x64) AppleWebKit/537.36 (KHTML, like Gecko) Chrome/138.0.0.0 Safari/537.36","WebKit","Chrome","138.0.0.0","Windows","10.0","https://app.prolific.com/","en-US,en;q=0.9","673594215b1a0b92d5835525","6877649eabb845cf142cd221","6893bc8706036b0c0edde964","1","673594215b1a0b92d5835525","1","2025-08-06T20:54:33.797Z","","","","","","","","","","","","","","","","win-only","0","g1:NW,g2:SE","0.6","5","0","1104315","1725.6","6726.7","29045.8","1","4","4","6","2","4","3","3","0","0.022727272727272728","1392.5","3000","375","[""down"",""right""]","{""num_key_presses"":8,""num_perfect"":4,""num_errors"":1,""num_randdir"":3,""num_randdir_good_moves"":3,""num_whilered"":0,""num_whileblue"":1,""num_blue"":1,""num_good_moves"":7}","[266.896875,264.303125,2.3,266.896875,264.303125,122.3,266.896875,264.303125,233.7,266.896875,264.303125,341.1,247.896875,248.303125,456.3,220.896875,236.303125,560.5,332.896875,341.303125,667.1,481.896875,488.303125,771,481.896875,488.303125,876.3,481.896875,488.303125,979.6,487.896875,491.303125,1080,492.896875,494.303125,1185.8,492.896875,494.303125,1291.7,492.896875,494.303125,1407.5,492.896875,494.303125,1510.4,492.896875,494.303125,1623.9,492.896875,494.303125,1727,607.896875,494.303125,1830.6,660.896875,494.303125,1935,660.896875,494.303125,2035.1,660.896875,494.303125,2136.3,660.896875,494.303125,2236.4,660.896875,494.303125,2339,660.896875,494.303125,2443.3,660.896875,494.303125,2544.9,660.896875,494.303125,2650,660.896875,494.303125,2759.7,660.896875,494.303125,2860.7,660.896875,494.303125,2960.8,660.896875,494.303125,3065.2,660.896875,494.303125,3171.4,660.896875,494.303125,3272.2,660.896875,494.303125,3375.7,660.896875,494.303125,3476.9,660.896875,494.303125,3580.5,660.896875,494.303125,3681.6,660.896875,494.303125,3788.3,660.896875,494.303125,3890.5,660.896875,494.303125,3991.1,660.896875,494.303125,4095.4,660.896875,494.303125,4196.3,660.896875,494.303125,4299.8,660.896875,494.303125,4401.9,660.896875,494.303125,4506.6,660.896875,494.303125,4610.3,660.896875,494.303125,4715.4,660.896875,494.303125,4820.6,660.896875,494.303125,4920.6]","[1317.1,1317.1,1003.8,0,313.3,""while_blue"",""down"",""up"",""bad_move"",3798.4,2480.3,2026.8,1318.1,453.5,""oops"",""right"",""down"",""good_move"",7116.4,3316.5,2867.5,3799.9,449,""smooth"",""down"",""down"",""good_move"",9872.8,2756,2331.5,7116.8,424.5,""oops"",""right"",""down"",""good_move"",13520.6,3647.6,3267.3,9873.1,380.3,""smooth"",""down"",""down"",""good_move"",16516.5,2995.5,2533,13521,462.5,""oops"",""right"",""right"",""good_move"",19134.8,2616.1,2158.5,16518.7,457.7,""smooth"",""right"",""right"",""good_move"",22196.1,3060.6,2662.2,19135.5,398.4,""smooth"",""right"",""right"",""good_move""]"
"5061","","<div style=""width:500px;"">
  <p>What determined the result of this run?</p>
  </div>","100","html-slider-response","34","1138011","0.0-7.0-1.4","219","1","2025-08-06 20:35:37","36c45c0696341be0efffe67d72a12abb","216.120.189.45","Mozilla/5.0 (Windows NT 10.0; Win64; x64) AppleWebKit/537.36 (KHTML, like Gecko) Chrome/138.0.0.0 Safari/537.36","WebKit","Chrome","138.0.0.0","Windows","10.0","https://app.prolific.com/","en-US,en;q=0.9","673594215b1a0b92d5835525","6877649eabb845cf142cd221","6893bc8706036b0c0edde964","1","673594215b1a0b92d5835525","1","2025-08-06T20:54:38.860Z","","","","AttribQ","","","","","","","","","","","50","","","","","","","","","","","","","","","","","","","","","","","","","","",""
"19584","","<div style=""width:500px;"">
  <p>How much control did you have over the ball?</p>
  </div>","100","html-slider-response","35","1157596","0.0-7.0-2.4","219","1","2025-08-06 20:35:37","36c45c0696341be0efffe67d72a12abb","216.120.189.45","Mozilla/5.0 (Windows NT 10.0; Win64; x64) AppleWebKit/537.36 (KHTML, like Gecko) Chrome/138.0.0.0 Safari/537.36","WebKit","Chrome","138.0.0.0","Windows","10.0","https://app.prolific.com/","en-US,en;q=0.9","673594215b1a0b92d5835525","6877649eabb845cf142cd221","6893bc8706036b0c0edde964","1","673594215b1a0b92d5835525","1","2025-08-06T20:54:58.445Z","","","","ControlQ","","","","","","","","","","","50","","","","","","","","","","","","","","","","","","","","","","","","","","",""
"7830","","<div style=""width:500px;"">
  <p>How would you describe your current emotional state?</p>
  </div>","0","html-slider-response","36","1165427","0.0-7.0-3.4","219","1","2025-08-06 20:35:37","36c45c0696341be0efffe67d72a12abb","216.120.189.45","Mozilla/5.0 (Windows NT 10.0; Win64; x64) AppleWebKit/537.36 (KHTML, like Gecko) Chrome/138.0.0.0 Safari/537.36","WebKit","Chrome","138.0.0.0","Windows","10.0","https://app.prolific.com/","en-US,en;q=0.9","673594215b1a0b92d5835525","6877649eabb845cf142cd221","6893bc8706036b0c0edde964","1","673594215b1a0b92d5835525","1","2025-08-06T20:55:06.277Z","","","","StressQ","","","","","","","","","","","50","","","","","","","","","","","","","","","","","","","","","","","","","","",""
"5762","","<div style=""width:500px;"">
  <p>What best describes how you currently feel?</p>
  </div>","100","html-slider-response","37","1171191","0.0-7.0-4.4","219","1","2025-08-06 20:35:37","36c45c0696341be0efffe67d72a12abb","216.120.189.45","Mozilla/5.0 (Windows NT 10.0; Win64; x64) AppleWebKit/537.36 (KHTML, like Gecko) Chrome/138.0.0.0 Safari/537.36","WebKit","Chrome","138.0.0.0","Windows","10.0","https://app.prolific.com/","en-US,en;q=0.9","673594215b1a0b92d5835525","6877649eabb845cf142cd221","6893bc8706036b0c0edde964","1","673594215b1a0b92d5835525","1","2025-08-06T20:55:12.040Z","","","","MotivationQ","","","","","","","","","","","50","","","","","","","","","","","","","","","","","","","","","","","","","","",""
"","","","","ctl-task-cpt","38","1214145","0.0-7.0-0.5","219","1","2025-08-06 20:35:37","36c45c0696341be0efffe67d72a12abb","216.120.189.45","Mozilla/5.0 (Windows NT 10.0; Win64; x64) AppleWebKit/537.36 (KHTML, like Gecko) Chrome/138.0.0.0 Safari/537.36","WebKit","Chrome","138.0.0.0","Windows","10.0","https://app.prolific.com/","en-US,en;q=0.9","673594215b1a0b92d5835525","6877649eabb845cf142cd221","6893bc8706036b0c0edde964","1","673594215b1a0b92d5835525","1","2025-08-06T20:55:54.994Z","","","","","","","","","","","","","","","","win-only","1","g1:NE,g2:SW","0.5","6","0","1174622.3","3366.4","8367.9","39931","1","4","8","6","2","-8","-9","0","3","0","1296","3000","-2840","[""down"",""left""]","{""num_key_presses"":8,""num_perfect"":3,""num_errors"":1,""num_randdir"":4,""num_randdir_good_moves"":0,""num_whilered"":0,""num_whileblue"":1,""num_blue"":3,""num_good_moves"":4}","[258.896875,262.303125,0.5,258.896875,262.303125,106.4,258.896875,262.303125,209.1,258.896875,262.303125,310.8,258.896875,262.303125,418.4,61.896875,373.303125,521.5,12.896875000000001,454.303125,624.3,12.896875000000001,454.303125,725.6,12.896875000000001,454.303125,831.8,12.896875000000001,463.303125,936.4,25.896875,473.303125,1045,25.896875,473.303125,1153.4,25.896875,473.303125,1253.9,25.896875,473.303125,1367,25.896875,473.303125,1470.1,25.896875,473.303125,1570.9,-13.103124999999999,457.303125,1675.6,-76.103125,447.303125,1780,-106.103125,460.303125,1882,-107.103125,460.303125,1984.3,-107.103125,460.303125,2085.7,-107.103125,460.303125,2189.2,-107.103125,460.303125,2290.6,-107.103125,460.303125,2395.2,-107.103125,460.303125,2501.6,-107.103125,460.303125,2605.3,-107.103125,460.303125,2709,-107.103125,460.303125,2809.6,-107.103125,460.303125,2910.6,-107.103125,460.303125,3011.4,-107.103125,460.303125,3114.7,-107.103125,460.303125,3218.5,-107.103125,460.303125,3320.6,-107.103125,460.303125,3423.9,-107.103125,460.303125,3524.7,-107.103125,460.303125,3625.2,-107.103125,460.303125,3731.3,-107.103125,460.303125,3838.6,-107.103125,460.303125,3939.6,-107.103125,460.303125,4043.9,-107.103125,460.303125,4144.4,-107.103125,460.303125,4245.8,-107.103125,460.303125,4350.1,-107.103125,460.303125,4457.1,-107.103125,460.303125,4560.5,-107.103125,460.303125,4669.2,-107.103125,460.303125,4769.4,-107.103125,460.303125,4870.7,-107.103125,460.303125,4974.2]","[1420.8,1420.8,1000,0,420.8,""smooth"",""left"",""left"",""good_move"",3588.2,2167,1695.8,1421.2,471.2,""oops"",""down"",""right"",""bad_move"",6535.2,2946.6,2534.2,3588.6,412.4,""oops"",""up"",""up"",""bad_move"",9626.5,3090.8,2763.4,6535.7,327.4,""smooth"",""left"",""left"",""good_move"",13572.5,3945.8,3616.4,9626.7,329.4,""while_blue"",""left"",""left"",""good_move"",19424.4,5851.6,2404.6,16588.9,430.9,""oops"",""left"",""right"",""bad_move"",25603.1,6178.4,2093.9,23034.1,475.1,""smooth"",""down"",""down"",""good_move"",28404.2,2800.7,2383.6,25603.5,417.1,""oops"",""down"",""up"",""bad_move""]"
"9784","","<div style=""width:500px;"">
  <p>What determined the result of this run?</p>
  </div>","100","html-slider-response","39","1223930","0.0-7.0-1.5","219","1","2025-08-06 20:35:37","36c45c0696341be0efffe67d72a12abb","216.120.189.45","Mozilla/5.0 (Windows NT 10.0; Win64; x64) AppleWebKit/537.36 (KHTML, like Gecko) Chrome/138.0.0.0 Safari/537.36","WebKit","Chrome","138.0.0.0","Windows","10.0","https://app.prolific.com/","en-US,en;q=0.9","673594215b1a0b92d5835525","6877649eabb845cf142cd221","6893bc8706036b0c0edde964","1","673594215b1a0b92d5835525","1","2025-08-06T20:56:04.779Z","","","","AttribQ","","","","","","","","","","","50","","","","","","","","","","","","","","","","","","","","","","","","","","",""
"8542","","<div style=""width:500px;"">
  <p>How much control did you have over the ball?</p>
  </div>","80","html-slider-response","40","1232474","0.0-7.0-2.5","219","1","2025-08-06 20:35:37","36c45c0696341be0efffe67d72a12abb","216.120.189.45","Mozilla/5.0 (Windows NT 10.0; Win64; x64) AppleWebKit/537.36 (KHTML, like Gecko) Chrome/138.0.0.0 Safari/537.36","WebKit","Chrome","138.0.0.0","Windows","10.0","https://app.prolific.com/","en-US,en;q=0.9","673594215b1a0b92d5835525","6877649eabb845cf142cd221","6893bc8706036b0c0edde964","1","673594215b1a0b92d5835525","1","2025-08-06T20:56:13.323Z","","","","ControlQ","","","","","","","","","","","50","","","","","","","","","","","","","","","","","","","","","","","","","","",""
"5153","","<div style=""width:500px;"">
  <p>How would you describe your current emotional state?</p>
  </div>","100","html-slider-response","41","1237630","0.0-7.0-3.5","219","1","2025-08-06 20:35:37","36c45c0696341be0efffe67d72a12abb","216.120.189.45","Mozilla/5.0 (Windows NT 10.0; Win64; x64) AppleWebKit/537.36 (KHTML, like Gecko) Chrome/138.0.0.0 Safari/537.36","WebKit","Chrome","138.0.0.0","Windows","10.0","https://app.prolific.com/","en-US,en;q=0.9","673594215b1a0b92d5835525","6877649eabb845cf142cd221","6893bc8706036b0c0edde964","1","673594215b1a0b92d5835525","1","2025-08-06T20:56:18.479Z","","","","StressQ","","","","","","","","","","","50","","","","","","","","","","","","","","","","","","","","","","","","","","",""
"9678","","<div style=""width:500px;"">
  <p>What best describes how you currently feel?</p>
  </div>","100","html-slider-response","42","1247310","0.0-7.0-4.5","219","1","2025-08-06 20:35:37","36c45c0696341be0efffe67d72a12abb","216.120.189.45","Mozilla/5.0 (Windows NT 10.0; Win64; x64) AppleWebKit/537.36 (KHTML, like Gecko) Chrome/138.0.0.0 Safari/537.36","WebKit","Chrome","138.0.0.0","Windows","10.0","https://app.prolific.com/","en-US,en;q=0.9","673594215b1a0b92d5835525","6877649eabb845cf142cd221","6893bc8706036b0c0edde964","1","673594215b1a0b92d5835525","1","2025-08-06T20:56:28.159Z","","","","MotivationQ","","","","","","","","","","","50","","","","","","","","","","","","","","","","","","","","","","","","","","",""
"","","","","ctl-task-cpt","43","1287170","0.0-7.0-0.6","219","1","2025-08-06 20:35:37","36c45c0696341be0efffe67d72a12abb","216.120.189.45","Mozilla/5.0 (Windows NT 10.0; Win64; x64) AppleWebKit/537.36 (KHTML, like Gecko) Chrome/138.0.0.0 Safari/537.36","WebKit","Chrome","138.0.0.0","Windows","10.0","https://app.prolific.com/","en-US,en;q=0.9","673594215b1a0b92d5835525","6877649eabb845cf142cd221","6893bc8706036b0c0edde964","1","673594215b1a0b92d5835525","1","2025-08-06T20:57:08.019Z","","","","","","","","","","","","","","","","win-only","1","g1:NE,g2:SW","0.4","7","0","1250741.6","2800.5","7801.8","36840.5","1","4","4","6","2","-4","-4","0","0","0","1649.6","3000","-2395","[""down"",""left""]","{""num_key_presses"":8,""num_perfect"":3,""num_errors"":0,""num_randdir"":5,""num_randdir_good_moves"":3,""num_whilered"":0,""num_whileblue"":0,""num_blue"":1,""num_good_moves"":6}","[260.896875,264.303125,2.2,260.896875,264.303125,102.7,260.896875,264.303125,206.8,260.896875,264.303125,316.9,260.896875,264.303125,421.9,190.896875,295.303125,527.3,17.896875,512.303125,629.7,6.896875000000001,545.303125,730.4,6.896875000000001,545.303125,833,0.8968750000000014,545.303125,936.1,-7.103124999999999,544.303125,1046.9,5.896875000000001,514.303125,1151,11.896875000000001,510.303125,1251.6,20.896875,507.303125,1361.7,20.896875,507.303125,1467.5,20.896875,507.303125,1571.7,20.896875,507.303125,1671.7,20.896875,507.303125,1772.1,20.896875,507.303125,1875,20.896875,507.303125,1980.8,-51.103125,490.303125,2082.6,-76.103125,494.303125,2192.2,-76.103125,494.303125,2296.3,-76.103125,494.303125,2401.6,-76.103125,494.303125,2510,-76.103125,494.303125,2613.8,-76.103125,494.303125,2715.1,-76.103125,494.303125,2815.4,-76.103125,494.303125,2921,-76.103125,494.303125,3025.1,-76.103125,494.303125,3129.6,-76.103125,494.303125,3230.2,-76.103125,494.303125,3332.2,-76.103125,494.303125,3437.5,-76.103125,494.303125,3545.2,-76.103125,494.303125,3651.1,-76.103125,494.303125,3755.3,-76.103125,494.303125,3859.1,-76.103125,494.303125,3967.1,-76.103125,494.303125,4070.2,-76.103125,494.303125,4184.5,-76.103125,494.303125,4285.5,-76.103125,494.303125,4395.4,-76.103125,494.303125,4496.2,-76.103125,494.303125,4601.5,-76.103125,494.303125,4701.8,-76.103125,494.303125,4805.4,-76.103125,494.303125,4915.9]","[1395.4,1395.4,1000,0,395.4,""oops"",""down"",""up"",""bad_move"",4683.5,3287.4,2887,1396.2,400.4,""oops"",""left"",""left"",""good_move"",7565.1,2879.8,2481.6,4685.4,398.1,""oops"",""left"",""down"",""good_move"",10503.8,2938.2,2390.2,7565.6,548,""oops"",""left"",""up"",""bad_move"",13683.6,3177.7,2633.1,10505.9,544.6,""smooth"",""left"",""left"",""good_move"",16931.2,3247.4,2718.3,13683.8,529.1,""smooth"",""left"",""left"",""good_move"",19942.8,3011.3,2600.9,16931.5,410.4,""smooth"",""down"",""down"",""good_move"",26459.3,6515.7,2361.4,23644.4,453.5,""oops"",""down"",""down"",""good_move""]"
"27149","","<div style=""width:500px;"">
  <p>What determined the result of this run?</p>
  </div>","100","html-slider-response","44","1314322","0.0-7.0-1.6","219","1","2025-08-06 20:35:37","36c45c0696341be0efffe67d72a12abb","216.120.189.45","Mozilla/5.0 (Windows NT 10.0; Win64; x64) AppleWebKit/537.36 (KHTML, like Gecko) Chrome/138.0.0.0 Safari/537.36","WebKit","Chrome","138.0.0.0","Windows","10.0","https://app.prolific.com/","en-US,en;q=0.9","673594215b1a0b92d5835525","6877649eabb845cf142cd221","6893bc8706036b0c0edde964","1","673594215b1a0b92d5835525","1","2025-08-06T20:57:35.171Z","","","","AttribQ","","","","","","","","","","","50","","","","","","","","","","","","","","","","","","","","","","","","","","",""
"8208","","<div style=""width:500px;"">
  <p>How much control did you have over the ball?</p>
  </div>","36","html-slider-response","45","1322531","0.0-7.0-2.6","219","1","2025-08-06 20:35:37","36c45c0696341be0efffe67d72a12abb","216.120.189.45","Mozilla/5.0 (Windows NT 10.0; Win64; x64) AppleWebKit/537.36 (KHTML, like Gecko) Chrome/138.0.0.0 Safari/537.36","WebKit","Chrome","138.0.0.0","Windows","10.0","https://app.prolific.com/","en-US,en;q=0.9","673594215b1a0b92d5835525","6877649eabb845cf142cd221","6893bc8706036b0c0edde964","1","673594215b1a0b92d5835525","1","2025-08-06T20:57:43.380Z","","","","ControlQ","","","","","","","","","","","50","","","","","","","","","","","","","","","","","","","","","","","","","","",""
"8142","","<div style=""width:500px;"">
  <p>How would you describe your current emotional state?</p>
  </div>","0","html-slider-response","46","1330675","0.0-7.0-3.6","219","1","2025-08-06 20:35:37","36c45c0696341be0efffe67d72a12abb","216.120.189.45","Mozilla/5.0 (Windows NT 10.0; Win64; x64) AppleWebKit/537.36 (KHTML, like Gecko) Chrome/138.0.0.0 Safari/537.36","WebKit","Chrome","138.0.0.0","Windows","10.0","https://app.prolific.com/","en-US,en;q=0.9","673594215b1a0b92d5835525","6877649eabb845cf142cd221","6893bc8706036b0c0edde964","1","673594215b1a0b92d5835525","1","2025-08-06T20:57:51.524Z","","","","StressQ","","","","","","","","","","","50","","","","","","","","","","","","","","","","","","","","","","","","","","",""
"8124","","<div style=""width:500px;"">
  <p>What best describes how you currently feel?</p>
  </div>","100","html-slider-response","47","1338801","0.0-7.0-4.6","219","1","2025-08-06 20:35:37","36c45c0696341be0efffe67d72a12abb","216.120.189.45","Mozilla/5.0 (Windows NT 10.0; Win64; x64) AppleWebKit/537.36 (KHTML, like Gecko) Chrome/138.0.0.0 Safari/537.36","WebKit","Chrome","138.0.0.0","Windows","10.0","https://app.prolific.com/","en-US,en;q=0.9","673594215b1a0b92d5835525","6877649eabb845cf142cd221","6893bc8706036b0c0edde964","1","673594215b1a0b92d5835525","1","2025-08-06T20:57:59.650Z","","","","MotivationQ","","","","","","","","","","","50","","","","","","","","","","","","","","","","","","","","","","","","","","",""
"","","","","ctl-task-cpt","48","1371942","0.0-7.0-0.7","219","1","2025-08-06 20:35:37","36c45c0696341be0efffe67d72a12abb","216.120.189.45","Mozilla/5.0 (Windows NT 10.0; Win64; x64) AppleWebKit/537.36 (KHTML, like Gecko) Chrome/138.0.0.0 Safari/537.36","WebKit","Chrome","138.0.0.0","Windows","10.0","https://app.prolific.com/","en-US,en;q=0.9","673594215b1a0b92d5835525","6877649eabb845cf142cd221","6893bc8706036b0c0edde964","1","673594215b1a0b92d5835525","1","2025-08-06T20:58:32.791Z","","","","","","","","","","","","","","","","win-only","3","g1:SW,g2:NE","0.3","8","0","1342232.6","11234.7","16237","30121.6","1","4","8","6","2","-8","-9","0","0","0","1671.1","3000","-2320","[""up"",""right""]","{""num_key_presses"":4,""num_perfect"":1,""num_errors"":1,""num_randdir"":2,""num_randdir_good_moves"":0,""num_whilered"":0,""num_whileblue"":0,""num_blue"":0,""num_good_moves"":0}","[263.896875,259.303125,1.2,263.896875,259.303125,101.4,263.896875,259.303125,202.3,263.896875,259.303125,305.6,263.896875,259.303125,410.3,263.896875,259.303125,519.2,258.896875,235.303125,621.3,325.896875,136.303125,722.7,404.896875,122.303125,823.5,404.896875,122.303125,931.7,404.896875,122.303125,1034.5,475.896875,36.303125,1138.3,484.896875,26.303125,1244.1,484.896875,26.303125,1350.4,484.896875,26.303125,1451.7,484.896875,26.303125,1557.7,484.896875,26.303125,1659,484.896875,26.303125,1768.3,484.896875,26.303125,1868.4,484.896875,26.303125,1973.1,523.896875,53.303125,2074.4,581.896875,96.303125,2183,581.896875,96.303125,2284.9,581.896875,96.303125,2390.4,581.896875,96.303125,2497.3,581.896875,96.303125,2603.8,581.896875,96.303125,2708.9,581.896875,96.303125,2813.1,581.896875,96.303125,2917.1,581.896875,96.303125,3017.2,581.896875,96.303125,3118.9,581.896875,96.303125,3219.2,581.896875,96.303125,3323.7,581.896875,96.303125,3427.6,581.896875,96.303125,3528.3,581.896875,96.303125,3636.5,581.896875,96.303125,3745.2,581.896875,96.303125,3848.5,581.896875,96.303125,3952.3,581.896875,96.303125,4053.2,581.896875,96.303125,4159.9,581.896875,96.303125,4272.5,581.896875,96.303125,4379.5,581.896875,96.303125,4484.2,581.896875,96.303125,4586.8,581.896875,96.303125,4692.6,581.896875,96.303125,4794.4,581.896875,96.303125,4899.9]","[1804.3,1804.3,1000,0,804.3,""oops"",""up"",""left"",""bad_move"",4089.8,2284.9,1726.5,1804.9,558.4,""smooth"",""down"",""down"",""bad_move"",6055.9,1964.8,2582.1,4091.1,-617.3,""error"",""-"",""-"",""no_move"",10349.5,4292.9,2504.9,7060.7,783.9,""oops"",""right"",""down"",""bad_move""]"
"7852","","<div style=""width:500px;"">
  <p>What determined the result of this run?</p>
  </div>","88","html-slider-response","49","1379795","0.0-7.0-1.7","219","1","2025-08-06 20:35:37","36c45c0696341be0efffe67d72a12abb","216.120.189.45","Mozilla/5.0 (Windows NT 10.0; Win64; x64) AppleWebKit/537.36 (KHTML, like Gecko) Chrome/138.0.0.0 Safari/537.36","WebKit","Chrome","138.0.0.0","Windows","10.0","https://app.prolific.com/","en-US,en;q=0.9","673594215b1a0b92d5835525","6877649eabb845cf142cd221","6893bc8706036b0c0edde964","1","673594215b1a0b92d5835525","1","2025-08-06T20:58:40.644Z","","","","AttribQ","","","","","","","","","","","50","","","","","","","","","","","","","","","","","","","","","","","","","","",""
"4877","","<div style=""width:500px;"">
  <p>How much control did you have over the ball?</p>
  </div>","69","html-slider-response","50","1384673","0.0-7.0-2.7","219","1","2025-08-06 20:35:37","36c45c0696341be0efffe67d72a12abb","216.120.189.45","Mozilla/5.0 (Windows NT 10.0; Win64; x64) AppleWebKit/537.36 (KHTML, like Gecko) Chrome/138.0.0.0 Safari/537.36","WebKit","Chrome","138.0.0.0","Windows","10.0","https://app.prolific.com/","en-US,en;q=0.9","673594215b1a0b92d5835525","6877649eabb845cf142cd221","6893bc8706036b0c0edde964","1","673594215b1a0b92d5835525","1","2025-08-06T20:58:45.522Z","","","","ControlQ","","","","","","","","","","","50","","","","","","","","","","","","","","","","","","","","","","","","","","",""
"5248","","<div style=""width:500px;"">
  <p>How would you describe your current emotional state?</p>
  </div>","0","html-slider-response","51","1389922","0.0-7.0-3.7","219","1","2025-08-06 20:35:37","36c45c0696341be0efffe67d72a12abb","216.120.189.45","Mozilla/5.0 (Windows NT 10.0; Win64; x64) AppleWebKit/537.36 (KHTML, like Gecko) Chrome/138.0.0.0 Safari/537.36","WebKit","Chrome","138.0.0.0","Windows","10.0","https://app.prolific.com/","en-US,en;q=0.9","673594215b1a0b92d5835525","6877649eabb845cf142cd221","6893bc8706036b0c0edde964","1","673594215b1a0b92d5835525","1","2025-08-06T20:58:50.771Z","","","","StressQ","","","","","","","","","","","50","","","","","","","","","","","","","","","","","","","","","","","","","","",""
"6910","","<div style=""width:500px;"">
  <p>What best describes how you currently feel?</p>
  </div>","100","html-slider-response","52","1396835","0.0-7.0-4.7","219","1","2025-08-06 20:35:37","36c45c0696341be0efffe67d72a12abb","216.120.189.45","Mozilla/5.0 (Windows NT 10.0; Win64; x64) AppleWebKit/537.36 (KHTML, like Gecko) Chrome/138.0.0.0 Safari/537.36","WebKit","Chrome","138.0.0.0","Windows","10.0","https://app.prolific.com/","en-US,en;q=0.9","673594215b1a0b92d5835525","6877649eabb845cf142cd221","6893bc8706036b0c0edde964","1","673594215b1a0b92d5835525","1","2025-08-06T20:58:57.684Z","","","","MotivationQ","","","","","","","","","","","50","","","","","","","","","","","","","","","","","","","","","","","","","","",""
"","","","","ctl-task-cpt","53","1427460","0.0-7.0-0.8","219","1","2025-08-06 20:35:37","36c45c0696341be0efffe67d72a12abb","216.120.189.45","Mozilla/5.0 (Windows NT 10.0; Win64; x64) AppleWebKit/537.36 (KHTML, like Gecko) Chrome/138.0.0.0 Safari/537.36","WebKit","Chrome","138.0.0.0","Windows","10.0","https://app.prolific.com/","en-US,en;q=0.9","673594215b1a0b92d5835525","6877649eabb845cf142cd221","6893bc8706036b0c0edde964","1","673594215b1a0b92d5835525","1","2025-08-06T20:59:28.309Z","","","","","","","","","","","","","","","","win-only","2","g1:SE,g2:NW","0.4","9","0","1400268.7","2365.4","7367.3","27602.9","1","4","8","6","2","-8","-8","0","0","0","2462.7","3000","-2380","[""left"",""up""]","{""num_key_presses"":3,""num_perfect"":1,""num_errors"":0,""num_randdir"":2,""num_randdir_good_moves"":0,""num_whilered"":0,""num_whileblue"":0,""num_blue"":2,""num_good_moves"":1}","[257.896875,259.303125,2.5,257.896875,259.303125,100.9,257.896875,259.303125,202.9,257.896875,259.303125,306.2,257.896875,259.303125,417.4,257.896875,270.303125,520.4,262.896875,342.303125,629.7,266.896875,357.303125,731.4,266.896875,357.303125,836.2,266.896875,357.303125,936.6,208.896875,199.303125,1036.7,195.896875,131.303125,1136.9,195.896875,131.303125,1248.2,195.896875,131.303125,1351,154.896875,102.303125,1452.6,100.896875,82.303125,1553.2,112.896875,75.303125,1655.8,112.896875,75.303125,1765.5,112.896875,75.303125,1865.8,102.896875,74.303125,1977.8,63.896875,58.303125,2078.3,49.896875,54.303125,2182.3,49.896875,54.303125,2286.1,49.896875,54.303125,2387.5,49.896875,54.303125,2493.6,49.896875,54.303125,2598.5,49.896875,54.303125,2701.9,4.896875000000001,54.303125,2802,-106.103125,67.303125,2905.9,-111.103125,76.303125,3019.3,-111.103125,76.303125,3122.6,-111.103125,76.303125,3231.6,-111.103125,76.303125,3336.4,-111.103125,76.303125,3438.6,-111.103125,76.303125,3546.5,-111.103125,76.303125,3648.2,-111.103125,76.303125,3750.9,-111.103125,76.303125,3850.9,-111.103125,76.303125,3955.2,-111.103125,76.303125,4062.9,-111.103125,76.303125,4166.7,-111.103125,76.303125,4266.8,-111.103125,76.303125,4366.9,-111.103125,76.303125,4467.3,-111.103125,76.303125,4569.9,-111.103125,76.303125,4671,-111.103125,76.303125,4776.2,-111.103125,76.303125,4881.9,-111.103125,76.303125,4985]","[1699.2,1699.2,1000,0,699.2,""smooth"",""up"",""up"",""good_move"",8790.9,7091,2625.8,5481.5,683.6,""oops"",""up"",""down"",""bad_move"",14133.3,5341.1,3010.1,8792.3,2330.9,""oops"",""up"",""down"",""bad_move""]"
"17931","","<div style=""width:500px;"">
  <p>What determined the result of this run?</p>
  </div>","89","html-slider-response","54","1445393","0.0-7.0-1.8","219","1","2025-08-06 20:35:37","36c45c0696341be0efffe67d72a12abb","216.120.189.45","Mozilla/5.0 (Windows NT 10.0; Win64; x64) AppleWebKit/537.36 (KHTML, like Gecko) Chrome/138.0.0.0 Safari/537.36","WebKit","Chrome","138.0.0.0","Windows","10.0","https://app.prolific.com/","en-US,en;q=0.9","673594215b1a0b92d5835525","6877649eabb845cf142cd221","6893bc8706036b0c0edde964","1","673594215b1a0b92d5835525","1","2025-08-06T20:59:46.242Z","","","","AttribQ","","","","","","","","","","","50","","","","","","","","","","","","","","","","","","","","","","","","","","",""
"11875","","<div style=""width:500px;"">
  <p>How much control did you have over the ball?</p>
  </div>","51","html-slider-response","55","1457270","0.0-7.0-2.8","219","1","2025-08-06 20:35:37","36c45c0696341be0efffe67d72a12abb","216.120.189.45","Mozilla/5.0 (Windows NT 10.0; Win64; x64) AppleWebKit/537.36 (KHTML, like Gecko) Chrome/138.0.0.0 Safari/537.36","WebKit","Chrome","138.0.0.0","Windows","10.0","https://app.prolific.com/","en-US,en;q=0.9","673594215b1a0b92d5835525","6877649eabb845cf142cd221","6893bc8706036b0c0edde964","1","673594215b1a0b92d5835525","1","2025-08-06T20:59:58.119Z","","","","ControlQ","","","","","","","","","","","50","","","","","","","","","","","","","","","","","","","","","","","","","","",""
"4905","","<div style=""width:500px;"">
  <p>How would you describe your current emotional state?</p>
  </div>","100","html-slider-response","56","1462177","0.0-7.0-3.8","219","1","2025-08-06 20:35:37","36c45c0696341be0efffe67d72a12abb","216.120.189.45","Mozilla/5.0 (Windows NT 10.0; Win64; x64) AppleWebKit/537.36 (KHTML, like Gecko) Chrome/138.0.0.0 Safari/537.36","WebKit","Chrome","138.0.0.0","Windows","10.0","https://app.prolific.com/","en-US,en;q=0.9","673594215b1a0b92d5835525","6877649eabb845cf142cd221","6893bc8706036b0c0edde964","1","673594215b1a0b92d5835525","1","2025-08-06T21:00:03.026Z","","","","StressQ","","","","","","","","","","","50","","","","","","","","","","","","","","","","","","","","","","","","","","",""
"5692","","<div style=""width:500px;"">
  <p>What best describes how you currently feel?</p>
  </div>","100","html-slider-response","57","1467872","0.0-7.0-4.8","219","1","2025-08-06 20:35:37","36c45c0696341be0efffe67d72a12abb","216.120.189.45","Mozilla/5.0 (Windows NT 10.0; Win64; x64) AppleWebKit/537.36 (KHTML, like Gecko) Chrome/138.0.0.0 Safari/537.36","WebKit","Chrome","138.0.0.0","Windows","10.0","https://app.prolific.com/","en-US,en;q=0.9","673594215b1a0b92d5835525","6877649eabb845cf142cd221","6893bc8706036b0c0edde964","1","673594215b1a0b92d5835525","1","2025-08-06T21:00:08.722Z","","","","MotivationQ","","","","","","","","","","","50","","","","","","","","","","","","","","","","","","","","","","","","","","",""
"","","","","ctl-task-cpt","58","1491736","0.0-7.0-0.9","219","1","2025-08-06 20:35:37","36c45c0696341be0efffe67d72a12abb","216.120.189.45","Mozilla/5.0 (Windows NT 10.0; Win64; x64) AppleWebKit/537.36 (KHTML, like Gecko) Chrome/138.0.0.0 Safari/537.36","WebKit","Chrome","138.0.0.0","Windows","10.0","https://app.prolific.com/","en-US,en;q=0.9","673594215b1a0b92d5835525","6877649eabb845cf142cd221","6893bc8706036b0c0edde964","1","673594215b1a0b92d5835525","1","2025-08-06T21:00:32.585Z","","","","","","","","","","","","","","","","win-only","3","g1:SW,g2:NE","0.5","10","0","1471305.7","3585.4","8592.5","20828.2","1","4","4","6","2","-4","-4","0","0","0","2189.1","3000","-2050","[""up"",""right""]","{""num_key_presses"":3,""num_perfect"":1,""num_errors"":0,""num_randdir"":2,""num_randdir_good_moves"":0,""num_whilered"":0,""num_whileblue"":0,""num_blue"":0,""num_good_moves"":1}","[266.896875,256.303125,0.3,266.896875,256.303125,101.5,266.896875,256.303125,205.2,266.896875,256.303125,306.2,266.896875,256.303125,406.4,266.896875,256.303125,506.5,266.896875,256.303125,610.1,255.896875,251.303125,712.3,257.896875,249.303125,823.1,257.896875,249.303125,925,257.896875,249.303125,1025.6,377.896875,125.303125,1129.2,377.896875,125.303125,1237.1,377.896875,125.303125,1345.5,389.896875,114.303125,1446.4,550.896875,20.303125,1549.8,515.896875,51.303125,1650.2,500.896875,51.303125,1752.9,467.896875,39.303125,1857,465.896875,39.303125,1957.7,465.896875,39.303125,2062.9,465.896875,39.303125,2164.6,465.896875,39.303125,2272.2,465.896875,39.303125,2374.9,465.896875,39.303125,2479.4,465.896875,39.303125,2582,465.896875,39.303125,2691.4,465.896875,39.303125,2795.3,465.896875,39.303125,2896.8,465.896875,39.303125,3000.5,465.896875,39.303125,3104.2,465.896875,39.303125,3205.4,465.896875,39.303125,3319.1,465.896875,39.303125,3420.9,465.896875,39.303125,3521.5,465.896875,39.303125,3622.3,465.896875,39.303125,3722.3,465.896875,39.303125,3823.2,465.896875,39.303125,3926.5,465.896875,39.303125,4027.3,465.896875,39.303125,4130.8,465.896875,39.303125,4234.6,465.896875,39.303125,4337.6,465.896875,39.303125,4441,465.896875,39.303125,4547.1,465.896875,39.303125,4657.2,465.896875,39.303125,4757.2,465.896875,39.303125,4858.1,465.896875,39.303125,4961.1]","[1969.9,1969.9,1000,0,970,""oops"",""down"",""down"",""bad_move"",5896.9,3926.4,2646.1,1970.5,1280.3,""oops"",""right"",""left"",""bad_move"",9101.1,3203.8,2650,5897.3,553.8,""smooth"",""right"",""right"",""good_move""]"