"rt","response_timestamp","stimulus","response","trial_type","trial_index","time_elapsed","internal_node_id","run_id","condition","recorded_at","source_code_version","ip","user_agent","device","browser","browser_version","platform","platform_version","referer","accept_language","PROLIFIC_PID","STUDY_ID","SESSION_ID","BATCH","prolific_id","batch","realtime","success","question_order","question_id","eventType","responses","item_order","radio_event_ids","radio_event_times","key_event_times","mouse_event_times","straightlining","zigzagging","honeypot","view_history","slider_start","which_type","canvas_config","goals_layout","control_level","trial_number","tutorial_trial_number","trial_start_time","phase1_start_time","phase2_start_time","phase3_start_time","goal_1_value","goal_1_distance","goal_2_value","goal_2_distance","goal_selected","outcome","outcome_total","participant_final_score","participant_initial_score","participant_final_score_prop","goal_choice_rt","allocated_time","allocated_time_remaining","goal_direction","counts","mouse_movements","key_presses"
"6673","1753868124365","<p style='font-size:40px;line-height:1.25'><strong>Welcome to the experiment!</strong></p><p style='font-size:1.1em;line-height:1.25'>Thank you for participanting in our experiment again! You will be asked to play the Dysfunctional Ball Game again. We will briefly recap the rules before we start.</p><p style='font-size:1.1em;line-height:1.25'>Press <strong>Next</strong> to continue.</p>","0","custom-html-button-response","0","6677","0.0-0.0","83","1","2025-07-30 09:35:15","36c45c0696341be0efffe67d72a12abb","41.121.10.181","Mozilla/5.0 (Windows NT 10.0; Win64; x64) AppleWebKit/537.36 (KHTML, like Gecko) Chrome/138.0.0.0 Safari/537.36 Edg/138.0.0.0","WebKit","Edge","138.0.0.0","Windows","10.0","https://app.prolific.com/","en-US,en;q=0.9","6742fd0efbb5712e14e693e5","687a360dabe5252b5ada7185","6889e65962c1ec2b07bb84fe","0","6742fd0efbb5712e14e693e5","0","2025-07-30T09:35:24.368Z","","","","","","","","","","","","","","","","","","","","","","","","","","","","","","","","","","","","","","","","","",""
"7669","","","","fullscreen","1","15360","0.0-1.0","83","1","2025-07-30 09:35:15","36c45c0696341be0efffe67d72a12abb","41.121.10.181","Mozilla/5.0 (Windows NT 10.0; Win64; x64) AppleWebKit/537.36 (KHTML, like Gecko) Chrome/138.0.0.0 Safari/537.36 Edg/138.0.0.0","WebKit","Edge","138.0.0.0","Windows","10.0","https://app.prolific.com/","en-US,en;q=0.9","6742fd0efbb5712e14e693e5","687a360dabe5252b5ada7185","6889e65962c1ec2b07bb84fe","0","6742fd0efbb5712e14e693e5","0","","true","","","","","","","","","","","","","","","","","","","","","","","","","","","","","","","","","","","","","","","","",""
"4300","1753868137351"," <p style='font-size:1.1em;line-height:1.25'>Thank you for closing all other tabs.</p><p style='font-size:1.1em;line-height:1.25'>We will now invite you to fill in some questionnaires, before starting the game.<br>This will take about 5 minutes.<br></p><p style='font-size:1.1em;line-height:1.25'>Press the <strong>Next</strong> button to continue.</p>","0","custom-html-button-response","2","19662","0.0-2.0","83","1","2025-07-30 09:35:15","36c45c0696341be0efffe67d72a12abb","41.121.10.181","Mozilla/5.0 (Windows NT 10.0; Win64; x64) AppleWebKit/537.36 (KHTML, like Gecko) Chrome/138.0.0.0 Safari/537.36 Edg/138.0.0.0","WebKit","Edge","138.0.0.0","Windows","10.0","https://app.prolific.com/","en-US,en;q=0.9","6742fd0efbb5712e14e693e5","687a360dabe5252b5ada7185","6889e65962c1ec2b07bb84fe","0","6742fd0efbb5712e14e693e5","0","2025-07-30T09:35:37.352Z","","","","","","","","","","","","","","","","","","","","","","","","","","","","","","","","","","","","","","","","","",""
"3845","","","{""assigned_sex"":""female""}","survey-multi-choice","3","23511","0.0-3.0-0.0","83","1","2025-07-30 09:35:15","36c45c0696341be0efffe67d72a12abb","41.121.10.181","Mozilla/5.0 (Windows NT 10.0; Win64; x64) AppleWebKit/537.36 (KHTML, like Gecko) Chrome/138.0.0.0 Safari/537.36 Edg/138.0.0.0","WebKit","Edge","138.0.0.0","Windows","10.0","https://app.prolific.com/","en-US,en;q=0.9","6742fd0efbb5712e14e693e5","687a360dabe5252b5ada7185","6889e65962c1ec2b07bb84fe","0","6742fd0efbb5712e14e693e5","0","","","[0]","0","demographics","","","","","","","","","","","","","","","","","","","","","","","","","","","","","","","","","","","","","",""
"22564","1753868163766","<p style='font-size:1.1em;line-height:1.25'>In the following, we will perform a baseline assessment. This means that we will ask you a few questions relating to your experiences over the past month.<br></p><p style='font-size:1.1em;line-height:1.25'>Press the <strong>Next</strong> button to continue.</p>","0","custom-html-button-response","4","46077","0.0-4.0-0.0","83","1","2025-07-30 09:35:15","36c45c0696341be0efffe67d72a12abb","41.121.10.181","Mozilla/5.0 (Windows NT 10.0; Win64; x64) AppleWebKit/537.36 (KHTML, like Gecko) Chrome/138.0.0.0 Safari/537.36 Edg/138.0.0.0","WebKit","Edge","138.0.0.0","Windows","10.0","https://app.prolific.com/","en-US,en;q=0.9","6742fd0efbb5712e14e693e5","687a360dabe5252b5ada7185","6889e65962c1ec2b07bb84fe","0","6742fd0efbb5712e14e693e5","0","2025-07-30T09:36:03.767Z","","","","","","","","","","","","","","","","","","","","","","","","","","","","","","","","","","","","","","","","","",""
"61785.89999985695","","","","survey-template","5","107869","0.0-4.0-1.0","83","1","2025-07-30 09:35:15","36c45c0696341be0efffe67d72a12abb","41.121.10.181","Mozilla/5.0 (Windows NT 10.0; Win64; x64) AppleWebKit/537.36 (KHTML, like Gecko) Chrome/138.0.0.0 Safari/537.36 Edg/138.0.0.0","WebKit","Edge","138.0.0.0","Windows","10.0","https://app.prolific.com/","en-US,en;q=0.9","6742fd0efbb5712e14e693e5","687a360dabe5252b5ada7185","6889e65962c1ec2b07bb84fe","0","6742fd0efbb5712e14e693e5","0","2025-07-30T09:37:05.560Z","","","","pss","{""Q01"":""0"",""Q02"":""0"",""Q03"":""0"",""Q04"":""0"",""Q05"":""0"",""Q06"":""0"",""Q07"":""0"",""Q08"":""0"",""Q09"":""0"",""Q10"":""1""}","[0,1,2,3,4,5,6,7,8,9]","[""Q01"",""Q02"",""Q03"",""Q04"",""Q05"",""Q06"",""Q07"",""Q08"",""Q09"",""Q10""]","[20744.199999809265,24697.099999904633,27574,32423.099999904633,35872.89999985695,40046.299999952316,45006.39999985695,49306.09999990463,56188.199999809265,60517.799999952316]","[]","[0.19999980926513672,18967.199999809265,20744.199999809265,24697.099999904633,27574,32423.099999904633,35872.89999985695,40046.299999952316,45006.39999985695,49306.09999990463,56188.199999809265,60517.799999952316,61782.299999952316]","0.5","0.5555555555555556","0","","","","","","","","","","","","","","","","","","","","","","","","","","","","",""
"2783","1753868228344","<p style='font-size:1.1em;line-height:1.25'>Thank you for your answers! Now we will ask you a few more questions relating to your feelings in the last 24 hours.<br></p><p style='font-size:1.1em;line-height:1.25'>Press the <strong>Next</strong> button to continue.</p>","0","custom-html-button-response","6","110655","0.0-4.0-2.0","83","1","2025-07-30 09:35:15","36c45c0696341be0efffe67d72a12abb","41.121.10.181","Mozilla/5.0 (Windows NT 10.0; Win64; x64) AppleWebKit/537.36 (KHTML, like Gecko) Chrome/138.0.0.0 Safari/537.36 Edg/138.0.0.0","WebKit","Edge","138.0.0.0","Windows","10.0","https://app.prolific.com/","en-US,en;q=0.9","6742fd0efbb5712e14e693e5","687a360dabe5252b5ada7185","6889e65962c1ec2b07bb84fe","0","6742fd0efbb5712e14e693e5","0","2025-07-30T09:37:08.345Z","","","","","","","","","","","","","","","","","","","","","","","","","","","","","","","","","","","","","","","","","",""
"76650.29999995232","","","","survey-template","7","187312","0.0-4.0-3.0","83","1","2025-07-30 09:35:15","36c45c0696341be0efffe67d72a12abb","41.121.10.181","Mozilla/5.0 (Windows NT 10.0; Win64; x64) AppleWebKit/537.36 (KHTML, like Gecko) Chrome/138.0.0.0 Safari/537.36 Edg/138.0.0.0","WebKit","Edge","138.0.0.0","Windows","10.0","https://app.prolific.com/","en-US,en;q=0.9","6742fd0efbb5712e14e693e5","687a360dabe5252b5ada7185","6889e65962c1ec2b07bb84fe","0","6742fd0efbb5712e14e693e5","0","2025-07-30T09:38:25.002Z","","","","drsp","{""Q01"":""0"",""Q02"":""0"",""Q03"":""0"",""Q04"":""0"",""Q05"":""1"",""Q06"":""0"",""Q07"":""0"",""Q08"":""0"",""Q09"":""3"",""Q10"":""2"",""Q11"":""3"",""Q12"":""4"",""Q13"":""5"",""Q14"":""5"",""Q15"":""4"",""Q16"":""2"",""Q17"":""0"",""Q18"":""0"",""Q19"":""1"",""Q20"":""2"",""Q21"":""3"",""Q22"":""4""}","[0,1,2,3,4,5,6,7,8,9,10,11,12,13,14,15,16,17,18,19,20,21]","[""Q01"",""Q02"",""Q03"",""Q04"",""Q05"",""Q06"",""Q07"",""Q08"",""Q09"",""Q10"",""Q11"",""Q12"",""Q13"",""Q14"",""Q15"",""Q16"",""Q17"",""Q18"",""Q19"",""Q20"",""Q21"",""Q22""]","[5506.400000095367,7000,8549.700000047684,9983.700000047684,12052.799999952316,15579.900000095367,16740.799999952316,18124.299999952316,20164.099999904633,26987.700000047684,30764.400000095367,32759.799999952316,35809.90000009537,37449.59999990463,46525.299999952316,49678.799999952316,54284.200000047684,55715.700000047684,61469.09999990463,66800.09999990463,70274,75490.79999995232]","[]","[0.20000004768371582,2778.2999999523163,4009.0999999046326,5506.400000095367,7000,8549.700000047684,9983.700000047684,12052.799999952316,13878.099999904633,15579.900000095367,16740.799999952316,18124.299999952316,20164.099999904633,25801.200000047684,26987.700000047684,30764.400000095367,32759.799999952316,35809.90000009537,37449.59999990463,46525.299999952316,49678.799999952316,54284.200000047684,55715.700000047684,58849.59999990463,59072.09999990463,60273.799999952316,61469.09999990463,65723.59999990463,66800.09999990463,70274,75490.79999995232,76644.29999995232]","0.4090909090909091","0.5238095238095238","0","","","","","","","","","","","","","","","","","","","","","","","","","","","","",""
"10346.299999952316","","","","survey-template","8","197663","0.0-4.0-4.0","83","1","2025-07-30 09:35:15","36c45c0696341be0efffe67d72a12abb","41.121.10.181","Mozilla/5.0 (Windows NT 10.0; Win64; x64) AppleWebKit/537.36 (KHTML, like Gecko) Chrome/138.0.0.0 Safari/537.36 Edg/138.0.0.0","WebKit","Edge","138.0.0.0","Windows","10.0","https://app.prolific.com/","en-US,en;q=0.9","6742fd0efbb5712e14e693e5","687a360dabe5252b5ada7185","6889e65962c1ec2b07bb84fe","0","6742fd0efbb5712e14e693e5","0","2025-07-30T09:38:35.354Z","","","","stress","{""Q01"":""0"",""Q02"":""0"",""Q03"":""0""}","[0,1,2]","[""Q01"",""Q02"",""Q03""]","[2477.399999856949,4754.399999856949,8939]","[]","[2477.399999856949,4754.399999856949,7786.799999952316,8939,10343.5]","0.6666666666666666","1","0","","","","","","","","","","","","","","","","","","","","","","","","","","","","",""
"23886","","","","instructions","9","221552","0.0-5.0-0.0","83","1","2025-07-30 09:35:15","36c45c0696341be0efffe67d72a12abb","41.121.10.181","Mozilla/5.0 (Windows NT 10.0; Win64; x64) AppleWebKit/537.36 (KHTML, like Gecko) Chrome/138.0.0.0 Safari/537.36 Edg/138.0.0.0","WebKit","Edge","138.0.0.0","Windows","10.0","https://app.prolific.com/","en-US,en;q=0.9","6742fd0efbb5712e14e693e5","687a360dabe5252b5ada7185","6889e65962c1ec2b07bb84fe","0","6742fd0efbb5712e14e693e5","0","","","","","","","","","","","","","","","[{""page_index"":0,""viewing_time"":23885}]","","","","","","","","","","","","","","","","","","","","","","","","","","","",""
"8088","","<p>Before you start with this game please answer the following three questions yourself. </p>
  <p>Through this game, we measure several aspects of your cognitive performance, such as reaction times, multi-tasking capabilities </p>
  <p>and the ability to assess the situation you are in.</p>
  <p></p>
  <p><b>How good do you usually are in such tasks?</b></p>","98","html-slider-response","10","229643","0.0-6.0-0.0","83","1","2025-07-30 09:35:15","36c45c0696341be0efffe67d72a12abb","41.121.10.181","Mozilla/5.0 (Windows NT 10.0; Win64; x64) AppleWebKit/537.36 (KHTML, like Gecko) Chrome/138.0.0.0 Safari/537.36 Edg/138.0.0.0","WebKit","Edge","138.0.0.0","Windows","10.0","https://app.prolific.com/","en-US,en;q=0.9","6742fd0efbb5712e14e693e5","687a360dabe5252b5ada7185","6889e65962c1ec2b07bb84fe","0","6742fd0efbb5712e14e693e5","0","2025-07-30T09:39:07.333Z","","","","PreSkillQ","","","","","","","","","","","50","","","","","","","","","","","","","","","","","","","","","","","","","","",""
"4990","","<div style=""width:500px;"">
  <p>How well do you think you will perform in this task compared to other participants?</p>
  </div>","100","html-slider-response","11","234637","0.0-6.0-1.0","83","1","2025-07-30 09:35:15","36c45c0696341be0efffe67d72a12abb","41.121.10.181","Mozilla/5.0 (Windows NT 10.0; Win64; x64) AppleWebKit/537.36 (KHTML, like Gecko) Chrome/138.0.0.0 Safari/537.36 Edg/138.0.0.0","WebKit","Edge","138.0.0.0","Windows","10.0","https://app.prolific.com/","en-US,en;q=0.9","6742fd0efbb5712e14e693e5","687a360dabe5252b5ada7185","6889e65962c1ec2b07bb84fe","0","6742fd0efbb5712e14e693e5","0","2025-07-30T09:39:12.327Z","","","","PrePerfQ","","","","","","","","","","","50","","","","","","","","","","","","","","","","","","","","","","","","","","",""
"3704","","<div style=""width:500px;"">
  <p>What best describes how you currently feel?</p>
  </div>","100","html-slider-response","12","238344","0.0-6.0-2.0","83","1","2025-07-30 09:35:15","36c45c0696341be0efffe67d72a12abb","41.121.10.181","Mozilla/5.0 (Windows NT 10.0; Win64; x64) AppleWebKit/537.36 (KHTML, like Gecko) Chrome/138.0.0.0 Safari/537.36 Edg/138.0.0.0","WebKit","Edge","138.0.0.0","Windows","10.0","https://app.prolific.com/","en-US,en;q=0.9","6742fd0efbb5712e14e693e5","687a360dabe5252b5ada7185","6889e65962c1ec2b07bb84fe","0","6742fd0efbb5712e14e693e5","0","2025-07-30T09:39:16.034Z","","","","PreMotivationQ","","","","","","","","","","","50","","","","","","","","","","","","","","","","","","","","","","","","","","",""
"","","","","ctl-task-cpt","13","273513","0.0-7.0-0.0","83","1","2025-07-30 09:35:15","36c45c0696341be0efffe67d72a12abb","41.121.10.181","Mozilla/5.0 (Windows NT 10.0; Win64; x64) AppleWebKit/537.36 (KHTML, like Gecko) Chrome/138.0.0.0 Safari/537.36 Edg/138.0.0.0","WebKit","Edge","138.0.0.0","Windows","10.0","https://app.prolific.com/","en-US,en;q=0.9","6742fd0efbb5712e14e693e5","687a360dabe5252b5ada7185","6889e65962c1ec2b07bb84fe","0","6742fd0efbb5712e14e693e5","0","2025-07-30T09:39:51.204Z","","","","","","","","","","","","","","","","win-only","3","g1:SW,g2:NE","1","1","0","242223.8","1931.8","6932.8","32155.2","1","4","4","6","2","4","3","3","0","0.022727272727272728","1772.1","3000","1055","[""up"",""right""]","{""num_key_presses"":7,""num_perfect"":6,""num_errors"":1,""num_randdir"":0,""num_randdir_good_moves"":0,""num_whilered"":0,""num_whileblue"":0,""num_blue"":2,""num_good_moves"":6}","[419.0714133126395,416.57142761775424,0.5,419.0714133126395,416.57142761775424,104.6,419.0714133126395,416.57142761775424,209.8,419.0714133126395,416.57142761775424,317.2,419.0714133126395,416.57142761775424,417.6,419.0714133126395,416.57142761775424,518.2,419.0714133126395,416.57142761775424,620.5,419.0714133126395,416.57142761775424,724.5,419.0714133126395,416.57142761775424,825.4,459.0714133126395,354.07142761775424,935,527.8214133126395,294.07142761775424,1040.3,624.0714133126395,194.07142761775424,1143.9,677.8214133126395,165.32142761775424,1244.3,706.5714133126395,146.57142761775424,1344.8,720.3214133126395,127.82142761775425,1448.8,749.0714133126395,110.32142761775425,1557.6,751.5714133126395,107.82142761775425,1660.5,751.5714133126395,107.82142761775425,1762.3,751.5714133126395,107.82142761775425,1868.9,751.5714133126395,107.82142761775425,1970.3,751.5714133126395,107.82142761775425,2075.4,751.5714133126395,107.82142761775425,2183.7,751.5714133126395,107.82142761775425,2290.2,712.8214133126395,159.07142761775424,2395.2,621.5714133126395,309.07142761775424,2503.6,594.0714133126395,394.07142761775424,2604.8,586.5714133126395,414.07142761775424,2706.1,586.5714133126395,414.07142761775424,2809.4,586.5714133126395,414.07142761775424,2916.2,586.5714133126395,414.07142761775424,3018.1,586.5714133126395,414.07142761775424,3119.4,586.5714133126395,414.07142761775424,3224.3,586.5714133126395,414.07142761775424,3325.7,586.5714133126395,414.07142761775424,3433.6,586.5714133126395,414.07142761775424,3533.9,586.5714133126395,414.07142761775424,3639.7,586.5714133126395,414.07142761775424,3744.4,586.5714133126395,414.07142761775424,3845.8,586.5714133126395,414.07142761775424,3950.5,586.5714133126395,414.07142761775424,4051.5,586.5714133126395,414.07142761775424,4152.4,586.5714133126395,414.07142761775424,4254.4,586.5714133126395,414.07142761775424,4359.7,586.5714133126395,414.07142761775424,4466,586.5714133126395,414.07142761775424,4567.8,586.5714133126395,414.07142761775424,4669.1,586.5714133126395,414.07142761775424,4769.4,586.5714133126395,414.07142761775424,4869.7,586.5714133126395,414.07142761775424,4974.9]","[1387.6,1387.5,1000,0.1,387.5,""smooth"",""up"",""up"",""good_move"",4735.8,3347.3,2827.6,1388.6,519.6,""smooth"",""right"",""right"",""good_move"",4969.4,232.6,2431.3,4736.8,-2198.7,""error"",""-"",""-"",""no_move"",8547.2,3576.8,2169.5,5980.7,397,""smooth"",""up"",""up"",""good_move"",15184.6,6637.1,2917.6,11898.7,368.4,""smooth"",""right"",""right"",""good_move"",18571.1,3385.9,2935.6,15185.2,450.3,""smooth"",""up"",""up"",""good_move"",25118,6546.4,2493.7,22308,316.3,""smooth"",""right"",""right"",""good_move""]"
"3977","","<div style=""width:500px;"">
  <p>What determined the result of this run?</p>
  </div>","100","html-slider-response","14","277493","0.0-7.0-1.0","83","1","2025-07-30 09:35:15","36c45c0696341be0efffe67d72a12abb","41.121.10.181","Mozilla/5.0 (Windows NT 10.0; Win64; x64) AppleWebKit/537.36 (KHTML, like Gecko) Chrome/138.0.0.0 Safari/537.36 Edg/138.0.0.0","WebKit","Edge","138.0.0.0","Windows","10.0","https://app.prolific.com/","en-US,en;q=0.9","6742fd0efbb5712e14e693e5","687a360dabe5252b5ada7185","6889e65962c1ec2b07bb84fe","0","6742fd0efbb5712e14e693e5","0","2025-07-30T09:39:55.184Z","","","","AttribQ","","","","","","","","","","","50","","","","","","","","","","","","","","","","","","","","","","","","","","",""
"3902","","<div style=""width:500px;"">
  <p>How much control did you have over the ball?</p>
  </div>","100","html-slider-response","15","281398","0.0-7.0-2.0","83","1","2025-07-30 09:35:15","36c45c0696341be0efffe67d72a12abb","41.121.10.181","Mozilla/5.0 (Windows NT 10.0; Win64; x64) AppleWebKit/537.36 (KHTML, like Gecko) Chrome/138.0.0.0 Safari/537.36 Edg/138.0.0.0","WebKit","Edge","138.0.0.0","Windows","10.0","https://app.prolific.com/","en-US,en;q=0.9","6742fd0efbb5712e14e693e5","687a360dabe5252b5ada7185","6889e65962c1ec2b07bb84fe","0","6742fd0efbb5712e14e693e5","0","2025-07-30T09:39:59.088Z","","","","ControlQ","","","","","","","","","","","50","","","","","","","","","","","","","","","","","","","","","","","","","","",""
"5382","","<div style=""width:500px;"">
  <p>How would you describe your current emotional state?</p>
  </div>","0","html-slider-response","16","286783","0.0-7.0-3.0","83","1","2025-07-30 09:35:15","36c45c0696341be0efffe67d72a12abb","41.121.10.181","Mozilla/5.0 (Windows NT 10.0; Win64; x64) AppleWebKit/537.36 (KHTML, like Gecko) Chrome/138.0.0.0 Safari/537.36 Edg/138.0.0.0","WebKit","Edge","138.0.0.0","Windows","10.0","https://app.prolific.com/","en-US,en;q=0.9","6742fd0efbb5712e14e693e5","687a360dabe5252b5ada7185","6889e65962c1ec2b07bb84fe","0","6742fd0efbb5712e14e693e5","0","2025-07-30T09:40:04.473Z","","","","StressQ","","","","","","","","","","","50","","","","","","","","","","","","","","","","","","","","","","","","","","",""
"3756","","<div style=""width:500px;"">
  <p>What best describes how you currently feel?</p>
  </div>","100","html-slider-response","17","290542","0.0-7.0-4.0","83","1","2025-07-30 09:35:15","36c45c0696341be0efffe67d72a12abb","41.121.10.181","Mozilla/5.0 (Windows NT 10.0; Win64; x64) AppleWebKit/537.36 (KHTML, like Gecko) Chrome/138.0.0.0 Safari/537.36 Edg/138.0.0.0","WebKit","Edge","138.0.0.0","Windows","10.0","https://app.prolific.com/","en-US,en;q=0.9","6742fd0efbb5712e14e693e5","687a360dabe5252b5ada7185","6889e65962c1ec2b07bb84fe","0","6742fd0efbb5712e14e693e5","0","2025-07-30T09:40:08.232Z","","","","MotivationQ","","","","","","","","","","","50","","","","","","","","","","","","","","","","","","","","","","","","","","",""
"","","","","ctl-task-cpt","18","320014","0.0-7.0-0.1","83","1","2025-07-30 09:35:15","36c45c0696341be0efffe67d72a12abb","41.121.10.181","Mozilla/5.0 (Windows NT 10.0; Win64; x64) AppleWebKit/537.36 (KHTML, like Gecko) Chrome/138.0.0.0 Safari/537.36 Edg/138.0.0.0","WebKit","Edge","138.0.0.0","Windows","10.0","https://app.prolific.com/","en-US,en;q=0.9","6742fd0efbb5712e14e693e5","687a360dabe5252b5ada7185","6889e65962c1ec2b07bb84fe","0","6742fd0efbb5712e14e693e5","0","2025-07-30T09:40:37.704Z","","","","","","","","","","","","","","","","win-only","2","g1:SE,g2:NW","0.9","2","0","294418.9","1902.1","6907","26457.1","1","4","8","6","2","8","8","11","3","0.08333333333333333","2003.3","3000","1190","[""left"",""up""]","{""num_key_presses"":6,""num_perfect"":6,""num_errors"":0,""num_randdir"":0,""num_randdir_good_moves"":0,""num_whilered"":0,""num_whileblue"":0,""num_blue"":1,""num_good_moves"":6}","[415.3214133126395,426.57142761775424,0.6,415.3214133126395,426.57142761775424,100.5,415.3214133126395,426.57142761775424,206.8,415.3214133126395,426.57142761775424,319.4,415.3214133126395,426.57142761775424,420.6,415.3214133126395,426.57142761775424,520.7,415.3214133126395,426.57142761775424,624.1,415.3214133126395,426.57142761775424,724.6,415.3214133126395,426.57142761775424,836.8,415.3214133126395,426.57142761775424,937,415.3214133126395,426.57142761775424,1040.4,415.3214133126395,426.57142761775424,1140.9,356.5714133126395,380.32142761775424,1245.3,290.3214133126395,316.57142761775424,1352.8,254.0714133126395,281.57142761775424,1456.7,126.5714133126395,174.07142761775424,1560.8,56.57141331263951,105.32142761775425,1671.6,51.57141331263951,100.32142761775425,1775.5,51.57141331263951,97.82142761775425,1885,51.57141331263951,97.82142761775425,1987.5,51.57141331263951,97.82142761775425,2091.2,51.57141331263951,97.82142761775425,2191.9,51.57141331263951,97.82142761775425,2296.4,51.57141331263951,97.82142761775425,2404.6,51.57141331263951,97.82142761775425,2509.7,51.57141331263951,97.82142761775425,2614,51.57141331263951,97.82142761775425,2720,51.57141331263951,97.82142761775425,2824.9,51.57141331263951,97.82142761775425,2930.3,51.57141331263951,97.82142761775425,3037,51.57141331263951,97.82142761775425,3139.1,51.57141331263951,97.82142761775425,3239.5,51.57141331263951,97.82142761775425,3352.6,51.57141331263951,97.82142761775425,3452.6,51.57141331263951,97.82142761775425,3552.6,51.57141331263951,97.82142761775425,3654,51.57141331263951,97.82142761775425,3755,51.57141331263951,97.82142761775425,3855.9,51.57141331263951,97.82142761775425,3961.2,51.57141331263951,97.82142761775425,4070.2,51.57141331263951,97.82142761775425,4172.5,51.57141331263951,97.82142761775425,4274.3,51.57141331263951,97.82142761775425,4374.8,51.57141331263951,97.82142761775425,4481.1,51.57141331263951,97.82142761775425,4581.5,51.57141331263951,97.82142761775425,4685.8,51.57141331263951,97.82142761775425,4789.9,51.57141331263951,97.82142761775425,4890.6,51.57141331263951,97.82142761775425,4999.5]","[1332.4,1332.4,1000,0,332.4,""smooth"",""up"",""up"",""good_move"",4113.7,2780.6,2461.6,1333.1,319.1,""smooth"",""left"",""left"",""good_move"",6954.3,2839.6,2549.6,4114.7,290,""smooth"",""up"",""up"",""good_move"",9113,2157.6,1671.7,6955.4,485.9,""smooth"",""left"",""left"",""good_move"",16480.5,7367.1,3480.3,12599.5,400.7,""smooth"",""up"",""up"",""good_move"",19433.3,2952.1,2499.7,16481.2,452.4,""smooth"",""left"",""left"",""good_move""]"
"4906","","<div style=""width:500px;"">
  <p>What determined the result of this run?</p>
  </div>","100","html-slider-response","19","324923","0.0-7.0-1.1","83","1","2025-07-30 09:35:15","36c45c0696341be0efffe67d72a12abb","41.121.10.181","Mozilla/5.0 (Windows NT 10.0; Win64; x64) AppleWebKit/537.36 (KHTML, like Gecko) Chrome/138.0.0.0 Safari/537.36 Edg/138.0.0.0","WebKit","Edge","138.0.0.0","Windows","10.0","https://app.prolific.com/","en-US,en;q=0.9","6742fd0efbb5712e14e693e5","687a360dabe5252b5ada7185","6889e65962c1ec2b07bb84fe","0","6742fd0efbb5712e14e693e5","0","2025-07-30T09:40:42.613Z","","","","AttribQ","","","","","","","","","","","50","","","","","","","","","","","","","","","","","","","","","","","","","","",""
"6436","","<div style=""width:500px;"">
  <p>How much control did you have over the ball?</p>
  </div>","100","html-slider-response","20","331362","0.0-7.0-2.1","83","1","2025-07-30 09:35:15","36c45c0696341be0efffe67d72a12abb","41.121.10.181","Mozilla/5.0 (Windows NT 10.0; Win64; x64) AppleWebKit/537.36 (KHTML, like Gecko) Chrome/138.0.0.0 Safari/537.36 Edg/138.0.0.0","WebKit","Edge","138.0.0.0","Windows","10.0","https://app.prolific.com/","en-US,en;q=0.9","6742fd0efbb5712e14e693e5","687a360dabe5252b5ada7185","6889e65962c1ec2b07bb84fe","0","6742fd0efbb5712e14e693e5","0","2025-07-30T09:40:49.052Z","","","","ControlQ","","","","","","","","","","","50","","","","","","","","","","","","","","","","","","","","","","","","","","",""
"3622","","<div style=""width:500px;"">
  <p>How would you describe your current emotional state?</p>
  </div>","0","html-slider-response","21","334987","0.0-7.0-3.1","83","1","2025-07-30 09:35:15","36c45c0696341be0efffe67d72a12abb","41.121.10.181","Mozilla/5.0 (Windows NT 10.0; Win64; x64) AppleWebKit/537.36 (KHTML, like Gecko) Chrome/138.0.0.0 Safari/537.36 Edg/138.0.0.0","WebKit","Edge","138.0.0.0","Windows","10.0","https://app.prolific.com/","en-US,en;q=0.9","6742fd0efbb5712e14e693e5","687a360dabe5252b5ada7185","6889e65962c1ec2b07bb84fe","0","6742fd0efbb5712e14e693e5","0","2025-07-30T09:40:52.678Z","","","","StressQ","","","","","","","","","","","50","","","","","","","","","","","","","","","","","","","","","","","","","","",""
"20982","","<div style=""width:500px;"">
  <p>What best describes how you currently feel?</p>
  </div>","100","html-slider-response","22","355972","0.0-7.0-4.1","83","1","2025-07-30 09:35:15","36c45c0696341be0efffe67d72a12abb","41.121.10.181","Mozilla/5.0 (Windows NT 10.0; Win64; x64) AppleWebKit/537.36 (KHTML, like Gecko) Chrome/138.0.0.0 Safari/537.36 Edg/138.0.0.0","WebKit","Edge","138.0.0.0","Windows","10.0","https://app.prolific.com/","en-US,en;q=0.9","6742fd0efbb5712e14e693e5","687a360dabe5252b5ada7185","6889e65962c1ec2b07bb84fe","0","6742fd0efbb5712e14e693e5","0","2025-07-30T09:41:13.662Z","","","","MotivationQ","","","","","","","","","","","50","","","","","","","","","","","","","","","","","","","","","","","","","","",""
"","","","","ctl-task-cpt","23","509339","0.0-7.0-0.2","83","1","2025-07-30 09:35:15","36c45c0696341be0efffe67d72a12abb","41.121.10.181","Mozilla/5.0 (Windows NT 10.0; Win64; x64) AppleWebKit/537.36 (KHTML, like Gecko) Chrome/138.0.0.0 Safari/537.36 Edg/138.0.0.0","WebKit","Edge","138.0.0.0","Windows","10.0","https://app.prolific.com/","en-US,en;q=0.9","6742fd0efbb5712e14e693e5","687a360dabe5252b5ada7185","6889e65962c1ec2b07bb84fe","0","6742fd0efbb5712e14e693e5","0","2025-07-30T09:43:47.029Z","","","","","","","","","","","","","","","","win-only","3","g1:SW,g2:NE","0.8","3","0","359849.9","106583.4","111587.2","150347.1","1","4","8","6","2","-8","-8","3","11","0.022727272727272728","1786.9","3000","-2440","[""up"",""right""]","{""num_key_presses"":8,""num_perfect"":7,""num_errors"":0,""num_randdir"":1,""num_randdir_good_moves"":0,""num_whilered"":0,""num_whileblue"":0,""num_blue"":4,""num_good_moves"":6}","[419.0714133126395,416.57142761775424,0.5,419.0714133126395,416.57142761775424,101,419.0714133126395,416.57142761775424,203.6,419.0714133126395,416.57142761775424,304,419.0714133126395,416.57142761775424,409.4,419.0714133126395,416.57142761775424,518.9,419.0714133126395,416.57142761775424,621.1,419.0714133126395,416.57142761775424,724.9,419.0714133126395,416.57142761775424,828.9,419.0714133126395,416.57142761775424,929.2,447.8214133126395,345.32142761775424,1029.3,580.3214133126395,156.57142761775424,1136.8,642.8214133126395,99.07142761775425,1237.6,665.3214133126395,81.57142761775425,1351.4,692.8214133126395,76.57142761775425,1454.3,732.8214133126395,90.32142761775425,1569.4,740.3214133126395,90.32142761775425,1674.9,740.3214133126395,90.32142761775425,1776.3,740.3214133126395,90.32142761775425,1883.7,740.3214133126395,90.32142761775425,1983.8,740.3214133126395,90.32142761775425,2089.2,740.3214133126395,90.32142761775425,2202.7,740.3214133126395,90.32142761775425,2303.1,740.3214133126395,90.32142761775425,2413.9,662.8214133126395,177.82142761775424,2515.4,600.3214133126395,266.57142761775424,2625.6,557.8214133126395,302.82142761775424,2731.5,552.8214133126395,306.57142761775424,2834,552.8214133126395,306.57142761775424,2934.6,552.8214133126395,306.57142761775424,3038.9,552.8214133126395,306.57142761775424,3151.3,552.8214133126395,306.57142761775424,3255.5,552.8214133126395,306.57142761775424,3368.9,552.8214133126395,306.57142761775424,3484.2,552.8214133126395,306.57142761775424,3589.4,552.8214133126395,306.57142761775424,3693.6,552.8214133126395,306.57142761775424,3802.4,552.8214133126395,306.57142761775424,3903.1,552.8214133126395,306.57142761775424,4003.2,552.8214133126395,306.57142761775424,4104,552.8214133126395,306.57142761775424,4209.3,552.8214133126395,306.57142761775424,4310.6,552.8214133126395,306.57142761775424,4413.3,552.8214133126395,306.57142761775424,4521.6,552.8214133126395,306.57142761775424,4621.7,552.8214133126395,306.57142761775424,4722.4,552.8214133126395,306.57142761775424,4822.7,552.8214133126395,306.57142761775424,4922.8]","[1307.2,1307.2,1000,0,307.2,""smooth"",""up"",""up"",""good_move"",5264,3956.1,3286.7,1308,669.4,""smooth"",""up"",""up"",""good_move"",7814.4,2549.8,2062.5,5264.6,487.3,""smooth"",""right"",""right"",""good_move"",10895,3079.5,2566.9,7815.5,512.7,""smooth"",""right"",""right"",""good_move"",13945.4,3049.3,2551.5,10896.1,497.8,""smooth"",""right"",""right"",""good_move"",16920.9,2975.3,2515,13945.6,460.3,""oops"",""up"",""down"",""bad_move"",19865.8,2944.4,2560.3,16921.4,384.1,""smooth"",""left"",""left"",""bad_move"",22293.9,2427.3,2053.7,19866.6,373.6,""smooth"",""up"",""up"",""good_move""]"
"5976","","<div style=""width:500px;"">
  <p>What determined the result of this run?</p>
  </div>","39","html-slider-response","24","515317","0.0-7.0-1.2","83","1","2025-07-30 09:35:15","36c45c0696341be0efffe67d72a12abb","41.121.10.181","Mozilla/5.0 (Windows NT 10.0; Win64; x64) AppleWebKit/537.36 (KHTML, like Gecko) Chrome/138.0.0.0 Safari/537.36 Edg/138.0.0.0","WebKit","Edge","138.0.0.0","Windows","10.0","https://app.prolific.com/","en-US,en;q=0.9","6742fd0efbb5712e14e693e5","687a360dabe5252b5ada7185","6889e65962c1ec2b07bb84fe","0","6742fd0efbb5712e14e693e5","0","2025-07-30T09:43:53.008Z","","","","AttribQ","","","","","","","","","","","50","","","","","","","","","","","","","","","","","","","","","","","","","","",""
"4266","","<div style=""width:500px;"">
  <p>How much control did you have over the ball?</p>
  </div>","57","html-slider-response","25","519586","0.0-7.0-2.2","83","1","2025-07-30 09:35:15","36c45c0696341be0efffe67d72a12abb","41.121.10.181","Mozilla/5.0 (Windows NT 10.0; Win64; x64) AppleWebKit/537.36 (KHTML, like Gecko) Chrome/138.0.0.0 Safari/537.36 Edg/138.0.0.0","WebKit","Edge","138.0.0.0","Windows","10.0","https://app.prolific.com/","en-US,en;q=0.9","6742fd0efbb5712e14e693e5","687a360dabe5252b5ada7185","6889e65962c1ec2b07bb84fe","0","6742fd0efbb5712e14e693e5","0","2025-07-30T09:43:57.277Z","","","","ControlQ","","","","","","","","","","","50","","","","","","","","","","","","","","","","","","","","","","","","","","",""
"4266","","<div style=""width:500px;"">
  <p>How would you describe your current emotional state?</p>
  </div>","30","html-slider-response","26","523857","0.0-7.0-3.2","83","1","2025-07-30 09:35:15","36c45c0696341be0efffe67d72a12abb","41.121.10.181","Mozilla/5.0 (Windows NT 10.0; Win64; x64) AppleWebKit/537.36 (KHTML, like Gecko) Chrome/138.0.0.0 Safari/537.36 Edg/138.0.0.0","WebKit","Edge","138.0.0.0","Windows","10.0","https://app.prolific.com/","en-US,en;q=0.9","6742fd0efbb5712e14e693e5","687a360dabe5252b5ada7185","6889e65962c1ec2b07bb84fe","0","6742fd0efbb5712e14e693e5","0","2025-07-30T09:44:01.547Z","","","","StressQ","","","","","","","","","","","50","","","","","","","","","","","","","","","","","","","","","","","","","","",""
"4410","","<div style=""width:500px;"">
  <p>What best describes how you currently feel?</p>
  </div>","68","html-slider-response","27","528269","0.0-7.0-4.2","83","1","2025-07-30 09:35:15","36c45c0696341be0efffe67d72a12abb","41.121.10.181","Mozilla/5.0 (Windows NT 10.0; Win64; x64) AppleWebKit/537.36 (KHTML, like Gecko) Chrome/138.0.0.0 Safari/537.36 Edg/138.0.0.0","WebKit","Edge","138.0.0.0","Windows","10.0","https://app.prolific.com/","en-US,en;q=0.9","6742fd0efbb5712e14e693e5","687a360dabe5252b5ada7185","6889e65962c1ec2b07bb84fe","0","6742fd0efbb5712e14e693e5","0","2025-07-30T09:44:05.959Z","","","","MotivationQ","","","","","","","","","","","50","","","","","","","","","","","","","","","","","","","","","","","","","","",""
"","","","","ctl-task-cpt","28","561827","0.0-7.0-0.3","83","1","2025-07-30 09:35:15","36c45c0696341be0efffe67d72a12abb","41.121.10.181","Mozilla/5.0 (Windows NT 10.0; Win64; x64) AppleWebKit/537.36 (KHTML, like Gecko) Chrome/138.0.0.0 Safari/537.36 Edg/138.0.0.0","WebKit","Edge","138.0.0.0","Windows","10.0","https://app.prolific.com/","en-US,en;q=0.9","6742fd0efbb5712e14e693e5","687a360dabe5252b5ada7185","6889e65962c1ec2b07bb84fe","0","6742fd0efbb5712e14e693e5","0","2025-07-30T09:44:39.517Z","","","","","","","","","","","","","","","","win-only","1","g1:NE,g2:SW","0.7","4","0","532149.6","1414.5","6419.8","30531.2","1","4","4","6","1","1","1","4","3","0.030303030303030304","3103.8","3000","1555","[""up"",""right""]","{""num_key_presses"":6,""num_perfect"":3,""num_errors"":0,""num_randdir"":3,""num_randdir_good_moves"":2,""num_whilered"":0,""num_whileblue"":0,""num_blue"":2,""num_good_moves"":5}","[404.0714133126395,416.57142761775424,0.2,404.0714133126395,416.57142761775424,101.7,404.0714133126395,416.57142761775424,205.3,404.0714133126395,416.57142761775424,307.1,404.0714133126395,416.57142761775424,408.4,404.0714133126395,416.57142761775424,509.2,404.0714133126395,416.57142761775424,609.3,404.0714133126395,416.57142761775424,711.9,404.0714133126395,416.57142761775424,813.5,404.0714133126395,416.57142761775424,914.9,404.0714133126395,416.57142761775424,1020.3,404.0714133126395,416.57142761775424,1121.6,404.0714133126395,416.57142761775424,1221.7,404.0714133126395,416.57142761775424,1333.5,404.0714133126395,416.57142761775424,1434.6,404.0714133126395,416.57142761775424,1536,404.0714133126395,416.57142761775424,1637,404.0714133126395,416.57142761775424,1742,404.0714133126395,416.57142761775424,1846.7,404.0714133126395,416.57142761775424,1948.5,404.0714133126395,416.57142761775424,2052.9,404.0714133126395,416.57142761775424,2154.4,474.0714133126395,317.82142761775424,2269.1,549.0714133126395,216.57142761775424,2370.3,591.5714133126395,166.57142761775424,2472,625.3214133126395,146.57142761775424,2583.1,669.0714133126395,120.32142761775425,2687.5,701.5714133126395,95.32142761775425,2800.3,712.8214133126395,91.57142761775425,2902.2,712.8214133126395,91.57142761775425,3005.4,712.8214133126395,91.57142761775425,3112.2,712.8214133126395,91.57142761775425,3218.1,712.8214133126395,91.57142761775425,3321.1,712.8214133126395,91.57142761775425,3423.3,712.8214133126395,91.57142761775425,3527.4,712.8214133126395,91.57142761775425,3628,705.3214133126395,102.82142761775425,3735.2,651.5714133126395,219.07142761775424,3842.7,644.0714133126395,264.07142761775424,3942.7,641.5714133126395,271.57142761775424,4055.4,641.5714133126395,271.57142761775424,4165.7,641.5714133126395,271.57142761775424,4268.2,641.5714133126395,271.57142761775424,4375.4,641.5714133126395,271.57142761775424,4488.2,641.5714133126395,271.57142761775424,4592.7,641.5714133126395,271.57142761775424,4701.5,641.5714133126395,271.57142761775424,4802.3,641.5714133126395,271.57142761775424,4903.4]","[1335,1335.1,1000,0,335.1,""smooth"",""up"",""up"",""good_move"",7678.9,6342.3,2374.9,4997,307,""smooth"",""right"",""right"",""good_move"",10689.2,3009.1,2558.4,7680.1,450.7,""smooth"",""up"",""up"",""good_move"",13481.9,2792.1,2348.5,10689.9,443.5,""oops"",""right"",""down"",""bad_move"",16982.6,3499.9,3128.1,13482.7,371.8,""oops"",""right"",""up"",""good_move"",23972.6,6986.2,2780.6,20868,324.1,""oops"",""right"",""right"",""good_move""]"
"3852","","<div style=""width:500px;"">
  <p>What determined the result of this run?</p>
  </div>","70","html-slider-response","29","565682","0.0-7.0-1.3","83","1","2025-07-30 09:35:15","36c45c0696341be0efffe67d72a12abb","41.121.10.181","Mozilla/5.0 (Windows NT 10.0; Win64; x64) AppleWebKit/537.36 (KHTML, like Gecko) Chrome/138.0.0.0 Safari/537.36 Edg/138.0.0.0","WebKit","Edge","138.0.0.0","Windows","10.0","https://app.prolific.com/","en-US,en;q=0.9","6742fd0efbb5712e14e693e5","687a360dabe5252b5ada7185","6889e65962c1ec2b07bb84fe","0","6742fd0efbb5712e14e693e5","0","2025-07-30T09:44:43.373Z","","","","AttribQ","","","","","","","","","","","50","","","","","","","","","","","","","","","","","","","","","","","","","","",""
"4611","","<div style=""width:500px;"">
  <p>How much control did you have over the ball?</p>
  </div>","66","html-slider-response","30","570297","0.0-7.0-2.3","83","1","2025-07-30 09:35:15","36c45c0696341be0efffe67d72a12abb","41.121.10.181","Mozilla/5.0 (Windows NT 10.0; Win64; x64) AppleWebKit/537.36 (KHTML, like Gecko) Chrome/138.0.0.0 Safari/537.36 Edg/138.0.0.0","WebKit","Edge","138.0.0.0","Windows","10.0","https://app.prolific.com/","en-US,en;q=0.9","6742fd0efbb5712e14e693e5","687a360dabe5252b5ada7185","6889e65962c1ec2b07bb84fe","0","6742fd0efbb5712e14e693e5","0","2025-07-30T09:44:47.987Z","","","","ControlQ","","","","","","","","","","","50","","","","","","","","","","","","","","","","","","","","","","","","","","",""
"3921","","<div style=""width:500px;"">
  <p>How would you describe your current emotional state?</p>
  </div>","34","html-slider-response","31","574221","0.0-7.0-3.3","83","1","2025-07-30 09:35:15","36c45c0696341be0efffe67d72a12abb","41.121.10.181","Mozilla/5.0 (Windows NT 10.0; Win64; x64) AppleWebKit/537.36 (KHTML, like Gecko) Chrome/138.0.0.0 Safari/537.36 Edg/138.0.0.0","WebKit","Edge","138.0.0.0","Windows","10.0","https://app.prolific.com/","en-US,en;q=0.9","6742fd0efbb5712e14e693e5","687a360dabe5252b5ada7185","6889e65962c1ec2b07bb84fe","0","6742fd0efbb5712e14e693e5","0","2025-07-30T09:44:51.912Z","","","","StressQ","","","","","","","","","","","50","","","","","","","","","","","","","","","","","","","","","","","","","","",""
"4380","","<div style=""width:500px;"">
  <p>What best describes how you currently feel?</p>
  </div>","70","html-slider-response","32","578604","0.0-7.0-4.3","83","1","2025-07-30 09:35:15","36c45c0696341be0efffe67d72a12abb","41.121.10.181","Mozilla/5.0 (Windows NT 10.0; Win64; x64) AppleWebKit/537.36 (KHTML, like Gecko) Chrome/138.0.0.0 Safari/537.36 Edg/138.0.0.0","WebKit","Edge","138.0.0.0","Windows","10.0","https://app.prolific.com/","en-US,en;q=0.9","6742fd0efbb5712e14e693e5","687a360dabe5252b5ada7185","6889e65962c1ec2b07bb84fe","0","6742fd0efbb5712e14e693e5","0","2025-07-30T09:44:56.294Z","","","","MotivationQ","","","","","","","","","","","50","","","","","","","","","","","","","","","","","","","","","","","","","","",""
"","","","","ctl-task-cpt","33","622829","0.0-7.0-0.4","83","1","2025-07-30 09:35:15","36c45c0696341be0efffe67d72a12abb","41.121.10.181","Mozilla/5.0 (Windows NT 10.0; Win64; x64) AppleWebKit/537.36 (KHTML, like Gecko) Chrome/138.0.0.0 Safari/537.36 Edg/138.0.0.0","WebKit","Edge","138.0.0.0","Windows","10.0","https://app.prolific.com/","en-US,en;q=0.9","6742fd0efbb5712e14e693e5","687a360dabe5252b5ada7185","6889e65962c1ec2b07bb84fe","0","6742fd0efbb5712e14e693e5","0","2025-07-30T09:45:40.519Z","","","","","","","","","","","","","","","","win-only","3","g1:SW,g2:NE","0.6","5","0","582485","1497.1","6500.5","41196.6","1","4","8","6","2","8","8","12","4","0.09090909090909091","2032.1","3000","910","[""up"",""right""]","{""num_key_presses"":8,""num_perfect"":5,""num_errors"":0,""num_randdir"":3,""num_randdir_good_moves"":2,""num_whilered"":0,""num_whileblue"":0,""num_blue"":4,""num_good_moves"":7}","[410.3214133126395,411.57142761775424,0.2,410.3214133126395,411.57142761775424,100,410.3214133126395,411.57142761775424,209.3,410.3214133126395,411.57142761775424,321,410.3214133126395,411.57142761775424,429.4,410.3214133126395,411.57142761775424,530.9,410.3214133126395,411.57142761775424,634.7,410.3214133126395,411.57142761775424,740.1,410.3214133126395,411.57142761775424,847.9,410.3214133126395,411.57142761775424,948.9,410.3214133126395,411.57142761775424,1054.5,450.3214133126395,350.32142761775424,1157.1,570.3214133126395,245.32142761775424,1259.3,636.5714133126395,201.57142761775424,1372.2,721.5714133126395,126.57142761775425,1480.5,750.3214133126395,105.32142761775425,1583,761.5714133126395,94.07142761775425,1690.7,769.0714133126395,90.32142761775425,1801.7,771.5714133126395,89.07142761775425,1904.7,771.5714133126395,89.07142761775425,2006.1,771.5714133126395,89.07142761775425,2107,771.5714133126395,89.07142761775425,2220.5,771.5714133126395,89.07142761775425,2320.8,771.5714133126395,89.07142761775425,2421.7,765.3214133126395,91.57142761775425,2526.3,641.5714133126395,224.07142761775424,2632,561.5714133126395,332.82142761775424,2738.5,549.0714133126395,346.57142761775424,2839.5,549.0714133126395,346.57142761775424,2943.6,549.0714133126395,346.57142761775424,3051.3,549.0714133126395,346.57142761775424,3154.8,549.0714133126395,346.57142761775424,3255.6,549.0714133126395,346.57142761775424,3356.4,549.0714133126395,346.57142761775424,3456.9,549.0714133126395,346.57142761775424,3557.4,549.0714133126395,346.57142761775424,3659.7,549.0714133126395,346.57142761775424,3764.1,549.0714133126395,346.57142761775424,3876.4,549.0714133126395,346.57142761775424,3992.6,549.0714133126395,346.57142761775424,4098.7,549.0714133126395,346.57142761775424,4201.1,549.0714133126395,346.57142761775424,4307.7,549.0714133126395,346.57142761775424,4409.7,549.0714133126395,346.57142761775424,4513.8,549.0714133126395,346.57142761775424,4614.2,549.0714133126395,346.57142761775424,4718.5,549.0714133126395,346.57142761775424,4823.5,549.0714133126395,346.57142761775424,4928.8]","[1511.6,1511.6,1000,0,511.6,""smooth"",""up"",""up"",""good_move"",3807.6,2294.5,1934.4,1513.1,360.1,""oops"",""right"",""left"",""bad_move"",9845.7,6036.4,2307.6,7147.4,390.7,""oops"",""up"",""right"",""good_move"",19427.7,9580.8,2822,16142.5,463.2,""smooth"",""up"",""up"",""good_move"",25031,5602.9,2112.5,22519.6,398.9,""smooth"",""right"",""right"",""good_move"",28288.7,3257.3,2755.4,25031.4,501.9,""smooth"",""right"",""right"",""good_move"",31457.9,3168.7,2777.2,28289.2,391.5,""oops"",""right"",""right"",""good_move"",34553.7,3095.6,2747.7,31458.1,347.9,""smooth"",""up"",""up"",""good_move""]"
"5924","","<div style=""width:500px;"">
  <p>What determined the result of this run?</p>
  </div>","74","html-slider-response","34","628756","0.0-7.0-1.4","83","1","2025-07-30 09:35:15","36c45c0696341be0efffe67d72a12abb","41.121.10.181","Mozilla/5.0 (Windows NT 10.0; Win64; x64) AppleWebKit/537.36 (KHTML, like Gecko) Chrome/138.0.0.0 Safari/537.36 Edg/138.0.0.0","WebKit","Edge","138.0.0.0","Windows","10.0","https://app.prolific.com/","en-US,en;q=0.9","6742fd0efbb5712e14e693e5","687a360dabe5252b5ada7185","6889e65962c1ec2b07bb84fe","0","6742fd0efbb5712e14e693e5","0","2025-07-30T09:45:46.446Z","","","","AttribQ","","","","","","","","","","","50","","","","","","","","","","","","","","","","","","","","","","","","","","",""
"5175","","<div style=""width:500px;"">
  <p>How much control did you have over the ball?</p>
  </div>","70","html-slider-response","35","633935","0.0-7.0-2.4","83","1","2025-07-30 09:35:15","36c45c0696341be0efffe67d72a12abb","41.121.10.181","Mozilla/5.0 (Windows NT 10.0; Win64; x64) AppleWebKit/537.36 (KHTML, like Gecko) Chrome/138.0.0.0 Safari/537.36 Edg/138.0.0.0","WebKit","Edge","138.0.0.0","Windows","10.0","https://app.prolific.com/","en-US,en;q=0.9","6742fd0efbb5712e14e693e5","687a360dabe5252b5ada7185","6889e65962c1ec2b07bb84fe","0","6742fd0efbb5712e14e693e5","0","2025-07-30T09:45:51.625Z","","","","ControlQ","","","","","","","","","","","50","","","","","","","","","","","","","","","","","","","","","","","","","","",""
"4325","","<div style=""width:500px;"">
  <p>How would you describe your current emotional state?</p>
  </div>","31","html-slider-response","36","638263","0.0-7.0-3.4","83","1","2025-07-30 09:35:15","36c45c0696341be0efffe67d72a12abb","41.121.10.181","Mozilla/5.0 (Windows NT 10.0; Win64; x64) AppleWebKit/537.36 (KHTML, like Gecko) Chrome/138.0.0.0 Safari/537.36 Edg/138.0.0.0","WebKit","Edge","138.0.0.0","Windows","10.0","https://app.prolific.com/","en-US,en;q=0.9","6742fd0efbb5712e14e693e5","687a360dabe5252b5ada7185","6889e65962c1ec2b07bb84fe","0","6742fd0efbb5712e14e693e5","0","2025-07-30T09:45:55.953Z","","","","StressQ","","","","","","","","","","","50","","","","","","","","","","","","","","","","","","","","","","","","","","",""
"4790","","<div style=""width:500px;"">
  <p>What best describes how you currently feel?</p>
  </div>","69","html-slider-response","37","643055","0.0-7.0-4.4","83","1","2025-07-30 09:35:15","36c45c0696341be0efffe67d72a12abb","41.121.10.181","Mozilla/5.0 (Windows NT 10.0; Win64; x64) AppleWebKit/537.36 (KHTML, like Gecko) Chrome/138.0.0.0 Safari/537.36 Edg/138.0.0.0","WebKit","Edge","138.0.0.0","Windows","10.0","https://app.prolific.com/","en-US,en;q=0.9","6742fd0efbb5712e14e693e5","687a360dabe5252b5ada7185","6889e65962c1ec2b07bb84fe","0","6742fd0efbb5712e14e693e5","0","2025-07-30T09:46:00.746Z","","","","MotivationQ","","","","","","","","","","","50","","","","","","","","","","","","","","","","","","","","","","","","","","",""
"","","","","ctl-task-cpt","38","730584","0.0-7.0-0.5","83","1","2025-07-30 09:35:15","36c45c0696341be0efffe67d72a12abb","41.121.10.181","Mozilla/5.0 (Windows NT 10.0; Win64; x64) AppleWebKit/537.36 (KHTML, like Gecko) Chrome/138.0.0.0 Safari/537.36 Edg/138.0.0.0","WebKit","Edge","138.0.0.0","Windows","10.0","https://app.prolific.com/","en-US,en;q=0.9","6742fd0efbb5712e14e693e5","687a360dabe5252b5ada7185","6889e65962c1ec2b07bb84fe","0","6742fd0efbb5712e14e693e5","0","2025-07-30T09:47:28.274Z","","","","","","","","","","","","","","","","win-only","0","g1:NW,g2:SE","0.5","6","0","646935","2220.3","7227.4","84492.4","1","4","4","6","2","-4","-5","7","12","0.05303030303030303","2356.6","3000","-2000","[""down"",""right""]","{""num_key_presses"":14,""num_perfect"":8,""num_errors"":1,""num_randdir"":5,""num_randdir_good_moves"":1,""num_whilered"":0,""num_whileblue"":1,""num_blue"":10,""num_good_moves"":9}","[417.8214133126395,420.32142761775424,0.9,417.8214133126395,420.32142761775424,100,417.8214133126395,420.32142761775424,208.9,417.8214133126395,420.32142761775424,319.4,417.8214133126395,420.32142761775424,424.4,417.8214133126395,420.32142761775424,528.8,417.8214133126395,420.32142761775424,635.9,417.8214133126395,420.32142761775424,745.4,417.8214133126395,420.32142761775424,853.7,417.8214133126395,420.32142761775424,958.2,417.8214133126395,420.32142761775424,1072.5,417.8214133126395,420.32142761775424,1176.2,417.8214133126395,420.32142761775424,1276.8,417.8214133126395,420.32142761775424,1385.4,417.8214133126395,420.32142761775424,1500.1,417.8214133126395,420.32142761775424,1604.3,516.5714133126395,509.07142761775424,1707.6,635.3214133126395,640.3214276177542,1816.2,681.5714133126395,690.3214276177542,1925.6,722.8214133126395,711.5714276177542,2026.9,785.3214133126395,741.5714276177542,2138.2,787.8214133126395,741.5714276177542,2239.8,787.8214133126395,741.5714276177542,2354.4,787.8214133126395,741.5714276177542,2457.3,787.8214133126395,741.5714276177542,2566.9,787.8214133126395,741.5714276177542,2673.3,787.8214133126395,741.5714276177542,2784.1,787.8214133126395,741.5714276177542,2891.2,787.8214133126395,741.5714276177542,3004.8,787.8214133126395,741.5714276177542,3107.8,787.8214133126395,741.5714276177542,3218.9,787.8214133126395,741.5714276177542,3322.2,787.8214133126395,741.5714276177542,3422.7,787.8214133126395,741.5714276177542,3525.8,746.5714133126395,646.5714276177542,3637.5,729.0714133126395,580.3214276177542,3744.2,721.5714133126395,532.8214276177542,3848,721.5714133126395,511.57142761775424,3949,721.5714133126395,511.57142761775424,4050.7,721.5714133126395,511.57142761775424,4150.9,721.5714133126395,511.57142761775424,4256.6,721.5714133126395,511.57142761775424,4357.9,721.5714133126395,511.57142761775424,4463.3,721.5714133126395,511.57142761775424,4570.5,721.5714133126395,511.57142761775424,4680,721.5714133126395,511.57142761775424,4785,721.5714133126395,511.57142761775424,4894.6]","[1346.4,1346.4,1000,0,346.4,""smooth"",""down"",""down"",""good_move"",4533.3,3186.4,2709.5,1347,476.8,""smooth"",""right"",""right"",""good_move"",10726.8,6193,2473,7783.5,470.3,""oops"",""down"",""left"",""bad_move"",14291.4,3563.5,3243.7,10727.9,319.8,""oops"",""right"",""up"",""bad_move"",20041.4,5749.4,2316.8,17316.5,408.1,""smooth"",""down"",""down"",""good_move"",22903.4,2860.9,2449.6,20042.5,411.3,""smooth"",""down"",""down"",""good_move"",33282.9,10379,2993.6,29848.2,441.1,""oops"",""right"",""up"",""bad_move"",36075,2791.6,2486.2,33283.5,305.4,""smooth"",""down"",""down"",""good_move"",49951.3,13874.8,3332.8,46230.2,388.3,""oops"",""down"",""left"",""bad_move"",52915.8,2964.1,2553.5,49951.7,410.6,""oops"",""down"",""down"",""good_move"",60190,7272.6,3257.9,56612.5,319.6,""smooth"",""right"",""right"",""good_move"",67105.9,6914.8,2658.4,64108.6,338.9,""smooth"",""right"",""right"",""good_move"",69758.8,2652.5,2344,67106.3,308.5,""smooth"",""right"",""right"",""good_move"",74083.1,4323.1,3979,69760.2,344,""while_blue"",""right"",""left"",""bad_move""]"
"6308","","<div style=""width:500px;"">
  <p>What determined the result of this run?</p>
  </div>","33","html-slider-response","39","736894","0.0-7.0-1.5","83","1","2025-07-30 09:35:15","36c45c0696341be0efffe67d72a12abb","41.121.10.181","Mozilla/5.0 (Windows NT 10.0; Win64; x64) AppleWebKit/537.36 (KHTML, like Gecko) Chrome/138.0.0.0 Safari/537.36 Edg/138.0.0.0","WebKit","Edge","138.0.0.0","Windows","10.0","https://app.prolific.com/","en-US,en;q=0.9","6742fd0efbb5712e14e693e5","687a360dabe5252b5ada7185","6889e65962c1ec2b07bb84fe","0","6742fd0efbb5712e14e693e5","0","2025-07-30T09:47:34.584Z","","","","AttribQ","","","","","","","","","","","50","","","","","","","","","","","","","","","","","","","","","","","","","","",""
"4785","","<div style=""width:500px;"">
  <p>How much control did you have over the ball?</p>
  </div>","41","html-slider-response","40","741682","0.0-7.0-2.5","83","1","2025-07-30 09:35:15","36c45c0696341be0efffe67d72a12abb","41.121.10.181","Mozilla/5.0 (Windows NT 10.0; Win64; x64) AppleWebKit/537.36 (KHTML, like Gecko) Chrome/138.0.0.0 Safari/537.36 Edg/138.0.0.0","WebKit","Edge","138.0.0.0","Windows","10.0","https://app.prolific.com/","en-US,en;q=0.9","6742fd0efbb5712e14e693e5","687a360dabe5252b5ada7185","6889e65962c1ec2b07bb84fe","0","6742fd0efbb5712e14e693e5","0","2025-07-30T09:47:39.372Z","","","","ControlQ","","","","","","","","","","","50","","","","","","","","","","","","","","","","","","","","","","","","","","",""
"4573","","<div style=""width:500px;"">
  <p>How would you describe your current emotional state?</p>
  </div>","61","html-slider-response","41","746259","0.0-7.0-3.5","83","1","2025-07-30 09:35:15","36c45c0696341be0efffe67d72a12abb","41.121.10.181","Mozilla/5.0 (Windows NT 10.0; Win64; x64) AppleWebKit/537.36 (KHTML, like Gecko) Chrome/138.0.0.0 Safari/537.36 Edg/138.0.0.0","WebKit","Edge","138.0.0.0","Windows","10.0","https://app.prolific.com/","en-US,en;q=0.9","6742fd0efbb5712e14e693e5","687a360dabe5252b5ada7185","6889e65962c1ec2b07bb84fe","0","6742fd0efbb5712e14e693e5","0","2025-07-30T09:47:43.949Z","","","","StressQ","","","","","","","","","","","50","","","","","","","","","","","","","","","","","","","","","","","","","","",""
"5423","","<div style=""width:500px;"">
  <p>What best describes how you currently feel?</p>
  </div>","54","html-slider-response","42","751687","0.0-7.0-4.5","83","1","2025-07-30 09:35:15","36c45c0696341be0efffe67d72a12abb","41.121.10.181","Mozilla/5.0 (Windows NT 10.0; Win64; x64) AppleWebKit/537.36 (KHTML, like Gecko) Chrome/138.0.0.0 Safari/537.36 Edg/138.0.0.0","WebKit","Edge","138.0.0.0","Windows","10.0","https://app.prolific.com/","en-US,en;q=0.9","6742fd0efbb5712e14e693e5","687a360dabe5252b5ada7185","6889e65962c1ec2b07bb84fe","0","6742fd0efbb5712e14e693e5","0","2025-07-30T09:47:49.377Z","","","","MotivationQ","","","","","","","","","","","50","","","","","","","","","","","","","","","","","","","","","","","","","","",""
"","","","","ctl-task-cpt","43","806366","0.0-7.0-0.6","83","1","2025-07-30 09:35:15","36c45c0696341be0efffe67d72a12abb","41.121.10.181","Mozilla/5.0 (Windows NT 10.0; Win64; x64) AppleWebKit/537.36 (KHTML, like Gecko) Chrome/138.0.0.0 Safari/537.36 Edg/138.0.0.0","WebKit","Edge","138.0.0.0","Windows","10.0","https://app.prolific.com/","en-US,en;q=0.9","6742fd0efbb5712e14e693e5","687a360dabe5252b5ada7185","6889e65962c1ec2b07bb84fe","0","6742fd0efbb5712e14e693e5","0","2025-07-30T09:48:44.056Z","","","","","","","","","","","","","","","","win-only","1","g1:NE,g2:SW","0.4","7","0","755569.3","1396.7","6400.5","51648.8","1","4","8","6","2","-8","-8","0","7","0","2390.3","3000","-2045","[""down"",""left""]","{""num_key_presses"":13,""num_perfect"":5,""num_errors"":0,""num_randdir"":8,""num_randdir_good_moves"":3,""num_whilered"":0,""num_whileblue"":0,""num_blue"":2,""num_good_moves"":8}","[415.3214133126395,411.57142761775424,0.3,415.3214133126395,411.57142761775424,108.7,415.3214133126395,411.57142761775424,210,415.3214133126395,411.57142761775424,312.9,415.3214133126395,411.57142761775424,414.5,415.3214133126395,411.57142761775424,519.2,415.3214133126395,411.57142761775424,619.5,415.3214133126395,411.57142761775424,722.1,415.3214133126395,411.57142761775424,827.7,415.3214133126395,411.57142761775424,940.5,415.3214133126395,411.57142761775424,1053.5,415.3214133126395,411.57142761775424,1154.6,415.3214133126395,411.57142761775424,1254.9,311.5714133126395,469.07142761775424,1371.6,311.5714133126395,469.07142761775424,1475.2,279.0714133126395,500.32142761775424,1578.9,226.5714133126395,551.5714276177542,1681,191.5714133126395,606.5714276177542,1796.3,175.3214133126395,637.8214276177542,1896.5,141.5714133126395,682.8214276177542,2007.1,110.3214133126395,724.0714276177542,2116.8,100.3214133126395,746.5714276177542,2227.1,100.3214133126395,746.5714276177542,2335.5,100.3214133126395,746.5714276177542,2438.6,100.3214133126395,746.5714276177542,2542.9,100.3214133126395,746.5714276177542,2646.4,100.3214133126395,746.5714276177542,2751.9,100.3214133126395,746.5714276177542,2863.3,165.3214133126395,775.3214276177542,2966.8,165.3214133126395,775.3214276177542,3071.4,186.5714133126395,794.0714276177542,3171.4,186.5714133126395,794.0714276177542,3274.7,186.5714133126395,794.0714276177542,3376.4,186.5714133126395,794.0714276177542,3479.3,186.5714133126395,794.0714276177542,3580.2,186.5714133126395,794.0714276177542,3695.8,186.5714133126395,794.0714276177542,3800.4,186.5714133126395,794.0714276177542,3903.9,186.5714133126395,794.0714276177542,4007.3,186.5714133126395,794.0714276177542,4109.8,186.5714133126395,794.0714276177542,4218.9,186.5714133126395,794.0714276177542,4321.2,186.5714133126395,794.0714276177542,4423,186.5714133126395,794.0714276177542,4525.2,186.5714133126395,794.0714276177542,4636,186.5714133126395,794.0714276177542,4737.7,186.5714133126395,794.0714276177542,4845.4,186.5714133126395,794.0714276177542,4950.6]","[1396.2,1396.3,1000,0,396.3,""oops"",""down"",""up"",""bad_move"",7619.7,6222.2,2496.1,4718.3,405.3,""oops"",""down"",""up"",""bad_move"",10399.7,2779.4,2162.5,7620.4,616.8,""oops"",""down"",""left"",""good_move"",13623.3,3222.6,2792,10400.8,430.5,""smooth"",""down"",""down"",""good_move"",16720.7,3096.5,2738.6,13624.2,358,""smooth"",""left"",""left"",""good_move"",22885.2,6163.9,1950.4,20511.4,423.4,""smooth"",""down"",""down"",""good_move"",25968,3082.5,2697.4,22885.6,385,""oops"",""left"",""up"",""bad_move"",28795.1,2826,2511.4,25969.3,314.5,""oops"",""down"",""down"",""good_move"",31628.2,2832.5,2493.5,28795.7,339,""smooth"",""down"",""down"",""good_move"",34996.7,3368.1,2795.8,31628.6,572.3,""oops"",""down"",""left"",""good_move"",37142.8,2145.4,1769.3,34997.5,376.1,""oops"",""down"",""up"",""bad_move"",39774.8,2631.5,2296,37143.3,335.5,""smooth"",""down"",""down"",""good_move"",42679.5,2904.2,2494.1,39775.3,410.1,""oops"",""down"",""up"",""bad_move""]"
"5582","","<div style=""width:500px;"">
  <p>What determined the result of this run?</p>
  </div>","22","html-slider-response","44","811952","0.0-7.0-1.6","83","1","2025-07-30 09:35:15","36c45c0696341be0efffe67d72a12abb","41.121.10.181","Mozilla/5.0 (Windows NT 10.0; Win64; x64) AppleWebKit/537.36 (KHTML, like Gecko) Chrome/138.0.0.0 Safari/537.36 Edg/138.0.0.0","WebKit","Edge","138.0.0.0","Windows","10.0","https://app.prolific.com/","en-US,en;q=0.9","6742fd0efbb5712e14e693e5","687a360dabe5252b5ada7185","6889e65962c1ec2b07bb84fe","0","6742fd0efbb5712e14e693e5","0","2025-07-30T09:48:49.642Z","","","","AttribQ","","","","","","","","","","","50","","","","","","","","","","","","","","","","","","","","","","","","","","",""
"5050","","<div style=""width:500px;"">
  <p>How much control did you have over the ball?</p>
  </div>","29","html-slider-response","45","817008","0.0-7.0-2.6","83","1","2025-07-30 09:35:15","36c45c0696341be0efffe67d72a12abb","41.121.10.181","Mozilla/5.0 (Windows NT 10.0; Win64; x64) AppleWebKit/537.36 (KHTML, like Gecko) Chrome/138.0.0.0 Safari/537.36 Edg/138.0.0.0","WebKit","Edge","138.0.0.0","Windows","10.0","https://app.prolific.com/","en-US,en;q=0.9","6742fd0efbb5712e14e693e5","687a360dabe5252b5ada7185","6889e65962c1ec2b07bb84fe","0","6742fd0efbb5712e14e693e5","0","2025-07-30T09:48:54.698Z","","","","ControlQ","","","","","","","","","","","50","","","","","","","","","","","","","","","","","","","","","","","","","","",""
"5423","","<div style=""width:500px;"">
  <p>How would you describe your current emotional state?</p>
  </div>","67","html-slider-response","46","822434","0.0-7.0-3.6","83","1","2025-07-30 09:35:15","36c45c0696341be0efffe67d72a12abb","41.121.10.181","Mozilla/5.0 (Windows NT 10.0; Win64; x64) AppleWebKit/537.36 (KHTML, like Gecko) Chrome/138.0.0.0 Safari/537.36 Edg/138.0.0.0","WebKit","Edge","138.0.0.0","Windows","10.0","https://app.prolific.com/","en-US,en;q=0.9","6742fd0efbb5712e14e693e5","687a360dabe5252b5ada7185","6889e65962c1ec2b07bb84fe","0","6742fd0efbb5712e14e693e5","0","2025-07-30T09:49:00.124Z","","","","StressQ","","","","","","","","","","","50","","","","","","","","","","","","","","","","","","","","","","","","","","",""
"5070","","<div style=""width:500px;"">
  <p>What best describes how you currently feel?</p>
  </div>","65","html-slider-response","47","827505","0.0-7.0-4.6","83","1","2025-07-30 09:35:15","36c45c0696341be0efffe67d72a12abb","41.121.10.181","Mozilla/5.0 (Windows NT 10.0; Win64; x64) AppleWebKit/537.36 (KHTML, like Gecko) Chrome/138.0.0.0 Safari/537.36 Edg/138.0.0.0","WebKit","Edge","138.0.0.0","Windows","10.0","https://app.prolific.com/","en-US,en;q=0.9","6742fd0efbb5712e14e693e5","687a360dabe5252b5ada7185","6889e65962c1ec2b07bb84fe","0","6742fd0efbb5712e14e693e5","0","2025-07-30T09:49:05.196Z","","","","MotivationQ","","","","","","","","","","","50","","","","","","","","","","","","","","","","","","","","","","","","","","",""
"","","","","ctl-task-cpt","48","846610","0.0-7.0-0.7","83","1","2025-07-30 09:35:15","36c45c0696341be0efffe67d72a12abb","41.121.10.181","Mozilla/5.0 (Windows NT 10.0; Win64; x64) AppleWebKit/537.36 (KHTML, like Gecko) Chrome/138.0.0.0 Safari/537.36 Edg/138.0.0.0","WebKit","Edge","138.0.0.0","Windows","10.0","https://app.prolific.com/","en-US,en;q=0.9","6742fd0efbb5712e14e693e5","687a360dabe5252b5ada7185","6889e65962c1ec2b07bb84fe","0","6742fd0efbb5712e14e693e5","0","2025-07-30T09:49:24.301Z","","","","","","","","","","","","","","","","win-only","0","g1:NW,g2:SE","0.3","8","0","831384.7","1616.5","6618.7","16085.4","1","4","4","6","1","1","1","1","0","0.007575757575757576","1864.5","3000","2230","[""left"",""up""]","{""num_key_presses"":4,""num_perfect"":2,""num_errors"":0,""num_randdir"":2,""num_randdir_good_moves"":2,""num_whilered"":0,""num_whileblue"":0,""num_blue"":0,""num_good_moves"":4}","[416.5714133126395,412.82142761775424,0.3,416.5714133126395,412.82142761775424,102.5,416.5714133126395,412.82142761775424,203.1,416.5714133126395,412.82142761775424,305.9,416.5714133126395,412.82142761775424,416.1,416.5714133126395,412.82142761775424,521.7,416.5714133126395,412.82142761775424,636.7,416.5714133126395,412.82142761775424,743.2,416.5714133126395,412.82142761775424,847,416.5714133126395,412.82142761775424,953.2,376.5714133126395,337.82142761775424,1056.3,309.0714133126395,242.82142761775424,1158.4,265.3214133126395,169.07142761775424,1261.7,221.5714133126395,124.07142761775425,1362.9,182.8214133126395,91.57142761775425,1465.2,131.5714133126395,64.07142761775425,1574.3,106.5714133126395,56.57142761775425,1689,106.5714133126395,56.57142761775425,1797.8,106.5714133126395,56.57142761775425,1903.6,106.5714133126395,56.57142761775425,2022.2,106.5714133126395,56.57142761775425,2125.3,106.5714133126395,56.57142761775425,2233.3,106.5714133126395,56.57142761775425,2338.9,106.5714133126395,56.57142761775425,2443.2,106.5714133126395,56.57142761775425,2544.5,139.0714133126395,177.82142761775424,2646.9,171.5714133126395,307.82142761775424,2749.4,195.3214133126395,381.57142761775424,2861.3,214.0714133126395,407.82142761775424,2967.5,214.0714133126395,407.82142761775424,3075,214.0714133126395,407.82142761775424,3192.3,214.0714133126395,407.82142761775424,3296.6,214.0714133126395,407.82142761775424,3399.6,214.0714133126395,407.82142761775424,3502,214.0714133126395,407.82142761775424,3617.8,214.0714133126395,407.82142761775424,3723.9,214.0714133126395,407.82142761775424,3828.1,214.0714133126395,407.82142761775424,3930.6,214.0714133126395,407.82142761775424,4035.9,214.0714133126395,407.82142761775424,4146,214.0714133126395,407.82142761775424,4251.2,214.0714133126395,407.82142761775424,4357.2,214.0714133126395,407.82142761775424,4462.8,214.0714133126395,407.82142761775424,4569.4,214.0714133126395,407.82142761775424,4675.7,214.0714133126395,407.82142761775424,4779.1,214.0714133126395,407.82142761775424,4886.5,214.0714133126395,407.82142761775424,4992.9]","[1390.6,1390.6,1000,0,390.6,""smooth"",""left"",""left"",""good_move"",3864.9,2473.3,2108.9,1391.6,364.4,""oops"",""up"",""up"",""good_move"",6700.8,2835,2408.5,3865.8,426.5,""oops"",""left"",""up"",""good_move"",9305.7,2604.4,2215.8,6701.3,388.6,""smooth"",""left"",""left"",""good_move""]"
"4805","","<div style=""width:500px;"">
  <p>What determined the result of this run?</p>
  </div>","71","html-slider-response","49","851419","0.0-7.0-1.7","83","1","2025-07-30 09:35:15","36c45c0696341be0efffe67d72a12abb","41.121.10.181","Mozilla/5.0 (Windows NT 10.0; Win64; x64) AppleWebKit/537.36 (KHTML, like Gecko) Chrome/138.0.0.0 Safari/537.36 Edg/138.0.0.0","WebKit","Edge","138.0.0.0","Windows","10.0","https://app.prolific.com/","en-US,en;q=0.9","6742fd0efbb5712e14e693e5","687a360dabe5252b5ada7185","6889e65962c1ec2b07bb84fe","0","6742fd0efbb5712e14e693e5","0","2025-07-30T09:49:29.110Z","","","","AttribQ","","","","","","","","","","","50","","","","","","","","","","","","","","","","","","","","","","","","","","",""
"4378","","<div style=""width:500px;"">
  <p>How much control did you have over the ball?</p>
  </div>","64","html-slider-response","50","855802","0.0-7.0-2.7","83","1","2025-07-30 09:35:15","36c45c0696341be0efffe67d72a12abb","41.121.10.181","Mozilla/5.0 (Windows NT 10.0; Win64; x64) AppleWebKit/537.36 (KHTML, like Gecko) Chrome/138.0.0.0 Safari/537.36 Edg/138.0.0.0","WebKit","Edge","138.0.0.0","Windows","10.0","https://app.prolific.com/","en-US,en;q=0.9","6742fd0efbb5712e14e693e5","687a360dabe5252b5ada7185","6889e65962c1ec2b07bb84fe","0","6742fd0efbb5712e14e693e5","0","2025-07-30T09:49:33.492Z","","","","ControlQ","","","","","","","","","","","50","","","","","","","","","","","","","","","","","","","","","","","","","","",""
"5138","","<div style=""width:500px;"">
  <p>How would you describe your current emotional state?</p>
  </div>","33","html-slider-response","51","860945","0.0-7.0-3.7","83","1","2025-07-30 09:35:15","36c45c0696341be0efffe67d72a12abb","41.121.10.181","Mozilla/5.0 (Windows NT 10.0; Win64; x64) AppleWebKit/537.36 (KHTML, like Gecko) Chrome/138.0.0.0 Safari/537.36 Edg/138.0.0.0","WebKit","Edge","138.0.0.0","Windows","10.0","https://app.prolific.com/","en-US,en;q=0.9","6742fd0efbb5712e14e693e5","687a360dabe5252b5ada7185","6889e65962c1ec2b07bb84fe","0","6742fd0efbb5712e14e693e5","0","2025-07-30T09:49:38.635Z","","","","StressQ","","","","","","","","","","","50","","","","","","","","","","","","","","","","","","","","","","","","","","",""
"5720","","<div style=""width:500px;"">
  <p>What best describes how you currently feel?</p>
  </div>","67","html-slider-response","52","866674","0.0-7.0-4.7","83","1","2025-07-30 09:35:15","36c45c0696341be0efffe67d72a12abb","41.121.10.181","Mozilla/5.0 (Windows NT 10.0; Win64; x64) AppleWebKit/537.36 (KHTML, like Gecko) Chrome/138.0.0.0 Safari/537.36 Edg/138.0.0.0","WebKit","Edge","138.0.0.0","Windows","10.0","https://app.prolific.com/","en-US,en;q=0.9","6742fd0efbb5712e14e693e5","687a360dabe5252b5ada7185","6889e65962c1ec2b07bb84fe","0","6742fd0efbb5712e14e693e5","0","2025-07-30T09:49:44.365Z","","","","MotivationQ","","","","","","","","","","","50","","","","","","","","","","","","","","","","","","","","","","","","","","",""
"","","","","ctl-task-cpt","53","914527","0.0-7.0-0.8","83","1","2025-07-30 09:35:15","36c45c0696341be0efffe67d72a12abb","41.121.10.181","Mozilla/5.0 (Windows NT 10.0; Win64; x64) AppleWebKit/537.36 (KHTML, like Gecko) Chrome/138.0.0.0 Safari/537.36 Edg/138.0.0.0","WebKit","Edge","138.0.0.0","Windows","10.0","https://app.prolific.com/","en-US,en;q=0.9","6742fd0efbb5712e14e693e5","687a360dabe5252b5ada7185","6889e65962c1ec2b07bb84fe","0","6742fd0efbb5712e14e693e5","0","2025-07-30T09:50:32.217Z","","","","","","","","","","","","","","","","win-only","1","g1:NE,g2:SW","0.4","9","0","870561.4","1689.2","6698.2","44818.1","1","4","4","6","2","4","3","4","1","0.030303030303030304","2085.6","3000","1590","[""down"",""left""]","{""num_key_presses"":9,""num_perfect"":4,""num_errors"":1,""num_randdir"":4,""num_randdir_good_moves"":3,""num_whilered"":0,""num_whileblue"":0,""num_blue"":4,""num_good_moves"":7}","[411.5714133126395,412.82142761775424,0.6,411.5714133126395,412.82142761775424,102.3,411.5714133126395,412.82142761775424,208.1,411.5714133126395,412.82142761775424,313.3,411.5714133126395,412.82142761775424,425.1,411.5714133126395,412.82142761775424,527.8,411.5714133126395,412.82142761775424,628.4,411.5714133126395,412.82142761775424,734.6,411.5714133126395,412.82142761775424,841.8,411.5714133126395,412.82142761775424,942,411.5714133126395,412.82142761775424,1049.6,411.5714133126395,412.82142761775424,1152.2,411.5714133126395,412.82142761775424,1256.1,411.5714133126395,412.82142761775424,1364.5,256.5714133126395,535.3214276177542,1472.4,140.3214133126395,629.0714276177542,1581.3,97.8214133126395,666.5714276177542,1683.9,80.3214133126395,704.0714276177542,1791.9,81.5714133126395,731.5714276177542,1894.7,84.0714133126395,736.5714276177542,2000.2,84.0714133126395,736.5714276177542,2101.6,84.0714133126395,736.5714276177542,2212.7,84.0714133126395,736.5714276177542,2321.6,84.0714133126395,736.5714276177542,2430.9,84.0714133126395,736.5714276177542,2541.5,84.0714133126395,764.0714276177542,2644.5,60.32141331263951,856.5714276177542,2749.3,76.5714133126395,937.8214276177542,2862.8,80.3214133126395,957.8214276177542,2973.8,86.5714133126395,960.3214276177542,3074.5,86.5714133126395,960.3214276177542,3179.9,86.5714133126395,960.3214276177542,3282.8,86.5714133126395,960.3214276177542,3384.4,86.5714133126395,960.3214276177542,3499.2,86.5714133126395,960.3214276177542,3599.7,86.5714133126395,960.3214276177542,3706.8,86.5714133126395,960.3214276177542,3807,86.5714133126395,960.3214276177542,3910,86.5714133126395,960.3214276177542,4022.2,86.5714133126395,960.3214276177542,4125.2,86.5714133126395,960.3214276177542,4230.2,86.5714133126395,960.3214276177542,4333.4,86.5714133126395,960.3214276177542,4435.3,86.5714133126395,960.3214276177542,4541.1,86.5714133126395,960.3214276177542,4651.5,86.5714133126395,960.3214276177542,4761.3,86.5714133126395,960.3214276177542,4861.3,86.5714133126395,960.3214276177542,4965]","[439.7,439.7,1000,0,-560.3,""error"",""-"",""-"",""no_move"",3846.1,3406,1959.1,1454.4,432.6,""oops"",""down"",""down"",""good_move"",6815.6,2969,2531.9,3846.6,437.1,""smooth"",""left"",""left"",""good_move"",9886.8,3070.8,2706,6816,364.8,""oops"",""down"",""right"",""bad_move"",15804.9,5916.7,1926.9,13443,435,""smooth"",""left"",""left"",""good_move"",22630.5,6824.8,2053,20055.2,522.3,""smooth"",""left"",""left"",""good_move"",25324.7,2693.7,2182.7,22631.2,510.9,""smooth"",""down"",""down"",""good_move"",28354.1,3028.2,2702,25325.9,326.2,""oops"",""down"",""left"",""good_move"",37730,9375.7,3069.5,34307.9,352.6,""oops"",""down"",""down"",""good_move""]"
"4169","","<div style=""width:500px;"">
  <p>What determined the result of this run?</p>
  </div>","60","html-slider-response","54","918704","0.0-7.0-1.8","83","1","2025-07-30 09:35:15","36c45c0696341be0efffe67d72a12abb","41.121.10.181","Mozilla/5.0 (Windows NT 10.0; Win64; x64) AppleWebKit/537.36 (KHTML, like Gecko) Chrome/138.0.0.0 Safari/537.36 Edg/138.0.0.0","WebKit","Edge","138.0.0.0","Windows","10.0","https://app.prolific.com/","en-US,en;q=0.9","6742fd0efbb5712e14e693e5","687a360dabe5252b5ada7185","6889e65962c1ec2b07bb84fe","0","6742fd0efbb5712e14e693e5","0","2025-07-30T09:50:36.395Z","","","","AttribQ","","","","","","","","","","","50","","","","","","","","","","","","","","","","","","","","","","","","","","",""
"4289","","<div style=""width:500px;"">
  <p>How much control did you have over the ball?</p>
  </div>","60","html-slider-response","55","922998","0.0-7.0-2.8","83","1","2025-07-30 09:35:15","36c45c0696341be0efffe67d72a12abb","41.121.10.181","Mozilla/5.0 (Windows NT 10.0; Win64; x64) AppleWebKit/537.36 (KHTML, like Gecko) Chrome/138.0.0.0 Safari/537.36 Edg/138.0.0.0","WebKit","Edge","138.0.0.0","Windows","10.0","https://app.prolific.com/","en-US,en;q=0.9","6742fd0efbb5712e14e693e5","687a360dabe5252b5ada7185","6889e65962c1ec2b07bb84fe","0","6742fd0efbb5712e14e693e5","0","2025-07-30T09:50:40.688Z","","","","ControlQ","","","","","","","","","","","50","","","","","","","","","","","","","","","","","","","","","","","","","","",""
"3694","","<div style=""width:500px;"">
  <p>How would you describe your current emotional state?</p>
  </div>","58","html-slider-response","56","926696","0.0-7.0-3.8","83","1","2025-07-30 09:35:15","36c45c0696341be0efffe67d72a12abb","41.121.10.181","Mozilla/5.0 (Windows NT 10.0; Win64; x64) AppleWebKit/537.36 (KHTML, like Gecko) Chrome/138.0.0.0 Safari/537.36 Edg/138.0.0.0","WebKit","Edge","138.0.0.0","Windows","10.0","https://app.prolific.com/","en-US,en;q=0.9","6742fd0efbb5712e14e693e5","687a360dabe5252b5ada7185","6889e65962c1ec2b07bb84fe","0","6742fd0efbb5712e14e693e5","0","2025-07-30T09:50:44.386Z","","","","StressQ","","","","","","","","","","","50","","","","","","","","","","","","","","","","","","","","","","","","","","",""
"2930","","<div style=""width:500px;"">
  <p>What best describes how you currently feel?</p>
  </div>","64","html-slider-response","57","929631","0.0-7.0-4.8","83","1","2025-07-30 09:35:15","36c45c0696341be0efffe67d72a12abb","41.121.10.181","Mozilla/5.0 (Windows NT 10.0; Win64; x64) AppleWebKit/537.36 (KHTML, like Gecko) Chrome/138.0.0.0 Safari/537.36 Edg/138.0.0.0","WebKit","Edge","138.0.0.0","Windows","10.0","https://app.prolific.com/","en-US,en;q=0.9","6742fd0efbb5712e14e693e5","687a360dabe5252b5ada7185","6889e65962c1ec2b07bb84fe","0","6742fd0efbb5712e14e693e5","0","2025-07-30T09:50:47.321Z","","","","MotivationQ","","","","","","","","","","","50","","","","","","","","","","","","","","","","","","","","","","","","","","",""
"","","","","ctl-task-cpt","58","984978","0.0-7.0-0.9","83","1","2025-07-30 09:35:15","36c45c0696341be0efffe67d72a12abb","41.121.10.181","Mozilla/5.0 (Windows NT 10.0; Win64; x64) AppleWebKit/537.36 (KHTML, like Gecko) Chrome/138.0.0.0 Safari/537.36 Edg/138.0.0.0","WebKit","Edge","138.0.0.0","Windows","10.0","https://app.prolific.com/","en-US,en;q=0.9","6742fd0efbb5712e14e693e5","687a360dabe5252b5ada7185","6889e65962c1ec2b07bb84fe","0","6742fd0efbb5712e14e693e5","0","2025-07-30T09:51:42.668Z","","","","","","","","","","","","","","","","win-only","2","g1:SE,g2:NW","0.5","10","0","933509.2","3113.8","8143.4","52281.8","1","4","8","6","1","1","0","4","4","0.030303030303030304","1696.8","3000","2500","[""down"",""right""]","{""num_key_presses"":10,""num_perfect"":4,""num_errors"":1,""num_randdir"":5,""num_randdir_good_moves"":2,""num_whilered"":0,""num_whileblue"":1,""num_blue"":2,""num_good_moves"":7}","[415.3214133126395,411.57142761775424,0.4,415.3214133126395,411.57142761775424,129.9,415.3214133126395,411.57142761775424,248.7,415.3214133126395,411.57142761775424,389.8,415.3214133126395,411.57142761775424,515.5,415.3214133126395,411.57142761775424,639.8,415.3214133126395,411.57142761775424,749.2,415.3214133126395,411.57142761775424,871.3,415.3214133126395,411.57142761775424,991.1,532.8214133126395,530.3214276177542,1091.9,704.0714133126395,646.5714276177542,1211.3,732.8214133126395,679.0714276177542,1335.1,745.3214133126395,697.8214276177542,1455.1,745.3214133126395,704.0714276177542,1560.3,745.3214133126395,704.0714276177542,1683.6,745.3214133126395,704.0714276177542,1799.4,745.3214133126395,704.0714276177542,1940.1,745.3214133126395,704.0714276177542,2059.6,745.3214133126395,704.0714276177542,2183.3,647.8214133126395,716.5714276177542,2317.4,434.0714133126395,761.5714276177542,2455.1,401.5714133126395,776.5714276177542,2571.5,401.5714133126395,776.5714276177542,2678.8,401.5714133126395,776.5714276177542,2799.2,401.5714133126395,776.5714276177542,2919.1,401.5714133126395,776.5714276177542,3038.9,401.5714133126395,776.5714276177542,3164.1,401.5714133126395,776.5714276177542,3288.5,401.5714133126395,776.5714276177542,3409.7,401.5714133126395,776.5714276177542,3550.2,401.5714133126395,776.5714276177542,3653.5,401.5714133126395,776.5714276177542,3768,401.5714133126395,776.5714276177542,3886,401.5714133126395,776.5714276177542,3995.8,401.5714133126395,776.5714276177542,4104.4,401.5714133126395,776.5714276177542,4224.5,401.5714133126395,776.5714276177542,4331.5,401.5714133126395,776.5714276177542,4456,401.5714133126395,776.5714276177542,4581.9,401.5714133126395,776.5714276177542,4702.1,401.5714133126395,776.5714276177542,4820.4,401.5714133126395,776.5714276177542,4943.3]","[1449.8,1449.8,1000,0,449.8,""smooth"",""down"",""down"",""good_move"",4827.6,3377.4,2903.1,1450.2,474.3,""smooth"",""right"",""right"",""good_move"",7330.9,2502.5,1958.8,4828.4,543.7,""oops"",""down"",""down"",""good_move"",10457.3,3125.3,2717.3,7332,408,""oops"",""right"",""left"",""bad_move"",19495.7,9037.9,2131,16856.1,508.6,""oops"",""up"",""left"",""bad_move"",27102.7,7606.6,2942.3,19496.1,4664.3,""oops"",""right"",""up"",""bad_move"",34762.6,7659.2,2407.8,27103.5,5251.4,""smooth"",""right"",""right"",""good_move"",37843,3078.8,2574.2,34764.3,504.5,""smooth"",""right"",""right"",""good_move"",40355.3,2512,2225.3,37843.3,286.7,""while_blue"",""right"",""down"",""good_move"",43200.7,2845.1,2304.7,40355.6,540.4,""oops"",""right"",""right"",""good_move""]"
"4011","","<div style=""width:500px;"">
  <p>What determined the result of this run?</p>
  </div>","50","html-slider-response","59","988996","0.0-7.0-1.9","83","1","2025-07-30 09:35:15","36c45c0696341be0efffe67d72a12abb","41.121.10.181","Mozilla/5.0 (Windows NT 10.0; Win64; x64) AppleWebKit/537.36 (KHTML, like Gecko) Chrome/138.0.0.0 Safari/537.36 Edg/138.0.0.0","WebKit","Edge","138.0.0.0","Windows","10.0","https://app.prolific.com/","en-US,en;q=0.9","6742fd0efbb5712e14e693e5","687a360dabe5252b5ada7185","6889e65962c1ec2b07bb84fe","0","6742fd0efbb5712e14e693e5","0","2025-07-30T09:51:46.686Z","","","","AttribQ","","","","","","","","","","","50","","","","","","","","","","","","","","","","","","","","","","","","","","",""
"4758","","<div style=""width:500px;"">
  <p>How much control did you have over the ball?</p>
  </div>","59","html-slider-response","60","993760","0.0-7.0-2.9","83","1","2025-07-30 09:35:15","36c45c0696341be0efffe67d72a12abb","41.121.10.181","Mozilla/5.0 (Windows NT 10.0; Win64; x64) AppleWebKit/537.36 (KHTML, like Gecko) Chrome/138.0.0.0 Safari/537.36 Edg/138.0.0.0","WebKit","Edge","138.0.0.0","Windows","10.0","https://app.prolific.com/","en-US,en;q=0.9","6742fd0efbb5712e14e693e5","687a360dabe5252b5ada7185","6889e65962c1ec2b07bb84fe","0","6742fd0efbb5712e14e693e5","0","2025-07-30T09:51:51.450Z","","","","ControlQ","","","","","","","","","","","50","","","","","","","","","","","","","","","","","","","","","","","","","","",""
"4379","","<div style=""width:500px;"">
  <p>How would you describe your current emotional state?</p>
  </div>","57","html-slider-response","61","998146","0.0-7.0-3.9","83","1","2025-07-30 09:35:15","36c45c0696341be0efffe67d72a12abb","41.121.10.181","Mozilla/5.0 (Windows NT 10.0; Win64; x64) AppleWebKit/537.36 (KHTML, like Gecko) Chrome/138.0.0.0 Safari/537.36 Edg/138.0.0.0","WebKit","Edge","138.0.0.0","Windows","10.0","https://app.prolific.com/","en-US,en;q=0.9","6742fd0efbb5712e14e693e5","687a360dabe5252b5ada7185","6889e65962c1ec2b07bb84fe","0","6742fd0efbb5712e14e693e5","0","2025-07-30T09:51:55.836Z","","","","StressQ","","","","","","","","","","","50","","","","","","","","","","","","","","","","","","","","","","","","","","",""
"3168","","<div style=""width:500px;"">
  <p>What best describes how you currently feel?</p>
  </div>","44","html-slider-response","62","1001320","0.0-7.0-4.9","83","1","2025-07-30 09:35:15","36c45c0696341be0efffe67d72a12abb","41.121.10.181","Mozilla/5.0 (Windows NT 10.0; Win64; x64) AppleWebKit/537.36 (KHTML, like Gecko) Chrome/138.0.0.0 Safari/537.36 Edg/138.0.0.0","WebKit","Edge","138.0.0.0","Windows","10.0","https://app.prolific.com/","en-US,en;q=0.9","6742fd0efbb5712e14e693e5","687a360dabe5252b5ada7185","6889e65962c1ec2b07bb84fe","0","6742fd0efbb5712e14e693e5","0","2025-07-30T09:51:59.010Z","","","","MotivationQ","","","","","","","","","","","50","","","","","","","","","","","","","","","","","","","","","","","","","","",""
"","","","","ctl-task-cpt","63","1057363","0.0-7.0-0.10","83","1","2025-07-30 09:35:15","36c45c0696341be0efffe67d72a12abb","41.121.10.181","Mozilla/5.0 (Windows NT 10.0; Win64; x64) AppleWebKit/537.36 (KHTML, like Gecko) Chrome/138.0.0.0 Safari/537.36 Edg/138.0.0.0","WebKit","Edge","138.0.0.0","Windows","10.0","https://app.prolific.com/","en-US,en;q=0.9","6742fd0efbb5712e14e693e5","687a360dabe5252b5ada7185","6889e65962c1ec2b07bb84fe","0","6742fd0efbb5712e14e693e5","0","2025-07-30T09:52:55.054Z","","","","","","","","","","","","","","","","win-only","0","g1:NW,g2:SE","0.6","11","0","1005205.5","1489.2","6491.4","53002.4","1","4","4","6","2","4","4","8","4","0.06060606060606061","1888.3","3000","1635","[""down"",""right""]","{""num_key_presses"":8,""num_perfect"":5,""num_errors"":0,""num_randdir"":3,""num_randdir_good_moves"":2,""num_whilered"":0,""num_whileblue"":0,""num_blue"":7,""num_good_moves"":7}","[412.8214133126395,419.07142761775424,0.3,412.8214133126395,419.07142761775424,104.3,412.8214133126395,419.07142761775424,210,412.8214133126395,419.07142761775424,315.5,412.8214133126395,419.07142761775424,421.4,412.8214133126395,419.07142761775424,527.2,412.8214133126395,419.07142761775424,627.9,412.8214133126395,419.07142761775424,733.9,412.8214133126395,419.07142761775424,834.1,412.8214133126395,419.07142761775424,939.8,412.8214133126395,419.07142761775424,1047,440.3214133126395,442.82142761775424,1157.9,595.3214133126395,606.5714276177542,1259.9,647.8214133126395,650.3214276177542,1366.9,706.5714133126395,699.0714276177542,1470.8,729.0714133126395,724.0714276177542,1572.2,745.3214133126395,752.8214276177542,1673.9,751.5714133126395,766.5714276177542,1782.3,751.5714133126395,766.5714276177542,1884.6,751.5714133126395,766.5714276177542,1986.9,751.5714133126395,766.5714276177542,2091.6,751.5714133126395,766.5714276177542,2197.7,751.5714133126395,766.5714276177542,2305.5,751.5714133126395,766.5714276177542,2406.5,645.3214133126395,654.0714276177542,2511.4,612.8214133126395,526.5714276177542,2616.3,642.8214133126395,426.57142761775424,2719.4,652.8214133126395,411.57142761775424,2827.9,652.8214133126395,411.57142761775424,2933.3,652.8214133126395,411.57142761775424,3039.7,652.8214133126395,411.57142761775424,3149.2,652.8214133126395,411.57142761775424,3251.3,652.8214133126395,411.57142761775424,3352.5,652.8214133126395,411.57142761775424,3454.9,652.8214133126395,411.57142761775424,3563.8,652.8214133126395,411.57142761775424,3666.4,652.8214133126395,411.57142761775424,3766.8,652.8214133126395,411.57142761775424,3882,652.8214133126395,411.57142761775424,3988.3,652.8214133126395,411.57142761775424,4093.6,652.8214133126395,411.57142761775424,4199.1,652.8214133126395,411.57142761775424,4299.9,652.8214133126395,411.57142761775424,4403.2,652.8214133126395,411.57142761775424,4508.1,652.8214133126395,411.57142761775424,4614.8,652.8214133126395,411.57142761775424,4715.3,652.8214133126395,411.57142761775424,4817.3,652.8214133126395,411.57142761775424,4925.4]","[4370.9,4370.9,1981.8,2009.4,379.7,""smooth"",""right"",""right"",""good_move"",7933.3,3561.9,3085.5,4371.4,476.4,""smooth"",""down"",""down"",""good_move"",14958.5,7023,2775.4,11777.9,405.2,""oops"",""right"",""down"",""good_move"",17840,2880.8,2361.8,14959.3,518.9,""oops"",""right"",""left"",""bad_move"",27044.5,9203.5,1997.6,24589.8,457.1,""oops"",""down"",""down"",""good_move"",32559,5513.6,1704.8,30346.7,507.6,""smooth"",""right"",""right"",""good_move"",35640.5,3079.3,2629.4,32561.3,449.8,""smooth"",""right"",""right"",""good_move"",46333.8,10692.6,1882.1,43985.3,466.4,""smooth"",""right"",""right"",""good_move""]"
"3901","","<div style=""width:500px;"">
  <p>What determined the result of this run?</p>
  </div>","78","html-slider-response","64","1061269","0.0-7.0-1.10","83","1","2025-07-30 09:35:15","36c45c0696341be0efffe67d72a12abb","41.121.10.181","Mozilla/5.0 (Windows NT 10.0; Win64; x64) AppleWebKit/537.36 (KHTML, like Gecko) Chrome/138.0.0.0 Safari/537.36 Edg/138.0.0.0","WebKit","Edge","138.0.0.0","Windows","10.0","https://app.prolific.com/","en-US,en;q=0.9","6742fd0efbb5712e14e693e5","687a360dabe5252b5ada7185","6889e65962c1ec2b07bb84fe","0","6742fd0efbb5712e14e693e5","0","2025-07-30T09:52:58.959Z","","","","AttribQ","","","","","","","","","","","50","","","","","","","","","","","","","","","","","","","","","","","","","","",""
"4855","","<div style=""width:500px;"">
  <p>How much control did you have over the ball?</p>
  </div>","59","html-slider-response","65","1066131","0.0-7.0-2.10","83","1","2025-07-30 09:35:15","36c45c0696341be0efffe67d72a12abb","41.121.10.181","Mozilla/5.0 (Windows NT 10.0; Win64; x64) AppleWebKit/537.36 (KHTML, like Gecko) Chrome/138.0.0.0 Safari/537.36 Edg/138.0.0.0","WebKit","Edge","138.0.0.0","Windows","10.0","https://app.prolific.com/","en-US,en;q=0.9","6742fd0efbb5712e14e693e5","687a360dabe5252b5ada7185","6889e65962c1ec2b07bb84fe","0","6742fd0efbb5712e14e693e5","0","2025-07-30T09:53:03.821Z","","","","ControlQ","","","","","","","","","","","50","","","","","","","","","","","","","","","","","","","","","","","","","","",""
"5521","","<div style=""width:500px;"">
  <p>How would you describe your current emotional state?</p>
  </div>","32","html-slider-response","66","1071656","0.0-7.0-3.10","83","1","2025-07-30 09:35:15","36c45c0696341be0efffe67d72a12abb","41.121.10.181","Mozilla/5.0 (Windows NT 10.0; Win64; x64) AppleWebKit/537.36 (KHTML, like Gecko) Chrome/138.0.0.0 Safari/537.36 Edg/138.0.0.0","WebKit","Edge","138.0.0.0","Windows","10.0","https://app.prolific.com/","en-US,en;q=0.9","6742fd0efbb5712e14e693e5","687a360dabe5252b5ada7185","6889e65962c1ec2b07bb84fe","0","6742fd0efbb5712e14e693e5","0","2025-07-30T09:53:09.347Z","","","","StressQ","","","","","","","","","","","50","","","","","","","","","","","","","","","","","","","","","","","","","","",""
"4182","","<div style=""width:500px;"">
  <p>What best describes how you currently feel?</p>
  </div>","66","html-slider-response","67","1075841","0.0-7.0-4.10","83","1","2025-07-30 09:35:15","36c45c0696341be0efffe67d72a12abb","41.121.10.181","Mozilla/5.0 (Windows NT 10.0; Win64; x64) AppleWebKit/537.36 (KHTML, like Gecko) Chrome/138.0.0.0 Safari/537.36 Edg/138.0.0.0","WebKit","Edge","138.0.0.0","Windows","10.0","https://app.prolific.com/","en-US,en;q=0.9","6742fd0efbb5712e14e693e5","687a360dabe5252b5ada7185","6889e65962c1ec2b07bb84fe","0","6742fd0efbb5712e14e693e5","0","2025-07-30T09:53:13.532Z","","","","MotivationQ","","","","","","","","","","","50","","","","","","","","","","","","","","","","","","","","","","","","","","",""
"","","","","ctl-task-cpt","68","1116959","0.0-7.0-0.11","83","1","2025-07-30 09:35:15","36c45c0696341be0efffe67d72a12abb","41.121.10.181","Mozilla/5.0 (Windows NT 10.0; Win64; x64) AppleWebKit/537.36 (KHTML, like Gecko) Chrome/138.0.0.0 Safari/537.36 Edg/138.0.0.0","WebKit","Edge","138.0.0.0","Windows","10.0","https://app.prolific.com/","en-US,en;q=0.9","6742fd0efbb5712e14e693e5","687a360dabe5252b5ada7185","6889e65962c1ec2b07bb84fe","0","6742fd0efbb5712e14e693e5","0","2025-07-30T09:53:54.650Z","","","","","","","","","","","","","","","","win-only","1","g1:NE,g2:SW","0.7","12","0","1079720.4","1777.2","6779.1","38081.3","1","4","8","6","2","8","8","16","8","0.12121212121212122","2428.9","3000","1475","[""down"",""left""]","{""num_key_presses"":10,""num_perfect"":7,""num_errors"":0,""num_randdir"":3,""num_randdir_good_moves"":1,""num_whilered"":0,""num_whileblue"":0,""num_blue"":0,""num_good_moves"":8}","[417.8214133126395,416.57142761775424,0.5,417.8214133126395,416.57142761775424,105.7,417.8214133126395,416.57142761775424,212,417.8214133126395,416.57142761775424,316.7,417.8214133126395,416.57142761775424,432.6,417.8214133126395,416.57142761775424,542.2,417.8214133126395,416.57142761775424,643.2,417.8214133126395,416.57142761775424,749.4,417.8214133126395,416.57142761775424,862.4,417.8214133126395,416.57142761775424,966.4,417.8214133126395,416.57142761775424,1073,417.8214133126395,416.57142761775424,1174.5,417.8214133126395,416.57142761775424,1282.7,417.8214133126395,416.57142761775424,1384.6,417.8214133126395,416.57142761775424,1490.1,417.8214133126395,416.57142761775424,1606.2,417.8214133126395,416.57142761775424,1714.2,346.5714133126395,475.32142761775424,1816.3,181.5714133126395,631.5714276177542,1916.7,139.0714133126395,690.3214276177542,2020.5,90.3214133126395,737.8214276177542,2124.2,51.57141331263951,769.0714276177542,2225.8,46.57141331263951,772.8214276177542,2327.3,46.57141331263951,772.8214276177542,2438.5,46.57141331263951,772.8214276177542,2543.6,46.57141331263951,772.8214276177542,2644.3,46.57141331263951,772.8214276177542,2753.5,46.57141331263951,772.8214276177542,2870,46.57141331263951,772.8214276177542,2972.8,46.57141331263951,772.8214276177542,3076.8,97.8214133126395,761.5714276177542,3179.5,160.3214133126395,757.8214276177542,3284.1,194.0714133126395,757.8214276177542,3389.2,249.0714133126395,761.5714276177542,3491.8,274.0714133126395,766.5714276177542,3592,286.5714133126395,764.0714276177542,3694.2,286.5714133126395,764.0714276177542,3805.6,286.5714133126395,764.0714276177542,3912.6,286.5714133126395,764.0714276177542,4020.8,286.5714133126395,764.0714276177542,4121.7,286.5714133126395,764.0714276177542,4224.1,286.5714133126395,764.0714276177542,4325.9,286.5714133126395,764.0714276177542,4437,286.5714133126395,764.0714276177542,4537.4,286.5714133126395,764.0714276177542,4643.8,286.5714133126395,764.0714276177542,4748.1,286.5714133126395,764.0714276177542,4857.3,286.5714133126395,764.0714276177542,4958.7]","[1391.5,1391.5,1000,0,391.5,""smooth"",""left"",""left"",""good_move"",4936.2,3543.9,1944.6,1392.3,1599.3,""smooth"",""down"",""down"",""good_move"",8023.2,3086.3,2631.4,4937,454.9,""oops"",""left"",""up"",""bad_move"",10754.1,2730.1,2195.4,8024,534.7,""smooth"",""down"",""down"",""good_move"",14241.8,3487.2,3005.8,10754.6,481.4,""oops"",""down"",""right"",""bad_move"",17045.6,2802.8,1641.3,14243,1161.4,""smooth"",""down"",""down"",""good_move"",19984.7,2938.5,2518.7,17046.2,419.8,""smooth"",""left"",""left"",""good_move"",23620,3634.9,3250.2,19985.1,384.7,""oops"",""left"",""left"",""good_move"",27936.1,4315.9,3037.7,23620.3,1278.2,""smooth"",""down"",""down"",""good_move"",31058.9,3121.9,2686.5,27937,435.4,""smooth"",""left"",""left"",""good_move""]"
"5454","","<div style=""width:500px;"">
  <p>What determined the result of this run?</p>
  </div>","72","html-slider-response","69","1122417","0.0-7.0-1.11","83","1","2025-07-30 09:35:15","36c45c0696341be0efffe67d72a12abb","41.121.10.181","Mozilla/5.0 (Windows NT 10.0; Win64; x64) AppleWebKit/537.36 (KHTML, like Gecko) Chrome/138.0.0.0 Safari/537.36 Edg/138.0.0.0","WebKit","Edge","138.0.0.0","Windows","10.0","https://app.prolific.com/","en-US,en;q=0.9","6742fd0efbb5712e14e693e5","687a360dabe5252b5ada7185","6889e65962c1ec2b07bb84fe","0","6742fd0efbb5712e14e693e5","0","2025-07-30T09:54:00.107Z","","","","AttribQ","","","","","","","","","","","50","","","","","","","","","","","","","","","","","","","","","","","","","","",""
"5526","","<div style=""width:500px;"">
  <p>How much control did you have over the ball?</p>
  </div>","68","html-slider-response","70","1127947","0.0-7.0-2.11","83","1","2025-07-30 09:35:15","36c45c0696341be0efffe67d72a12abb","41.121.10.181","Mozilla/5.0 (Windows NT 10.0; Win64; x64) AppleWebKit/537.36 (KHTML, like Gecko) Chrome/138.0.0.0 Safari/537.36 Edg/138.0.0.0","WebKit","Edge","138.0.0.0","Windows","10.0","https://app.prolific.com/","en-US,en;q=0.9","6742fd0efbb5712e14e693e5","687a360dabe5252b5ada7185","6889e65962c1ec2b07bb84fe","0","6742fd0efbb5712e14e693e5","0","2025-07-30T09:54:05.637Z","","","","ControlQ","","","","","","","","","","","50","","","","","","","","","","","","","","","","","","","","","","","","","","",""
"4494","","<div style=""width:500px;"">
  <p>How would you describe your current emotional state?</p>
  </div>","36","html-slider-response","71","1132444","0.0-7.0-3.11","83","1","2025-07-30 09:35:15","36c45c0696341be0efffe67d72a12abb","41.121.10.181","Mozilla/5.0 (Windows NT 10.0; Win64; x64) AppleWebKit/537.36 (KHTML, like Gecko) Chrome/138.0.0.0 Safari/537.36 Edg/138.0.0.0","WebKit","Edge","138.0.0.0","Windows","10.0","https://app.prolific.com/","en-US,en;q=0.9","6742fd0efbb5712e14e693e5","687a360dabe5252b5ada7185","6889e65962c1ec2b07bb84fe","0","6742fd0efbb5712e14e693e5","0","2025-07-30T09:54:10.134Z","","","","StressQ","","","","","","","","","","","50","","","","","","","","","","","","","","","","","","","","","","","","","","",""
"4167","","<div style=""width:500px;"">
  <p>What best describes how you currently feel?</p>
  </div>","67","html-slider-response","72","1136613","0.0-7.0-4.11","83","1","2025-07-30 09:35:15","36c45c0696341be0efffe67d72a12abb","41.121.10.181","Mozilla/5.0 (Windows NT 10.0; Win64; x64) AppleWebKit/537.36 (KHTML, like Gecko) Chrome/138.0.0.0 Safari/537.36 Edg/138.0.0.0","WebKit","Edge","138.0.0.0","Windows","10.0","https://app.prolific.com/","en-US,en;q=0.9","6742fd0efbb5712e14e693e5","687a360dabe5252b5ada7185","6889e65962c1ec2b07bb84fe","0","6742fd0efbb5712e14e693e5","0","2025-07-30T09:54:14.303Z","","","","MotivationQ","","","","","","","","","","","50","","","","","","","","","","","","","","","","","","","","","","","","","","",""
"","","","","ctl-task-cpt","73","1169144","0.0-7.0-0.12","83","1","2025-07-30 09:35:15","36c45c0696341be0efffe67d72a12abb","41.121.10.181","Mozilla/5.0 (Windows NT 10.0; Win64; x64) AppleWebKit/537.36 (KHTML, like Gecko) Chrome/138.0.0.0 Safari/537.36 Edg/138.0.0.0","WebKit","Edge","138.0.0.0","Windows","10.0","https://app.prolific.com/","en-US,en;q=0.9","6742fd0efbb5712e14e693e5","687a360dabe5252b5ada7185","6889e65962c1ec2b07bb84fe","0","6742fd0efbb5712e14e693e5","0","2025-07-30T09:54:46.834Z","","","","","","","","","","","","","","","","win-only","1","g1:NE,g2:SW","0.8","13","0","1140492.3","3971.4","8977.2","29506.7","1","4","8","6","2","8","8","24","16","0.18181818181818182","1794.7","3000","2170","[""down"",""left""]","{""num_key_presses"":6,""num_perfect"":5,""num_errors"":0,""num_randdir"":1,""num_randdir_good_moves"":1,""num_whilered"":0,""num_whileblue"":0,""num_blue"":1,""num_good_moves"":6}","[416.5714133126395,412.82142761775424,0.8,416.5714133126395,412.82142761775424,104.5,416.5714133126395,412.82142761775424,218.6,416.5714133126395,412.82142761775424,321.5,416.5714133126395,412.82142761775424,424.8,416.5714133126395,412.82142761775424,544,416.5714133126395,412.82142761775424,665.9,416.5714133126395,412.82142761775424,772.3,416.5714133126395,412.82142761775424,874.3,401.5714133126395,426.57142761775424,985.6,286.5714133126395,526.5714276177542,1099.5,230.3214133126395,580.3214276177542,1199.6,176.5714133126395,642.8214276177542,1300.8,136.5714133126395,692.8214276177542,1415.5,112.8214133126395,741.5714276177542,1521.1,99.0714133126395,765.3214276177542,1628.8,99.0714133126395,765.3214276177542,1740.7,99.0714133126395,765.3214276177542,1851.6,99.0714133126395,765.3214276177542,1972.3,99.0714133126395,765.3214276177542,2075.6,99.0714133126395,765.3214276177542,2180.1,99.0714133126395,765.3214276177542,2293.7,117.8214133126395,781.5714276177542,2400.3,179.0714133126395,844.0714276177542,2514.6,186.5714133126395,866.5714276177542,2622.9,186.5714133126395,870.3214276177542,2724.8,186.5714133126395,870.3214276177542,2834.1,186.5714133126395,870.3214276177542,2945.2,186.5714133126395,870.3214276177542,3055.1,186.5714133126395,870.3214276177542,3169,186.5714133126395,870.3214276177542,3284.8,186.5714133126395,870.3214276177542,3391.9,186.5714133126395,870.3214276177542,3499.1,186.5714133126395,870.3214276177542,3622.7,186.5714133126395,870.3214276177542,3741.7,186.5714133126395,870.3214276177542,3854.8,186.5714133126395,870.3214276177542,3968.9,186.5714133126395,870.3214276177542,4085.5,186.5714133126395,870.3214276177542,4185.6,186.5714133126395,870.3214276177542,4302.4,186.5714133126395,870.3214276177542,4411.9,186.5714133126395,870.3214276177542,4516.8,186.5714133126395,870.3214276177542,4635.1,186.5714133126395,870.3214276177542,4751.3,186.5714133126395,870.3214276177542,4853.6,186.5714133126395,870.3214276177542,4967.1]","[1386.1,1386.1,1000,0,386.1,""smooth"",""down"",""down"",""good_move"",4611.2,3223.7,2867.4,1387.6,356.2,""smooth"",""left"",""left"",""good_move"",7541.3,2929.7,2594.8,4611.6,334.9,""smooth"",""down"",""down"",""good_move"",10419.2,2877.5,2512.3,7541.7,365.2,""smooth"",""left"",""left"",""good_move"",13690.2,3270.7,2815.6,10419.5,455.1,""oops"",""down"",""down"",""good_move"",20292.7,6601.8,2080.7,17763.4,448.6,""smooth"",""left"",""left"",""good_move""]"
"4665","","<div style=""width:500px;"">
  <p>What determined the result of this run?</p>
  </div>","72","html-slider-response","74","1173812","0.0-7.0-1.12","83","1","2025-07-30 09:35:15","36c45c0696341be0efffe67d72a12abb","41.121.10.181","Mozilla/5.0 (Windows NT 10.0; Win64; x64) AppleWebKit/537.36 (KHTML, like Gecko) Chrome/138.0.0.0 Safari/537.36 Edg/138.0.0.0","WebKit","Edge","138.0.0.0","Windows","10.0","https://app.prolific.com/","en-US,en;q=0.9","6742fd0efbb5712e14e693e5","687a360dabe5252b5ada7185","6889e65962c1ec2b07bb84fe","0","6742fd0efbb5712e14e693e5","0","2025-07-30T09:54:51.503Z","","","","AttribQ","","","","","","","","","","","50","","","","","","","","","","","","","","","","","","","","","","","","","","",""
"4553","","<div style=""width:500px;"">
  <p>How much control did you have over the ball?</p>
  </div>","79","html-slider-response","75","1178372","0.0-7.0-2.12","83","1","2025-07-30 09:35:15","36c45c0696341be0efffe67d72a12abb","41.121.10.181","Mozilla/5.0 (Windows NT 10.0; Win64; x64) AppleWebKit/537.36 (KHTML, like Gecko) Chrome/138.0.0.0 Safari/537.36 Edg/138.0.0.0","WebKit","Edge","138.0.0.0","Windows","10.0","https://app.prolific.com/","en-US,en;q=0.9","6742fd0efbb5712e14e693e5","687a360dabe5252b5ada7185","6889e65962c1ec2b07bb84fe","0","6742fd0efbb5712e14e693e5","0","2025-07-30T09:54:56.062Z","","","","ControlQ","","","","","","","","","","","50","","","","","","","","","","","","","","","","","","","","","","","","","","",""
"4182","","<div style=""width:500px;"">
  <p>How would you describe your current emotional state?</p>
  </div>","26","html-slider-response","76","1182557","0.0-7.0-3.12","83","1","2025-07-30 09:35:15","36c45c0696341be0efffe67d72a12abb","41.121.10.181","Mozilla/5.0 (Windows NT 10.0; Win64; x64) AppleWebKit/537.36 (KHTML, like Gecko) Chrome/138.0.0.0 Safari/537.36 Edg/138.0.0.0","WebKit","Edge","138.0.0.0","Windows","10.0","https://app.prolific.com/","en-US,en;q=0.9","6742fd0efbb5712e14e693e5","687a360dabe5252b5ada7185","6889e65962c1ec2b07bb84fe","0","6742fd0efbb5712e14e693e5","0","2025-07-30T09:55:00.248Z","","","","StressQ","","","","","","","","","","","50","","","","","","","","","","","","","","","","","","","","","","","","","","",""
"4934","","<div style=""width:500px;"">
  <p>What best describes how you currently feel?</p>
  </div>","70","html-slider-response","77","1187496","0.0-7.0-4.12","83","1","2025-07-30 09:35:15","36c45c0696341be0efffe67d72a12abb","41.121.10.181","Mozilla/5.0 (Windows NT 10.0; Win64; x64) AppleWebKit/537.36 (KHTML, like Gecko) Chrome/138.0.0.0 Safari/537.36 Edg/138.0.0.0","WebKit","Edge","138.0.0.0","Windows","10.0","https://app.prolific.com/","en-US,en;q=0.9","6742fd0efbb5712e14e693e5","687a360dabe5252b5ada7185","6889e65962c1ec2b07bb84fe","0","6742fd0efbb5712e14e693e5","0","2025-07-30T09:55:05.186Z","","","","MotivationQ","","","","","","","","","","","50","","","","","","","","","","","","","","","","","","","","","","","","","","",""
