"rt","response_timestamp","stimulus","response","trial_type","trial_index","time_elapsed","internal_node_id","run_id","condition","recorded_at","source_code_version","ip","user_agent","device","browser","browser_version","platform","platform_version","referer","accept_language","PROLIFIC_PID","STUDY_ID","SESSION_ID","BATCH","prolific_id","batch","realtime","success","question_order","question_id","eventType","responses","item_order","radio_event_ids","radio_event_times","key_event_times","mouse_event_times","straightlining","zigzagging","honeypot","view_history","slider_start","which_type","canvas_config","goals_layout","control_level","trial_number","tutorial_trial_number","trial_start_time","phase1_start_time","phase2_start_time","phase3_start_time","goal_1_value","goal_1_distance","goal_2_value","goal_2_distance","goal_selected","outcome","outcome_total","participant_final_score","participant_initial_score","participant_final_score_prop","goal_choice_rt","allocated_time","allocated_time_remaining","goal_direction","counts","mouse_movements","key_presses"
"189045","1754771021708","<p style='font-size:40px;line-height:1.25'><strong>Welcome to the experiment!</strong></p><p style='font-size:1.1em;line-height:1.25'>Thank you for participanting in our experiment again! You will be asked to play the Dysfunctional Ball Game again. We will briefly recap the rules before we start.</p><p style='font-size:1.1em;line-height:1.25'>Press <strong>Next</strong> to continue.</p>","0","custom-html-button-response","0","189057","0.0-0.0","243","1","2025-08-09 20:20:30","36c45c0696341be0efffe67d72a12abb","216.120.189.41","Mozilla/5.0 (Windows NT 10.0; Win64; x64) AppleWebKit/537.36 (KHTML, like Gecko) Chrome/138.0.0.0 Safari/537.36","WebKit","Chrome","138.0.0.0","Windows","10.0","null","en-US,en;q=0.9","6743c8da977b0d274dad1fc2","6877649eabb845cf142cd221","68952b92dc6335c2700efa2f","1","6743c8da977b0d274dad1fc2","1","2025-08-09T20:23:41.709Z","","","","","","","","","","","","","","","","","","","","","","","","","","","","","","","","","","","","","","","","","",""
"2114","","","","fullscreen","1","192185","0.0-1.0","243","1","2025-08-09 20:20:30","36c45c0696341be0efffe67d72a12abb","216.120.189.41","Mozilla/5.0 (Windows NT 10.0; Win64; x64) AppleWebKit/537.36 (KHTML, like Gecko) Chrome/138.0.0.0 Safari/537.36","WebKit","Chrome","138.0.0.0","Windows","10.0","null","en-US,en;q=0.9","6743c8da977b0d274dad1fc2","6877649eabb845cf142cd221","68952b92dc6335c2700efa2f","1","6743c8da977b0d274dad1fc2","1","","true","","","","","","","","","","","","","","","","","","","","","","","","","","","","","","","","","","","","","","","","",""
"2443","1754771027283"," <p style='font-size:1.1em;line-height:1.25'>Thank you for closing all other tabs.</p><p style='font-size:1.1em;line-height:1.25'>We will now invite you to fill in some questionnaires, before starting the game.<br>This will take about 5 minutes.<br></p><p style='font-size:1.1em;line-height:1.25'>Press the <strong>Next</strong> button to continue.</p>","0","custom-html-button-response","2","194632","0.0-2.0","243","1","2025-08-09 20:20:30","36c45c0696341be0efffe67d72a12abb","216.120.189.41","Mozilla/5.0 (Windows NT 10.0; Win64; x64) AppleWebKit/537.36 (KHTML, like Gecko) Chrome/138.0.0.0 Safari/537.36","WebKit","Chrome","138.0.0.0","Windows","10.0","null","en-US,en;q=0.9","6743c8da977b0d274dad1fc2","6877649eabb845cf142cd221","68952b92dc6335c2700efa2f","1","6743c8da977b0d274dad1fc2","1","2025-08-09T20:23:47.284Z","","","","","","","","","","","","","","","","","","","","","","","","","","","","","","","","","","","","","","","","","",""
"3579","","","{""assigned_sex"":""female""}","survey-multi-choice","3","198213","0.0-3.0-0.0","243","1","2025-08-09 20:20:30","36c45c0696341be0efffe67d72a12abb","216.120.189.41","Mozilla/5.0 (Windows NT 10.0; Win64; x64) AppleWebKit/537.36 (KHTML, like Gecko) Chrome/138.0.0.0 Safari/537.36","WebKit","Chrome","138.0.0.0","Windows","10.0","null","en-US,en;q=0.9","6743c8da977b0d274dad1fc2","6877649eabb845cf142cd221","68952b92dc6335c2700efa2f","1","6743c8da977b0d274dad1fc2","1","","","[0]","0","demographics","","","","","","","","","","","","","","","","","","","","","","","","","","","","","","","","","","","","","",""
"1385","1754771032250","<p style='font-size:1.1em;line-height:1.25'>In the following, we will perform a baseline assessment. This means that we will ask you a few questions relating to your experiences over the past month.<br></p><p style='font-size:1.1em;line-height:1.25'>Press the <strong>Next</strong> button to continue.</p>","0","custom-html-button-response","4","199598","0.0-4.0-0.0","243","1","2025-08-09 20:20:30","36c45c0696341be0efffe67d72a12abb","216.120.189.41","Mozilla/5.0 (Windows NT 10.0; Win64; x64) AppleWebKit/537.36 (KHTML, like Gecko) Chrome/138.0.0.0 Safari/537.36","WebKit","Chrome","138.0.0.0","Windows","10.0","null","en-US,en;q=0.9","6743c8da977b0d274dad1fc2","6877649eabb845cf142cd221","68952b92dc6335c2700efa2f","1","6743c8da977b0d274dad1fc2","1","2025-08-09T20:23:52.250Z","","","","","","","","","","","","","","","","","","","","","","","","","","","","","","","","","","","","","","","","","",""
"375723.40000000596","","","","survey-template","5","575325","0.0-4.0-1.0","243","1","2025-08-09 20:20:30","36c45c0696341be0efffe67d72a12abb","216.120.189.41","Mozilla/5.0 (Windows NT 10.0; Win64; x64) AppleWebKit/537.36 (KHTML, like Gecko) Chrome/138.0.0.0 Safari/537.36","WebKit","Chrome","138.0.0.0","Windows","10.0","null","en-US,en;q=0.9","6743c8da977b0d274dad1fc2","6877649eabb845cf142cd221","68952b92dc6335c2700efa2f","1","6743c8da977b0d274dad1fc2","1","2025-08-09T20:30:07.977Z","","","","pss","{""Q01"":""2"",""Q02"":""1"",""Q03"":""1"",""Q04"":""3"",""Q05"":""3"",""Q06"":""1"",""Q07"":""0"",""Q08"":""0"",""Q09"":""2"",""Q10"":""0""}","[0,1,2,3,4,5,6,7,8,9]","[""Q01"",""Q01"",""Q02"",""Q04"",""Q03"",""Q05"",""Q06"",""Q07"",""Q07"",""Q08"",""Q09"",""Q10""]","[2947.9000000059605,11112.90000000596,13587,24954.70000001788,26000.40000000596,29812,31131.59999999404,32375.90000000596,38678.5,334200.8000000119,339955,374066.5]","[]","[0.09999999403953552,2947.9000000059605,11112.90000000596,13587,22098.59999999404,24954.70000001788,26000.40000000596,29812,31131.59999999404,32375.90000000596,34863.09999999404,38678.5,334200.8000000119,339955,374066.5,375720.09999999404]","0.5","0.1111111111111111","0","","","","","","","","","","","","","","","","","","","","","","","","","","","","",""
"2243","1754771410222","<p style='font-size:1.1em;line-height:1.25'>Thank you for your answers! Now we will ask you a few more questions relating to your feelings in the last 24 hours.<br></p><p style='font-size:1.1em;line-height:1.25'>Press the <strong>Next</strong> button to continue.</p>","0","custom-html-button-response","6","577570","0.0-4.0-2.0","243","1","2025-08-09 20:20:30","36c45c0696341be0efffe67d72a12abb","216.120.189.41","Mozilla/5.0 (Windows NT 10.0; Win64; x64) AppleWebKit/537.36 (KHTML, like Gecko) Chrome/138.0.0.0 Safari/537.36","WebKit","Chrome","138.0.0.0","Windows","10.0","null","en-US,en;q=0.9","6743c8da977b0d274dad1fc2","6877649eabb845cf142cd221","68952b92dc6335c2700efa2f","1","6743c8da977b0d274dad1fc2","1","2025-08-09T20:30:10.222Z","","","","","","","","","","","","","","","","","","","","","","","","","","","","","","","","","","","","","","","","","",""
"121761.69999998808","","","","survey-template","7","699336","0.0-4.0-3.0","243","1","2025-08-09 20:20:30","36c45c0696341be0efffe67d72a12abb","216.120.189.41","Mozilla/5.0 (Windows NT 10.0; Win64; x64) AppleWebKit/537.36 (KHTML, like Gecko) Chrome/138.0.0.0 Safari/537.36","WebKit","Chrome","138.0.0.0","Windows","10.0","null","en-US,en;q=0.9","6743c8da977b0d274dad1fc2","6877649eabb845cf142cd221","68952b92dc6335c2700efa2f","1","6743c8da977b0d274dad1fc2","1","2025-08-09T20:32:11.988Z","","","","drsp","{""Q01"":""0"",""Q02"":""0"",""Q03"":""0"",""Q04"":""1"",""Q05"":""1"",""Q06"":""1"",""Q07"":""1"",""Q08"":""1"",""Q09"":""0"",""Q10"":""0"",""Q11"":""0"",""Q12"":""1"",""Q13"":""5"",""Q14"":""2"",""Q15"":""0"",""Q16"":""0"",""Q17"":""0"",""Q18"":""0"",""Q19"":""2"",""Q20"":""0"",""Q21"":""1"",""Q22"":""1""}","[0,1,2,3,4,5,6,7,8,9,10,11,12,13,14,15,16,17,18,19,20,21]","[""Q01"",""Q03"",""Q02"",""Q04"",""Q05"",""Q06"",""Q07"",""Q08"",""Q09"",""Q10"",""Q11"",""Q12"",""Q13"",""Q14"",""Q15"",""Q16"",""Q17"",""Q18"",""Q19"",""Q20"",""Q21"",""Q22"",""Q21"",""Q22""]","[4464,6791.4000000059605,8469.09999999404,11673.699999988079,14011.5,16525.19999998808,18193.90000000596,27696.09999999404,29705.19999998808,30988.69999998808,35549.79999998212,38408.09999999404,40393.29999998212,79855.90000000596,85424.29999998212,86838.19999998808,100214.40000000596,102343.40000000596,104418.29999998212,108720.09999999404,111811.90000000596,113555.40000000596,115365.69999998808,118707.5]","[]","[0,4464,5668.5,6791.4000000059605,8469.09999999404,11673.699999988079,14011.5,16525.19999998808,18193.90000000596,27696.09999999404,29705.19999998808,30988.69999998808,32364.40000000596,35549.79999998212,37097.19999998808,38408.09999999404,40393.29999998212,79855.90000000596,85424.29999998212,86838.19999998808,100214.40000000596,101220.59999999404,102343.40000000596,104418.29999998212,108720.09999999404,111811.90000000596,113555.40000000596,115365.69999998808,118707.5,121756.09999999404]","0.5","0.19047619047619047","0","","","","","","","","","","","","","","","","","","","","","","","","","","","","",""
"16754.59999999404","","","","survey-template","8","716092","0.0-4.0-4.0","243","1","2025-08-09 20:20:30","36c45c0696341be0efffe67d72a12abb","216.120.189.41","Mozilla/5.0 (Windows NT 10.0; Win64; x64) AppleWebKit/537.36 (KHTML, like Gecko) Chrome/138.0.0.0 Safari/537.36","WebKit","Chrome","138.0.0.0","Windows","10.0","null","en-US,en;q=0.9","6743c8da977b0d274dad1fc2","6877649eabb845cf142cd221","68952b92dc6335c2700efa2f","1","6743c8da977b0d274dad1fc2","1","2025-08-09T20:32:28.744Z","","","","stress","{""Q01"":""1"",""Q02"":""5"",""Q03"":""0""}","[0,1,2]","[""Q01"",""Q02"",""Q03""]","[7346,10734.699999988079,13339.5]","[]","[7346,10734.699999988079,13339.5,16753.5]","0.6666666666666666","0.5","0","","","","","","","","","","","","","","","","","","","","","","","","","","","","",""
"6419","","","","instructions","9","722512","0.0-5.0-0.0","243","1","2025-08-09 20:20:30","36c45c0696341be0efffe67d72a12abb","216.120.189.41","Mozilla/5.0 (Windows NT 10.0; Win64; x64) AppleWebKit/537.36 (KHTML, like Gecko) Chrome/138.0.0.0 Safari/537.36","WebKit","Chrome","138.0.0.0","Windows","10.0","null","en-US,en;q=0.9","6743c8da977b0d274dad1fc2","6877649eabb845cf142cd221","68952b92dc6335c2700efa2f","1","6743c8da977b0d274dad1fc2","1","","","","","","","","","","","","","","","[{""page_index"":0,""viewing_time"":6419}]","","","","","","","","","","","","","","","","","","","","","","","","","","","",""
"7015","","<p>Before you start with this game please answer the following three questions yourself. </p>
  <p>Through this game, we measure several aspects of your cognitive performance, such as reaction times, multi-tasking capabilities </p>
  <p>and the ability to assess the situation you are in.</p>
  <p></p>
  <p><b>How good do you usually are in such tasks?</b></p>","87","html-slider-response","10","729528","0.0-6.0-0.0","243","1","2025-08-09 20:20:30","36c45c0696341be0efffe67d72a12abb","216.120.189.41","Mozilla/5.0 (Windows NT 10.0; Win64; x64) AppleWebKit/537.36 (KHTML, like Gecko) Chrome/138.0.0.0 Safari/537.36","WebKit","Chrome","138.0.0.0","Windows","10.0","null","en-US,en;q=0.9","6743c8da977b0d274dad1fc2","6877649eabb845cf142cd221","68952b92dc6335c2700efa2f","1","6743c8da977b0d274dad1fc2","1","2025-08-09T20:32:42.180Z","","","","PreSkillQ","","","","","","","","","","","50","","","","","","","","","","","","","","","","","","","","","","","","","","",""
"3308","","<div style=""width:500px;"">
  <p>How well do you think you will perform in this task compared to other participants?</p>
  </div>","87","html-slider-response","11","732837","0.0-6.0-1.0","243","1","2025-08-09 20:20:30","36c45c0696341be0efffe67d72a12abb","216.120.189.41","Mozilla/5.0 (Windows NT 10.0; Win64; x64) AppleWebKit/537.36 (KHTML, like Gecko) Chrome/138.0.0.0 Safari/537.36","WebKit","Chrome","138.0.0.0","Windows","10.0","null","en-US,en;q=0.9","6743c8da977b0d274dad1fc2","6877649eabb845cf142cd221","68952b92dc6335c2700efa2f","1","6743c8da977b0d274dad1fc2","1","2025-08-09T20:32:45.489Z","","","","PrePerfQ","","","","","","","","","","","50","","","","","","","","","","","","","","","","","","","","","","","","","","",""
"5015","","<div style=""width:500px;"">
  <p>What best describes how you currently feel?</p>
  </div>","100","html-slider-response","12","737853","0.0-6.0-2.0","243","1","2025-08-09 20:20:30","36c45c0696341be0efffe67d72a12abb","216.120.189.41","Mozilla/5.0 (Windows NT 10.0; Win64; x64) AppleWebKit/537.36 (KHTML, like Gecko) Chrome/138.0.0.0 Safari/537.36","WebKit","Chrome","138.0.0.0","Windows","10.0","null","en-US,en;q=0.9","6743c8da977b0d274dad1fc2","6877649eabb845cf142cd221","68952b92dc6335c2700efa2f","1","6743c8da977b0d274dad1fc2","1","2025-08-09T20:32:50.505Z","","","","PreMotivationQ","","","","","","","","","","","50","","","","","","","","","","","","","","","","","","","","","","","","","","",""
"","","","","ctl-task-cpt","13","771896","0.0-7.0-0.0","243","1","2025-08-09 20:20:30","36c45c0696341be0efffe67d72a12abb","216.120.189.41","Mozilla/5.0 (Windows NT 10.0; Win64; x64) AppleWebKit/537.36 (KHTML, like Gecko) Chrome/138.0.0.0 Safari/537.36","WebKit","Chrome","138.0.0.0","Windows","10.0","null","en-US,en;q=0.9","6743c8da977b0d274dad1fc2","6877649eabb845cf142cd221","68952b92dc6335c2700efa2f","1","6743c8da977b0d274dad1fc2","1","2025-08-09T20:33:24.548Z","","","","","","","","","","","","","","","","win-only","3","g1:SW,g2:NE","1","1","0","740394.6","2075.8","7079.3","31033.3","1","4","4","6","2","4","4","4","0","0.030303030303030304","1619","3000","1260","[""up"",""right""]","{""num_key_presses"":6,""num_perfect"":6,""num_errors"":0,""num_randdir"":0,""num_randdir_good_moves"":0,""num_whilered"":0,""num_whileblue"":0,""num_blue"":2,""num_good_moves"":6}","[300.22232142857143,292.12857142857143,0.2,300.22232142857143,292.12857142857143,107.1,300.22232142857143,292.12857142857143,214.5,300.22232142857143,292.12857142857143,315.1,300.22232142857143,292.12857142857143,419.5,300.22232142857143,292.12857142857143,526.9,300.22232142857143,292.12857142857143,632.1,381.22232142857143,189.12857142857143,733.7,466.22232142857143,162.12857142857143,838.2,466.22232142857143,162.12857142857143,942.9,466.22232142857143,162.12857142857143,1045.4,494.22232142857143,86.12857142857143,1152.5,499.22232142857143,79.12857142857143,1254.6,499.22232142857143,79.12857142857143,1357.4,499.22232142857143,79.12857142857143,1464.8,499.22232142857143,79.12857142857143,1570.9,499.22232142857143,79.12857142857143,1673.6,499.22232142857143,79.12857142857143,1781.4,499.22232142857143,79.12857142857143,1882.5,523.2223214285714,79.12857142857143,1988.1,664.2223214285714,136.12857142857143,2091.9,704.2223214285714,174.12857142857143,2199,704.2223214285714,174.12857142857143,2310.3,704.2223214285714,174.12857142857143,2412.1,704.2223214285714,174.12857142857143,2519.5,704.2223214285714,174.12857142857143,2630.6,704.2223214285714,174.12857142857143,2740.2,704.2223214285714,174.12857142857143,2841.4,704.2223214285714,174.12857142857143,2942.2,704.2223214285714,174.12857142857143,3051.2,704.2223214285714,174.12857142857143,3160.9,704.2223214285714,174.12857142857143,3262.2,704.2223214285714,174.12857142857143,3367.4,704.2223214285714,174.12857142857143,3473.2,704.2223214285714,174.12857142857143,3583.4,704.2223214285714,174.12857142857143,3690.9,704.2223214285714,174.12857142857143,3799.8,704.2223214285714,174.12857142857143,3902.2,704.2223214285714,174.12857142857143,4002.5,704.2223214285714,174.12857142857143,4104.7,704.2223214285714,174.12857142857143,4206,704.2223214285714,174.12857142857143,4306.7,704.2223214285714,174.12857142857143,4416.4,704.2223214285714,174.12857142857143,4516.4,704.2223214285714,174.12857142857143,4629.7,704.2223214285714,174.12857142857143,4733.3,704.2223214285714,174.12857142857143,4841.9,704.2223214285714,174.12857142857143,4948.5]","[4965.5,4965.2,2474.7,2012.5,478.3,""smooth"",""up"",""up"",""good_move"",7765.3,2799.4,2381.9,4965.9,417.6,""smooth"",""up"",""up"",""good_move"",10700.3,2933.6,2508.7,7766.7,424.9,""smooth"",""up"",""up"",""good_move"",14082,3379,3015.4,10703.1,363.5,""smooth"",""right"",""right"",""good_move"",16354.4,2269,1889.6,14085.5,379.4,""smooth"",""right"",""right"",""good_move"",23802.6,7447.1,2849.2,20487.8,465.7,""smooth"",""right"",""right"",""good_move""]"
"11771","","<div style=""width:500px;"">
  <p>What determined the result of this run?</p>
  </div>","100","html-slider-response","14","783671","0.0-7.0-1.0","243","1","2025-08-09 20:20:30","36c45c0696341be0efffe67d72a12abb","216.120.189.41","Mozilla/5.0 (Windows NT 10.0; Win64; x64) AppleWebKit/537.36 (KHTML, like Gecko) Chrome/138.0.0.0 Safari/537.36","WebKit","Chrome","138.0.0.0","Windows","10.0","null","en-US,en;q=0.9","6743c8da977b0d274dad1fc2","6877649eabb845cf142cd221","68952b92dc6335c2700efa2f","1","6743c8da977b0d274dad1fc2","1","2025-08-09T20:33:36.323Z","","","","AttribQ","","","","","","","","","","","50","","","","","","","","","","","","","","","","","","","","","","","","","","",""
"6241","","<div style=""width:500px;"">
  <p>How much control did you have over the ball?</p>
  </div>","100","html-slider-response","15","789913","0.0-7.0-2.0","243","1","2025-08-09 20:20:30","36c45c0696341be0efffe67d72a12abb","216.120.189.41","Mozilla/5.0 (Windows NT 10.0; Win64; x64) AppleWebKit/537.36 (KHTML, like Gecko) Chrome/138.0.0.0 Safari/537.36","WebKit","Chrome","138.0.0.0","Windows","10.0","null","en-US,en;q=0.9","6743c8da977b0d274dad1fc2","6877649eabb845cf142cd221","68952b92dc6335c2700efa2f","1","6743c8da977b0d274dad1fc2","1","2025-08-09T20:33:42.565Z","","","","ControlQ","","","","","","","","","","","50","","","","","","","","","","","","","","","","","","","","","","","","","","",""
"4997","","<div style=""width:500px;"">
  <p>How would you describe your current emotional state?</p>
  </div>","0","html-slider-response","16","794911","0.0-7.0-3.0","243","1","2025-08-09 20:20:30","36c45c0696341be0efffe67d72a12abb","216.120.189.41","Mozilla/5.0 (Windows NT 10.0; Win64; x64) AppleWebKit/537.36 (KHTML, like Gecko) Chrome/138.0.0.0 Safari/537.36","WebKit","Chrome","138.0.0.0","Windows","10.0","null","en-US,en;q=0.9","6743c8da977b0d274dad1fc2","6877649eabb845cf142cd221","68952b92dc6335c2700efa2f","1","6743c8da977b0d274dad1fc2","1","2025-08-09T20:33:47.563Z","","","","StressQ","","","","","","","","","","","50","","","","","","","","","","","","","","","","","","","","","","","","","","",""
"6124","","<div style=""width:500px;"">
  <p>What best describes how you currently feel?</p>
  </div>","100","html-slider-response","17","801036","0.0-7.0-4.0","243","1","2025-08-09 20:20:30","36c45c0696341be0efffe67d72a12abb","216.120.189.41","Mozilla/5.0 (Windows NT 10.0; Win64; x64) AppleWebKit/537.36 (KHTML, like Gecko) Chrome/138.0.0.0 Safari/537.36","WebKit","Chrome","138.0.0.0","Windows","10.0","null","en-US,en;q=0.9","6743c8da977b0d274dad1fc2","6877649eabb845cf142cd221","68952b92dc6335c2700efa2f","1","6743c8da977b0d274dad1fc2","1","2025-08-09T20:33:53.688Z","","","","MotivationQ","","","","","","","","","","","50","","","","","","","","","","","","","","","","","","","","","","","","","","",""
"","","","","ctl-task-cpt","18","832629","0.0-7.0-0.1","243","1","2025-08-09 20:20:30","36c45c0696341be0efffe67d72a12abb","216.120.189.41","Mozilla/5.0 (Windows NT 10.0; Win64; x64) AppleWebKit/537.36 (KHTML, like Gecko) Chrome/138.0.0.0 Safari/537.36","WebKit","Chrome","138.0.0.0","Windows","10.0","null","en-US,en;q=0.9","6743c8da977b0d274dad1fc2","6877649eabb845cf142cd221","68952b92dc6335c2700efa2f","1","6743c8da977b0d274dad1fc2","1","2025-08-09T20:34:25.281Z","","","","","","","","","","","","","","","","win-only","1","g1:NE,g2:SW","0.9","2","0","803575.4","2129.6","7132.9","28577.1","1","4","8","6","2","8","8","12","4","0.09090909090909091","1437","3000","1455","[""down"",""left""]","{""num_key_presses"":6,""num_perfect"":5,""num_errors"":0,""num_randdir"":1,""num_randdir_good_moves"":1,""num_whilered"":0,""num_whileblue"":0,""num_blue"":2,""num_good_moves"":6}","[292.22232142857143,294.12857142857143,1.9,292.22232142857143,294.12857142857143,102.8,292.22232142857143,294.12857142857143,205.4,292.22232142857143,294.12857142857143,315.5,292.22232142857143,294.12857142857143,417.5,310.22232142857143,282.12857142857143,521.4,202.22232142857143,360.12857142857143,621.7,108.22232142857143,518.1285714285714,728.1,108.22232142857143,518.1285714285714,828.2,108.22232142857143,518.1285714285714,931.5,71.22232142857143,509.12857142857143,1032.9,21.222321428571426,537.1285714285714,1134.8,21.222321428571426,537.1285714285714,1235.6,21.222321428571426,537.1285714285714,1337.7,21.222321428571426,537.1285714285714,1441.5,21.222321428571426,537.1285714285714,1544.1,21.222321428571426,537.1285714285714,1645.1,21.222321428571426,537.1285714285714,1752.3,21.222321428571426,537.1285714285714,1861.5,-68.77767857142857,495.12857142857143,1961.7,-92.77767857142857,476.12857142857143,2062.7,-92.77767857142857,476.12857142857143,2170.4,-92.77767857142857,476.12857142857143,2270.5,-92.77767857142857,476.12857142857143,2370.7,-92.77767857142857,476.12857142857143,2477.2,-92.77767857142857,476.12857142857143,2577.8,-92.77767857142857,476.12857142857143,2678,-92.77767857142857,476.12857142857143,2778,-92.77767857142857,476.12857142857143,2878.3,-92.77767857142857,476.12857142857143,2984.7,-92.77767857142857,476.12857142857143,3087.8,-92.77767857142857,476.12857142857143,3194.2,-92.77767857142857,476.12857142857143,3302.9,-92.77767857142857,476.12857142857143,3402.9,-92.77767857142857,476.12857142857143,3511.5,-92.77767857142857,476.12857142857143,3622.5,-92.77767857142857,476.12857142857143,3728.2,-92.77767857142857,476.12857142857143,3828.2,-92.77767857142857,476.12857142857143,3931.4,-92.77767857142857,476.12857142857143,4033,-92.77767857142857,476.12857142857143,4135.4,-92.77767857142857,476.12857142857143,4237.8,-92.77767857142857,476.12857142857143,4343.5,-92.77767857142857,476.12857142857143,4448.3,-92.77767857142857,476.12857142857143,4553.2,-92.77767857142857,476.12857142857143,4656.8,-92.77767857142857,476.12857142857143,4763.6,-92.77767857142857,476.12857142857143,4866.9,-92.77767857142857,476.12857142857143,4974.5]","[1395,1395.1,1000,0.1,395,""smooth"",""left"",""left"",""good_move"",3650.7,2254,1863.3,1396.7,390.7,""oops"",""left"",""left"",""good_move"",6733.2,3080.5,2680.3,3652.7,400.2,""smooth"",""left"",""left"",""good_move"",9261.7,2526.1,2125.3,6735.6,400.8,""smooth"",""down"",""down"",""good_move"",11974.2,2709.9,2326.2,9264.3,383.8,""smooth"",""down"",""down"",""good_move"",21304.1,9328.6,2769.7,18091.8,442.6,""smooth"",""down"",""down"",""good_move""]"
"12821","","<div style=""width:500px;"">
  <p>What determined the result of this run?</p>
  </div>","100","html-slider-response","19","845453","0.0-7.0-1.1","243","1","2025-08-09 20:20:30","36c45c0696341be0efffe67d72a12abb","216.120.189.41","Mozilla/5.0 (Windows NT 10.0; Win64; x64) AppleWebKit/537.36 (KHTML, like Gecko) Chrome/138.0.0.0 Safari/537.36","WebKit","Chrome","138.0.0.0","Windows","10.0","null","en-US,en;q=0.9","6743c8da977b0d274dad1fc2","6877649eabb845cf142cd221","68952b92dc6335c2700efa2f","1","6743c8da977b0d274dad1fc2","1","2025-08-09T20:34:38.105Z","","","","AttribQ","","","","","","","","","","","50","","","","","","","","","","","","","","","","","","","","","","","","","","",""
"4033","","<div style=""width:500px;"">
  <p>How much control did you have over the ball?</p>
  </div>","100","html-slider-response","20","849487","0.0-7.0-2.1","243","1","2025-08-09 20:20:30","36c45c0696341be0efffe67d72a12abb","216.120.189.41","Mozilla/5.0 (Windows NT 10.0; Win64; x64) AppleWebKit/537.36 (KHTML, like Gecko) Chrome/138.0.0.0 Safari/537.36","WebKit","Chrome","138.0.0.0","Windows","10.0","null","en-US,en;q=0.9","6743c8da977b0d274dad1fc2","6877649eabb845cf142cd221","68952b92dc6335c2700efa2f","1","6743c8da977b0d274dad1fc2","1","2025-08-09T20:34:42.139Z","","","","ControlQ","","","","","","","","","","","50","","","","","","","","","","","","","","","","","","","","","","","","","","",""
"3475","","<div style=""width:500px;"">
  <p>How would you describe your current emotional state?</p>
  </div>","0","html-slider-response","21","852963","0.0-7.0-3.1","243","1","2025-08-09 20:20:30","36c45c0696341be0efffe67d72a12abb","216.120.189.41","Mozilla/5.0 (Windows NT 10.0; Win64; x64) AppleWebKit/537.36 (KHTML, like Gecko) Chrome/138.0.0.0 Safari/537.36","WebKit","Chrome","138.0.0.0","Windows","10.0","null","en-US,en;q=0.9","6743c8da977b0d274dad1fc2","6877649eabb845cf142cd221","68952b92dc6335c2700efa2f","1","6743c8da977b0d274dad1fc2","1","2025-08-09T20:34:45.615Z","","","","StressQ","","","","","","","","","","","50","","","","","","","","","","","","","","","","","","","","","","","","","","",""
"3490","","<div style=""width:500px;"">
  <p>What best describes how you currently feel?</p>
  </div>","100","html-slider-response","22","856454","0.0-7.0-4.1","243","1","2025-08-09 20:20:30","36c45c0696341be0efffe67d72a12abb","216.120.189.41","Mozilla/5.0 (Windows NT 10.0; Win64; x64) AppleWebKit/537.36 (KHTML, like Gecko) Chrome/138.0.0.0 Safari/537.36","WebKit","Chrome","138.0.0.0","Windows","10.0","null","en-US,en;q=0.9","6743c8da977b0d274dad1fc2","6877649eabb845cf142cd221","68952b92dc6335c2700efa2f","1","6743c8da977b0d274dad1fc2","1","2025-08-09T20:34:49.107Z","","","","MotivationQ","","","","","","","","","","","50","","","","","","","","","","","","","","","","","","","","","","","","","","",""
"","","","","ctl-task-cpt","23","908061","0.0-7.0-0.2","243","1","2025-08-09 20:20:30","36c45c0696341be0efffe67d72a12abb","216.120.189.41","Mozilla/5.0 (Windows NT 10.0; Win64; x64) AppleWebKit/537.36 (KHTML, like Gecko) Chrome/138.0.0.0 Safari/537.36","WebKit","Chrome","138.0.0.0","Windows","10.0","null","en-US,en;q=0.9","6743c8da977b0d274dad1fc2","6877649eabb845cf142cd221","68952b92dc6335c2700efa2f","1","6743c8da977b0d274dad1fc2","1","2025-08-09T20:35:40.713Z","","","","","","","","","","","","","","","","win-only","0","g1:NW,g2:SE","0.8","3","0","858995.6","1308.3","6313","48598.5","1","4","4","6","2","4","4","16","12","0.12121212121212122","1597.3","3000","195","[""down"",""right""]","{""num_key_presses"":10,""num_perfect"":8,""num_errors"":0,""num_randdir"":2,""num_randdir_good_moves"":1,""num_whilered"":0,""num_whileblue"":0,""num_blue"":4,""num_good_moves"":8}","[293.22232142857143,292.12857142857143,2.2,293.22232142857143,292.12857142857143,102,293.22232142857143,292.12857142857143,202.2,293.22232142857143,292.12857142857143,303.6,293.22232142857143,292.12857142857143,411.5,293.22232142857143,292.12857142857143,512.7,249.22232142857143,270.12857142857143,615.1,225.22232142857143,254.12857142857143,721.1,407.22232142857143,431.12857142857143,830.8,471.22232142857143,541.1285714285714,935,471.22232142857143,541.1285714285714,1042,471.22232142857143,541.1285714285714,1142.9,483.22232142857143,544.1285714285714,1245.6,502.22232142857143,544.1285714285714,1354.4,502.22232142857143,544.1285714285714,1459.6,502.22232142857143,544.1285714285714,1564.3,502.22232142857143,544.1285714285714,1672.2,502.22232142857143,544.1285714285714,1780.8,502.22232142857143,544.1285714285714,1887,666.2223214285714,521.1285714285714,1995.3,729.2223214285714,494.12857142857143,2101.2,729.2223214285714,494.12857142857143,2210.8,729.2223214285714,494.12857142857143,2313.3,729.2223214285714,494.12857142857143,2413.9,729.2223214285714,494.12857142857143,2523.5,729.2223214285714,494.12857142857143,2633.6,729.2223214285714,494.12857142857143,2736.7,729.2223214285714,494.12857142857143,2841.6,729.2223214285714,494.12857142857143,2943.3,729.2223214285714,494.12857142857143,3052.4,729.2223214285714,494.12857142857143,3153.4,729.2223214285714,494.12857142857143,3263.6,729.2223214285714,494.12857142857143,3370.9,729.2223214285714,494.12857142857143,3481.6,729.2223214285714,494.12857142857143,3588,729.2223214285714,494.12857142857143,3688.5,729.2223214285714,494.12857142857143,3800.1,729.2223214285714,494.12857142857143,3910.1,729.2223214285714,494.12857142857143,4017.3,729.2223214285714,494.12857142857143,4127.1,729.2223214285714,494.12857142857143,4235.3,729.2223214285714,494.12857142857143,4342.2,729.2223214285714,494.12857142857143,4442.8,729.2223214285714,494.12857142857143,4545.3,729.2223214285714,494.12857142857143,4652,729.2223214285714,494.12857142857143,4762.4,729.2223214285714,494.12857142857143,4871.5,729.2223214285714,494.12857142857143,4971.7]","[1379.2,1379.2,1000,0,379.2,""smooth"",""down"",""down"",""good_move"",4100.6,2720.4,2313.7,1380.3,406.6,""smooth"",""down"",""down"",""good_move"",6732.8,2631.7,2205,4101.1,426.7,""smooth"",""down"",""down"",""good_move"",9368.2,2634.5,2200.2,6733.8,434.2,""smooth"",""right"",""right"",""good_move"",18916.7,9546,1880.7,16577,459.1,""smooth"",""right"",""right"",""good_move"",22229,3311.8,2821.3,18917.3,490.5,""oops"",""right"",""left"",""bad_move"",25225.4,2995.2,2580.7,22230.2,414.5,""smooth"",""up"",""up"",""bad_move"",32181.8,6955,2568.9,29178.1,434.8,""smooth"",""right"",""right"",""good_move"",39177.8,6995.7,3229,35563.6,385.2,""smooth"",""right"",""right"",""good_move"",42165.9,2987.1,2607.6,39178.8,379.5,""oops"",""down"",""down"",""good_move""]"
"22211","","<div style=""width:500px;"">
  <p>What determined the result of this run?</p>
  </div>","100","html-slider-response","24","930274","0.0-7.0-1.2","243","1","2025-08-09 20:20:30","36c45c0696341be0efffe67d72a12abb","216.120.189.41","Mozilla/5.0 (Windows NT 10.0; Win64; x64) AppleWebKit/537.36 (KHTML, like Gecko) Chrome/138.0.0.0 Safari/537.36","WebKit","Chrome","138.0.0.0","Windows","10.0","null","en-US,en;q=0.9","6743c8da977b0d274dad1fc2","6877649eabb845cf142cd221","68952b92dc6335c2700efa2f","1","6743c8da977b0d274dad1fc2","1","2025-08-09T20:36:02.926Z","","","","AttribQ","","","","","","","","","","","50","","","","","","","","","","","","","","","","","","","","","","","","","","",""
"13920","","<div style=""width:500px;"">
  <p>How much control did you have over the ball?</p>
  </div>","88","html-slider-response","25","944196","0.0-7.0-2.2","243","1","2025-08-09 20:20:30","36c45c0696341be0efffe67d72a12abb","216.120.189.41","Mozilla/5.0 (Windows NT 10.0; Win64; x64) AppleWebKit/537.36 (KHTML, like Gecko) Chrome/138.0.0.0 Safari/537.36","WebKit","Chrome","138.0.0.0","Windows","10.0","null","en-US,en;q=0.9","6743c8da977b0d274dad1fc2","6877649eabb845cf142cd221","68952b92dc6335c2700efa2f","1","6743c8da977b0d274dad1fc2","1","2025-08-09T20:36:16.848Z","","","","ControlQ","","","","","","","","","","","50","","","","","","","","","","","","","","","","","","","","","","","","","","",""
"4190","","<div style=""width:500px;"">
  <p>How would you describe your current emotional state?</p>
  </div>","0","html-slider-response","26","948388","0.0-7.0-3.2","243","1","2025-08-09 20:20:30","36c45c0696341be0efffe67d72a12abb","216.120.189.41","Mozilla/5.0 (Windows NT 10.0; Win64; x64) AppleWebKit/537.36 (KHTML, like Gecko) Chrome/138.0.0.0 Safari/537.36","WebKit","Chrome","138.0.0.0","Windows","10.0","null","en-US,en;q=0.9","6743c8da977b0d274dad1fc2","6877649eabb845cf142cd221","68952b92dc6335c2700efa2f","1","6743c8da977b0d274dad1fc2","1","2025-08-09T20:36:21.040Z","","","","StressQ","","","","","","","","","","","50","","","","","","","","","","","","","","","","","","","","","","","","","","",""
"3300","","<div style=""width:500px;"">
  <p>What best describes how you currently feel?</p>
  </div>","100","html-slider-response","27","951689","0.0-7.0-4.2","243","1","2025-08-09 20:20:30","36c45c0696341be0efffe67d72a12abb","216.120.189.41","Mozilla/5.0 (Windows NT 10.0; Win64; x64) AppleWebKit/537.36 (KHTML, like Gecko) Chrome/138.0.0.0 Safari/537.36","WebKit","Chrome","138.0.0.0","Windows","10.0","null","en-US,en;q=0.9","6743c8da977b0d274dad1fc2","6877649eabb845cf142cd221","68952b92dc6335c2700efa2f","1","6743c8da977b0d274dad1fc2","1","2025-08-09T20:36:24.342Z","","","","MotivationQ","","","","","","","","","","","50","","","","","","","","","","","","","","","","","","","","","","","","","","",""
"","","","","ctl-task-cpt","28","987893","0.0-7.0-0.3","243","1","2025-08-09 20:20:30","36c45c0696341be0efffe67d72a12abb","216.120.189.41","Mozilla/5.0 (Windows NT 10.0; Win64; x64) AppleWebKit/537.36 (KHTML, like Gecko) Chrome/138.0.0.0 Safari/537.36","WebKit","Chrome","138.0.0.0","Windows","10.0","null","en-US,en;q=0.9","6743c8da977b0d274dad1fc2","6877649eabb845cf142cd221","68952b92dc6335c2700efa2f","1","6743c8da977b0d274dad1fc2","1","2025-08-09T20:37:00.545Z","","","","","","","","","","","","","","","","win-only","0","g1:NW,g2:SE","0.7","4","0","954230.4","1389.6","6393.3","33184.6","1","4","8","6","2","8","6","22","16","0.16666666666666666","1334.5","3000","1560","[""down"",""right""]","{""num_key_presses"":7,""num_perfect"":4,""num_errors"":2,""num_randdir"":1,""num_randdir_good_moves"":1,""num_whilered"":0,""num_whileblue"":1,""num_blue"":3,""num_good_moves"":6}","[292.22232142857143,297.12857142857143,0.6,292.22232142857143,297.12857142857143,101.2,292.22232142857143,297.12857142857143,201.4,292.22232142857143,297.12857142857143,307.6,292.22232142857143,297.12857142857143,417.3,292.22232142857143,299.12857142857143,517.9,374.22232142857143,394.12857142857143,619.4,527.2223214285714,491.12857142857143,723.3,527.2223214285714,491.12857142857143,823.3,527.2223214285714,491.12857142857143,931.3,529.2223214285714,531.1285714285714,1032.2,533.2223214285714,546.1285714285714,1133.6,533.2223214285714,546.1285714285714,1234.6,533.2223214285714,546.1285714285714,1337.3,533.2223214285714,546.1285714285714,1445.7,533.2223214285714,546.1285714285714,1548,533.2223214285714,546.1285714285714,1655.5,533.2223214285714,546.1285714285714,1758.5,533.2223214285714,546.1285714285714,1863.9,503.22232142857143,548.1285714285714,1974.1,646.2223214285714,389.12857142857143,2076.6,691.2223214285714,375.12857142857143,2181.7,691.2223214285714,375.12857142857143,2282.9,691.2223214285714,375.12857142857143,2391,691.2223214285714,375.12857142857143,2492.8,691.2223214285714,375.12857142857143,2597.6,691.2223214285714,375.12857142857143,2701.7,691.2223214285714,375.12857142857143,2802.9,691.2223214285714,375.12857142857143,2905.7,691.2223214285714,375.12857142857143,3005.8,691.2223214285714,375.12857142857143,3115.6,691.2223214285714,375.12857142857143,3222.8,691.2223214285714,375.12857142857143,3328.1,691.2223214285714,375.12857142857143,3432.8,691.2223214285714,375.12857142857143,3533.2,691.2223214285714,375.12857142857143,3639.6,691.2223214285714,375.12857142857143,3745.6,691.2223214285714,375.12857142857143,3848,691.2223214285714,375.12857142857143,3956.9,691.2223214285714,375.12857142857143,4067.3,691.2223214285714,375.12857142857143,4173.3,691.2223214285714,375.12857142857143,4273.3,691.2223214285714,375.12857142857143,4384,691.2223214285714,375.12857142857143,4489.1,691.2223214285714,375.12857142857143,4589.2,691.2223214285714,375.12857142857143,4690.8,691.2223214285714,375.12857142857143,4792.2,691.2223214285714,375.12857142857143,4898.2]","[1473.4,1473.4,1000,0,473.4,""smooth"",""down"",""down"",""good_move"",1691.7,217.7,2672.5,1474.1,-2454.8,""error"",""-"",""-"",""no_move"",5820.4,4126.3,2704.8,2714.4,401.2,""while_blue"",""right"",""down"",""good_move"",12844.7,7023.7,2658.1,9745.7,441,""smooth"",""down"",""down"",""good_move"",16055.8,3209.8,2763.4,12846,446.4,""smooth"",""right"",""right"",""good_move"",23423.9,7366.6,2753.5,20201.1,469.3,""oops"",""right"",""right"",""good_move"",26662.7,3238.4,2796.3,23424.3,442.1,""smooth"",""right"",""right"",""good_move""]"
"6996","","<div style=""width:500px;"">
  <p>What determined the result of this run?</p>
  </div>","100","html-slider-response","29","994892","0.0-7.0-1.3","243","1","2025-08-09 20:20:30","36c45c0696341be0efffe67d72a12abb","216.120.189.41","Mozilla/5.0 (Windows NT 10.0; Win64; x64) AppleWebKit/537.36 (KHTML, like Gecko) Chrome/138.0.0.0 Safari/537.36","WebKit","Chrome","138.0.0.0","Windows","10.0","null","en-US,en;q=0.9","6743c8da977b0d274dad1fc2","6877649eabb845cf142cd221","68952b92dc6335c2700efa2f","1","6743c8da977b0d274dad1fc2","1","2025-08-09T20:37:07.544Z","","","","AttribQ","","","","","","","","","","","50","","","","","","","","","","","","","","","","","","","","","","","","","","",""
"3502","","<div style=""width:500px;"">
  <p>How much control did you have over the ball?</p>
  </div>","87","html-slider-response","30","998395","0.0-7.0-2.3","243","1","2025-08-09 20:20:30","36c45c0696341be0efffe67d72a12abb","216.120.189.41","Mozilla/5.0 (Windows NT 10.0; Win64; x64) AppleWebKit/537.36 (KHTML, like Gecko) Chrome/138.0.0.0 Safari/537.36","WebKit","Chrome","138.0.0.0","Windows","10.0","null","en-US,en;q=0.9","6743c8da977b0d274dad1fc2","6877649eabb845cf142cd221","68952b92dc6335c2700efa2f","1","6743c8da977b0d274dad1fc2","1","2025-08-09T20:37:11.048Z","","","","ControlQ","","","","","","","","","","","50","","","","","","","","","","","","","","","","","","","","","","","","","","",""
"4371","","<div style=""width:500px;"">
  <p>How would you describe your current emotional state?</p>
  </div>","0","html-slider-response","31","1002768","0.0-7.0-3.3","243","1","2025-08-09 20:20:30","36c45c0696341be0efffe67d72a12abb","216.120.189.41","Mozilla/5.0 (Windows NT 10.0; Win64; x64) AppleWebKit/537.36 (KHTML, like Gecko) Chrome/138.0.0.0 Safari/537.36","WebKit","Chrome","138.0.0.0","Windows","10.0","null","en-US,en;q=0.9","6743c8da977b0d274dad1fc2","6877649eabb845cf142cd221","68952b92dc6335c2700efa2f","1","6743c8da977b0d274dad1fc2","1","2025-08-09T20:37:15.420Z","","","","StressQ","","","","","","","","","","","50","","","","","","","","","","","","","","","","","","","","","","","","","","",""
"3501","","<div style=""width:500px;"">
  <p>What best describes how you currently feel?</p>
  </div>","100","html-slider-response","32","1006270","0.0-7.0-4.3","243","1","2025-08-09 20:20:30","36c45c0696341be0efffe67d72a12abb","216.120.189.41","Mozilla/5.0 (Windows NT 10.0; Win64; x64) AppleWebKit/537.36 (KHTML, like Gecko) Chrome/138.0.0.0 Safari/537.36","WebKit","Chrome","138.0.0.0","Windows","10.0","null","en-US,en;q=0.9","6743c8da977b0d274dad1fc2","6877649eabb845cf142cd221","68952b92dc6335c2700efa2f","1","6743c8da977b0d274dad1fc2","1","2025-08-09T20:37:18.922Z","","","","MotivationQ","","","","","","","","","","","50","","","","","","","","","","","","","","","","","","","","","","","","","","",""
"","","","","ctl-task-cpt","33","1055182","0.0-7.0-0.4","243","1","2025-08-09 20:20:30","36c45c0696341be0efffe67d72a12abb","216.120.189.41","Mozilla/5.0 (Windows NT 10.0; Win64; x64) AppleWebKit/537.36 (KHTML, like Gecko) Chrome/138.0.0.0 Safari/537.36","WebKit","Chrome","138.0.0.0","Windows","10.0","null","en-US,en;q=0.9","6743c8da977b0d274dad1fc2","6877649eabb845cf142cd221","68952b92dc6335c2700efa2f","1","6743c8da977b0d274dad1fc2","1","2025-08-09T20:38:07.834Z","","","","","","","","","","","","","","","","win-only","0","g1:NW,g2:SE","0.6","5","0","1008812.4","1369.9","6371.2","45901.7","1","4","4","6","2","-4","-4","18","22","0.13636363636363635","1563.9","3000","-2080","[""down"",""right""]","{""num_key_presses"":10,""num_perfect"":6,""num_errors"":0,""num_randdir"":4,""num_randdir_good_moves"":1,""num_whilered"":0,""num_whileblue"":0,""num_blue"":2,""num_good_moves"":5}","[295.22232142857143,297.12857142857143,0.5,295.22232142857143,297.12857142857143,100.9,295.22232142857143,297.12857142857143,203.7,295.22232142857143,297.12857142857143,306.2,295.22232142857143,297.12857142857143,407,256.22232142857143,267.12857142857143,512.8,237.22232142857143,258.12857142857143,619.1,300.22232142857143,307.12857142857143,721.6,449.22232142857143,471.12857142857143,825.8,467.22232142857143,489.12857142857143,927.7,467.22232142857143,489.12857142857143,1029.8,491.22232142857143,518.1285714285714,1132.8,495.22232142857143,522.1285714285714,1237.1,495.22232142857143,522.1285714285714,1343.8,495.22232142857143,522.1285714285714,1447.4,495.22232142857143,522.1285714285714,1549.2,495.22232142857143,522.1285714285714,1651.1,495.22232142857143,522.1285714285714,1753.7,495.22232142857143,522.1285714285714,1857.5,507.22232142857143,522.1285714285714,1959.2,698.2223214285714,480.12857142857143,2059.2,728.2223214285714,471.12857142857143,2163.9,728.2223214285714,471.12857142857143,2275.2,728.2223214285714,471.12857142857143,2384.1,728.2223214285714,471.12857142857143,2492.7,728.2223214285714,471.12857142857143,2603.1,728.2223214285714,471.12857142857143,2705.7,728.2223214285714,471.12857142857143,2809.5,728.2223214285714,471.12857142857143,2911.1,728.2223214285714,471.12857142857143,3011.5,728.2223214285714,471.12857142857143,3118.6,728.2223214285714,471.12857142857143,3225,728.2223214285714,471.12857142857143,3329.3,728.2223214285714,471.12857142857143,3430.6,728.2223214285714,471.12857142857143,3532.2,728.2223214285714,471.12857142857143,3633.4,728.2223214285714,471.12857142857143,3746.7,728.2223214285714,471.12857142857143,3856.4,728.2223214285714,471.12857142857143,3965.8,728.2223214285714,471.12857142857143,4070.6,728.2223214285714,471.12857142857143,4174.2,728.2223214285714,471.12857142857143,4289,728.2223214285714,471.12857142857143,4398.3,728.2223214285714,471.12857142857143,4501.3,728.2223214285714,471.12857142857143,4609.2,728.2223214285714,471.12857142857143,4711.3,728.2223214285714,471.12857142857143,4814.9,728.2223214285714,471.12857142857143,4915.9]","[1453.5,1453.5,1000,0,453.5,""smooth"",""up"",""up"",""bad_move"",7830.1,6376.1,2593.8,4846.4,389.9,""oops"",""right"",""right"",""good_move"",10124.3,2291.7,1854.7,7832.6,437,""smooth"",""down"",""down"",""good_move"",13965.9,3839.3,3451.9,10126.6,387.4,""oops"",""down"",""up"",""bad_move"",17135.1,3167.6,2772.9,13967.5,394.7,""smooth"",""right"",""right"",""good_move"",20633.9,3498,3158.9,17135.9,339.1,""smooth"",""right"",""right"",""good_move"",23822.1,3187.7,2859.8,20634.4,327.9,""smooth"",""down"",""down"",""good_move"",30218.3,6395.6,2222.4,27644.4,351.5,""oops"",""down"",""up"",""bad_move"",33042.5,2823.9,2403.8,30218.7,420.1,""smooth"",""left"",""left"",""bad_move"",36472,3425.8,3085.3,33046.2,340.5,""oops"",""down"",""up"",""bad_move""]"
"6853","","<div style=""width:500px;"">
  <p>What determined the result of this run?</p>
  </div>","63","html-slider-response","34","1062038","0.0-7.0-1.4","243","1","2025-08-09 20:20:30","36c45c0696341be0efffe67d72a12abb","216.120.189.41","Mozilla/5.0 (Windows NT 10.0; Win64; x64) AppleWebKit/537.36 (KHTML, like Gecko) Chrome/138.0.0.0 Safari/537.36","WebKit","Chrome","138.0.0.0","Windows","10.0","null","en-US,en;q=0.9","6743c8da977b0d274dad1fc2","6877649eabb845cf142cd221","68952b92dc6335c2700efa2f","1","6743c8da977b0d274dad1fc2","1","2025-08-09T20:38:14.690Z","","","","AttribQ","","","","","","","","","","","50","","","","","","","","","","","","","","","","","","","","","","","","","","",""
"4098","","<div style=""width:500px;"">
  <p>How much control did you have over the ball?</p>
  </div>","17","html-slider-response","35","1066138","0.0-7.0-2.4","243","1","2025-08-09 20:20:30","36c45c0696341be0efffe67d72a12abb","216.120.189.41","Mozilla/5.0 (Windows NT 10.0; Win64; x64) AppleWebKit/537.36 (KHTML, like Gecko) Chrome/138.0.0.0 Safari/537.36","WebKit","Chrome","138.0.0.0","Windows","10.0","null","en-US,en;q=0.9","6743c8da977b0d274dad1fc2","6877649eabb845cf142cd221","68952b92dc6335c2700efa2f","1","6743c8da977b0d274dad1fc2","1","2025-08-09T20:38:18.790Z","","","","ControlQ","","","","","","","","","","","50","","","","","","","","","","","","","","","","","","","","","","","","","","",""
"13173","","<div style=""width:500px;"">
  <p>How would you describe your current emotional state?</p>
  </div>","0","html-slider-response","36","1079313","0.0-7.0-3.4","243","1","2025-08-09 20:20:30","36c45c0696341be0efffe67d72a12abb","216.120.189.41","Mozilla/5.0 (Windows NT 10.0; Win64; x64) AppleWebKit/537.36 (KHTML, like Gecko) Chrome/138.0.0.0 Safari/537.36","WebKit","Chrome","138.0.0.0","Windows","10.0","null","en-US,en;q=0.9","6743c8da977b0d274dad1fc2","6877649eabb845cf142cd221","68952b92dc6335c2700efa2f","1","6743c8da977b0d274dad1fc2","1","2025-08-09T20:38:31.965Z","","","","StressQ","","","","","","","","","","","50","","","","","","","","","","","","","","","","","","","","","","","","","","",""
"3553","","<div style=""width:500px;"">
  <p>What best describes how you currently feel?</p>
  </div>","100","html-slider-response","37","1082869","0.0-7.0-4.4","243","1","2025-08-09 20:20:30","36c45c0696341be0efffe67d72a12abb","216.120.189.41","Mozilla/5.0 (Windows NT 10.0; Win64; x64) AppleWebKit/537.36 (KHTML, like Gecko) Chrome/138.0.0.0 Safari/537.36","WebKit","Chrome","138.0.0.0","Windows","10.0","null","en-US,en;q=0.9","6743c8da977b0d274dad1fc2","6877649eabb845cf142cd221","68952b92dc6335c2700efa2f","1","6743c8da977b0d274dad1fc2","1","2025-08-09T20:38:35.521Z","","","","MotivationQ","","","","","","","","","","","50","","","","","","","","","","","","","","","","","","","","","","","","","","",""
"","","","","ctl-task-cpt","38","1223036","0.0-7.0-0.5","243","1","2025-08-09 20:20:30","36c45c0696341be0efffe67d72a12abb","216.120.189.41","Mozilla/5.0 (Windows NT 10.0; Win64; x64) AppleWebKit/537.36 (KHTML, like Gecko) Chrome/138.0.0.0 Safari/537.36","WebKit","Chrome","138.0.0.0","Windows","10.0","null","en-US,en;q=0.9","6743c8da977b0d274dad1fc2","6877649eabb845cf142cd221","68952b92dc6335c2700efa2f","1","6743c8da977b0d274dad1fc2","1","2025-08-09T20:40:55.689Z","","","","","","","","","","","","","","","","win-only","2","g1:SE,g2:NW","0.5","6","0","1085410.7","91119.6","96133","137150.9","1","4","8","6","2","-8","-9","9","18","0.06818181818181818","1698.4","3000","-1885","[""left"",""up""]","{""num_key_presses"":12,""num_perfect"":6,""num_errors"":1,""num_randdir"":5,""num_randdir_good_moves"":3,""num_whilered"":0,""num_whileblue"":1,""num_blue"":2,""num_good_moves"":8}","[304.22232142857143,293.12857142857143,2.9,304.22232142857143,293.12857142857143,109.5,304.22232142857143,293.12857142857143,214.3,304.22232142857143,293.12857142857143,320.8,304.22232142857143,293.12857142857143,424.8,304.22232142857143,293.12857142857143,527.1,289.22232142857143,288.12857142857143,627.1,212.22232142857143,252.12857142857143,729,203.22232142857143,237.12857142857143,842.9,203.22232142857143,237.12857142857143,953.6,150.22232142857143,197.12857142857143,1057,52.222321428571426,49.128571428571426,1165.5,51.222321428571426,48.128571428571426,1265.8,51.222321428571426,48.128571428571426,1372.7,51.222321428571426,48.128571428571426,1479.7,51.222321428571426,48.128571428571426,1582.5,51.222321428571426,48.128571428571426,1686.4,51.222321428571426,48.128571428571426,1796.2,51.222321428571426,48.128571428571426,1904.4,9.222321428571426,43.128571428571426,2004.7,-73.77767857142857,59.128571428571426,2110,-77.77767857142857,60.128571428571426,2221.3,-77.77767857142857,60.128571428571426,2321.4,-77.77767857142857,60.128571428571426,2429.8,-77.77767857142857,60.128571428571426,2531.2,-77.77767857142857,60.128571428571426,2639.1,-77.77767857142857,60.128571428571426,2748.8,-77.77767857142857,60.128571428571426,2855.9,-77.77767857142857,60.128571428571426,2964,-77.77767857142857,60.128571428571426,3075.1,-77.77767857142857,60.128571428571426,3186,-77.77767857142857,60.128571428571426,3294.5,-77.77767857142857,60.128571428571426,3398.7,-77.77767857142857,60.128571428571426,3506.1,-77.77767857142857,60.128571428571426,3609.4,-77.77767857142857,60.128571428571426,3719.9,-77.77767857142857,60.128571428571426,3825.9,-77.77767857142857,60.128571428571426,3931.4,-77.77767857142857,60.128571428571426,4038.1,-77.77767857142857,60.128571428571426,4139.2,-77.77767857142857,60.128571428571426,4240.4,-77.77767857142857,60.128571428571426,4341.9,-77.77767857142857,60.128571428571426,4444.1,-77.77767857142857,60.128571428571426,4549.5,-77.77767857142857,60.128571428571426,4655.7,-77.77767857142857,60.128571428571426,4761.9,-77.77767857142857,60.128571428571426,4863.1,-77.77767857142857,60.128571428571426,4968.1]","[1462.8,1462.8,1000,0,462.8,""smooth"",""left"",""left"",""good_move"",4785.7,3320.5,2958.7,1465.2,361.8,""oops"",""left"",""down"",""bad_move"",7612.6,2825.4,2451.7,4787.3,373.6,""while_blue"",""left"",""right"",""bad_move"",10868.4,3254.2,2869.5,7614.3,384.6,""oops"",""up"",""left"",""good_move"",15023.9,4155.1,3748,10868.8,407.1,""oops"",""left"",""down"",""bad_move"",17896.1,2870.4,2426.1,15025.7,444.3,""oops"",""left"",""up"",""good_move"",20934.7,3037.4,2624.5,17897.3,412.9,""smooth"",""right"",""right"",""bad_move"",24063.6,3128.2,2705.5,20935.4,422.7,""smooth"",""up"",""up"",""good_move"",29701.7,5636.1,2107.6,27155.6,438.5,""oops"",""up"",""left"",""good_move"",32965,3261.1,2657.8,29703.9,603.3,""smooth"",""up"",""up"",""good_move"",35921.2,2955.7,2532.2,32965.5,423.5,""smooth"",""up"",""up"",""good_move"",38286.9,2365,1963.2,35922,401.8,""smooth"",""up"",""up"",""good_move""]"
"6130","","<div style=""width:500px;"">
  <p>What determined the result of this run?</p>
  </div>","100","html-slider-response","39","1229169","0.0-7.0-1.5","243","1","2025-08-09 20:20:30","36c45c0696341be0efffe67d72a12abb","216.120.189.41","Mozilla/5.0 (Windows NT 10.0; Win64; x64) AppleWebKit/537.36 (KHTML, like Gecko) Chrome/138.0.0.0 Safari/537.36","WebKit","Chrome","138.0.0.0","Windows","10.0","null","en-US,en;q=0.9","6743c8da977b0d274dad1fc2","6877649eabb845cf142cd221","68952b92dc6335c2700efa2f","1","6743c8da977b0d274dad1fc2","1","2025-08-09T20:41:01.822Z","","","","AttribQ","","","","","","","","","","","50","","","","","","","","","","","","","","","","","","","","","","","","","","",""
"5688","","<div style=""width:500px;"">
  <p>How much control did you have over the ball?</p>
  </div>","41","html-slider-response","40","1234860","0.0-7.0-2.5","243","1","2025-08-09 20:20:30","36c45c0696341be0efffe67d72a12abb","216.120.189.41","Mozilla/5.0 (Windows NT 10.0; Win64; x64) AppleWebKit/537.36 (KHTML, like Gecko) Chrome/138.0.0.0 Safari/537.36","WebKit","Chrome","138.0.0.0","Windows","10.0","null","en-US,en;q=0.9","6743c8da977b0d274dad1fc2","6877649eabb845cf142cd221","68952b92dc6335c2700efa2f","1","6743c8da977b0d274dad1fc2","1","2025-08-09T20:41:07.512Z","","","","ControlQ","","","","","","","","","","","50","","","","","","","","","","","","","","","","","","","","","","","","","","",""
"7661","","<div style=""width:500px;"">
  <p>How would you describe your current emotional state?</p>
  </div>","0","html-slider-response","41","1242522","0.0-7.0-3.5","243","1","2025-08-09 20:20:30","36c45c0696341be0efffe67d72a12abb","216.120.189.41","Mozilla/5.0 (Windows NT 10.0; Win64; x64) AppleWebKit/537.36 (KHTML, like Gecko) Chrome/138.0.0.0 Safari/537.36","WebKit","Chrome","138.0.0.0","Windows","10.0","null","en-US,en;q=0.9","6743c8da977b0d274dad1fc2","6877649eabb845cf142cd221","68952b92dc6335c2700efa2f","1","6743c8da977b0d274dad1fc2","1","2025-08-09T20:41:15.174Z","","","","StressQ","","","","","","","","","","","50","","","","","","","","","","","","","","","","","","","","","","","","","","",""
"5065","","<div style=""width:500px;"">
  <p>What best describes how you currently feel?</p>
  </div>","100","html-slider-response","42","1247590","0.0-7.0-4.5","243","1","2025-08-09 20:20:30","36c45c0696341be0efffe67d72a12abb","216.120.189.41","Mozilla/5.0 (Windows NT 10.0; Win64; x64) AppleWebKit/537.36 (KHTML, like Gecko) Chrome/138.0.0.0 Safari/537.36","WebKit","Chrome","138.0.0.0","Windows","10.0","null","en-US,en;q=0.9","6743c8da977b0d274dad1fc2","6877649eabb845cf142cd221","68952b92dc6335c2700efa2f","1","6743c8da977b0d274dad1fc2","1","2025-08-09T20:41:20.242Z","","","","MotivationQ","","","","","","","","","","","50","","","","","","","","","","","","","","","","","","","","","","","","","","",""
"","","","","ctl-task-cpt","43","1321423","0.0-7.0-0.6","243","1","2025-08-09 20:20:30","36c45c0696341be0efffe67d72a12abb","216.120.189.41","Mozilla/5.0 (Windows NT 10.0; Win64; x64) AppleWebKit/537.36 (KHTML, like Gecko) Chrome/138.0.0.0 Safari/537.36","WebKit","Chrome","138.0.0.0","Windows","10.0","null","en-US,en;q=0.9","6743c8da977b0d274dad1fc2","6877649eabb845cf142cd221","68952b92dc6335c2700efa2f","1","6743c8da977b0d274dad1fc2","1","2025-08-09T20:42:34.075Z","","","","","","","","","","","","","","","","win-only","3","g1:SW,g2:NE","0.4","7","0","1250132.8","25991.9","30999.8","70800.6","1","4","8","6","2","-8","-8","1","9","0.007575757575757576","1454.1","3000","-1805","[""up"",""right""]","{""num_key_presses"":8,""num_perfect"":4,""num_errors"":0,""num_randdir"":4,""num_randdir_good_moves"":1,""num_whilered"":0,""num_whileblue"":0,""num_blue"":4,""num_good_moves"":5}","[296.72232142857143,293.62857142857143,2.8,296.72232142857143,293.62857142857143,105.5,296.72232142857143,293.62857142857143,207,296.72232142857143,293.62857142857143,313.2,296.72232142857143,293.62857142857143,417.6,284.72232142857143,293.62857142857143,526.6,320.72232142857143,261.62857142857143,658.7,529.7223214285714,107.62857142857143,759.3,529.7223214285714,107.62857142857143,864.1,529.7223214285714,107.62857142857143,965.4,528.7223214285714,102.62857142857143,1068,547.7223214285714,76.62857142857143,1169.5,547.7223214285714,76.62857142857143,1271.7,547.7223214285714,76.62857142857143,1372.7,547.7223214285714,76.62857142857143,1474.4,547.7223214285714,76.62857142857143,1578.1,547.7223214285714,76.62857142857143,1693.9,547.7223214285714,76.62857142857143,1795.5,612.7223214285714,109.62857142857143,1898.6,660.7223214285714,131.62857142857143,2000.4,660.7223214285714,131.62857142857143,2112.9,660.7223214285714,131.62857142857143,2220.1,660.7223214285714,131.62857142857143,2321.3,660.7223214285714,131.62857142857143,2427.7,660.7223214285714,131.62857142857143,2532.5,660.7223214285714,131.62857142857143,2641.1,660.7223214285714,131.62857142857143,2746.1,660.7223214285714,131.62857142857143,2855.1,660.7223214285714,131.62857142857143,2959.2,660.7223214285714,131.62857142857143,3073.6,660.7223214285714,131.62857142857143,3176.1,660.7223214285714,131.62857142857143,3278.9,660.7223214285714,131.62857142857143,3380.8,660.7223214285714,131.62857142857143,3492.1,660.7223214285714,131.62857142857143,3594.5,660.7223214285714,131.62857142857143,3698.2,660.7223214285714,131.62857142857143,3806.5,660.7223214285714,131.62857142857143,3908.1,660.7223214285714,131.62857142857143,4009.9,660.7223214285714,131.62857142857143,4111.7,660.7223214285714,131.62857142857143,4219.4,660.7223214285714,131.62857142857143,4321.8,660.7223214285714,131.62857142857143,4422.5,660.7223214285714,131.62857142857143,4525.6,660.7223214285714,131.62857142857143,4629.1,660.7223214285714,131.62857142857143,4730,660.7223214285714,131.62857142857143,4830.1,660.7223214285714,131.62857142857143,4930.2]","[1814,1814,1000,0,814,""smooth"",""up"",""up"",""good_move"",4504.9,2688.7,1813.8,1816.3,874.8,""oops"",""up"",""left"",""bad_move"",7754.1,3248,2881.6,4506.1,366.4,""oops"",""up"",""up"",""good_move"",12074.1,4319.4,3320.5,7754.7,998.9,""oops"",""up"",""down"",""bad_move"",21655,9579.2,2524.3,18718.1,412.6,""smooth"",""up"",""up"",""good_move"",31183.8,9527.3,2322.9,28532.9,328,""smooth"",""up"",""up"",""good_move"",33562.4,2376.9,1936.3,31185.6,440.6,""smooth"",""right"",""right"",""good_move"",36849.4,3285.5,2937.1,33563.9,348.5,""oops"",""right"",""down"",""bad_move""]"
"24415","","<div style=""width:500px;"">
  <p>What determined the result of this run?</p>
  </div>","100","html-slider-response","44","1345841","0.0-7.0-1.6","243","1","2025-08-09 20:20:30","36c45c0696341be0efffe67d72a12abb","216.120.189.41","Mozilla/5.0 (Windows NT 10.0; Win64; x64) AppleWebKit/537.36 (KHTML, like Gecko) Chrome/138.0.0.0 Safari/537.36","WebKit","Chrome","138.0.0.0","Windows","10.0","null","en-US,en;q=0.9","6743c8da977b0d274dad1fc2","6877649eabb845cf142cd221","68952b92dc6335c2700efa2f","1","6743c8da977b0d274dad1fc2","1","2025-08-09T20:42:58.493Z","","","","AttribQ","","","","","","","","","","","50","","","","","","","","","","","","","","","","","","","","","","","","","","",""
"7176","","<div style=""width:500px;"">
  <p>How much control did you have over the ball?</p>
  </div>","46","html-slider-response","45","1353018","0.0-7.0-2.6","243","1","2025-08-09 20:20:30","36c45c0696341be0efffe67d72a12abb","216.120.189.41","Mozilla/5.0 (Windows NT 10.0; Win64; x64) AppleWebKit/537.36 (KHTML, like Gecko) Chrome/138.0.0.0 Safari/537.36","WebKit","Chrome","138.0.0.0","Windows","10.0","null","en-US,en;q=0.9","6743c8da977b0d274dad1fc2","6877649eabb845cf142cd221","68952b92dc6335c2700efa2f","1","6743c8da977b0d274dad1fc2","1","2025-08-09T20:43:05.670Z","","","","ControlQ","","","","","","","","","","","50","","","","","","","","","","","","","","","","","","","","","","","","","","",""
"6539","","<div style=""width:500px;"">
  <p>How would you describe your current emotional state?</p>
  </div>","0","html-slider-response","46","1359558","0.0-7.0-3.6","243","1","2025-08-09 20:20:30","36c45c0696341be0efffe67d72a12abb","216.120.189.41","Mozilla/5.0 (Windows NT 10.0; Win64; x64) AppleWebKit/537.36 (KHTML, like Gecko) Chrome/138.0.0.0 Safari/537.36","WebKit","Chrome","138.0.0.0","Windows","10.0","null","en-US,en;q=0.9","6743c8da977b0d274dad1fc2","6877649eabb845cf142cd221","68952b92dc6335c2700efa2f","1","6743c8da977b0d274dad1fc2","1","2025-08-09T20:43:12.210Z","","","","StressQ","","","","","","","","","","","50","","","","","","","","","","","","","","","","","","","","","","","","","","",""
"10294","","<div style=""width:500px;"">
  <p>What best describes how you currently feel?</p>
  </div>","100","html-slider-response","47","1369854","0.0-7.0-4.6","243","1","2025-08-09 20:20:30","36c45c0696341be0efffe67d72a12abb","216.120.189.41","Mozilla/5.0 (Windows NT 10.0; Win64; x64) AppleWebKit/537.36 (KHTML, like Gecko) Chrome/138.0.0.0 Safari/537.36","WebKit","Chrome","138.0.0.0","Windows","10.0","null","en-US,en;q=0.9","6743c8da977b0d274dad1fc2","6877649eabb845cf142cd221","68952b92dc6335c2700efa2f","1","6743c8da977b0d274dad1fc2","1","2025-08-09T20:43:22.506Z","","","","MotivationQ","","","","","","","","","","","50","","","","","","","","","","","","","","","","","","","","","","","","","","",""
"","","","","ctl-task-cpt","48","1411673","0.0-7.0-0.7","243","1","2025-08-09 20:20:30","36c45c0696341be0efffe67d72a12abb","216.120.189.41","Mozilla/5.0 (Windows NT 10.0; Win64; x64) AppleWebKit/537.36 (KHTML, like Gecko) Chrome/138.0.0.0 Safari/537.36","WebKit","Chrome","138.0.0.0","Windows","10.0","null","en-US,en;q=0.9","6743c8da977b0d274dad1fc2","6877649eabb845cf142cd221","68952b92dc6335c2700efa2f","1","6743c8da977b0d274dad1fc2","1","2025-08-09T20:44:04.325Z","","","","","","","","","","","","","","","","win-only","2","g1:SE,g2:NW","0.3","8","0","1372398","1698.2","6701.4","38801.5","1","4","4","6","2","-4","-6","0","1","0","1416.4","3000","-1875","[""left"",""up""]","{""num_key_presses"":8,""num_perfect"":3,""num_errors"":2,""num_randdir"":3,""num_randdir_good_moves"":2,""num_whilered"":0,""num_whileblue"":2,""num_blue"":4,""num_good_moves"":5}","[269.896875,263.303125,1.9,269.896875,263.303125,100.5,269.896875,263.303125,202.6,269.896875,263.303125,306.2,269.896875,263.303125,406.2,270.896875,264.303125,511.7,284.896875,275.303125,619.3,137.896875,84.303125,721.9,101.896875,61.303125,823.7,101.896875,61.303125,924.5,101.896875,61.303125,1027,41.896875,40.303125,1132.2,39.896875,39.303125,1235.7,39.896875,39.303125,1338.8,39.896875,39.303125,1439.4,39.896875,39.303125,1546.1,39.896875,39.303125,1651.7,-17.103125,25.303125,1753.9,-115.103125,24.303125,1862.9,-115.103125,24.303125,1962.9,-115.103125,24.303125,2063.3,-115.103125,24.303125,2170.6,-115.103125,24.303125,2272.1,-115.103125,24.303125,2373.6,-115.103125,24.303125,2474.1,-115.103125,24.303125,2574.8,-115.103125,24.303125,2679.6,-115.103125,24.303125,2792.6,-115.103125,24.303125,2896.6,-115.103125,24.303125,2997.5,-115.103125,24.303125,3103.5,-115.103125,24.303125,3211.8,-115.103125,24.303125,3317.4,-115.103125,24.303125,3420,-115.103125,24.303125,3522.3,-115.103125,24.303125,3622.3,-115.103125,24.303125,3727.8,-115.103125,24.303125,3845.8,-115.103125,24.303125,3945.9,-115.103125,24.303125,4049.5,-115.103125,24.303125,4154.8,-115.103125,24.303125,4258.4,-115.103125,24.303125,4366.3,-115.103125,24.303125,4468.9,-115.103125,24.303125,4578.6,-115.103125,24.303125,4680.8,-115.103125,24.303125,4786.9,-115.103125,24.303125,4890.1,-115.103125,24.303125,4995.1]","[1443.8,1443.8,1000,0,443.8,""smooth"",""up"",""up"",""good_move"",4239.2,2794.4,2385.5,1444.8,408.9,""oops"",""up"",""left"",""good_move"",7094.8,2852.7,2496.9,4242.1,355.8,""while_blue"",""left"",""right"",""bad_move"",9642.1,2545.8,2145.1,7096.3,400.7,""oops"",""up"",""down"",""bad_move"",12126.1,2482.5,2030,9643.6,452.5,""smooth"",""left"",""left"",""good_move"",14584.7,2458.4,2062,12126.3,396.4,""smooth"",""left"",""left"",""good_move"",17777.5,3191.7,2756.2,14585.8,435.5,""oops"",""left"",""up"",""good_move"",27541.4,9762.6,2530.5,24578.5,432.4,""while_blue"",""left"",""right"",""bad_move""]"
"9244","","<div style=""width:500px;"">
  <p>What determined the result of this run?</p>
  </div>","34","html-slider-response","49","1420920","0.0-7.0-1.7","243","1","2025-08-09 20:20:30","36c45c0696341be0efffe67d72a12abb","216.120.189.41","Mozilla/5.0 (Windows NT 10.0; Win64; x64) AppleWebKit/537.36 (KHTML, like Gecko) Chrome/138.0.0.0 Safari/537.36","WebKit","Chrome","138.0.0.0","Windows","10.0","null","en-US,en;q=0.9","6743c8da977b0d274dad1fc2","6877649eabb845cf142cd221","68952b92dc6335c2700efa2f","1","6743c8da977b0d274dad1fc2","1","2025-08-09T20:44:13.572Z","","","","AttribQ","","","","","","","","","","","50","","","","","","","","","","","","","","","","","","","","","","","","","","",""
"2498","","<div style=""width:500px;"">
  <p>How much control did you have over the ball?</p>
  </div>","21","html-slider-response","50","1423421","0.0-7.0-2.7","243","1","2025-08-09 20:20:30","36c45c0696341be0efffe67d72a12abb","216.120.189.41","Mozilla/5.0 (Windows NT 10.0; Win64; x64) AppleWebKit/537.36 (KHTML, like Gecko) Chrome/138.0.0.0 Safari/537.36","WebKit","Chrome","138.0.0.0","Windows","10.0","null","en-US,en;q=0.9","6743c8da977b0d274dad1fc2","6877649eabb845cf142cd221","68952b92dc6335c2700efa2f","1","6743c8da977b0d274dad1fc2","1","2025-08-09T20:44:16.073Z","","","","ControlQ","","","","","","","","","","","50","","","","","","","","","","","","","","","","","","","","","","","","","","",""
"4619","","<div style=""width:500px;"">
  <p>How would you describe your current emotional state?</p>
  </div>","0","html-slider-response","51","1428041","0.0-7.0-3.7","243","1","2025-08-09 20:20:30","36c45c0696341be0efffe67d72a12abb","216.120.189.41","Mozilla/5.0 (Windows NT 10.0; Win64; x64) AppleWebKit/537.36 (KHTML, like Gecko) Chrome/138.0.0.0 Safari/537.36","WebKit","Chrome","138.0.0.0","Windows","10.0","null","en-US,en;q=0.9","6743c8da977b0d274dad1fc2","6877649eabb845cf142cd221","68952b92dc6335c2700efa2f","1","6743c8da977b0d274dad1fc2","1","2025-08-09T20:44:20.693Z","","","","StressQ","","","","","","","","","","","50","","","","","","","","","","","","","","","","","","","","","","","","","","",""
"4226","","<div style=""width:500px;"">
  <p>What best describes how you currently feel?</p>
  </div>","100","html-slider-response","52","1432269","0.0-7.0-4.7","243","1","2025-08-09 20:20:30","36c45c0696341be0efffe67d72a12abb","216.120.189.41","Mozilla/5.0 (Windows NT 10.0; Win64; x64) AppleWebKit/537.36 (KHTML, like Gecko) Chrome/138.0.0.0 Safari/537.36","WebKit","Chrome","138.0.0.0","Windows","10.0","null","en-US,en;q=0.9","6743c8da977b0d274dad1fc2","6877649eabb845cf142cd221","68952b92dc6335c2700efa2f","1","6743c8da977b0d274dad1fc2","1","2025-08-09T20:44:24.921Z","","","","MotivationQ","","","","","","","","","","","50","","","","","","","","","","","","","","","","","","","","","","","","","","",""
"","","","","ctl-task-cpt","53","1457194","0.0-7.0-0.8","243","1","2025-08-09 20:20:30","36c45c0696341be0efffe67d72a12abb","216.120.189.41","Mozilla/5.0 (Windows NT 10.0; Win64; x64) AppleWebKit/537.36 (KHTML, like Gecko) Chrome/138.0.0.0 Safari/537.36","WebKit","Chrome","138.0.0.0","Windows","10.0","null","en-US,en;q=0.9","6743c8da977b0d274dad1fc2","6877649eabb845cf142cd221","68952b92dc6335c2700efa2f","1","6743c8da977b0d274dad1fc2","1","2025-08-09T20:44:49.846Z","","","","","","","","","","","","","","","","win-only","3","g1:SW,g2:NE","0.4","9","0","1434811","1460.8","6474.7","21911","1","4","4","6","2","-4","-4","0","0","0","1593.4","3000","-1880","[""up"",""right""]","{""num_key_presses"":3,""num_perfect"":2,""num_errors"":0,""num_randdir"":1,""num_randdir_good_moves"":1,""num_whilered"":0,""num_whileblue"":0,""num_blue"":1,""num_good_moves"":3}","[261.896875,259.303125,1.1,261.896875,259.303125,100.1,261.896875,259.303125,202.3,261.896875,259.303125,304.2,237.896875,245.303125,410.7,222.896875,238.303125,513.2,153.896875,305.303125,627.9,136.896875,315.303125,731.3,354.896875,88.303125,833.8,536.896875,-24.696875,934.3,536.896875,-24.696875,1034.4,536.896875,-24.696875,1136,499.896875,13.303125000000001,1238.3,498.896875,13.303125000000001,1339,498.896875,13.303125000000001,1443.4,498.896875,13.303125000000001,1547.6,498.896875,13.303125000000001,1650.9,498.896875,13.303125000000001,1752.6,498.896875,13.303125000000001,1861.7,498.896875,13.303125000000001,1976.8,629.896875,71.303125,2093.3,671.896875,89.303125,2203.7,671.896875,89.303125,2311.4,671.896875,89.303125,2412.1,671.896875,89.303125,2521.1,671.896875,89.303125,2622.6,671.896875,89.303125,2722.8,671.896875,89.303125,2828.3,671.896875,89.303125,2929,671.896875,89.303125,3038.2,671.896875,89.303125,3139.3,671.896875,89.303125,3246.7,671.896875,89.303125,3347.9,671.896875,89.303125,3456.9,671.896875,89.303125,3558.2,671.896875,89.303125,3661.2,671.896875,89.303125,3771.1,671.896875,89.303125,3879.9,671.896875,89.303125,3982.5,671.896875,89.303125,4083.3,671.896875,89.303125,4187.1,671.896875,89.303125,4292.4,671.896875,89.303125,4399.4,671.896875,89.303125,4503.7,671.896875,89.303125,4606.3,671.896875,89.303125,4713.1,671.896875,89.303125,4826.3,671.896875,89.303125,4927.4]","[1485.5,1485.5,1000,0,485.5,""oops"",""up"",""right"",""good_move"",8104.5,6618.4,2337,5002.1,765.4,""smooth"",""right"",""right"",""good_move"",12124.7,4019.5,1291.2,8105.3,2728.2,""smooth"",""right"",""right"",""good_move""]"
"5393","","<div style=""width:500px;"">
  <p>What determined the result of this run?</p>
  </div>","100","html-slider-response","54","1462588","0.0-7.0-1.8","243","1","2025-08-09 20:20:30","36c45c0696341be0efffe67d72a12abb","216.120.189.41","Mozilla/5.0 (Windows NT 10.0; Win64; x64) AppleWebKit/537.36 (KHTML, like Gecko) Chrome/138.0.0.0 Safari/537.36","WebKit","Chrome","138.0.0.0","Windows","10.0","null","en-US,en;q=0.9","6743c8da977b0d274dad1fc2","6877649eabb845cf142cd221","68952b92dc6335c2700efa2f","1","6743c8da977b0d274dad1fc2","1","2025-08-09T20:44:55.240Z","","","","AttribQ","","","","","","","","","","","50","","","","","","","","","","","","","","","","","","","","","","","","","","",""
"2780","","<div style=""width:500px;"">
  <p>How much control did you have over the ball?</p>
  </div>","40","html-slider-response","55","1465369","0.0-7.0-2.8","243","1","2025-08-09 20:20:30","36c45c0696341be0efffe67d72a12abb","216.120.189.41","Mozilla/5.0 (Windows NT 10.0; Win64; x64) AppleWebKit/537.36 (KHTML, like Gecko) Chrome/138.0.0.0 Safari/537.36","WebKit","Chrome","138.0.0.0","Windows","10.0","null","en-US,en;q=0.9","6743c8da977b0d274dad1fc2","6877649eabb845cf142cd221","68952b92dc6335c2700efa2f","1","6743c8da977b0d274dad1fc2","1","2025-08-09T20:44:58.021Z","","","","ControlQ","","","","","","","","","","","50","","","","","","","","","","","","","","","","","","","","","","","","","","",""
"3050","","<div style=""width:500px;"">
  <p>How would you describe your current emotional state?</p>
  </div>","0","html-slider-response","56","1468420","0.0-7.0-3.8","243","1","2025-08-09 20:20:30","36c45c0696341be0efffe67d72a12abb","216.120.189.41","Mozilla/5.0 (Windows NT 10.0; Win64; x64) AppleWebKit/537.36 (KHTML, like Gecko) Chrome/138.0.0.0 Safari/537.36","WebKit","Chrome","138.0.0.0","Windows","10.0","null","en-US,en;q=0.9","6743c8da977b0d274dad1fc2","6877649eabb845cf142cd221","68952b92dc6335c2700efa2f","1","6743c8da977b0d274dad1fc2","1","2025-08-09T20:45:01.072Z","","","","StressQ","","","","","","","","","","","50","","","","","","","","","","","","","","","","","","","","","","","","","","",""
"6148","","<div style=""width:500px;"">
  <p>What best describes how you currently feel?</p>
  </div>","89","html-slider-response","57","1474569","0.0-7.0-4.8","243","1","2025-08-09 20:20:30","36c45c0696341be0efffe67d72a12abb","216.120.189.41","Mozilla/5.0 (Windows NT 10.0; Win64; x64) AppleWebKit/537.36 (KHTML, like Gecko) Chrome/138.0.0.0 Safari/537.36","WebKit","Chrome","138.0.0.0","Windows","10.0","null","en-US,en;q=0.9","6743c8da977b0d274dad1fc2","6877649eabb845cf142cd221","68952b92dc6335c2700efa2f","1","6743c8da977b0d274dad1fc2","1","2025-08-09T20:45:07.222Z","","","","MotivationQ","","","","","","","","","","","50","","","","","","","","","","","","","","","","","","","","","","","","","","",""
"","","","","ctl-task-cpt","58","1550362","0.0-7.0-0.9","243","1","2025-08-09 20:20:30","36c45c0696341be0efffe67d72a12abb","216.120.189.41","Mozilla/5.0 (Windows NT 10.0; Win64; x64) AppleWebKit/537.36 (KHTML, like Gecko) Chrome/138.0.0.0 Safari/537.36","WebKit","Chrome","138.0.0.0","Windows","10.0","null","en-US,en;q=0.9","6743c8da977b0d274dad1fc2","6877649eabb845cf142cd221","68952b92dc6335c2700efa2f","1","6743c8da977b0d274dad1fc2","1","2025-08-09T20:46:23.014Z","","","","","","","","","","","","","","","","win-only","3","g1:SW,g2:NE","0.5","10","0","1477111.3","4268.5","9275.9","72757.2","1","4","8","6","2","-8","-8","0","0","0","1681.1","3000","-795","[""up"",""right""]","{""num_key_presses"":14,""num_perfect"":7,""num_errors"":0,""num_randdir"":7,""num_randdir_good_moves"":0,""num_whilered"":0,""num_whileblue"":0,""num_blue"":4,""num_good_moves"":7}","[266.896875,259.303125,0.7,266.896875,259.303125,110.1,266.896875,259.303125,216.3,266.896875,259.303125,324.4,266.896875,259.303125,429.5,266.896875,259.303125,543.1,269.896875,251.303125,650.5,353.896875,199.303125,751.8,353.896875,199.303125,863.8,366.896875,180.303125,971.2,452.896875,81.303125,1075.8,452.896875,81.303125,1176.8,452.896875,81.303125,1277.8,464.896875,55.303125,1385.5,473.896875,50.303125,1493.9,473.896875,50.303125,1598.5,473.896875,50.303125,1709.2,473.896875,50.303125,1815.5,473.896875,50.303125,1915.6,473.896875,50.303125,2019.6,473.896875,50.303125,2122.9,473.896875,50.303125,2224.2,473.896875,50.303125,2325.2,473.896875,50.303125,2426.7,473.896875,50.303125,2527,473.896875,50.303125,2633.9,473.896875,50.303125,2742.3,473.896875,50.303125,2845.4,563.896875,41.303125,2952.4,651.896875,69.303125,3056.1,651.896875,69.303125,3165.4,651.896875,69.303125,3268.6,651.896875,69.303125,3374.5,651.896875,69.303125,3476.2,651.896875,69.303125,3581.7,651.896875,69.303125,3683.9,651.896875,69.303125,3792.9,651.896875,69.303125,3901.3,651.896875,69.303125,4009.1,651.896875,69.303125,4119.1,651.896875,69.303125,4225.6,638.896875,68.303125,4331.5,526.896875,38.303125,4432,514.896875,37.303125,4537.9,480.896875,49.303125,4640.8,480.896875,49.303125,4742.5,480.896875,49.303125,4849.2,480.896875,49.303125,4952.8]","[5189.9,5190,2657,2006.8,526.2,""oops"",""right"",""down"",""bad_move"",8833.5,3642.4,3144.3,5191.1,498.1,""smooth"",""right"",""right"",""good_move"",12603,3768.8,3274.6,8834.2,494.2,""oops"",""right"",""left"",""bad_move"",15721.6,3117.7,2556.9,12604,560.7,""oops"",""down"",""down"",""bad_move"",18780.3,3057.9,2517.2,15722.4,540.7,""smooth"",""right"",""right"",""good_move"",25552,6769.4,2328.6,22653.6,569.8,""smooth"",""right"",""right"",""good_move"",29074.9,3522.7,3069.2,25552.2,453.5,""oops"",""right"",""left"",""bad_move"",36011.9,6936.7,1862,33544.2,605.7,""smooth"",""up"",""up"",""good_move"",42679.3,6666.5,2414.5,39745.3,519.5,""smooth"",""up"",""up"",""good_move"",45935.5,3255.8,2638.4,42679.7,617.4,""oops"",""up"",""left"",""bad_move"",48834.4,2898.2,2509.1,45936.2,389.1,""smooth"",""up"",""up"",""good_move"",51588.2,2753.3,1550.1,48834.9,1203.2,""oops"",""up"",""down"",""bad_move"",54705.2,3115.8,2662.5,51589.4,453.3,""oops"",""right"",""down"",""bad_move"",58008.1,3300.9,2846,54707.2,454.9,""smooth"",""right"",""right"",""good_move""]"
"13428","","<div style=""width:500px;"">
  <p>What determined the result of this run?</p>
  </div>","100","html-slider-response","59","1563793","0.0-7.0-1.9","243","1","2025-08-09 20:20:30","36c45c0696341be0efffe67d72a12abb","216.120.189.41","Mozilla/5.0 (Windows NT 10.0; Win64; x64) AppleWebKit/537.36 (KHTML, like Gecko) Chrome/138.0.0.0 Safari/537.36","WebKit","Chrome","138.0.0.0","Windows","10.0","null","en-US,en;q=0.9","6743c8da977b0d274dad1fc2","6877649eabb845cf142cd221","68952b92dc6335c2700efa2f","1","6743c8da977b0d274dad1fc2","1","2025-08-09T20:46:36.445Z","","","","AttribQ","","","","","","","","","","","50","","","","","","","","","","","","","","","","","","","","","","","","","","",""
"2614","","<div style=""width:500px;"">
  <p>How much control did you have over the ball?</p>
  </div>","32","html-slider-response","60","1566410","0.0-7.0-2.9","243","1","2025-08-09 20:20:30","36c45c0696341be0efffe67d72a12abb","216.120.189.41","Mozilla/5.0 (Windows NT 10.0; Win64; x64) AppleWebKit/537.36 (KHTML, like Gecko) Chrome/138.0.0.0 Safari/537.36","WebKit","Chrome","138.0.0.0","Windows","10.0","null","en-US,en;q=0.9","6743c8da977b0d274dad1fc2","6877649eabb845cf142cd221","68952b92dc6335c2700efa2f","1","6743c8da977b0d274dad1fc2","1","2025-08-09T20:46:39.062Z","","","","ControlQ","","","","","","","","","","","50","","","","","","","","","","","","","","","","","","","","","","","","","","",""
"4794","","<div style=""width:500px;"">
  <p>How would you describe your current emotional state?</p>
  </div>","13","html-slider-response","61","1571206","0.0-7.0-3.9","243","1","2025-08-09 20:20:30","36c45c0696341be0efffe67d72a12abb","216.120.189.41","Mozilla/5.0 (Windows NT 10.0; Win64; x64) AppleWebKit/537.36 (KHTML, like Gecko) Chrome/138.0.0.0 Safari/537.36","WebKit","Chrome","138.0.0.0","Windows","10.0","null","en-US,en;q=0.9","6743c8da977b0d274dad1fc2","6877649eabb845cf142cd221","68952b92dc6335c2700efa2f","1","6743c8da977b0d274dad1fc2","1","2025-08-09T20:46:43.858Z","","","","StressQ","","","","","","","","","","","50","","","","","","","","","","","","","","","","","","","","","","","","","","",""
"5069","","<div style=""width:500px;"">
  <p>What best describes how you currently feel?</p>
  </div>","91","html-slider-response","62","1576278","0.0-7.0-4.9","243","1","2025-08-09 20:20:30","36c45c0696341be0efffe67d72a12abb","216.120.189.41","Mozilla/5.0 (Windows NT 10.0; Win64; x64) AppleWebKit/537.36 (KHTML, like Gecko) Chrome/138.0.0.0 Safari/537.36","WebKit","Chrome","138.0.0.0","Windows","10.0","null","en-US,en;q=0.9","6743c8da977b0d274dad1fc2","6877649eabb845cf142cd221","68952b92dc6335c2700efa2f","1","6743c8da977b0d274dad1fc2","1","2025-08-09T20:46:48.930Z","","","","MotivationQ","","","","","","","","","","","50","","","","","","","","","","","","","","","","","","","","","","","","","","",""
"","","","","ctl-task-cpt","63","1719752","0.0-7.0-0.10","243","1","2025-08-09 20:20:30","36c45c0696341be0efffe67d72a12abb","216.120.189.41","Mozilla/5.0 (Windows NT 10.0; Win64; x64) AppleWebKit/537.36 (KHTML, like Gecko) Chrome/138.0.0.0 Safari/537.36","WebKit","Chrome","138.0.0.0","Windows","10.0","null","en-US,en;q=0.9","6743c8da977b0d274dad1fc2","6877649eabb845cf142cd221","68952b92dc6335c2700efa2f","1","6743c8da977b0d274dad1fc2","1","2025-08-09T20:49:12.404Z","","","","","","","","","","","","","","","","win-only","1","g1:NE,g2:SW","0.6","11","0","1578820.8","83111.6","88118.9","140432.8","1","4","4","6","2","4","3","3","0","0.022727272727272728","1717.4","3000","1065","[""down"",""left""]","{""num_key_presses"":16,""num_perfect"":9,""num_errors"":1,""num_randdir"":6,""num_randdir_good_moves"":3,""num_whilered"":0,""num_whileblue"":1,""num_blue"":2,""num_good_moves"":11}","[262.896875,257.303125,0.7,262.896875,257.303125,106.5,262.896875,257.303125,211.9,262.896875,257.303125,318,262.896875,257.303125,423.3,262.896875,257.303125,535.1,262.896875,257.303125,640.3,50.896875,378.303125,744.3,-40.103125,506.303125,845.7,-40.103125,506.303125,952.7,-40.103125,506.303125,1057.9,13.896875000000001,475.303125,1158.3,64.896875,464.303125,1267.9,64.896875,464.303125,1368.2,64.896875,464.303125,1468.3,64.896875,464.303125,1576.3,64.896875,464.303125,1683.3,64.896875,464.303125,1785.5,64.896875,464.303125,1893.4,64.896875,464.303125,1994.9,64.896875,464.303125,2095.1,172.896875,396.303125,2206.7,356.896875,285.303125,2310.8,364.896875,282.303125,2411.7,364.896875,282.303125,2514.2,364.896875,282.303125,2614.7,779.896875,176.303125,2719.5,826.896875,168.303125,2823.6,826.896875,168.303125,2930.8,826.896875,168.303125,3035.1,826.896875,168.303125,3145.8,826.896875,168.303125,3247.4,826.896875,168.303125,3348.4,826.896875,168.303125,3449,826.896875,168.303125,3557.6,826.896875,168.303125,3662.3,826.896875,168.303125,3778.5,826.896875,168.303125,3891.6,826.896875,168.303125,3998.4,826.896875,168.303125,4110.6,826.896875,168.303125,4223.7,826.896875,168.303125,4336.1,826.896875,168.303125,4450.5,826.896875,168.303125,4562.9,826.896875,168.303125,4692.4,826.896875,168.303125,4808.9,826.896875,168.303125,4917.2]","[1515.2,1515.2,1000,0,515.2,""smooth"",""down"",""down"",""good_move"",4247.1,2730.7,2205.1,1516.4,525.6,""smooth"",""down"",""down"",""good_move"",7189.1,2941.3,2463.3,4247.8,478,""oops"",""left"",""up"",""bad_move"",10282.9,3093.2,2341.4,7189.7,751.8,""oops"",""down"",""down"",""good_move"",13262.2,2979,2621.1,10283.2,357.9,""smooth"",""right"",""right"",""bad_move"",16358.7,3094.9,2743.5,13263.8,351.4,""oops"",""down"",""up"",""bad_move"",18958.3,2599.1,2218.2,16359.2,380.9,""while_blue"",""left"",""up"",""bad_move"",22214,3254.8,2824.7,18959.2,430.1,""smooth"",""left"",""left"",""good_move"",24783.1,2568.2,2160,22214.9,408.2,""oops"",""left"",""up"",""bad_move"",28340.7,3556.8,3146.2,24783.9,410.6,""smooth"",""left"",""left"",""good_move"",31879.8,3538.8,2716.7,28341.1,822.1,""smooth"",""left"",""left"",""good_move"",34882.2,3000.2,2653.5,31882,346.7,""smooth"",""left"",""left"",""good_move"",38633.2,3750.3,3361.4,34883,388.9,""oops"",""down"",""down"",""good_move"",42047.8,3414.1,3026.9,38633.7,387.2,""oops"",""down"",""down"",""good_move"",48988.9,6940.9,2796.4,45653.6,539,""smooth"",""down"",""down"",""good_move"",51866.5,2877.1,2386.9,48989.4,490.2,""smooth"",""down"",""down"",""good_move""]"
"7291","","<div style=""width:500px;"">
  <p>What determined the result of this run?</p>
  </div>","100","html-slider-response","64","1727045","0.0-7.0-1.10","243","1","2025-08-09 20:20:30","36c45c0696341be0efffe67d72a12abb","216.120.189.41","Mozilla/5.0 (Windows NT 10.0; Win64; x64) AppleWebKit/537.36 (KHTML, like Gecko) Chrome/138.0.0.0 Safari/537.36","WebKit","Chrome","138.0.0.0","Windows","10.0","null","en-US,en;q=0.9","6743c8da977b0d274dad1fc2","6877649eabb845cf142cd221","68952b92dc6335c2700efa2f","1","6743c8da977b0d274dad1fc2","1","2025-08-09T20:49:19.698Z","","","","AttribQ","","","","","","","","","","","50","","","","","","","","","","","","","","","","","","","","","","","","","","",""
"6205","","<div style=""width:500px;"">
  <p>How much control did you have over the ball?</p>
  </div>","81","html-slider-response","65","1733253","0.0-7.0-2.10","243","1","2025-08-09 20:20:30","36c45c0696341be0efffe67d72a12abb","216.120.189.41","Mozilla/5.0 (Windows NT 10.0; Win64; x64) AppleWebKit/537.36 (KHTML, like Gecko) Chrome/138.0.0.0 Safari/537.36","WebKit","Chrome","138.0.0.0","Windows","10.0","null","en-US,en;q=0.9","6743c8da977b0d274dad1fc2","6877649eabb845cf142cd221","68952b92dc6335c2700efa2f","1","6743c8da977b0d274dad1fc2","1","2025-08-09T20:49:25.905Z","","","","ControlQ","","","","","","","","","","","50","","","","","","","","","","","","","","","","","","","","","","","","","","",""
"3145","","<div style=""width:500px;"">
  <p>How would you describe your current emotional state?</p>
  </div>","0","html-slider-response","66","1736400","0.0-7.0-3.10","243","1","2025-08-09 20:20:30","36c45c0696341be0efffe67d72a12abb","216.120.189.41","Mozilla/5.0 (Windows NT 10.0; Win64; x64) AppleWebKit/537.36 (KHTML, like Gecko) Chrome/138.0.0.0 Safari/537.36","WebKit","Chrome","138.0.0.0","Windows","10.0","null","en-US,en;q=0.9","6743c8da977b0d274dad1fc2","6877649eabb845cf142cd221","68952b92dc6335c2700efa2f","1","6743c8da977b0d274dad1fc2","1","2025-08-09T20:49:29.052Z","","","","StressQ","","","","","","","","","","","50","","","","","","","","","","","","","","","","","","","","","","","","","","",""
"4979","","<div style=""width:500px;"">
  <p>What best describes how you currently feel?</p>
  </div>","100","html-slider-response","67","1741382","0.0-7.0-4.10","243","1","2025-08-09 20:20:30","36c45c0696341be0efffe67d72a12abb","216.120.189.41","Mozilla/5.0 (Windows NT 10.0; Win64; x64) AppleWebKit/537.36 (KHTML, like Gecko) Chrome/138.0.0.0 Safari/537.36","WebKit","Chrome","138.0.0.0","Windows","10.0","null","en-US,en;q=0.9","6743c8da977b0d274dad1fc2","6877649eabb845cf142cd221","68952b92dc6335c2700efa2f","1","6743c8da977b0d274dad1fc2","1","2025-08-09T20:49:34.034Z","","","","MotivationQ","","","","","","","","","","","50","","","","","","","","","","","","","","","","","","","","","","","","","","",""
"","","","","ctl-task-cpt","68","1838668","0.0-7.0-0.11","243","1","2025-08-09 20:20:30","36c45c0696341be0efffe67d72a12abb","216.120.189.41","Mozilla/5.0 (Windows NT 10.0; Win64; x64) AppleWebKit/537.36 (KHTML, like Gecko) Chrome/138.0.0.0 Safari/537.36","WebKit","Chrome","138.0.0.0","Windows","10.0","null","en-US,en;q=0.9","6743c8da977b0d274dad1fc2","6877649eabb845cf142cd221","68952b92dc6335c2700efa2f","1","6743c8da977b0d274dad1fc2","1","2025-08-09T20:51:11.321Z","","","","","","","","","","","","","","","","win-only","0","g1:NW,g2:SE","0.7","12","0","1743924.8","1820.7","6823.1","94243.5","1","4","8","6","2","8","6","9","3","0.06818181818181818","1626.8","3000","580","[""down"",""right""]","{""num_key_presses"":24,""num_perfect"":15,""num_errors"":2,""num_randdir"":7,""num_randdir_good_moves"":1,""num_whilered"":0,""num_whileblue"":2,""num_blue"":4,""num_good_moves"":15}","[267.896875,262.303125,2.4,267.896875,262.303125,100.3,267.896875,262.303125,207.4,267.896875,262.303125,314.5,267.896875,262.303125,425.9,241.896875,250.303125,526.9,236.896875,295.303125,630.4,379.896875,392.303125,732.3,379.896875,392.303125,835.5,379.896875,392.303125,936.7,387.896875,401.303125,1037,489.896875,509.303125,1146.2,491.896875,511.303125,1247.9,491.896875,511.303125,1352.5,492.896875,511.303125,1464.7,492.896875,511.303125,1568.3,492.896875,511.303125,1676.6,492.896875,511.303125,1781.9,492.896875,511.303125,1885.7,495.896875,511.303125,1988.7,640.896875,471.303125,2090.8,693.896875,440.303125,2198.5,693.896875,440.303125,2303.9,693.896875,440.303125,2425.5,693.896875,440.303125,2532.9,693.896875,440.303125,2641.7,693.896875,440.303125,2743.9,693.896875,440.303125,2851.9,693.896875,440.303125,2955,693.896875,440.303125,3060.1,693.896875,440.303125,3164.6,693.896875,440.303125,3273.8,693.896875,440.303125,3375.3,693.896875,440.303125,3480.2,693.896875,440.303125,3586.6,693.896875,440.303125,3687.9,693.896875,440.303125,3797.3,693.896875,440.303125,3901.6,693.896875,440.303125,4002.8,693.896875,440.303125,4116.4,693.896875,440.303125,4223.1,693.896875,440.303125,4331.4,693.896875,440.303125,4431.4,693.896875,440.303125,4533,693.896875,440.303125,4636.6,693.896875,440.303125,4742.5,693.896875,440.303125,4849.4,693.896875,440.303125,4949.5]","[1451.3,1451.3,1000,0,451.3,""smooth"",""down"",""down"",""good_move"",4370.6,2917.6,2458,1453,459.6,""smooth"",""down"",""down"",""good_move"",7120.6,2749.7,2253.2,4370.9,496.5,""smooth"",""down"",""down"",""good_move"",12539.6,5417.9,2443.8,9680.4,415.5,""smooth"",""right"",""right"",""good_move"",15623.8,3083.7,2675.1,12540.1,408.6,""oops"",""right"",""left"",""bad_move"",19266.4,3641.5,3256.4,15624.9,385.1,""while_blue"",""up"",""up"",""bad_move"",23573.4,4306.4,2165.7,19267,2140.7,""oops"",""right"",""up"",""bad_move"",28068.5,4495,2335,23573.6,2160,""smooth"",""right"",""right"",""good_move"",31730.8,3662,3207.4,28068.9,454.5,""oops"",""right"",""left"",""bad_move"",36409.3,4678.1,2222.3,31731.2,2455.8,""smooth"",""up"",""up"",""bad_move"",41191.4,4781.8,1439.3,36409.6,3342.5,""smooth"",""right"",""right"",""good_move"",43714.3,2522.6,1836.7,41191.7,685.9,""smooth"",""right"",""right"",""good_move"",46944.2,3229.5,2392.8,43714.7,836.7,""smooth"",""right"",""right"",""good_move"",53359.9,6415,2491.4,50152.1,716.4,""smooth"",""down"",""down"",""good_move"",56754,3393.6,2950.9,53360.4,442.7,""smooth"",""down"",""down"",""good_move"",60035.1,3280.7,2840.5,56754.4,440.2,""oops"",""down"",""up"",""bad_move"",63840.8,3805.2,2604.7,60035.6,1200.5,""oops"",""down"",""up"",""bad_move"",67932.8,4091.7,2428.9,63841.1,1662.8,""oops"",""left"",""left"",""bad_move"",71251.4,3317.8,2809.3,67933.6,508.5,""smooth"",""down"",""down"",""good_move"",73988,2736,2346.9,71252,389.1,""while_blue"",""down"",""left"",""bad_move"",77423.3,3434.4,2382.1,73989,1052.2,""smooth"",""right"",""right"",""good_move"",81239.6,3815.7,3328.2,77423.9,487.5,""smooth"",""down"",""down"",""good_move"",83823.3,2583.5,2128.9,81239.8,454.6,""oops"",""down"",""down"",""good_move"",86929.3,3105.2,2644.7,83824.1,460.5,""smooth"",""right"",""right"",""good_move""]"
"4419","","<div style=""width:500px;"">
  <p>What determined the result of this run?</p>
  </div>","60","html-slider-response","69","1843090","0.0-7.0-1.11","243","1","2025-08-09 20:20:30","36c45c0696341be0efffe67d72a12abb","216.120.189.41","Mozilla/5.0 (Windows NT 10.0; Win64; x64) AppleWebKit/537.36 (KHTML, like Gecko) Chrome/138.0.0.0 Safari/537.36","WebKit","Chrome","138.0.0.0","Windows","10.0","null","en-US,en;q=0.9","6743c8da977b0d274dad1fc2","6877649eabb845cf142cd221","68952b92dc6335c2700efa2f","1","6743c8da977b0d274dad1fc2","1","2025-08-09T20:51:15.742Z","","","","AttribQ","","","","","","","","","","","50","","","","","","","","","","","","","","","","","","","","","","","","","","",""
"3976","","<div style=""width:500px;"">
  <p>How much control did you have over the ball?</p>
  </div>","25","html-slider-response","70","1847068","0.0-7.0-2.11","243","1","2025-08-09 20:20:30","36c45c0696341be0efffe67d72a12abb","216.120.189.41","Mozilla/5.0 (Windows NT 10.0; Win64; x64) AppleWebKit/537.36 (KHTML, like Gecko) Chrome/138.0.0.0 Safari/537.36","WebKit","Chrome","138.0.0.0","Windows","10.0","null","en-US,en;q=0.9","6743c8da977b0d274dad1fc2","6877649eabb845cf142cd221","68952b92dc6335c2700efa2f","1","6743c8da977b0d274dad1fc2","1","2025-08-09T20:51:19.720Z","","","","ControlQ","","","","","","","","","","","50","","","","","","","","","","","","","","","","","","","","","","","","","","",""
"3527","","<div style=""width:500px;"">
  <p>How would you describe your current emotional state?</p>
  </div>","0","html-slider-response","71","1850597","0.0-7.0-3.11","243","1","2025-08-09 20:20:30","36c45c0696341be0efffe67d72a12abb","216.120.189.41","Mozilla/5.0 (Windows NT 10.0; Win64; x64) AppleWebKit/537.36 (KHTML, like Gecko) Chrome/138.0.0.0 Safari/537.36","WebKit","Chrome","138.0.0.0","Windows","10.0","null","en-US,en;q=0.9","6743c8da977b0d274dad1fc2","6877649eabb845cf142cd221","68952b92dc6335c2700efa2f","1","6743c8da977b0d274dad1fc2","1","2025-08-09T20:51:23.249Z","","","","StressQ","","","","","","","","","","","50","","","","","","","","","","","","","","","","","","","","","","","","","","",""
"4703","","<div style=""width:500px;"">
  <p>What best describes how you currently feel?</p>
  </div>","100","html-slider-response","72","1855302","0.0-7.0-4.11","243","1","2025-08-09 20:20:30","36c45c0696341be0efffe67d72a12abb","216.120.189.41","Mozilla/5.0 (Windows NT 10.0; Win64; x64) AppleWebKit/537.36 (KHTML, like Gecko) Chrome/138.0.0.0 Safari/537.36","WebKit","Chrome","138.0.0.0","Windows","10.0","null","en-US,en;q=0.9","6743c8da977b0d274dad1fc2","6877649eabb845cf142cd221","68952b92dc6335c2700efa2f","1","6743c8da977b0d274dad1fc2","1","2025-08-09T20:51:27.954Z","","","","MotivationQ","","","","","","","","","","","50","","","","","","","","","","","","","","","","","","","","","","","","","","",""
"","","","","ctl-task-cpt","73","1912490","0.0-7.0-0.12","243","1","2025-08-09 20:20:30","36c45c0696341be0efffe67d72a12abb","216.120.189.41","Mozilla/5.0 (Windows NT 10.0; Win64; x64) AppleWebKit/537.36 (KHTML, like Gecko) Chrome/138.0.0.0 Safari/537.36","WebKit","Chrome","138.0.0.0","Windows","10.0","null","en-US,en;q=0.9","6743c8da977b0d274dad1fc2","6877649eabb845cf142cd221","68952b92dc6335c2700efa2f","1","6743c8da977b0d274dad1fc2","1","2025-08-09T20:52:25.142Z","","","","","","","","","","","","","","","","win-only","3","g1:SW,g2:NE","0.8","13","0","1857842.8","2544.5","7551.4","54162","1","4","8","6","2","8","8","17","9","0.12878787878787878","1522","3000","1435","[""up"",""right""]","{""num_key_presses"":10,""num_perfect"":8,""num_errors"":0,""num_randdir"":2,""num_randdir_good_moves"":1,""num_whilered"":0,""num_whileblue"":0,""num_blue"":4,""num_good_moves"":8}","[265.896875,257.303125,0.5,265.896875,257.303125,113.1,265.896875,257.303125,219.3,265.896875,257.303125,320.8,265.896875,257.303125,449.1,260.896875,257.303125,557.7,235.896875,248.303125,669.1,372.896875,110.303125,770.1,396.896875,97.303125,870.8,397.896875,97.303125,980.6,412.896875,95.303125,1096.3,460.896875,56.303125,1197.3,483.896875,41.303125,1301.3,483.896875,41.303125,1404.8,483.896875,41.303125,1516.8,483.896875,41.303125,1621,483.896875,41.303125,1729.3,483.896875,41.303125,1833.1,509.896875,46.303125,1945,620.896875,108.303125,2052.4,620.896875,108.303125,2162.3,620.896875,108.303125,2269.2,620.896875,108.303125,2373.2,620.896875,108.303125,2475.5,620.896875,108.303125,2586.6,620.896875,108.303125,2702.1,620.896875,108.303125,2825.3,620.896875,108.303125,2931.2,620.896875,108.303125,3072.3,620.896875,108.303125,3197,620.896875,108.303125,3307.1,620.896875,108.303125,3421.7,620.896875,108.303125,3529.8,620.896875,108.303125,3641.9,620.896875,108.303125,3765.1,620.896875,108.303125,3881.8,620.896875,108.303125,3995,620.896875,108.303125,4097.9,620.896875,108.303125,4203.6,620.896875,108.303125,4324.8,620.896875,108.303125,4434.8,620.896875,108.303125,4534.9,620.896875,108.303125,4635.2,620.896875,108.303125,4750.9,620.896875,108.303125,4855.6,620.896875,108.303125,4970.4]","[1827,1827,1000,0,827,""smooth"",""up"",""up"",""good_move"",12129.6,10300.9,2645.3,9027.9,456.4,""smooth"",""up"",""up"",""good_move"",16034.1,3904.2,2713.8,12129.9,1190.4,""smooth"",""up"",""up"",""good_move"",19601.4,3567.1,2611.8,16034.3,955.3,""smooth"",""right"",""right"",""good_move"",23255.1,3653,3109.3,19602.1,543.7,""smooth"",""right"",""right"",""good_move"",29854.5,6598.5,2677,26685,492.5,""oops"",""right"",""left"",""bad_move"",33352.9,3498,2480.1,29854.9,1017.9,""smooth"",""down"",""down"",""bad_move"",36498.7,3144.9,2739.7,33353.9,405.1,""smooth"",""right"",""right"",""good_move"",39387.7,2888.3,2489.9,36499.4,398.4,""oops"",""right"",""up"",""good_move"",46346.8,6957.8,2347.2,43501.2,498.4,""smooth"",""right"",""right"",""good_move""]"
"7086","","<div style=""width:500px;"">
  <p>What determined the result of this run?</p>
  </div>","88","html-slider-response","74","1919579","0.0-7.0-1.12","243","1","2025-08-09 20:20:30","36c45c0696341be0efffe67d72a12abb","216.120.189.41","Mozilla/5.0 (Windows NT 10.0; Win64; x64) AppleWebKit/537.36 (KHTML, like Gecko) Chrome/138.0.0.0 Safari/537.36","WebKit","Chrome","138.0.0.0","Windows","10.0","null","en-US,en;q=0.9","6743c8da977b0d274dad1fc2","6877649eabb845cf142cd221","68952b92dc6335c2700efa2f","1","6743c8da977b0d274dad1fc2","1","2025-08-09T20:52:32.231Z","","","","AttribQ","","","","","","","","","","","50","","","","","","","","","","","","","","","","","","","","","","","","","","",""
"3431","","<div style=""width:500px;"">
  <p>How much control did you have over the ball?</p>
  </div>","62","html-slider-response","75","1923014","0.0-7.0-2.12","243","1","2025-08-09 20:20:30","36c45c0696341be0efffe67d72a12abb","216.120.189.41","Mozilla/5.0 (Windows NT 10.0; Win64; x64) AppleWebKit/537.36 (KHTML, like Gecko) Chrome/138.0.0.0 Safari/537.36","WebKit","Chrome","138.0.0.0","Windows","10.0","null","en-US,en;q=0.9","6743c8da977b0d274dad1fc2","6877649eabb845cf142cd221","68952b92dc6335c2700efa2f","1","6743c8da977b0d274dad1fc2","1","2025-08-09T20:52:35.666Z","","","","ControlQ","","","","","","","","","","","50","","","","","","","","","","","","","","","","","","","","","","","","","","",""
"4373","","<div style=""width:500px;"">
  <p>How would you describe your current emotional state?</p>
  </div>","0","html-slider-response","76","1927390","0.0-7.0-3.12","243","1","2025-08-09 20:20:30","36c45c0696341be0efffe67d72a12abb","216.120.189.41","Mozilla/5.0 (Windows NT 10.0; Win64; x64) AppleWebKit/537.36 (KHTML, like Gecko) Chrome/138.0.0.0 Safari/537.36","WebKit","Chrome","138.0.0.0","Windows","10.0","null","en-US,en;q=0.9","6743c8da977b0d274dad1fc2","6877649eabb845cf142cd221","68952b92dc6335c2700efa2f","1","6743c8da977b0d274dad1fc2","1","2025-08-09T20:52:40.042Z","","","","StressQ","","","","","","","","","","","50","","","","","","","","","","","","","","","","","","","","","","","","","","",""
"3075","","<div style=""width:500px;"">
  <p>What best describes how you currently feel?</p>
  </div>","100","html-slider-response","77","1930470","0.0-7.0-4.12","243","1","2025-08-09 20:20:30","36c45c0696341be0efffe67d72a12abb","216.120.189.41","Mozilla/5.0 (Windows NT 10.0; Win64; x64) AppleWebKit/537.36 (KHTML, like Gecko) Chrome/138.0.0.0 Safari/537.36","WebKit","Chrome","138.0.0.0","Windows","10.0","null","en-US,en;q=0.9","6743c8da977b0d274dad1fc2","6877649eabb845cf142cd221","68952b92dc6335c2700efa2f","1","6743c8da977b0d274dad1fc2","1","2025-08-09T20:52:43.122Z","","","","MotivationQ","","","","","","","","","","","50","","","","","","","","","","","","","","","","","","","","","","","","","","",""
"","","","","ctl-task-cpt","78","1956987","0.0-7.0-0.13","243","1","2025-08-09 20:20:30","36c45c0696341be0efffe67d72a12abb","216.120.189.41","Mozilla/5.0 (Windows NT 10.0; Win64; x64) AppleWebKit/537.36 (KHTML, like Gecko) Chrome/138.0.0.0 Safari/537.36","WebKit","Chrome","138.0.0.0","Windows","10.0","null","en-US,en;q=0.9","6743c8da977b0d274dad1fc2","6877649eabb845cf142cd221","68952b92dc6335c2700efa2f","1","6743c8da977b0d274dad1fc2","1","2025-08-09T20:53:09.639Z","","","","","","","","","","","","","","","","win-only","3","g1:SW,g2:NE","0.9","14","0","1933011.5","1652","6655.4","23489.5","1","4","4","6","2","4","4","21","17","0.1590909090909091","1623.1","3000","2210","[""up"",""right""]","{""num_key_presses"":6,""num_perfect"":6,""num_errors"":0,""num_randdir"":0,""num_randdir_good_moves"":0,""num_whilered"":0,""num_whileblue"":0,""num_blue"":0,""num_good_moves"":6}","[261.896875,262.303125,0.6,261.896875,262.303125,103.9,261.896875,262.303125,210.1,261.896875,262.303125,317.8,261.896875,262.303125,429.3,261.896875,262.303125,544,193.896875,284.303125,654.9,197.896875,282.303125,766.5,272.896875,220.303125,876.3,403.896875,65.303125,981.9,415.896875,65.303125,1088.4,415.896875,65.303125,1195,420.896875,65.303125,1306.1,466.896875,50.303125,1417.4,473.896875,49.303125,1526.4,473.896875,49.303125,1629.5,473.896875,49.303125,1736.3,473.896875,49.303125,1842,473.896875,49.303125,1957.8,557.896875,74.303125,2073.3,572.896875,75.303125,2181.7,572.896875,75.303125,2287.3,572.896875,75.303125,2393.1,572.896875,75.303125,2505.1,572.896875,75.303125,2606.6,572.896875,75.303125,2709.7,572.896875,75.303125,2816.3,572.896875,75.303125,2924.9,572.896875,75.303125,3029.7,572.896875,75.303125,3147.6,572.896875,75.303125,3253.3,572.896875,75.303125,3354.5,572.896875,75.303125,3471,572.896875,75.303125,3575.3,572.896875,75.303125,3677.3,572.896875,75.303125,3787.1,572.896875,75.303125,3888.8,572.896875,75.303125,3991.1,572.896875,75.303125,4099.6,572.896875,75.303125,4207.4,572.896875,75.303125,4316.9,572.896875,75.303125,4426.5,572.896875,75.303125,4541.8,572.896875,75.303125,4646.3,572.896875,75.303125,4747.6,572.896875,75.303125,4850,572.896875,75.303125,4955.1]","[1436.9,1436.9,1000,0,436.9,""smooth"",""up"",""up"",""good_move"",3908.1,2469.7,2020.5,1438.5,449.2,""smooth"",""up"",""up"",""good_move"",7469.8,3561.4,2779.9,3908.4,781.5,""smooth"",""up"",""up"",""good_move"",11004.6,3533.8,3109.3,7470.9,424.4,""smooth"",""right"",""right"",""good_move"",13775.1,2766.2,2291.3,11008.9,474.9,""smooth"",""right"",""right"",""good_move"",16598,2821.9,2395.1,13776.1,426.8,""smooth"",""right"",""right"",""good_move""]"
"4380","","<div style=""width:500px;"">
  <p>What determined the result of this run?</p>
  </div>","100","html-slider-response","79","1961368","0.0-7.0-1.13","243","1","2025-08-09 20:20:30","36c45c0696341be0efffe67d72a12abb","216.120.189.41","Mozilla/5.0 (Windows NT 10.0; Win64; x64) AppleWebKit/537.36 (KHTML, like Gecko) Chrome/138.0.0.0 Safari/537.36","WebKit","Chrome","138.0.0.0","Windows","10.0","null","en-US,en;q=0.9","6743c8da977b0d274dad1fc2","6877649eabb845cf142cd221","68952b92dc6335c2700efa2f","1","6743c8da977b0d274dad1fc2","1","2025-08-09T20:53:14.020Z","","","","AttribQ","","","","","","","","","","","50","","","","","","","","","","","","","","","","","","","","","","","","","","",""
"3133","","<div style=""width:500px;"">
  <p>How much control did you have over the ball?</p>
  </div>","100","html-slider-response","80","1964503","0.0-7.0-2.13","243","1","2025-08-09 20:20:30","36c45c0696341be0efffe67d72a12abb","216.120.189.41","Mozilla/5.0 (Windows NT 10.0; Win64; x64) AppleWebKit/537.36 (KHTML, like Gecko) Chrome/138.0.0.0 Safari/537.36","WebKit","Chrome","138.0.0.0","Windows","10.0","null","en-US,en;q=0.9","6743c8da977b0d274dad1fc2","6877649eabb845cf142cd221","68952b92dc6335c2700efa2f","1","6743c8da977b0d274dad1fc2","1","2025-08-09T20:53:17.155Z","","","","ControlQ","","","","","","","","","","","50","","","","","","","","","","","","","","","","","","","","","","","","","","",""
"7698","","<div style=""width:500px;"">
  <p>How would you describe your current emotional state?</p>
  </div>","0","html-slider-response","81","1972202","0.0-7.0-3.13","243","1","2025-08-09 20:20:30","36c45c0696341be0efffe67d72a12abb","216.120.189.41","Mozilla/5.0 (Windows NT 10.0; Win64; x64) AppleWebKit/537.36 (KHTML, like Gecko) Chrome/138.0.0.0 Safari/537.36","WebKit","Chrome","138.0.0.0","Windows","10.0","null","en-US,en;q=0.9","6743c8da977b0d274dad1fc2","6877649eabb845cf142cd221","68952b92dc6335c2700efa2f","1","6743c8da977b0d274dad1fc2","1","2025-08-09T20:53:24.855Z","","","","StressQ","","","","","","","","","","","50","","","","","","","","","","","","","","","","","","","","","","","","","","",""
"4716","","<div style=""width:500px;"">
  <p>What best describes how you currently feel?</p>
