"rt","response_timestamp","stimulus","response","trial_type","trial_index","time_elapsed","internal_node_id","run_id","condition","recorded_at","source_code_version","ip","user_agent","device","browser","browser_version","platform","platform_version","referer","accept_language","PROLIFIC_PID","STUDY_ID","SESSION_ID","BATCH","prolific_id","batch","realtime","success","question_order","question_id","eventType","responses","item_order","radio_event_ids","radio_event_times","key_event_times","mouse_event_times","straightlining","zigzagging","honeypot","view_history","slider_start","which_type","canvas_config","goals_layout","control_level","trial_number","tutorial_trial_number","trial_start_time","phase1_start_time","phase2_start_time","phase3_start_time","goal_1_value","goal_1_distance","goal_2_value","goal_2_distance","goal_selected","outcome","outcome_total","participant_final_score","participant_initial_score","participant_final_score_prop","goal_choice_rt","allocated_time","allocated_time_remaining","goal_direction","counts","mouse_movements","key_presses"
"8157","1754470311821","<p style='font-size:40px;line-height:1.25'><strong>Welcome to the experiment!</strong></p><p style='font-size:1.1em;line-height:1.25'>Thank you for participanting in our experiment again! You will be asked to play the Dysfunctional Ball Game again. We will briefly recap the rules before we start.</p><p style='font-size:1.1em;line-height:1.25'>Press <strong>Next</strong> to continue.</p>","0","custom-html-button-response","0","8161","0.0-0.0","133","1","2025-08-06 08:51:39","36c45c0696341be0efffe67d72a12abb","41.122.207.218","Mozilla/5.0 (Windows NT 10.0; Win64; x64) AppleWebKit/537.36 (KHTML, like Gecko) Chrome/138.0.0.0 Safari/537.36","WebKit","Chrome","138.0.0.0","Windows","10.0","https://app.prolific.com/","en-GB,en-US;q=0.9,en;q=0.8","6744814c173b9afac78cf039","6877649eabb845cf142cd221","689316d881f1c6bdb11bc3fc","1","6744814c173b9afac78cf039","1","2025-08-06T08:51:51.823Z","","","","","","","","","","","","","","","","","","","","","","","","","","","","","","","","","","","","","","","","","",""
"5572","","","","fullscreen","1","14747","0.0-1.0","133","1","2025-08-06 08:51:39","36c45c0696341be0efffe67d72a12abb","41.122.207.218","Mozilla/5.0 (Windows NT 10.0; Win64; x64) AppleWebKit/537.36 (KHTML, like Gecko) Chrome/138.0.0.0 Safari/537.36","WebKit","Chrome","138.0.0.0","Windows","10.0","https://app.prolific.com/","en-GB,en-US;q=0.9,en;q=0.8","6744814c173b9afac78cf039","6877649eabb845cf142cd221","689316d881f1c6bdb11bc3fc","1","6744814c173b9afac78cf039","1","","true","","","","","","","","","","","","","","","","","","","","","","","","","","","","","","","","","","","","","","","","",""
"20316","1754470338727"," <p style='font-size:1.1em;line-height:1.25'>Thank you for closing all other tabs.</p><p style='font-size:1.1em;line-height:1.25'>We will now invite you to fill in some questionnaires, before starting the game.<br>This will take about 5 minutes.<br></p><p style='font-size:1.1em;line-height:1.25'>Press the <strong>Next</strong> button to continue.</p>","0","custom-html-button-response","2","35066","0.0-2.0","133","1","2025-08-06 08:51:39","36c45c0696341be0efffe67d72a12abb","41.122.207.218","Mozilla/5.0 (Windows NT 10.0; Win64; x64) AppleWebKit/537.36 (KHTML, like Gecko) Chrome/138.0.0.0 Safari/537.36","WebKit","Chrome","138.0.0.0","Windows","10.0","https://app.prolific.com/","en-GB,en-US;q=0.9,en;q=0.8","6744814c173b9afac78cf039","6877649eabb845cf142cd221","689316d881f1c6bdb11bc3fc","1","6744814c173b9afac78cf039","1","2025-08-06T08:52:18.729Z","","","","","","","","","","","","","","","","","","","","","","","","","","","","","","","","","","","","","","","","","",""
"4789","","","{""assigned_sex"":""female""}","survey-multi-choice","3","39865","0.0-3.0-0.0","133","1","2025-08-06 08:51:39","36c45c0696341be0efffe67d72a12abb","41.122.207.218","Mozilla/5.0 (Windows NT 10.0; Win64; x64) AppleWebKit/537.36 (KHTML, like Gecko) Chrome/138.0.0.0 Safari/537.36","WebKit","Chrome","138.0.0.0","Windows","10.0","https://app.prolific.com/","en-GB,en-US;q=0.9,en;q=0.8","6744814c173b9afac78cf039","6877649eabb845cf142cd221","689316d881f1c6bdb11bc3fc","1","6744814c173b9afac78cf039","1","","","[0]","0","demographics","","","","","","","","","","","","","","","","","","","","","","","","","","","","","","","","","","","","","",""
"9859","1754470353388","<p style='font-size:1.1em;line-height:1.25'>In the following, we will perform a baseline assessment. This means that we will ask you a few questions relating to your experiences over the past month.<br></p><p style='font-size:1.1em;line-height:1.25'>Press the <strong>Next</strong> button to continue.</p>","0","custom-html-button-response","4","49727","0.0-4.0-0.0","133","1","2025-08-06 08:51:39","36c45c0696341be0efffe67d72a12abb","41.122.207.218","Mozilla/5.0 (Windows NT 10.0; Win64; x64) AppleWebKit/537.36 (KHTML, like Gecko) Chrome/138.0.0.0 Safari/537.36","WebKit","Chrome","138.0.0.0","Windows","10.0","https://app.prolific.com/","en-GB,en-US;q=0.9,en;q=0.8","6744814c173b9afac78cf039","6877649eabb845cf142cd221","689316d881f1c6bdb11bc3fc","1","6744814c173b9afac78cf039","1","2025-08-06T08:52:33.389Z","","","","","","","","","","","","","","","","","","","","","","","","","","","","","","","","","","","","","","","","","",""
"124036.20000001788","","","","survey-template","5","173778","0.0-4.0-1.0","133","1","2025-08-06 08:51:39","36c45c0696341be0efffe67d72a12abb","41.122.207.218","Mozilla/5.0 (Windows NT 10.0; Win64; x64) AppleWebKit/537.36 (KHTML, like Gecko) Chrome/138.0.0.0 Safari/537.36","WebKit","Chrome","138.0.0.0","Windows","10.0","https://app.prolific.com/","en-GB,en-US;q=0.9,en;q=0.8","6744814c173b9afac78cf039","6877649eabb845cf142cd221","689316d881f1c6bdb11bc3fc","1","6744814c173b9afac78cf039","1","2025-08-06T08:54:37.440Z","","","","pss","{""Q01"":""4"",""Q02"":""3"",""Q03"":""4"",""Q04"":""1"",""Q05"":""1"",""Q06"":""4"",""Q07"":""1"",""Q08"":""2"",""Q09"":""3"",""Q10"":""2""}","[0,1,2,3,4,5,6,7,8,9]","[""Q01"",""Q02"",""Q03"",""Q04"",""Q05"",""Q06"",""Q07"",""Q08"",""Q09"",""Q10""]","[39744.70000001788,45730.5,47180.80000001192,52266.90000000596,57416.09999999404,67651.09999999404,74646.40000000596,80462.59999999404,96881.70000001788,110200.30000001192]","[]","[0.30000001192092896,39744.70000001788,43448.90000000596,45730.5,47180.80000001192,52266.90000000596,57416.09999999404,63479.40000000596,65530.20000001788,67651.09999999404,74646.40000000596,80462.59999999404,96881.70000001788,110200.30000001192,124021.59999999404]","0.5","0.8888888888888888","0","","","","","","","","","","","","","","","","","","","","","","","","","","","","",""
"4086","1754470481554","<p style='font-size:1.1em;line-height:1.25'>Thank you for your answers! Now we will ask you a few more questions relating to your feelings in the last 24 hours.<br></p><p style='font-size:1.1em;line-height:1.25'>Press the <strong>Next</strong> button to continue.</p>","0","custom-html-button-response","6","177893","0.0-4.0-2.0","133","1","2025-08-06 08:51:39","36c45c0696341be0efffe67d72a12abb","41.122.207.218","Mozilla/5.0 (Windows NT 10.0; Win64; x64) AppleWebKit/537.36 (KHTML, like Gecko) Chrome/138.0.0.0 Safari/537.36","WebKit","Chrome","138.0.0.0","Windows","10.0","https://app.prolific.com/","en-GB,en-US;q=0.9,en;q=0.8","6744814c173b9afac78cf039","6877649eabb845cf142cd221","689316d881f1c6bdb11bc3fc","1","6744814c173b9afac78cf039","1","2025-08-06T08:54:41.556Z","","","","","","","","","","","","","","","","","","","","","","","","","","","","","","","","","","","","","","","","","",""
"111033.40000000596","","","","survey-template","7","288940","0.0-4.0-3.0","133","1","2025-08-06 08:51:39","36c45c0696341be0efffe67d72a12abb","41.122.207.218","Mozilla/5.0 (Windows NT 10.0; Win64; x64) AppleWebKit/537.36 (KHTML, like Gecko) Chrome/138.0.0.0 Safari/537.36","WebKit","Chrome","138.0.0.0","Windows","10.0","https://app.prolific.com/","en-GB,en-US;q=0.9,en;q=0.8","6744814c173b9afac78cf039","6877649eabb845cf142cd221","689316d881f1c6bdb11bc3fc","1","6744814c173b9afac78cf039","1","2025-08-06T08:56:32.602Z","","","","drsp","{""Q01"":""2"",""Q02"":""3"",""Q03"":""2"",""Q04"":""2"",""Q05"":""3"",""Q06"":""4"",""Q07"":""4"",""Q08"":""1"",""Q09"":""2"",""Q10"":""3"",""Q11"":""3"",""Q12"":""2"",""Q13"":""5"",""Q14"":""3"",""Q15"":""2"",""Q16"":""1"",""Q17"":""2"",""Q18"":""3"",""Q19"":""0"",""Q20"":""1"",""Q21"":""3"",""Q22"":""2""}","[0,1,2,3,4,5,6,7,8,9,10,11,12,13,14,15,16,17,18,19,20,21]","[""Q13"",""Q01"",""Q02"",""Q03"",""Q04"",""Q05"",""Q06"",""Q07"",""Q08"",""Q08"",""Q09"",""Q10"",""Q11"",""Q12"",""Q14"",""Q14"",""Q15"",""Q16"",""Q17"",""Q18"",""Q19"",""Q20"",""Q21"",""Q22""]","[6547.699999988079,11696.90000000596,14534.90000000596,20976.19999998808,24353.19999998808,28442.19999998808,33375.79999998212,35360.09999999404,38549.5,39642,41423.5,45276.19999998808,46992.5,60353.59999999404,68421.79999998212,71662.19999998808,77929.90000000596,80793.59999999404,83128.90000000596,86365.09999999404,95894.09999999404,100659.5,104573.90000000596,108687.19999998808]","[]","[0.09999999403953552,6547.699999988079,11696.90000000596,14534.90000000596,20976.19999998808,24353.19999998808,28442.19999998808,33375.79999998212,35360.09999999404,38549.5,39642,41423.5,45276.19999998808,46992.5,60353.59999999404,68421.79999998212,71662.19999998808,77929.90000000596,80793.59999999404,83128.90000000596,86365.09999999404,95894.09999999404,100659.5,104573.90000000596,108687.19999998808,111015.90000000596]","0.36363636363636365","0.6190476190476191","0","","","","","","","","","","","","","","","","","","","","","","","","","","","","",""
"20128.5","","","","survey-template","8","309072","0.0-4.0-4.0","133","1","2025-08-06 08:51:39","36c45c0696341be0efffe67d72a12abb","41.122.207.218","Mozilla/5.0 (Windows NT 10.0; Win64; x64) AppleWebKit/537.36 (KHTML, like Gecko) Chrome/138.0.0.0 Safari/537.36","WebKit","Chrome","138.0.0.0","Windows","10.0","https://app.prolific.com/","en-GB,en-US;q=0.9,en;q=0.8","6744814c173b9afac78cf039","6877649eabb845cf142cd221","689316d881f1c6bdb11bc3fc","1","6744814c173b9afac78cf039","1","2025-08-06T08:56:52.735Z","","","","stress","{""Q01"":""4"",""Q02"":""2"",""Q03"":""2""}","[0,1,2]","[""Q01"",""Q02"",""Q03""]","[14227.40000000596,16160.40000000596,18590.90000000596]","[]","[14227.40000000596,16160.40000000596,18590.90000000596,20124.40000000596]","0.3333333333333333","1","0","","","","","","","","","","","","","","","","","","","","","","","","","","","","",""
"4999","","","","instructions","9","314075","0.0-5.0-0.0","133","1","2025-08-06 08:51:39","36c45c0696341be0efffe67d72a12abb","41.122.207.218","Mozilla/5.0 (Windows NT 10.0; Win64; x64) AppleWebKit/537.36 (KHTML, like Gecko) Chrome/138.0.0.0 Safari/537.36","WebKit","Chrome","138.0.0.0","Windows","10.0","https://app.prolific.com/","en-GB,en-US;q=0.9,en;q=0.8","6744814c173b9afac78cf039","6877649eabb845cf142cd221","689316d881f1c6bdb11bc3fc","1","6744814c173b9afac78cf039","1","","","","","","","","","","","","","","","[{""page_index"":0,""viewing_time"":4998}]","","","","","","","","","","","","","","","","","","","","","","","","","","","",""
"6294","","<p>Before you start with this game please answer the following three questions yourself. </p>
  <p>Through this game, we measure several aspects of your cognitive performance, such as reaction times, multi-tasking capabilities </p>
  <p>and the ability to assess the situation you are in.</p>
  <p></p>
  <p><b>How good do you usually are in such tasks?</b></p>","99","html-slider-response","10","320593","0.0-6.0-0.0","133","1","2025-08-06 08:51:39","36c45c0696341be0efffe67d72a12abb","41.122.207.218","Mozilla/5.0 (Windows NT 10.0; Win64; x64) AppleWebKit/537.36 (KHTML, like Gecko) Chrome/138.0.0.0 Safari/537.36","WebKit","Chrome","138.0.0.0","Windows","10.0","https://app.prolific.com/","en-GB,en-US;q=0.9,en;q=0.8","6744814c173b9afac78cf039","6877649eabb845cf142cd221","689316d881f1c6bdb11bc3fc","1","6744814c173b9afac78cf039","1","2025-08-06T08:57:04.255Z","","","","PreSkillQ","","","","","","","","","","","50","","","","","","","","","","","","","","","","","","","","","","","","","","",""
"3648","","<div style=""width:500px;"">
  <p>How well do you think you will perform in this task compared to other participants?</p>
  </div>","100","html-slider-response","11","324245","0.0-6.0-1.0","133","1","2025-08-06 08:51:39","36c45c0696341be0efffe67d72a12abb","41.122.207.218","Mozilla/5.0 (Windows NT 10.0; Win64; x64) AppleWebKit/537.36 (KHTML, like Gecko) Chrome/138.0.0.0 Safari/537.36","WebKit","Chrome","138.0.0.0","Windows","10.0","https://app.prolific.com/","en-GB,en-US;q=0.9,en;q=0.8","6744814c173b9afac78cf039","6877649eabb845cf142cd221","689316d881f1c6bdb11bc3fc","1","6744814c173b9afac78cf039","1","2025-08-06T08:57:07.907Z","","","","PrePerfQ","","","","","","","","","","","50","","","","","","","","","","","","","","","","","","","","","","","","","","",""
"3721","","<div style=""width:500px;"">
  <p>What best describes how you currently feel?</p>
  </div>","99","html-slider-response","12","327970","0.0-6.0-2.0","133","1","2025-08-06 08:51:39","36c45c0696341be0efffe67d72a12abb","41.122.207.218","Mozilla/5.0 (Windows NT 10.0; Win64; x64) AppleWebKit/537.36 (KHTML, like Gecko) Chrome/138.0.0.0 Safari/537.36","WebKit","Chrome","138.0.0.0","Windows","10.0","https://app.prolific.com/","en-GB,en-US;q=0.9,en;q=0.8","6744814c173b9afac78cf039","6877649eabb845cf142cd221","689316d881f1c6bdb11bc3fc","1","6744814c173b9afac78cf039","1","2025-08-06T08:57:11.632Z","","","","PreMotivationQ","","","","","","","","","","","50","","","","","","","","","","","","","","","","","","","","","","","","","","",""
"","","","","ctl-task-cpt","13","363318","0.0-7.0-0.0","133","1","2025-08-06 08:51:39","36c45c0696341be0efffe67d72a12abb","41.122.207.218","Mozilla/5.0 (Windows NT 10.0; Win64; x64) AppleWebKit/537.36 (KHTML, like Gecko) Chrome/138.0.0.0 Safari/537.36","WebKit","Chrome","138.0.0.0","Windows","10.0","https://app.prolific.com/","en-GB,en-US;q=0.9,en;q=0.8","6744814c173b9afac78cf039","6877649eabb845cf142cd221","689316d881f1c6bdb11bc3fc","1","6744814c173b9afac78cf039","1","2025-08-06T08:57:46.981Z","","","","","","","","","","","","","","","","win-only","0","g1:NW,g2:SE","1","1","0","336056","2876.6","7895","31425.6","1","4","4","6","2","4","4","4","0","0.030303030303030304","5018.4","3000","855","[""down"",""right""]","{""num_key_presses"":6,""num_perfect"":6,""num_errors"":0,""num_randdir"":0,""num_randdir_good_moves"":0,""num_whilered"":0,""num_whileblue"":0,""num_blue"":2,""num_good_moves"":6}","[299.22232142857143,291.12857142857143,8.7,299.22232142857143,291.12857142857143,120.9,299.22232142857143,291.12857142857143,231,299.22232142857143,291.12857142857143,332.8,299.22232142857143,291.12857142857143,443.1,299.22232142857143,291.12857142857143,545.2,299.22232142857143,291.12857142857143,645.3,299.22232142857143,291.12857142857143,749.5,299.22232142857143,291.12857142857143,849.9,299.22232142857143,291.12857142857143,954.8,299.22232142857143,291.12857142857143,1056,299.22232142857143,291.12857142857143,1159.2,299.22232142857143,291.12857142857143,1287.1,299.22232142857143,291.12857142857143,1405.9,299.22232142857143,291.12857142857143,1509.2,299.22232142857143,291.12857142857143,1609.8,299.22232142857143,291.12857142857143,1710,299.22232142857143,291.12857142857143,1810.2,299.22232142857143,291.12857142857143,1917.3,299.22232142857143,291.12857142857143,2019.1,299.22232142857143,291.12857142857143,2120.3,299.22232142857143,291.12857142857143,2224.6,299.22232142857143,291.12857142857143,2329,299.22232142857143,291.12857142857143,2434.1,299.22232142857143,291.12857142857143,2534.1,299.22232142857143,291.12857142857143,2652.6,299.22232142857143,291.12857142857143,2785.2,299.22232142857143,291.12857142857143,2889.1,299.22232142857143,291.12857142857143,2989.4,299.22232142857143,291.12857142857143,3089.6,299.22232142857143,291.12857142857143,3195.6,299.22232142857143,291.12857142857143,3299.1,299.22232142857143,291.12857142857143,3399.2,299.22232142857143,291.12857142857143,3573.5,299.22232142857143,291.12857142857143,3674.3,299.22232142857143,291.12857142857143,3775.3,299.22232142857143,291.12857142857143,3880.1,299.22232142857143,291.12857142857143,3981.5,299.22232142857143,291.12857142857143,4187.2,299.22232142857143,291.12857142857143,4289.3,299.22232142857143,291.12857142857143,4391.1,299.22232142857143,291.12857142857143,4494.8,299.22232142857143,291.12857142857143,4602.4,299.22232142857143,291.12857142857143,4702.8,299.22232142857143,291.12857142857143,4805.3,299.22232142857143,291.12857142857143,4952.4]","[1922.6,1922.6,1000,0,922.6,""smooth"",""right"",""right"",""good_move"",4395.3,2470.7,2118.7,1924.7,351.9,""smooth"",""right"",""right"",""good_move"",7824.6,3428.6,3067.7,4396,360.9,""smooth"",""right"",""right"",""good_move"",14624.8,6799.4,2659.8,11572.2,392.8,""smooth"",""down"",""down"",""good_move"",17192.9,2566.8,1611.6,14626.1,955.2,""smooth"",""down"",""down"",""good_move"",23426.9,6233.3,2370.8,20645.7,410.4,""smooth"",""down"",""down"",""good_move""]"
"4314","","<div style=""width:500px;"">
  <p>What determined the result of this run?</p>
  </div>","100","html-slider-response","14","367636","0.0-7.0-1.0","133","1","2025-08-06 08:51:39","36c45c0696341be0efffe67d72a12abb","41.122.207.218","Mozilla/5.0 (Windows NT 10.0; Win64; x64) AppleWebKit/537.36 (KHTML, like Gecko) Chrome/138.0.0.0 Safari/537.36","WebKit","Chrome","138.0.0.0","Windows","10.0","https://app.prolific.com/","en-GB,en-US;q=0.9,en;q=0.8","6744814c173b9afac78cf039","6877649eabb845cf142cd221","689316d881f1c6bdb11bc3fc","1","6744814c173b9afac78cf039","1","2025-08-06T08:57:51.298Z","","","","AttribQ","","","","","","","","","","","50","","","","","","","","","","","","","","","","","","","","","","","","","","",""
"4501","","<div style=""width:500px;"">
  <p>How much control did you have over the ball?</p>
  </div>","73","html-slider-response","15","372138","0.0-7.0-2.0","133","1","2025-08-06 08:51:39","36c45c0696341be0efffe67d72a12abb","41.122.207.218","Mozilla/5.0 (Windows NT 10.0; Win64; x64) AppleWebKit/537.36 (KHTML, like Gecko) Chrome/138.0.0.0 Safari/537.36","WebKit","Chrome","138.0.0.0","Windows","10.0","https://app.prolific.com/","en-GB,en-US;q=0.9,en;q=0.8","6744814c173b9afac78cf039","6877649eabb845cf142cd221","689316d881f1c6bdb11bc3fc","1","6744814c173b9afac78cf039","1","2025-08-06T08:57:55.800Z","","","","ControlQ","","","","","","","","","","","50","","","","","","","","","","","","","","","","","","","","","","","","","","",""
"3227","","<div style=""width:500px;"">
  <p>How would you describe your current emotional state?</p>
  </div>","27","html-slider-response","16","375367","0.0-7.0-3.0","133","1","2025-08-06 08:51:39","36c45c0696341be0efffe67d72a12abb","41.122.207.218","Mozilla/5.0 (Windows NT 10.0; Win64; x64) AppleWebKit/537.36 (KHTML, like Gecko) Chrome/138.0.0.0 Safari/537.36","WebKit","Chrome","138.0.0.0","Windows","10.0","https://app.prolific.com/","en-GB,en-US;q=0.9,en;q=0.8","6744814c173b9afac78cf039","6877649eabb845cf142cd221","689316d881f1c6bdb11bc3fc","1","6744814c173b9afac78cf039","1","2025-08-06T08:57:59.029Z","","","","StressQ","","","","","","","","","","","50","","","","","","","","","","","","","","","","","","","","","","","","","","",""
"2872","","<div style=""width:500px;"">
  <p>What best describes how you currently feel?</p>
  </div>","74","html-slider-response","17","378242","0.0-7.0-4.0","133","1","2025-08-06 08:51:39","36c45c0696341be0efffe67d72a12abb","41.122.207.218","Mozilla/5.0 (Windows NT 10.0; Win64; x64) AppleWebKit/537.36 (KHTML, like Gecko) Chrome/138.0.0.0 Safari/537.36","WebKit","Chrome","138.0.0.0","Windows","10.0","https://app.prolific.com/","en-GB,en-US;q=0.9,en;q=0.8","6744814c173b9afac78cf039","6877649eabb845cf142cd221","689316d881f1c6bdb11bc3fc","1","6744814c173b9afac78cf039","1","2025-08-06T08:58:01.904Z","","","","MotivationQ","","","","","","","","","","","50","","","","","","","","","","","","","","","","","","","","","","","","","","",""
"","","","","ctl-task-cpt","18","410041","0.0-7.0-0.1","133","1","2025-08-06 08:51:39","36c45c0696341be0efffe67d72a12abb","41.122.207.218","Mozilla/5.0 (Windows NT 10.0; Win64; x64) AppleWebKit/537.36 (KHTML, like Gecko) Chrome/138.0.0.0 Safari/537.36","WebKit","Chrome","138.0.0.0","Windows","10.0","https://app.prolific.com/","en-GB,en-US;q=0.9,en;q=0.8","6744814c173b9afac78cf039","6877649eabb845cf142cd221","689316d881f1c6bdb11bc3fc","1","6744814c173b9afac78cf039","1","2025-08-06T08:58:33.703Z","","","","","","","","","","","","","","","","win-only","1","g1:NE,g2:SW","0.9","2","0","386086.8","1761.6","6767.6","28786.4","1","4","8","6","2","8","7","11","4","0.08333333333333333","5006","3000","800","[""down"",""left""]","{""num_key_presses"":8,""num_perfect"":6,""num_errors"":1,""num_randdir"":1,""num_randdir_good_moves"":1,""num_whilered"":0,""num_whileblue"":1,""num_blue"":1,""num_good_moves"":7}","[291.22232142857143,297.12857142857143,0.2,291.22232142857143,297.12857142857143,104.3,291.22232142857143,297.12857142857143,206.3,291.22232142857143,297.12857142857143,349.8,291.22232142857143,297.12857142857143,458.6,291.22232142857143,297.12857142857143,559.6,291.22232142857143,297.12857142857143,660.4,291.22232142857143,297.12857142857143,763.9,291.22232142857143,297.12857142857143,864.1,291.22232142857143,297.12857142857143,964.1,291.22232142857143,297.12857142857143,1064.1,291.22232142857143,297.12857142857143,1164.4,291.22232142857143,297.12857142857143,1270.9,291.22232142857143,297.12857142857143,1371.7,291.22232142857143,297.12857142857143,1475.2,291.22232142857143,297.12857142857143,1579.4,291.22232142857143,297.12857142857143,1680.5,291.22232142857143,297.12857142857143,1787,291.22232142857143,297.12857142857143,1887.1,291.22232142857143,297.12857142857143,1992.1,291.22232142857143,297.12857142857143,2095.8,291.22232142857143,297.12857142857143,2199.7,291.22232142857143,297.12857142857143,2299.9,291.22232142857143,297.12857142857143,2409.3,291.22232142857143,297.12857142857143,2510,291.22232142857143,297.12857142857143,2615.3,291.22232142857143,297.12857142857143,2720.8,291.22232142857143,297.12857142857143,2824.6,291.22232142857143,297.12857142857143,2929.7,291.22232142857143,297.12857142857143,3030,291.22232142857143,297.12857142857143,3135.8,291.22232142857143,297.12857142857143,3240.3,291.22232142857143,297.12857142857143,3340.7,291.22232142857143,297.12857142857143,3441.1,291.22232142857143,297.12857142857143,3544,291.22232142857143,297.12857142857143,3650.3,291.22232142857143,297.12857142857143,3750.5,291.22232142857143,297.12857142857143,3855.4,291.22232142857143,297.12857142857143,3961,291.22232142857143,297.12857142857143,4065.2,291.22232142857143,297.12857142857143,4170,291.22232142857143,297.12857142857143,4270.7,291.22232142857143,297.12857142857143,4374.2,291.22232142857143,297.12857142857143,4479.5,291.22232142857143,297.12857142857143,4579.6,291.22232142857143,297.12857142857143,4684.9,291.22232142857143,297.12857142857143,4794.6,291.22232142857143,297.12857142857143,4899.6]","[1374.1,1374.1,1000,0,374.1,""smooth"",""left"",""left"",""good_move"",3470.8,2095.8,1714.8,1375,381,""smooth"",""left"",""left"",""good_move"",6714.1,3242.5,2880,3471.6,362.5,""smooth"",""left"",""left"",""good_move"",9374.5,2659.2,2323.3,6715.3,335.9,""smooth"",""down"",""down"",""good_move"",11965.1,2589.8,2234.4,9375.4,355.3,""oops"",""down"",""down"",""good_move"",14898.7,2932.7,2632.7,11966,300,""while_blue"",""down"",""right"",""bad_move"",18548.1,3626,3273.6,14922.1,352.4,""smooth"",""down"",""down"",""good_move"",21896.5,3348,2928.8,18548.6,419.1,""smooth"",""left"",""left"",""good_move""]"
"3358","","<div style=""width:500px;"">
  <p>What determined the result of this run?</p>
  </div>","100","html-slider-response","19","413401","0.0-7.0-1.1","133","1","2025-08-06 08:51:39","36c45c0696341be0efffe67d72a12abb","41.122.207.218","Mozilla/5.0 (Windows NT 10.0; Win64; x64) AppleWebKit/537.36 (KHTML, like Gecko) Chrome/138.0.0.0 Safari/537.36","WebKit","Chrome","138.0.0.0","Windows","10.0","https://app.prolific.com/","en-GB,en-US;q=0.9,en;q=0.8","6744814c173b9afac78cf039","6877649eabb845cf142cd221","689316d881f1c6bdb11bc3fc","1","6744814c173b9afac78cf039","1","2025-08-06T08:58:37.063Z","","","","AttribQ","","","","","","","","","","","50","","","","","","","","","","","","","","","","","","","","","","","","","","",""
"3027","","<div style=""width:500px;"">
  <p>How much control did you have over the ball?</p>
  </div>","88","html-slider-response","20","416430","0.0-7.0-2.1","133","1","2025-08-06 08:51:39","36c45c0696341be0efffe67d72a12abb","41.122.207.218","Mozilla/5.0 (Windows NT 10.0; Win64; x64) AppleWebKit/537.36 (KHTML, like Gecko) Chrome/138.0.0.0 Safari/537.36","WebKit","Chrome","138.0.0.0","Windows","10.0","https://app.prolific.com/","en-GB,en-US;q=0.9,en;q=0.8","6744814c173b9afac78cf039","6877649eabb845cf142cd221","689316d881f1c6bdb11bc3fc","1","6744814c173b9afac78cf039","1","2025-08-06T08:58:40.092Z","","","","ControlQ","","","","","","","","","","","50","","","","","","","","","","","","","","","","","","","","","","","","","","",""
"3063","","<div style=""width:500px;"">
  <p>How would you describe your current emotional state?</p>
  </div>","18","html-slider-response","21","419497","0.0-7.0-3.1","133","1","2025-08-06 08:51:39","36c45c0696341be0efffe67d72a12abb","41.122.207.218","Mozilla/5.0 (Windows NT 10.0; Win64; x64) AppleWebKit/537.36 (KHTML, like Gecko) Chrome/138.0.0.0 Safari/537.36","WebKit","Chrome","138.0.0.0","Windows","10.0","https://app.prolific.com/","en-GB,en-US;q=0.9,en;q=0.8","6744814c173b9afac78cf039","6877649eabb845cf142cd221","689316d881f1c6bdb11bc3fc","1","6744814c173b9afac78cf039","1","2025-08-06T08:58:43.159Z","","","","StressQ","","","","","","","","","","","50","","","","","","","","","","","","","","","","","","","","","","","","","","",""
"3577","","<div style=""width:500px;"">
  <p>What best describes how you currently feel?</p>
  </div>","77","html-slider-response","22","423075","0.0-7.0-4.1","133","1","2025-08-06 08:51:39","36c45c0696341be0efffe67d72a12abb","41.122.207.218","Mozilla/5.0 (Windows NT 10.0; Win64; x64) AppleWebKit/537.36 (KHTML, like Gecko) Chrome/138.0.0.0 Safari/537.36","WebKit","Chrome","138.0.0.0","Windows","10.0","https://app.prolific.com/","en-GB,en-US;q=0.9,en;q=0.8","6744814c173b9afac78cf039","6877649eabb845cf142cd221","689316d881f1c6bdb11bc3fc","1","6744814c173b9afac78cf039","1","2025-08-06T08:58:46.737Z","","","","MotivationQ","","","","","","","","","","","50","","","","","","","","","","","","","","","","","","","","","","","","","","",""
"","","","","ctl-task-cpt","23","456199","0.0-7.0-0.2","133","1","2025-08-06 08:51:39","36c45c0696341be0efffe67d72a12abb","41.122.207.218","Mozilla/5.0 (Windows NT 10.0; Win64; x64) AppleWebKit/537.36 (KHTML, like Gecko) Chrome/138.0.0.0 Safari/537.36","WebKit","Chrome","138.0.0.0","Windows","10.0","https://app.prolific.com/","en-GB,en-US;q=0.9,en;q=0.8","6744814c173b9afac78cf039","6877649eabb845cf142cd221","689316d881f1c6bdb11bc3fc","1","6744814c173b9afac78cf039","1","2025-08-06T08:59:19.862Z","","","","","","","","","","","","","","","","win-only","2","g1:SE,g2:NW","0.8","3","0","430917.3","1449.3","6458.6","30091.3","1","4","4","6","1","1","1","12","11","0.09090909090909091","5009.2","3000","1710","[""down"",""right""]","{""num_key_presses"":4,""num_perfect"":4,""num_errors"":0,""num_randdir"":0,""num_randdir_good_moves"":0,""num_whilered"":0,""num_whileblue"":0,""num_blue"":3,""num_good_moves"":4}","[297.22232142857143,298.12857142857143,0.7,297.22232142857143,298.12857142857143,121.4,297.22232142857143,298.12857142857143,223.3,297.22232142857143,298.12857142857143,326.8,297.22232142857143,298.12857142857143,439.3,297.22232142857143,298.12857142857143,553.5,297.22232142857143,298.12857142857143,657.9,297.22232142857143,298.12857142857143,761.9,297.22232142857143,298.12857142857143,866.7,297.22232142857143,298.12857142857143,967.6,297.22232142857143,298.12857142857143,1087.6,297.22232142857143,298.12857142857143,1193.8,297.22232142857143,298.12857142857143,1296.4,297.22232142857143,298.12857142857143,1396.7,297.22232142857143,298.12857142857143,1497.5,297.22232142857143,298.12857142857143,1601.9,297.22232142857143,298.12857142857143,1717.3,297.22232142857143,298.12857142857143,1822.8,297.22232142857143,298.12857142857143,1926,297.22232142857143,298.12857142857143,2030.2,297.22232142857143,298.12857142857143,2139.1,297.22232142857143,298.12857142857143,2253.6,297.22232142857143,298.12857142857143,2357.1,297.22232142857143,298.12857142857143,2457.9,297.22232142857143,298.12857142857143,2558.5,297.22232142857143,298.12857142857143,2662.6,297.22232142857143,298.12857142857143,2766.8,297.22232142857143,298.12857142857143,2869.3,297.22232142857143,298.12857142857143,2976.3,297.22232142857143,298.12857142857143,3077.4,297.22232142857143,298.12857142857143,3177.4,297.22232142857143,298.12857142857143,3281.8,297.22232142857143,298.12857142857143,3388.1,297.22232142857143,298.12857142857143,3493.4,297.22232142857143,298.12857142857143,3597.2,297.22232142857143,298.12857142857143,3701.7,297.22232142857143,298.12857142857143,3822.2,297.22232142857143,298.12857142857143,3927,297.22232142857143,298.12857142857143,4042.3,297.22232142857143,298.12857142857143,4161.5,297.22232142857143,298.12857142857143,4276.7,297.22232142857143,298.12857142857143,4377.2,297.22232142857143,298.12857142857143,4491.9,297.22232142857143,298.12857142857143,4592.9,297.22232142857143,298.12857142857143,4702.6,297.22232142857143,298.12857142857143,4807.4,297.22232142857143,298.12857142857143,4911.6]","[1469.1,1469.1,1000,0,469.1,""smooth"",""right"",""right"",""good_move"",9131,7660.9,3177.6,5485,468.4,""smooth"",""right"",""right"",""good_move"",20235.8,11104.2,3187.9,16268.2,779.7,""smooth"",""down"",""down"",""good_move"",23494.3,3257.6,2640.3,20236.7,617.3,""smooth"",""down"",""down"",""good_move""]"
"8980","","<div style=""width:500px;"">
  <p>What determined the result of this run?</p>
  </div>","100","html-slider-response","24","465185","0.0-7.0-1.2","133","1","2025-08-06 08:51:39","36c45c0696341be0efffe67d72a12abb","41.122.207.218","Mozilla/5.0 (Windows NT 10.0; Win64; x64) AppleWebKit/537.36 (KHTML, like Gecko) Chrome/138.0.0.0 Safari/537.36","WebKit","Chrome","138.0.0.0","Windows","10.0","https://app.prolific.com/","en-GB,en-US;q=0.9,en;q=0.8","6744814c173b9afac78cf039","6877649eabb845cf142cd221","689316d881f1c6bdb11bc3fc","1","6744814c173b9afac78cf039","1","2025-08-06T08:59:28.847Z","","","","AttribQ","","","","","","","","","","","50","","","","","","","","","","","","","","","","","","","","","","","","","","",""
"4748","","<div style=""width:500px;"">
  <p>How much control did you have over the ball?</p>
  </div>","90","html-slider-response","25","469936","0.0-7.0-2.2","133","1","2025-08-06 08:51:39","36c45c0696341be0efffe67d72a12abb","41.122.207.218","Mozilla/5.0 (Windows NT 10.0; Win64; x64) AppleWebKit/537.36 (KHTML, like Gecko) Chrome/138.0.0.0 Safari/537.36","WebKit","Chrome","138.0.0.0","Windows","10.0","https://app.prolific.com/","en-GB,en-US;q=0.9,en;q=0.8","6744814c173b9afac78cf039","6877649eabb845cf142cd221","689316d881f1c6bdb11bc3fc","1","6744814c173b9afac78cf039","1","2025-08-06T08:59:33.598Z","","","","ControlQ","","","","","","","","","","","50","","","","","","","","","","","","","","","","","","","","","","","","","","",""
"14339","","<div style=""width:500px;"">
  <p>How would you describe your current emotional state?</p>
  </div>","13","html-slider-response","26","484277","0.0-7.0-3.2","133","1","2025-08-06 08:51:39","36c45c0696341be0efffe67d72a12abb","41.122.207.218","Mozilla/5.0 (Windows NT 10.0; Win64; x64) AppleWebKit/537.36 (KHTML, like Gecko) Chrome/138.0.0.0 Safari/537.36","WebKit","Chrome","138.0.0.0","Windows","10.0","https://app.prolific.com/","en-GB,en-US;q=0.9,en;q=0.8","6744814c173b9afac78cf039","6877649eabb845cf142cd221","689316d881f1c6bdb11bc3fc","1","6744814c173b9afac78cf039","1","2025-08-06T08:59:47.939Z","","","","StressQ","","","","","","","","","","","50","","","","","","","","","","","","","","","","","","","","","","","","","","",""
"6024","","<div style=""width:500px;"">
  <p>What best describes how you currently feel?</p>
  </div>","94","html-slider-response","27","490303","0.0-7.0-4.2","133","1","2025-08-06 08:51:39","36c45c0696341be0efffe67d72a12abb","41.122.207.218","Mozilla/5.0 (Windows NT 10.0; Win64; x64) AppleWebKit/537.36 (KHTML, like Gecko) Chrome/138.0.0.0 Safari/537.36","WebKit","Chrome","138.0.0.0","Windows","10.0","https://app.prolific.com/","en-GB,en-US;q=0.9,en;q=0.8","6744814c173b9afac78cf039","6877649eabb845cf142cd221","689316d881f1c6bdb11bc3fc","1","6744814c173b9afac78cf039","1","2025-08-06T08:59:53.966Z","","","","MotivationQ","","","","","","","","","","","50","","","","","","","","","","","","","","","","","","","","","","","","","","",""
"","","","","ctl-task-cpt","28","520328","0.0-7.0-0.3","133","1","2025-08-06 08:51:39","36c45c0696341be0efffe67d72a12abb","41.122.207.218","Mozilla/5.0 (Windows NT 10.0; Win64; x64) AppleWebKit/537.36 (KHTML, like Gecko) Chrome/138.0.0.0 Safari/537.36","WebKit","Chrome","138.0.0.0","Windows","10.0","https://app.prolific.com/","en-GB,en-US;q=0.9,en;q=0.8","6744814c173b9afac78cf039","6877649eabb845cf142cd221","689316d881f1c6bdb11bc3fc","1","6744814c173b9afac78cf039","1","2025-08-06T09:00:23.990Z","","","","","","","","","","","","","","","","win-only","2","g1:SE,g2:NW","0.7","4","0","498146.5","1783.6","6788.9","26978.3","1","4","8","6","2","8","8","20","12","0.15151515151515152","5005.3","3000","1480","[""left"",""up""]","{""num_key_presses"":6,""num_perfect"":4,""num_errors"":0,""num_randdir"":2,""num_randdir_good_moves"":2,""num_whilered"":0,""num_whileblue"":0,""num_blue"":1,""num_good_moves"":6}","[299.22232142857143,298.12857142857143,8.2,299.22232142857143,298.12857142857143,112.3,299.22232142857143,298.12857142857143,212.8,299.22232142857143,298.12857142857143,323.9,299.22232142857143,298.12857142857143,427.6,299.22232142857143,298.12857142857143,533.1,299.22232142857143,298.12857142857143,651,299.22232142857143,298.12857142857143,752.4,299.22232142857143,298.12857142857143,864.4,299.22232142857143,298.12857142857143,974.9,299.22232142857143,298.12857142857143,1105.9,299.22232142857143,298.12857142857143,1224.8,299.22232142857143,298.12857142857143,1347,299.22232142857143,298.12857142857143,1458.3,299.22232142857143,298.12857142857143,1568.4,299.22232142857143,298.12857142857143,1673,299.22232142857143,298.12857142857143,1773.4,299.22232142857143,298.12857142857143,1878.8,299.22232142857143,298.12857142857143,1982.1,299.22232142857143,298.12857142857143,2082.8,299.22232142857143,298.12857142857143,2191.1,298.22232142857143,293.12857142857143,2314.2,298.22232142857143,294.12857142857143,2418.1,295.22232142857143,294.12857142857143,2532.4,294.22232142857143,294.12857142857143,2633.6,293.22232142857143,291.12857142857143,2772.7,293.22232142857143,287.12857142857143,2873.3,293.22232142857143,282.12857142857143,2980.8,294.22232142857143,278.12857142857143,3117.6,296.22232142857143,274.12857142857143,3218.4,296.22232142857143,272.12857142857143,3343.3,296.22232142857143,271.12857142857143,3445.9,297.22232142857143,270.12857142857143,3565.5,297.22232142857143,269.12857142857143,3668.5,298.22232142857143,268.12857142857143,3769.2,298.22232142857143,267.12857142857143,3889.4,299.22232142857143,266.12857142857143,4014.5,299.22232142857143,265.12857142857143,4125.3,299.22232142857143,265.12857142857143,4228.6,299.22232142857143,265.12857142857143,4330.6,299.22232142857143,265.12857142857143,4432.3,299.22232142857143,265.12857142857143,4533.6,299.22232142857143,265.12857142857143,4660.4,299.22232142857143,265.12857142857143,4764.4,299.22232142857143,265.12857142857143,4867.9,299.22232142857143,265.12857142857143,4968.2]","[4553.1,4553.1,2033.8,2091,428.3,""smooth"",""left"",""left"",""good_move"",7938.9,3384.6,2960.7,4554.3,423.9,""oops"",""left"",""left"",""good_move"",11119.4,3179.6,2732.2,7939.8,447.4,""oops"",""left"",""up"",""good_move"",14233,3112.4,2554.6,11120.6,557.8,""smooth"",""left"",""left"",""good_move"",16854.7,2620.8,2169.5,14234,451.2,""smooth"",""up"",""up"",""good_move"",20013.6,3158,2595.9,16855.6,562.1,""smooth"",""up"",""up"",""good_move""]"
"9794","","<div style=""width:500px;"">
  <p>What determined the result of this run?</p>
  </div>","100","html-slider-response","29","530125","0.0-7.0-1.3","133","1","2025-08-06 08:51:39","36c45c0696341be0efffe67d72a12abb","41.122.207.218","Mozilla/5.0 (Windows NT 10.0; Win64; x64) AppleWebKit/537.36 (KHTML, like Gecko) Chrome/138.0.0.0 Safari/537.36","WebKit","Chrome","138.0.0.0","Windows","10.0","https://app.prolific.com/","en-GB,en-US;q=0.9,en;q=0.8","6744814c173b9afac78cf039","6877649eabb845cf142cd221","689316d881f1c6bdb11bc3fc","1","6744814c173b9afac78cf039","1","2025-08-06T09:00:33.787Z","","","","AttribQ","","","","","","","","","","","50","","","","","","","","","","","","","","","","","","","","","","","","","","",""
"6153","","<div style=""width:500px;"">
  <p>How much control did you have over the ball?</p>
  </div>","71","html-slider-response","30","536281","0.0-7.0-2.3","133","1","2025-08-06 08:51:39","36c45c0696341be0efffe67d72a12abb","41.122.207.218","Mozilla/5.0 (Windows NT 10.0; Win64; x64) AppleWebKit/537.36 (KHTML, like Gecko) Chrome/138.0.0.0 Safari/537.36","WebKit","Chrome","138.0.0.0","Windows","10.0","https://app.prolific.com/","en-GB,en-US;q=0.9,en;q=0.8","6744814c173b9afac78cf039","6877649eabb845cf142cd221","689316d881f1c6bdb11bc3fc","1","6744814c173b9afac78cf039","1","2025-08-06T09:00:39.944Z","","","","ControlQ","","","","","","","","","","","50","","","","","","","","","","","","","","","","","","","","","","","","","","",""
"8509","","<div style=""width:500px;"">
  <p>How would you describe your current emotional state?</p>
  </div>","26","html-slider-response","31","544793","0.0-7.0-3.3","133","1","2025-08-06 08:51:39","36c45c0696341be0efffe67d72a12abb","41.122.207.218","Mozilla/5.0 (Windows NT 10.0; Win64; x64) AppleWebKit/537.36 (KHTML, like Gecko) Chrome/138.0.0.0 Safari/537.36","WebKit","Chrome","138.0.0.0","Windows","10.0","https://app.prolific.com/","en-GB,en-US;q=0.9,en;q=0.8","6744814c173b9afac78cf039","6877649eabb845cf142cd221","689316d881f1c6bdb11bc3fc","1","6744814c173b9afac78cf039","1","2025-08-06T09:00:48.455Z","","","","StressQ","","","","","","","","","","","50","","","","","","","","","","","","","","","","","","","","","","","","","","",""
"6148","","<div style=""width:500px;"">
  <p>What best describes how you currently feel?</p>
  </div>","77","html-slider-response","32","550944","0.0-7.0-4.3","133","1","2025-08-06 08:51:39","36c45c0696341be0efffe67d72a12abb","41.122.207.218","Mozilla/5.0 (Windows NT 10.0; Win64; x64) AppleWebKit/537.36 (KHTML, like Gecko) Chrome/138.0.0.0 Safari/537.36","WebKit","Chrome","138.0.0.0","Windows","10.0","https://app.prolific.com/","en-GB,en-US;q=0.9,en;q=0.8","6744814c173b9afac78cf039","6877649eabb845cf142cd221","689316d881f1c6bdb11bc3fc","1","6744814c173b9afac78cf039","1","2025-08-06T09:00:54.606Z","","","","MotivationQ","","","","","","","","","","","50","","","","","","","","","","","","","","","","","","","","","","","","","","",""
"","","","","ctl-task-cpt","33","595544","0.0-7.0-0.4","133","1","2025-08-06 08:51:39","36c45c0696341be0efffe67d72a12abb","41.122.207.218","Mozilla/5.0 (Windows NT 10.0; Win64; x64) AppleWebKit/537.36 (KHTML, like Gecko) Chrome/138.0.0.0 Safari/537.36","WebKit","Chrome","138.0.0.0","Windows","10.0","https://app.prolific.com/","en-GB,en-US;q=0.9,en;q=0.8","6744814c173b9afac78cf039","6877649eabb845cf142cd221","689316d881f1c6bdb11bc3fc","1","6744814c173b9afac78cf039","1","2025-08-06T09:01:39.206Z","","","","","","","","","","","","","","","","win-only","0","g1:NW,g2:SE","0.6","5","0","558787.1","7517","12544.4","41585.9","1","4","4","6","1","1","1","21","20","0.1590909090909091","5027.1","3000","1415","[""left"",""up""]","{""num_key_presses"":8,""num_perfect"":5,""num_errors"":0,""num_randdir"":3,""num_randdir_good_moves"":1,""num_whilered"":0,""num_whileblue"":0,""num_blue"":2,""num_good_moves"":6}","[294.22232142857143,296.12857142857143,0.8,294.22232142857143,296.12857142857143,119.6,294.22232142857143,296.12857142857143,220.9,294.22232142857143,296.12857142857143,321.6,294.22232142857143,296.12857142857143,424.4,294.22232142857143,296.12857142857143,524.9,294.22232142857143,296.12857142857143,625.8,294.22232142857143,296.12857142857143,730.6,294.22232142857143,296.12857142857143,848.5,294.22232142857143,296.12857142857143,953.1,294.22232142857143,296.12857142857143,1054,294.22232142857143,296.12857142857143,1155,294.22232142857143,296.12857142857143,1255,294.22232142857143,296.12857142857143,1355.7,294.22232142857143,296.12857142857143,1480.6,294.22232142857143,296.12857142857143,1580.6,294.22232142857143,296.12857142857143,1704.8,294.22232142857143,296.12857142857143,1807.9,294.22232142857143,296.12857142857143,1908.5,294.22232142857143,296.12857142857143,2010.7,294.22232142857143,296.12857142857143,2121.2,294.22232142857143,296.12857142857143,2221.8,294.22232142857143,296.12857142857143,2324.3,294.22232142857143,296.12857142857143,2424.3,294.22232142857143,296.12857142857143,2526.7,294.22232142857143,296.12857142857143,2629.8,294.22232142857143,296.12857142857143,2730,294.22232142857143,296.12857142857143,2836.3,294.22232142857143,296.12857142857143,2937,294.22232142857143,296.12857142857143,3040.1,294.22232142857143,296.12857142857143,3164,294.22232142857143,296.12857142857143,3265.4,294.22232142857143,296.12857142857143,3367.4,294.22232142857143,296.12857142857143,3489.8,294.22232142857143,296.12857142857143,3592.9,294.22232142857143,296.12857142857143,3694.9,294.22232142857143,296.12857142857143,3799.9,294.22232142857143,296.12857142857143,3903.6,294.22232142857143,296.12857142857143,4023.9,294.22232142857143,296.12857142857143,4125.1,294.22232142857143,296.12857142857143,4230.1,294.22232142857143,296.12857142857143,4334.5,294.22232142857143,296.12857142857143,4436.5,294.22232142857143,296.12857142857143,4547.8,294.22232142857143,296.12857142857143,4649.8,294.22232142857143,296.12857142857143,4774.7,294.22232142857143,296.12857142857143,4876.8,294.22232142857143,296.12857142857143,4980.4]","[1445.6,1445.6,1000,0,445.6,""smooth"",""left"",""left"",""good_move"",8910.8,7462.8,2815.3,5672.7,422.8,""oops"",""left"",""up"",""good_move"",11693.7,2781.9,2178,8911.8,603.9,""oops"",""left"",""right"",""bad_move"",14683.3,2988.4,2563,11694.9,425.4,""smooth"",""up"",""up"",""good_move"",16903,2218.8,1751.4,14684.3,467.4,""smooth"",""left"",""left"",""good_move"",20301.9,3397.9,3033.1,16904.1,364.7,""oops"",""left"",""right"",""bad_move"",23214.7,2911.8,2516.4,20302.9,395.4,""smooth"",""left"",""left"",""good_move"",28855.4,5639.8,2274.5,26083.4,497.5,""smooth"",""left"",""left"",""good_move""]"
"9830","","<div style=""width:500px;"">
  <p>What determined the result of this run?</p>
  </div>","93","html-slider-response","34","605376","0.0-7.0-1.4","133","1","2025-08-06 08:51:39","36c45c0696341be0efffe67d72a12abb","41.122.207.218","Mozilla/5.0 (Windows NT 10.0; Win64; x64) AppleWebKit/537.36 (KHTML, like Gecko) Chrome/138.0.0.0 Safari/537.36","WebKit","Chrome","138.0.0.0","Windows","10.0","https://app.prolific.com/","en-GB,en-US;q=0.9,en;q=0.8","6744814c173b9afac78cf039","6877649eabb845cf142cd221","689316d881f1c6bdb11bc3fc","1","6744814c173b9afac78cf039","1","2025-08-06T09:01:49.038Z","","","","AttribQ","","","","","","","","","","","50","","","","","","","","","","","","","","","","","","","","","","","","","","",""
"7459","","<div style=""width:500px;"">
  <p>How much control did you have over the ball?</p>
  </div>","73","html-slider-response","35","612838","0.0-7.0-2.4","133","1","2025-08-06 08:51:39","36c45c0696341be0efffe67d72a12abb","41.122.207.218","Mozilla/5.0 (Windows NT 10.0; Win64; x64) AppleWebKit/537.36 (KHTML, like Gecko) Chrome/138.0.0.0 Safari/537.36","WebKit","Chrome","138.0.0.0","Windows","10.0","https://app.prolific.com/","en-GB,en-US;q=0.9,en;q=0.8","6744814c173b9afac78cf039","6877649eabb845cf142cd221","689316d881f1c6bdb11bc3fc","1","6744814c173b9afac78cf039","1","2025-08-06T09:01:56.500Z","","","","ControlQ","","","","","","","","","","","50","","","","","","","","","","","","","","","","","","","","","","","","","","",""
"10076","","<div style=""width:500px;"">
  <p>How would you describe your current emotional state?</p>
  </div>","32","html-slider-response","36","622916","0.0-7.0-3.4","133","1","2025-08-06 08:51:39","36c45c0696341be0efffe67d72a12abb","41.122.207.218","Mozilla/5.0 (Windows NT 10.0; Win64; x64) AppleWebKit/537.36 (KHTML, like Gecko) Chrome/138.0.0.0 Safari/537.36","WebKit","Chrome","138.0.0.0","Windows","10.0","https://app.prolific.com/","en-GB,en-US;q=0.9,en;q=0.8","6744814c173b9afac78cf039","6877649eabb845cf142cd221","689316d881f1c6bdb11bc3fc","1","6744814c173b9afac78cf039","1","2025-08-06T09:02:06.578Z","","","","StressQ","","","","","","","","","","","50","","","","","","","","","","","","","","","","","","","","","","","","","","",""
"6701","","<div style=""width:500px;"">
  <p>What best describes how you currently feel?</p>
  </div>","70","html-slider-response","37","629622","0.0-7.0-4.4","133","1","2025-08-06 08:51:39","36c45c0696341be0efffe67d72a12abb","41.122.207.218","Mozilla/5.0 (Windows NT 10.0; Win64; x64) AppleWebKit/537.36 (KHTML, like Gecko) Chrome/138.0.0.0 Safari/537.36","WebKit","Chrome","138.0.0.0","Windows","10.0","https://app.prolific.com/","en-GB,en-US;q=0.9,en;q=0.8","6744814c173b9afac78cf039","6877649eabb845cf142cd221","689316d881f1c6bdb11bc3fc","1","6744814c173b9afac78cf039","1","2025-08-06T09:02:13.284Z","","","","MotivationQ","","","","","","","","","","","50","","","","","","","","","","","","","","","","","","","","","","","","","","",""
"","","","","ctl-task-cpt","38","768269","0.0-7.0-0.5","133","1","2025-08-06 08:51:39","36c45c0696341be0efffe67d72a12abb","41.122.207.218","Mozilla/5.0 (Windows NT 10.0; Win64; x64) AppleWebKit/537.36 (KHTML, like Gecko) Chrome/138.0.0.0 Safari/537.36","WebKit","Chrome","138.0.0.0","Windows","10.0","https://app.prolific.com/","en-GB,en-US;q=0.9,en;q=0.8","6744814c173b9afac78cf039","6877649eabb845cf142cd221","689316d881f1c6bdb11bc3fc","1","6744814c173b9afac78cf039","1","2025-08-06T09:04:31.931Z","","","","","","","","","","","","","","","","win-only","1","g1:NE,g2:SW","0.5","6","0","637467.4","50926.4","55939.9","135631.3","1","4","8","6","1","1","1","22","21","0.16666666666666666","5013.4","3000","990","[""up"",""right""]","{""num_key_presses"":12,""num_perfect"":6,""num_errors"":0,""num_randdir"":6,""num_randdir_good_moves"":2,""num_whilered"":0,""num_whileblue"":0,""num_blue"":12,""num_good_moves"":8}","[294.22232142857143,293.12857142857143,0.5,294.22232142857143,293.12857142857143,148.9,294.22232142857143,293.12857142857143,1276.5,294.22232142857143,293.12857142857143,1389,294.22232142857143,293.12857142857143,1490,294.22232142857143,293.12857142857143,1607.3,294.22232142857143,293.12857142857143,1714,294.22232142857143,293.12857142857143,1829.6,294.22232142857143,293.12857142857143,1930.6,294.22232142857143,293.12857142857143,2050.5,294.22232142857143,293.12857142857143,2151.9,294.22232142857143,293.12857142857143,2263.4,294.22232142857143,293.12857142857143,2380.6,294.22232142857143,293.12857142857143,2507.1,294.22232142857143,293.12857142857143,2612.5,294.22232142857143,293.12857142857143,2752.8,294.22232142857143,293.12857142857143,2857,294.22232142857143,293.12857142857143,2979.3,294.22232142857143,293.12857142857143,3116.5,294.22232142857143,293.12857142857143,3222.3,294.22232142857143,293.12857142857143,3335.3,294.22232142857143,293.12857142857143,3464.5,294.22232142857143,293.12857142857143,3602.1,294.22232142857143,293.12857142857143,3706.2,294.22232142857143,293.12857142857143,3808,294.22232142857143,293.12857142857143,3919.4,294.22232142857143,293.12857142857143,4020.8,294.22232142857143,293.12857142857143,4121.4,294.22232142857143,293.12857142857143,4242.1,294.22232142857143,293.12857142857143,4344.8,294.22232142857143,293.12857142857143,4445.3,294.22232142857143,293.12857142857143,4547.8,294.22232142857143,293.12857142857143,4664.7,294.22232142857143,293.12857142857143,4790.9,294.22232142857143,293.12857142857143,4923.6]","[1415.4,1415.4,1000,0,415.4,""smooth"",""right"",""right"",""good_move"",23885.4,22469,2899.8,20382,603.7,""oops"",""right"",""left"",""bad_move"",26673.4,2787,2231.2,23886.5,555.7,""oops"",""up"",""right"",""good_move"",29839.9,3165.8,2733.9,26674.1,431.9,""oops"",""up"",""left"",""bad_move"",37726.6,7885,3165.7,34167.9,393,""smooth"",""up"",""up"",""good_move"",49959.3,12231.8,2137,47241.1,581.2,""oops"",""up"",""down"",""bad_move"",56736.5,6776.4,1661.5,54633,442,""smooth"",""up"",""up"",""good_move"",59719.8,2982.3,2405.5,56737.5,576.8,""oops"",""up"",""down"",""bad_move"",69866.4,10145.6,2825.8,66588,452.6,""smooth"",""up"",""up"",""good_move"",73120,3252.7,2836.2,69867.3,416.5,""smooth"",""up"",""up"",""good_move"",76302.2,3180.1,2659.8,73122.1,520.3,""smooth"",""right"",""right"",""good_move"",79469,3161.5,2663.7,76307.5,497.8,""oops"",""right"",""right"",""good_move""]"
"9803","","<div style=""width:500px;"">
  <p>What determined the result of this run?</p>
  </div>","70","html-slider-response","39","778076","0.0-7.0-1.5","133","1","2025-08-06 08:51:39","36c45c0696341be0efffe67d72a12abb","41.122.207.218","Mozilla/5.0 (Windows NT 10.0; Win64; x64) AppleWebKit/537.36 (KHTML, like Gecko) Chrome/138.0.0.0 Safari/537.36","WebKit","Chrome","138.0.0.0","Windows","10.0","https://app.prolific.com/","en-GB,en-US;q=0.9,en;q=0.8","6744814c173b9afac78cf039","6877649eabb845cf142cd221","689316d881f1c6bdb11bc3fc","1","6744814c173b9afac78cf039","1","2025-08-06T09:04:41.738Z","","","","AttribQ","","","","","","","","","","","50","","","","","","","","","","","","","","","","","","","","","","","","","","",""
"6914","","<div style=""width:500px;"">
  <p>How much control did you have over the ball?</p>
  </div>","0","html-slider-response","40","784992","0.0-7.0-2.5","133","1","2025-08-06 08:51:39","36c45c0696341be0efffe67d72a12abb","41.122.207.218","Mozilla/5.0 (Windows NT 10.0; Win64; x64) AppleWebKit/537.36 (KHTML, like Gecko) Chrome/138.0.0.0 Safari/537.36","WebKit","Chrome","138.0.0.0","Windows","10.0","https://app.prolific.com/","en-GB,en-US;q=0.9,en;q=0.8","6744814c173b9afac78cf039","6877649eabb845cf142cd221","689316d881f1c6bdb11bc3fc","1","6744814c173b9afac78cf039","1","2025-08-06T09:04:48.654Z","","","","ControlQ","","","","","","","","","","","50","","","","","","","","","","","","","","","","","","","","","","","","","","",""
"5516","","<div style=""width:500px;"">
  <p>How would you describe your current emotional state?</p>
  </div>","90","html-slider-response","41","790511","0.0-7.0-3.5","133","1","2025-08-06 08:51:39","36c45c0696341be0efffe67d72a12abb","41.122.207.218","Mozilla/5.0 (Windows NT 10.0; Win64; x64) AppleWebKit/537.36 (KHTML, like Gecko) Chrome/138.0.0.0 Safari/537.36","WebKit","Chrome","138.0.0.0","Windows","10.0","https://app.prolific.com/","en-GB,en-US;q=0.9,en;q=0.8","6744814c173b9afac78cf039","6877649eabb845cf142cd221","689316d881f1c6bdb11bc3fc","1","6744814c173b9afac78cf039","1","2025-08-06T09:04:54.173Z","","","","StressQ","","","","","","","","","","","50","","","","","","","","","","","","","","","","","","","","","","","","","","",""
"7845","","<div style=""width:500px;"">
  <p>What best describes how you currently feel?</p>
  </div>","51","html-slider-response","42","798360","0.0-7.0-4.5","133","1","2025-08-06 08:51:39","36c45c0696341be0efffe67d72a12abb","41.122.207.218","Mozilla/5.0 (Windows NT 10.0; Win64; x64) AppleWebKit/537.36 (KHTML, like Gecko) Chrome/138.0.0.0 Safari/537.36","WebKit","Chrome","138.0.0.0","Windows","10.0","https://app.prolific.com/","en-GB,en-US;q=0.9,en;q=0.8","6744814c173b9afac78cf039","6877649eabb845cf142cd221","689316d881f1c6bdb11bc3fc","1","6744814c173b9afac78cf039","1","2025-08-06T09:05:02.022Z","","","","MotivationQ","","","","","","","","","","","50","","","","","","","","","","","","","","","","","","","","","","","","","","",""
"","","","","ctl-task-cpt","43","847200","0.0-7.0-0.6","133","1","2025-08-06 08:51:39","36c45c0696341be0efffe67d72a12abb","41.122.207.218","Mozilla/5.0 (Windows NT 10.0; Win64; x64) AppleWebKit/537.36 (KHTML, like Gecko) Chrome/138.0.0.0 Safari/537.36","WebKit","Chrome","138.0.0.0","Windows","10.0","https://app.prolific.com/","en-GB,en-US;q=0.9,en;q=0.8","6744814c173b9afac78cf039","6877649eabb845cf142cd221","689316d881f1c6bdb11bc3fc","1","6744814c173b9afac78cf039","1","2025-08-06T09:05:50.863Z","","","","","","","","","","","","","","","","win-only","3","g1:SW,g2:NE","0.4","7","0","806204.1","17803.6","22808.3","45786.5","1","4","8","6","2","8","8","30","22","0.22727272727272727","5004.7","3000","2080","[""up"",""right""]","{""num_key_presses"":6,""num_perfect"":4,""num_errors"":0,""num_randdir"":2,""num_randdir_good_moves"":2,""num_whilered"":0,""num_whileblue"":0,""num_blue"":2,""num_good_moves"":6}","[294.22232142857143,289.12857142857143,0.9,294.22232142857143,289.12857142857143,103.3,294.22232142857143,289.12857142857143,208.5,294.22232142857143,289.12857142857143,317.8,294.22232142857143,289.12857142857143,458.2,294.22232142857143,289.12857142857143,623.3,294.22232142857143,289.12857142857143,724.4,294.22232142857143,289.12857142857143,827.7,294.22232142857143,289.12857142857143,949.1,294.22232142857143,289.12857142857143,1075.6,294.22232142857143,289.12857142857143,1179.3,294.22232142857143,289.12857142857143,1282.3,294.22232142857143,289.12857142857143,1394.4,294.22232142857143,289.12857142857143,1521.8,294.22232142857143,289.12857142857143,1622.1,294.22232142857143,289.12857142857143,1754.4,294.22232142857143,289.12857142857143,1862.7,294.22232142857143,289.12857142857143,1982.8,294.22232142857143,289.12857142857143,2100.6,294.22232142857143,289.12857142857143,2202.5,294.22232142857143,289.12857142857143,2303.8,294.22232142857143,289.12857142857143,2411.9,294.22232142857143,289.12857142857143,2562.1,294.22232142857143,289.12857142857143,2662.9,294.22232142857143,289.12857142857143,2766.2,294.22232142857143,289.12857142857143,2867.7,294.22232142857143,289.12857142857143,2968.3,294.22232142857143,289.12857142857143,3104.4,294.22232142857143,289.12857142857143,3225.5,294.22232142857143,289.12857142857143,3326.4,294.22232142857143,289.12857142857143,3426.7,294.22232142857143,289.12857142857143,3563.3,294.22232142857143,289.12857142857143,3683.6,294.22232142857143,289.12857142857143,3825.6,294.22232142857143,289.12857142857143,3929,294.22232142857143,289.12857142857143,4051.5,294.22232142857143,289.12857142857143,4152,294.22232142857143,289.12857142857143,4267.3,294.22232142857143,289.12857142857143,4410.2,294.22232142857143,289.12857142857143,4512.7,294.22232142857143,289.12857142857143,4640.8,294.22232142857143,289.12857142857143,4746.6,294.22232142857143,289.12857142857143,4848.9,294.22232142857143,289.12857142857143,4994.7]","[1381.9,1381.9,1000,0,381.9,""smooth"",""right"",""right"",""good_move"",4944.4,3561.1,2944.5,1383.3,616.6,""smooth"",""right"",""right"",""good_move"",14458.3,9512.9,2187.2,11539.1,732,""oops"",""right"",""right"",""good_move"",17125.8,2665.6,2186.8,14460.2,478.8,""oops"",""up"",""up"",""good_move"",20022.9,2893.2,2087,17129.7,806.2,""smooth"",""up"",""up"",""good_move"",22727.4,2703.6,1778.5,20023.9,925,""smooth"",""up"",""up"",""good_move""]"
"7212","","<div style=""width:500px;"">
  <p>What determined the result of this run?</p>
  </div>","70","html-slider-response","44","854416","0.0-7.0-1.6","133","1","2025-08-06 08:51:39","36c45c0696341be0efffe67d72a12abb","41.122.207.218","Mozilla/5.0 (Windows NT 10.0; Win64; x64) AppleWebKit/537.36 (KHTML, like Gecko) Chrome/138.0.0.0 Safari/537.36","WebKit","Chrome","138.0.0.0","Windows","10.0","https://app.prolific.com/","en-GB,en-US;q=0.9,en;q=0.8","6744814c173b9afac78cf039","6877649eabb845cf142cd221","689316d881f1c6bdb11bc3fc","1","6744814c173b9afac78cf039","1","2025-08-06T09:05:58.079Z","","","","AttribQ","","","","","","","","","","","50","","","","","","","","","","","","","","","","","","","","","","","","","","",""
"7532","","<div style=""width:500px;"">
  <p>How much control did you have over the ball?</p>
  </div>","46","html-slider-response","45","861952","0.0-7.0-2.6","133","1","2025-08-06 08:51:39","36c45c0696341be0efffe67d72a12abb","41.122.207.218","Mozilla/5.0 (Windows NT 10.0; Win64; x64) AppleWebKit/537.36 (KHTML, like Gecko) Chrome/138.0.0.0 Safari/537.36","WebKit","Chrome","138.0.0.0","Windows","10.0","https://app.prolific.com/","en-GB,en-US;q=0.9,en;q=0.8","6744814c173b9afac78cf039","6877649eabb845cf142cd221","689316d881f1c6bdb11bc3fc","1","6744814c173b9afac78cf039","1","2025-08-06T09:06:05.614Z","","","","ControlQ","","","","","","","","","","","50","","","","","","","","","","","","","","","","","","","","","","","","","","",""
"6843","","<div style=""width:500px;"">
  <p>How would you describe your current emotional state?</p>
  </div>","65","html-slider-response","46","868797","0.0-7.0-3.6","133","1","2025-08-06 08:51:39","36c45c0696341be0efffe67d72a12abb","41.122.207.218","Mozilla/5.0 (Windows NT 10.0; Win64; x64) AppleWebKit/537.36 (KHTML, like Gecko) Chrome/138.0.0.0 Safari/537.36","WebKit","Chrome","138.0.0.0","Windows","10.0","https://app.prolific.com/","en-GB,en-US;q=0.9,en;q=0.8","6744814c173b9afac78cf039","6877649eabb845cf142cd221","689316d881f1c6bdb11bc3fc","1","6744814c173b9afac78cf039","1","2025-08-06T09:06:12.459Z","","","","StressQ","","","","","","","","","","","50","","","","","","","","","","","","","","","","","","","","","","","","","","",""
"8421","","<div style=""width:500px;"">
  <p>What best describes how you currently feel?</p>
  </div>","67","html-slider-response","47","877224","0.0-7.0-4.6","133","1","2025-08-06 08:51:39","36c45c0696341be0efffe67d72a12abb","41.122.207.218","Mozilla/5.0 (Windows NT 10.0; Win64; x64) AppleWebKit/537.36 (KHTML, like Gecko) Chrome/138.0.0.0 Safari/537.36","WebKit","Chrome","138.0.0.0","Windows","10.0","https://app.prolific.com/","en-GB,en-US;q=0.9,en;q=0.8","6744814c173b9afac78cf039","6877649eabb845cf142cd221","689316d881f1c6bdb11bc3fc","1","6744814c173b9afac78cf039","1","2025-08-06T09:06:20.886Z","","","","MotivationQ","","","","","","","","","","","50","","","","","","","","","","","","","","","","","","","","","","","","","","",""
"","","","","ctl-task-cpt","48","951250","0.0-7.0-0.7","133","1","2025-08-06 08:51:39","36c45c0696341be0efffe67d72a12abb","41.122.207.218","Mozilla/5.0 (Windows NT 10.0; Win64; x64) AppleWebKit/537.36 (KHTML, like Gecko) Chrome/138.0.0.0 Safari/537.36","WebKit","Chrome","138.0.0.0","Windows","10.0","https://app.prolific.com/","en-GB,en-US;q=0.9,en;q=0.8","6744814c173b9afac78cf039","6877649eabb845cf142cd221","689316d881f1c6bdb11bc3fc","1","6744814c173b9afac78cf039","1","2025-08-06T09:07:34.912Z","","","","","","","","","","","","","","","","win-only","1","g1:NE,g2:SW","0.3","8","0","885066.9","13427.1","18437.6","71004.9","1","4","4","6","2","-4","-5","25","30","0.1893939393939394","5010.5","3000","-975","[""down"",""left""]","{""num_key_presses"":12,""num_perfect"":3,""num_errors"":1,""num_randdir"":8,""num_randdir_good_moves"":1,""num_whilered"":0,""num_whileblue"":0,""num_blue"":3,""num_good_moves"":4}","[296.22232142857143,294.12857142857143,1,296.22232142857143,294.12857142857143,166.2,296.22232142857143,294.12857142857143,296.1,296.22232142857143,294.12857142857143,399.9,296.22232142857143,294.12857142857143,500.4,296.22232142857143,294.12857142857143,613.8,296.22232142857143,294.12857142857143,747.5,296.22232142857143,294.12857142857143,854.1,296.22232142857143,294.12857142857143,999.1,296.22232142857143,294.12857142857143,1100.2,296.22232142857143,294.12857142857143,1230.5,296.22232142857143,294.12857142857143,1350.1,296.22232142857143,294.12857142857143,1454.6,296.22232142857143,294.12857142857143,1591.5,296.22232142857143,294.12857142857143,1706.9,296.22232142857143,294.12857142857143,1810.1,296.22232142857143,294.12857142857143,1914.1,296.22232142857143,294.12857142857143,2017.7,296.22232142857143,294.12857142857143,2119.3,296.22232142857143,294.12857142857143,2220.5,296.22232142857143,294.12857142857143,2340.1,296.22232142857143,294.12857142857143,2451,296.22232142857143,294.12857142857143,2556.2,296.22232142857143,294.12857142857143,2682.9,296.22232142857143,294.12857142857143,2797.2,296.22232142857143,294.12857142857143,2936.7,296.22232142857143,294.12857142857143,3056.9,296.22232142857143,294.12857142857143,3184.3,296.22232142857143,294.12857142857143,3285.7,296.22232142857143,294.12857142857143,3426.3,296.22232142857143,294.12857142857143,3563.1,296.22232142857143,294.12857142857143,3700.1,296.22232142857143,294.12857142857143,3847.1,296.22232142857143,294.12857142857143,3949.4,296.22232142857143,294.12857142857143,4062.3,296.22232142857143,294.12857142857143,4171.4,296.22232142857143,294.12857142857143,4315.4,296.22232142857143,294.12857142857143,4458.3,296.22232142857143,294.12857142857143,4559.3,296.22232142857143,294.12857142857143,4668,296.22232142857143,294.12857142857143,4796.5,296.22232142857143,294.12857142857143,4899.7,296.22232142857143,294.12857142857143,4999.7]","[607.3,607.3,1000,0,-392.7,""error"",""-"",""-"",""no_move"",8555.5,7946.6,2402.3,5690.4,462.8,""oops"",""left"",""right"",""bad_move"",15521.5,6964.7,2388.9,12577.9,554.7,""oops"",""down"",""up"",""bad_move"",18694.1,3171.7,2184.6,15522.4,987.1,""oops"",""down"",""up"",""bad_move"",22210.7,3515.6,2859.7,18695.2,655.9,""smooth"",""down"",""down"",""good_move"",29118.4,6903.4,2945.8,25637.7,534.9,""smooth"",""down"",""down"",""good_move"",31564.8,2445.8,1568.2,29119.1,877.5,""smooth"",""down"",""down"",""good_move"",34985.1,3419.4,2412.6,31565.7,1006.8,""oops"",""down"",""right"",""bad_move"",38220.3,3234.1,2286.3,34986.2,947.8,""oops"",""down"",""up"",""bad_move"",41806.1,3581.4,3004.3,38224.7,577.1,""oops"",""left"",""up"",""bad_move"",45000.9,3193,2519.3,41807.9,673.7,""oops"",""left"",""up"",""bad_move"",48247.2,3245.3,2320.6,45001.9,924.7,""oops"",""left"",""left"",""good_move""]"
"4610","","<div style=""width:500px;"">
  <p>What determined the result of this run?</p>
  </div>","76","html-slider-response","49","955864","0.0-7.0-1.7","133","1","2025-08-06 08:51:39","36c45c0696341be0efffe67d72a12abb","41.122.207.218","Mozilla/5.0 (Windows NT 10.0; Win64; x64) AppleWebKit/537.36 (KHTML, like Gecko) Chrome/138.0.0.0 Safari/537.36","WebKit","Chrome","138.0.0.0","Windows","10.0","https://app.prolific.com/","en-GB,en-US;q=0.9,en;q=0.8","6744814c173b9afac78cf039","6877649eabb845cf142cd221","689316d881f1c6bdb11bc3fc","1","6744814c173b9afac78cf039","1","2025-08-06T09:07:39.526Z","","","","AttribQ","","","","","","","","","","","50","","","","","","","","","","","","","","","","","","","","","","","","","","",""
"10297","","<div style=""width:500px;"">
  <p>How much control did you have over the ball?</p>
  </div>","0","html-slider-response","50","966164","0.0-7.0-2.7","133","1","2025-08-06 08:51:39","36c45c0696341be0efffe67d72a12abb","41.122.207.218","Mozilla/5.0 (Windows NT 10.0; Win64; x64) AppleWebKit/537.36 (KHTML, like Gecko) Chrome/138.0.0.0 Safari/537.36","WebKit","Chrome","138.0.0.0","Windows","10.0","https://app.prolific.com/","en-GB,en-US;q=0.9,en;q=0.8","6744814c173b9afac78cf039","6877649eabb845cf142cd221","689316d881f1c6bdb11bc3fc","1","6744814c173b9afac78cf039","1","2025-08-06T09:07:49.826Z","","","","ControlQ","","","","","","","","","","","50","","","","","","","","","","","","","","","","","","","","","","","","","","",""
"7724","","<div style=""width:500px;"">
  <p>How would you describe your current emotional state?</p>
  </div>","97","html-slider-response","51","973891","0.0-7.0-3.7","133","1","2025-08-06 08:51:39","36c45c0696341be0efffe67d72a12abb","41.122.207.218","Mozilla/5.0 (Windows NT 10.0; Win64; x64) AppleWebKit/537.36 (KHTML, like Gecko) Chrome/138.0.0.0 Safari/537.36","WebKit","Chrome","138.0.0.0","Windows","10.0","https://app.prolific.com/","en-GB,en-US;q=0.9,en;q=0.8","6744814c173b9afac78cf039","6877649eabb845cf142cd221","689316d881f1c6bdb11bc3fc","1","6744814c173b9afac78cf039","1","2025-08-06T09:07:57.553Z","","","","StressQ","","","","","","","","","","","50","","","","","","","","","","","","","","","","","","","","","","","","","","",""
"38423","","<div style=""width:500px;"">
  <p>What best describes how you currently feel?</p>
  </div>","3","html-slider-response","52","1012317","0.0-7.0-4.7","133","1","2025-08-06 08:51:39","36c45c0696341be0efffe67d72a12abb","41.122.207.218","Mozilla/5.0 (Windows NT 10.0; Win64; x64) AppleWebKit/537.36 (KHTML, like Gecko) Chrome/138.0.0.0 Safari/537.36","WebKit","Chrome","138.0.0.0","Windows","10.0","https://app.prolific.com/","en-GB,en-US;q=0.9,en;q=0.8","6744814c173b9afac78cf039","6877649eabb845cf142cd221","689316d881f1c6bdb11bc3fc","1","6744814c173b9afac78cf039","1","2025-08-06T09:08:35.980Z","","","","MotivationQ","","","","","","","","","","","50","","","","","","","","","","","","","","","","","","","","","","","","","","",""
"","","","","ctl-task-cpt","53","1101217","0.0-7.0-0.8","133","1","2025-08-06 08:51:39","36c45c0696341be0efffe67d72a12abb","41.122.207.218","Mozilla/5.0 (Windows NT 10.0; Win64; x64) AppleWebKit/537.36 (KHTML, like Gecko) Chrome/138.0.0.0 Safari/537.36","WebKit","Chrome","138.0.0.0","Windows","10.0","https://app.prolific.com/","en-GB,en-US;q=0.9,en;q=0.8","6744814c173b9afac78cf039","6877649eabb845cf142cd221","689316d881f1c6bdb11bc3fc","1","6744814c173b9afac78cf039","1","2025-08-06T09:10:04.879Z","","","","","","","","","","","","","","","","win-only","2","g1:SE,g2:NW","0.4","9","0","1020160.8","17795","22828.8","85869.1","1","4","4","6","2","4","4","29","25","0.2196969696969697","5033.8","3000","160","[""left"",""up""]","{""num_key_presses"":16,""num_perfect"":8,""num_errors"":0,""num_randdir"":8,""num_randdir_good_moves"":3,""num_whilered"":0,""num_whileblue"":0,""num_blue"":3,""num_good_moves"":11}","[294.22232142857143,292.12857142857143,0.9,294.22232142857143,292.12857142857143,216.5,294.22232142857143,292.12857142857143,318.8,294.22232142857143,292.12857142857143,419.2,294.22232142857143,292.12857142857143,525.4,294.22232142857143,292.12857142857143,628.6,294.22232142857143,292.12857142857143,751.3,294.22232142857143,292.12857142857143,900.3,294.22232142857143,292.12857142857143,1012.6,294.22232142857143,292.12857142857143,1114.5,294.22232142857143,292.12857142857143,1218.9,294.22232142857143,292.12857142857143,1379.1,294.22232142857143,292.12857142857143,1568.2,294.22232142857143,292.12857142857143,1732.1,294.22232142857143,292.12857142857143,1835.5,294.22232142857143,292.12857142857143,1949.6,294.22232142857143,292.12857142857143,2058.2,294.22232142857143,292.12857142857143,2210.5,294.22232142857143,292.12857142857143,2328.2,294.22232142857143,292.12857142857143,2438.3,294.22232142857143,292.12857142857143,2542,294.22232142857143,292.12857142857143,2643,294.22232142857143,292.12857142857143,2763.2,294.22232142857143,292.12857142857143,2866.5,294.22232142857143,292.12857142857143,2973.6,294.22232142857143,292.12857142857143,3118.2,294.22232142857143,292.12857142857143,3240.2,294.22232142857143,292.12857142857143,3391.6,294.22232142857143,292.12857142857143,3497.3,294.22232142857143,292.12857142857143,3601.8,294.22232142857143,292.12857142857143,3728.3,294.22232142857143,292.12857142857143,3832.5,294.22232142857143,292.12857142857143,3938,294.22232142857143,292.12857142857143,4038.5,294.22232142857143,292.12857142857143,4159.8,294.22232142857143,292.12857142857143,4262.3,294.22232142857143,292.12857142857143,4425.2,294.22232142857143,292.12857142857143,4551,294.22232142857143,292.12857142857143,4651.7,294.22232142857143,292.12857142857143,4759,294.22232142857143,292.12857142857143,4877.8,294.22232142857143,292.12857142857143,4982.9]","[1737.7,1737.7,1000,0,737.7,""smooth"",""left"",""left"",""good_move"",4833.6,3094.7,2039.4,1738.9,1055.3,""smooth"",""left"",""left"",""good_move"",8001.1,3166.7,2624.9,4834.6,541.7,""oops"",""left"",""down"",""bad_move"",17042.5,9039.8,1655.2,14854.1,533.2,""smooth"",""left"",""left"",""good_move"",21746.9,4703.6,2397.3,17043.3,2306.4,""oops"",""up"",""down"",""bad_move"",25777.6,4021.8,3037.8,21755.8,984,""oops"",""up"",""right"",""bad_move"",29341.2,3562.6,2752.8,25778.7,809.8,""oops"",""up"",""up"",""good_move"",32728.1,3385.4,2883.4,29342.7,502,""smooth"",""up"",""up"",""good_move"",36101.3,3372.3,2149.2,32729,1223.1,""oops"",""up"",""right"",""bad_move"",41749.9,5646.6,2194.4,38905.6,649.9,""oops"",""up"",""right"",""bad_move"",45427,3676.5,3102.6,41750.6,573.8,""smooth"",""up"",""up"",""good_move"",48915.9,3487.9,3024.1,45428,463.8,""oops"",""up"",""left"",""good_move"",52779.1,3857.4,3423.2,48921.8,434.2,""oops"",""up"",""up"",""good_move"",56074.9,3292.3,2727.2,52782.6,565.1,""smooth"",""up"",""up"",""good_move"",59591.5,3515.3,3084,56076.4,431.1,""smooth"",""left"",""left"",""good_move"",62709.9,3117.2,2772.7,59592.8,344.4,""smooth"",""left"",""left"",""good_move""]"
"5456","","<div style=""width:500px;"">
  <p>What determined the result of this run?</p>
  </div>","82","html-slider-response","54","1106675","0.0-7.0-1.8","133","1","2025-08-06 08:51:39","36c45c0696341be0efffe67d72a12abb","41.122.207.218","Mozilla/5.0 (Windows NT 10.0; Win64; x64) AppleWebKit/537.36 (KHTML, like Gecko) Chrome/138.0.0.0 Safari/537.36","WebKit","Chrome","138.0.0.0","Windows","10.0","https://app.prolific.com/","en-GB,en-US;q=0.9,en;q=0.8","6744814c173b9afac78cf039","6877649eabb845cf142cd221","689316d881f1c6bdb11bc3fc","1","6744814c173b9afac78cf039","1","2025-08-06T09:10:10.337Z","","","","AttribQ","","","","","","","","","","","50","","","","","","","","","","","","","","","","","","","","","","","","","","",""
"8467","","<div style=""width:500px;"">
  <p>How much control did you have over the ball?</p>
  </div>","9","html-slider-response","55","1115146","0.0-7.0-2.8","133","1","2025-08-06 08:51:39","36c45c0696341be0efffe67d72a12abb","41.122.207.218","Mozilla/5.0 (Windows NT 10.0; Win64; x64) AppleWebKit/537.36 (KHTML, like Gecko) Chrome/138.0.0.0 Safari/537.36","WebKit","Chrome","138.0.0.0","Windows","10.0","https://app.prolific.com/","en-GB,en-US;q=0.9,en;q=0.8","6744814c173b9afac78cf039","6877649eabb845cf142cd221","689316d881f1c6bdb11bc3fc","1","6744814c173b9afac78cf039","1","2025-08-06T09:10:18.808Z","","","","ControlQ","","","","","","","","","","","50","","","","","","","","","","","","","","","","","","","","","","","","","","",""
"5699","","<div style=""width:500px;"">
  <p>How would you describe your current emotional state?</p>
  </div>","69","html-slider-response","56","1120847","0.0-7.0-3.8","133","1","2025-08-06 08:51:39","36c45c0696341be0efffe67d72a12abb","41.122.207.218","Mozilla/5.0 (Windows NT 10.0; Win64; x64) AppleWebKit/537.36 (KHTML, like Gecko) Chrome/138.0.0.0 Safari/537.36","WebKit","Chrome","138.0.0.0","Windows","10.0","https://app.prolific.com/","en-GB,en-US;q=0.9,en;q=0.8","6744814c173b9afac78cf039","6877649eabb845cf142cd221","689316d881f1c6bdb11bc3fc","1","6744814c173b9afac78cf039","1","2025-08-06T09:10:24.510Z","","","","StressQ","","","","","","","","","","","50","","","","","","","","","","","","","","","","","","","","","","","","","","",""
"5897","","<div style=""width:500px;"">
  <p>What best describes how you currently feel?</p>
  </div>","8","html-slider-response","57","1126747","0.0-7.0-4.8","133","1","2025-08-06 08:51:39","36c45c0696341be0efffe67d72a12abb","41.122.207.218","Mozilla/5.0 (Windows NT 10.0; Win64; x64) AppleWebKit/537.36 (KHTML, like Gecko) Chrome/138.0.0.0 Safari/537.36","WebKit","Chrome","138.0.0.0","Windows","10.0","https://app.prolific.com/","en-GB,en-US;q=0.9,en;q=0.8","6744814c173b9afac78cf039","6877649eabb845cf142cd221","689316d881f1c6bdb11bc3fc","1","6744814c173b9afac78cf039","1","2025-08-06T09:10:30.409Z","","","","MotivationQ","","","","","","","","","","","50","","","","","","","","","","","","","","","","","","","","","","","","","","",""
"","","","","ctl-task-cpt","58","1216458","0.0-7.0-0.9","133","1","2025-08-06 08:51:39","36c45c0696341be0efffe67d72a12abb","41.122.207.218","Mozilla/5.0 (Windows NT 10.0; Win64; x64) AppleWebKit/537.36 (KHTML, like Gecko) Chrome/138.0.0.0 Safari/537.36","WebKit","Chrome","138.0.0.0","Windows","10.0","https://app.prolific.com/","en-GB,en-US;q=0.9,en;q=0.8","6744814c173b9afac78cf039","6877649eabb845cf142cd221","689316d881f1c6bdb11bc3fc","1","6744814c173b9afac78cf039","1","2025-08-06T09:12:00.120Z","","","","","","","","","","","","","","","","win-only","0","g1:NW,g2:SE","0.5","10","0","1134592.6","14555.2","19864.1","86673","1","4","8","6","1","1","1","30","29","0.22727272727272727","5308.9","3000","880","[""left"",""up""]","{""num_key_presses"":12,""num_perfect"":7,""num_errors"":0,""num_randdir"":5,""num_randdir_good_moves"":1,""num_whilered"":0,""num_whileblue"":0,""num_blue"":6,""num_good_moves"":8}","[297.22232142857143,291.12857142857143,1.6,297.22232142857143,291.12857142857143,101.5,297.22232142857143,291.12857142857143,203.1,297.22232142857143,291.12857142857143,536,297.22232142857143,291.12857142857143,680,297.22232142857143,291.12857142857143,783.8,297.22232142857143,291.12857142857143,889.2,297.22232142857143,291.12857142857143,1170.3,297.22232142857143,291.12857142857143,1276.4,297.22232142857143,291.12857142857143,1378.7,297.22232142857143,291.12857142857143,1717.6,297.22232142857143,291.12857142857143,1826.9,297.22232142857143,291.12857142857143,1927.9,297.22232142857143,291.12857142857143,2456,297.22232142857143,291.12857142857143,2633.8,297.22232142857143,291.12857142857143,2786,297.22232142857143,291.12857142857143,3082,297.22232142857143,291.12857142857143,3188,297.22232142857143,291.12857142857143,3371.2,297.22232142857143,291.12857142857143,3482.4,297.22232142857143,291.12857142857143,3596.2,297.22232142857143,291.12857142857143,3991.9,297.22232142857143,291.12857142857143,4099.6,297.22232142857143,291.12857142857143,4203.6,297.22232142857143,291.12857142857143,4305.8,297.22232142857143,291.12857142857143,4622.1,297.22232142857143,291.12857142857143,4723,297.22232142857143,291.12857142857143,4825.5]","[1768.4,1768.4,1000,0,768.4,""smooth"",""left"",""left"",""good_move"",6409.5,4640,1920.4,1769.6,2719.5,""oops"",""left"",""right"",""bad_move"",9219,2808.1,1983.9,6411,824.1,""oops"",""up"",""right"",""bad_move"",12003.4,2783.4,1876.7,9220.1,906.6,""smooth"",""up"",""up"",""good_move"",16166.7,4162,2772.3,12004.7,1389.7,""smooth"",""up"",""up"",""good_move"",20258,4090.6,2708.5,16167.6,1382,""oops"",""left"",""left"",""good_move"",24196.2,3936.6,1872,20259.7,2064.5,""smooth"",""left"",""left"",""good_move"",28382.2,4185.1,2219.4,24197.3,1965.6,""oops"",""left"",""right"",""bad_move"",31546.5,3162.7,2298.9,28383.8,863.8,""smooth"",""left"",""left"",""good_move"",58280.5,26732.7,2537.3,55111.1,632.1,""oops"",""left"",""down"",""bad_move"",62324,4040.9,3239,58283.2,801.8,""smooth"",""left"",""left"",""good_move"",66504.4,4178.1,2480.6,62326.3,1697.5,""smooth"",""up"",""up"",""good_move""]"
"10090","","<div style=""width:500px;"">
  <p>What determined the result of this run?</p>
  </div>","96","html-slider-response","59","1226552","0.0-7.0-1.9","133","1","2025-08-06 08:51:39","36c45c0696341be0efffe67d72a12abb","41.122.207.218","Mozilla/5.0 (Windows NT 10.0; Win64; x64) AppleWebKit/537.36 (KHTML, like Gecko) Chrome/138.0.0.0 Safari/537.36","WebKit","Chrome","138.0.0.0","Windows","10.0","https://app.prolific.com/","en-GB,en-US;q=0.9,en;q=0.8","6744814c173b9afac78cf039","6877649eabb845cf142cd221","689316d881f1c6bdb11bc3fc","1","6744814c173b9afac78cf039","1","2025-08-06T09:12:10.214Z","","","","AttribQ","","","","","","","","","","","50","","","","","","","","","","","","","","","","","","","","","","","","","","",""
"10429","","<div style=""width:500px;"">
  <p>How much control did you have over the ball?</p>
  </div>","45","html-slider-response","60","1236985","0.0-7.0-2.9","133","1","2025-08-06 08:51:39","36c45c0696341be0efffe67d72a12abb","41.122.207.218","Mozilla/5.0 (Windows NT 10.0; Win64; x64) AppleWebKit/537.36 (KHTML, like Gecko) Chrome/138.0.0.0 Safari/537.36","WebKit","Chrome","138.0.0.0","Windows","10.0","https://app.prolific.com/","en-GB,en-US;q=0.9,en;q=0.8","6744814c173b9afac78cf039","6877649eabb845cf142cd221","689316d881f1c6bdb11bc3fc","1","6744814c173b9afac78cf039","1","2025-08-06T09:12:20.647Z","","","","ControlQ","","","","","","","","","","","50","","","","","","","","","","","","","","","","","","","","","","","","","","",""
"6133","","<div style=""width:500px;"">
  <p>How would you describe your current emotional state?</p>
  </div>","62","html-slider-response","61","1243121","0.0-7.0-3.9","133","1","2025-08-06 08:51:39","36c45c0696341be0efffe67d72a12abb","41.122.207.218","Mozilla/5.0 (Windows NT 10.0; Win64; x64) AppleWebKit/537.36 (KHTML, like Gecko) Chrome/138.0.0.0 Safari/537.36","WebKit","Chrome","138.0.0.0","Windows","10.0","https://app.prolific.com/","en-GB,en-US;q=0.9,en;q=0.8","6744814c173b9afac78cf039","6877649eabb845cf142cd221","689316d881f1c6bdb11bc3fc","1","6744814c173b9afac78cf039","1","2025-08-06T09:12:26.784Z","","","","StressQ","","","","","","","","","","","50","","","","","","","","","","","","","","","","","","","","","","","","","","",""
"6760","","<div style=""width:500px;"">
  <p>What best describes how you currently feel?</p>
  </div>","29","html-slider-response","62","1249885","0.0-7.0-4.9","133","1","2025-08-06 08:51:39","36c45c0696341be0efffe67d72a12abb","41.122.207.218","Mozilla/5.0 (Windows NT 10.0; Win64; x64) AppleWebKit/537.36 (KHTML, like Gecko) Chrome/138.0.0.0 Safari/537.36","WebKit","Chrome","138.0.0.0","Windows","10.0","https://app.prolific.com/","en-GB,en-US;q=0.9,en;q=0.8","6744814c173b9afac78cf039","6877649eabb845cf142cd221","689316d881f1c6bdb11bc3fc","1","6744814c173b9afac78cf039","1","2025-08-06T09:12:33.547Z","","","","MotivationQ","","","","","","","","","","","50","","","","","","","","","","","","","","","","","","","","","","","","","","",""
"","","","","ctl-task-cpt","63","1336905","0.0-7.0-0.10","133","1","2025-08-06 08:51:39","36c45c0696341be0efffe67d72a12abb","41.122.207.218","Mozilla/5.0 (Windows NT 10.0; Win64; x64) AppleWebKit/537.36 (KHTML, like Gecko) Chrome/138.0.0.0 Safari/537.36","WebKit","Chrome","138.0.0.0","Windows","10.0","https://app.prolific.com/","en-GB,en-US;q=0.9,en;q=0.8","6744814c173b9afac78cf039","6877649eabb845cf142cd221","689316d881f1c6bdb11bc3fc","1","6744814c173b9afac78cf039","1","2025-08-06T09:14:00.567Z","","","","","","","","","","","","","","","","win-only","2","g1:SE,g2:NW","0.6","11","0","1257731.1","12685.1","17690.7","83980","1","4","4","6","2","4","3","33","30","0.25","5005.6","3000","965","[""left"",""up""]","{""num_key_presses"":13,""num_perfect"":7,""num_errors"":1,""num_randdir"":5,""num_randdir_good_moves"":2,""num_whilered"":0,""num_whileblue"":0,""num_blue"":5,""num_good_moves"":9}","[296.22232142857143,301.12857142857143,0.9,296.22232142857143,301.12857142857143,103.3,296.22232142857143,301.12857142857143,263.7,296.22232142857143,301.12857142857143,369.8,296.22232142857143,301.12857142857143,471,296.22232142857143,301.12857142857143,578.7,296.22232142857143,301.12857142857143,878.2,296.22232142857143,301.12857142857143,1023.7,296.22232142857143,301.12857142857143,1130.5,296.22232142857143,301.12857142857143,1231.1,296.22232142857143,301.12857142857143,1481,296.22232142857143,301.12857142857143,1603.9,296.22232142857143,301.12857142857143,1750.7,296.22232142857143,301.12857142857143,1858.9,296.22232142857143,301.12857142857143,1970.6,296.22232142857143,301.12857142857143,2070.8,296.22232142857143,301.12857142857143,2176.9,296.22232142857143,301.12857142857143,2282.3,296.22232142857143,301.12857142857143,2581.2,296.22232142857143,301.12857142857143,2687.2,296.22232142857143,301.12857142857143,2792,296.22232142857143,301.12857142857143,3079,296.22232142857143,301.12857142857143,3181.2,296.22232142857143,301.12857142857143,3286.9,296.22232142857143,301.12857142857143,3596,296.22232142857143,301.12857142857143,3773.8,296.22232142857143,301.12857142857143,3899.8,296.22232142857143,301.12857142857143,4046.5,296.22232142857143,301.12857142857143,4147.7,296.22232142857143,301.12857142857143,4249.8,296.22232142857143,301.12857142857143,4366.7,296.22232142857143,301.12857142857143,4467.5,296.22232142857143,301.12857142857143,4578,296.22232142857143,301.12857142857143,4851.2,296.22232142857143,301.12857142857143,4954.8]","[1940.2,1940.3,1000,0,940.3,""smooth"",""left"",""left"",""good_move"",10170,8219.3,2577.8,6836.7,755.5,""smooth"",""left"",""left"",""good_move"",14541.6,4370.4,2930.7,10171.2,1439.7,""oops"",""left"",""down"",""bad_move"",17696,3152.8,2688.5,14543.2,464.3,""oops"",""left"",""right"",""bad_move"",20456,2757.1,2069.6,17698.9,687.5,""smooth"",""left"",""left"",""good_move"",24455.2,3997.3,2882.2,20457.9,1115.1,""smooth"",""left"",""left"",""good_move"",32892.6,8435.1,2667.9,29367,857.8,""oops"",""up"",""right"",""bad_move"",36964.2,4060.4,3528.6,32903.9,531.7,""smooth"",""up"",""up"",""good_move"",45215.3,8249.5,2398.7,44459.5,-1642.9,""error"",""-"",""-"",""no_move"",52803.7,7586.4,2475.2,49393.7,934.8,""oops"",""up"",""up"",""good_move"",57280.3,4475.8,2467.2,52804.5,2008.6,""smooth"",""up"",""up"",""good_move"",61259,3974.1,3004.7,57285,969.3,""oops"",""up"",""left"",""good_move"",65762.4,4502.1,3486.4,61260.3,1015.7,""smooth"",""up"",""up"",""good_move""]"
"5910","","<div style=""width:500px;"">
  <p>What determined the result of this run?</p>
  </div>","74","html-slider-response","64","1342820","0.0-7.0-1.10","133","1","2025-08-06 08:51:39","36c45c0696341be0efffe67d72a12abb","41.122.207.218","Mozilla/5.0 (Windows NT 10.0; Win64; x64) AppleWebKit/537.36 (KHTML, like Gecko) Chrome/138.0.0.0 Safari/537.36","WebKit","Chrome","138.0.0.0","Windows","10.0","https://app.prolific.com/","en-GB,en-US;q=0.9,en;q=0.8","6744814c173b9afac78cf039","6877649eabb845cf142cd221","689316d881f1c6bdb11bc3fc","1","6744814c173b9afac78cf039","1","2025-08-06T09:14:06.482Z","","","","AttribQ","","","","","","","","","","","50","","","","","","","","","","","","","","","","","","","","","","","","","","",""
"6952","","<div style=""width:500px;"">
  <p>How much control did you have over the ball?</p>
  </div>","63","html-slider-response","65","1349776","0.0-7.0-2.10","133","1","2025-08-06 08:51:39","36c45c0696341be0efffe67d72a12abb","41.122.207.218","Mozilla/5.0 (Windows NT 10.0; Win64; x64) AppleWebKit/537.36 (KHTML, like Gecko) Chrome/138.0.0.0 Safari/537.36","WebKit","Chrome","138.0.0.0","Windows","10.0","https://app.prolific.com/","en-GB,en-US;q=0.9,en;q=0.8","6744814c173b9afac78cf039","6877649eabb845cf142cd221","689316d881f1c6bdb11bc3fc","1","6744814c173b9afac78cf039","1","2025-08-06T09:14:13.438Z","","","","ControlQ","","","","","","","","","","","50","","","","","","","","","","","","","","","","","","","","","","","","","","",""
"6964","","<div style=""width:500px;"">
  <p>How would you describe your current emotional state?</p>
  </div>","69","html-slider-response","66","1356745","0.0-7.0-3.10","133","1","2025-08-06 08:51:39","36c45c0696341be0efffe67d72a12abb","41.122.207.218","Mozilla/5.0 (Windows NT 10.0; Win64; x64) AppleWebKit/537.36 (KHTML, like Gecko) Chrome/138.0.0.0 Safari/537.36","WebKit","Chrome","138.0.0.0","Windows","10.0","https://app.prolific.com/","en-GB,en-US;q=0.9,en;q=0.8","6744814c173b9afac78cf039","6877649eabb845cf142cd221","689316d881f1c6bdb11bc3fc","1","6744814c173b9afac78cf039","1","2025-08-06T09:14:20.407Z","","","","StressQ","","","","","","","","","","","50","","","","","","","","","","","","","","","","","","","","","","","","","","",""
"5158","","<div style=""width:500px;"">
  <p>What best describes how you currently feel?</p>
  </div>","68","html-slider-response","67","1361906","0.0-7.0-4.10","133","1","2025-08-06 08:51:39","36c45c0696341be0efffe67d72a12abb","41.122.207.218","Mozilla/5.0 (Windows NT 10.0; Win64; x64) AppleWebKit/537.36 (KHTML, like Gecko) Chrome/138.0.0.0 Safari/537.36","WebKit","Chrome","138.0.0.0","Windows","10.0","https://app.prolific.com/","en-GB,en-US;q=0.9,en;q=0.8","6744814c173b9afac78cf039","6877649eabb845cf142cd221","689316d881f1c6bdb11bc3fc","1","6744814c173b9afac78cf039","1","2025-08-06T09:14:25.569Z","","","","MotivationQ","","","","","","","","","","","50","","","","","","","","","","","","","","","","","","","","","","","","","","",""
"","","","","ctl-task-cpt","68","1420494","0.0-7.0-0.11","133","1","2025-08-06 08:51:39","36c45c0696341be0efffe67d72a12abb","41.122.207.218","Mozilla/5.0 (Windows NT 10.0; Win64; x64) AppleWebKit/537.36 (KHTML, like Gecko) Chrome/138.0.0.0 Safari/537.36","WebKit","Chrome","138.0.0.0","Windows","10.0","https://app.prolific.com/","en-GB,en-US;q=0.9,en;q=0.8","6744814c173b9afac78cf039","6877649eabb845cf142cd221","689316d881f1c6bdb11bc3fc","1","6744814c173b9afac78cf039","1","2025-08-06T09:15:24.157Z","","","","","","","","","","","","","","","","win-only","2","g1:SE,g2:NW","0.7","12","0","1369750.3","14752.2","19772.9","55544.9","1","4","8","6","1","1","1","34","33","0.25757575757575757","5020.6","3000","1355","[""down"",""right""]","{""num_key_presses"":10,""num_perfect"":7,""num_errors"":0,""num_randdir"":3,""num_randdir_good_moves"":0,""num_whilered"":0,""num_whileblue"":0,""num_blue"":1,""num_good_moves"":7}","[300.22232142857143,288.12857142857143,0.8,300.22232142857143,288.12857142857143,105.6,300.22232142857143,288.12857142857143,227,300.22232142857143,288.12857142857143,346.4,300.22232142857143,288.12857142857143,467.9,300.22232142857143,288.12857142857143,771.6,300.22232142857143,288.12857142857143,932.4,323.22232142857143,348.12857142857143,1037.3,323.22232142857143,348.12857142857143,1139.7,323.22232142857143,348.12857142857143,1241.4,323.22232142857143,348.12857142857143,1532.4,323.22232142857143,348.12857142857143,1727.2,323.22232142857143,348.12857142857143,1942.3,323.22232142857143,348.12857142857143,2064.3,323.22232142857143,348.12857142857143,2172.9,331.22232142857143,351.12857142857143,2283.1,337.22232142857143,343.12857142857143,2389.1,340.22232142857143,321.12857142857143,2495.3,334.22232142857143,340.12857142857143,2791.2,330.22232142857143,345.12857142857143,2914.4,317.22232142857143,347.12857142857143,3022.8,315.22232142857143,348.12857142857143,3138.1,308.22232142857143,340.12857142857143,3435.7,308.22232142857143,340.12857142857143,3552.3,308.22232142857143,340.12857142857143,3658.4,308.22232142857143,340.12857142857143,3764.8,307.22232142857143,338.12857142857143,4161.2,307.22232142857143,338.12857142857143,4262.9,307.22232142857143,338.12857142857143,4367.2,307.22232142857143,336.12857142857143,4912.3]","[1643.2,1643.2,1000,0,643.2,""oops"",""right"",""up"",""bad_move"",5673.5,4028.8,2573.7,1644.7,1455.1,""smooth"",""right"",""right"",""good_move"",8606.9,2931.1,2344.3,5675.8,586.8,""oops"",""right"",""left"",""bad_move"",16224.5,7614.8,2335.2,13317.2,572.1,""smooth"",""right"",""right"",""good_move"",19290.6,3065.3,2170.9,16225.3,894.4,""smooth"",""right"",""right"",""good_move"",22380.6,3088.9,2407.3,19291.8,681.5,""smooth"",""down"",""down"",""good_move"",25447.3,3065.2,2346.6,22382.1,718.6,""oops"",""down"",""up"",""bad_move"",29783.1,4333.2,2992.8,25450,1340.4,""smooth"",""down"",""down"",""good_move"",32923.8,3138.9,1825.5,29785,1313.3,""smooth"",""down"",""down"",""good_move"",35472,2546.5,1572.2,32925.7,974.2,""smooth"",""down"",""down"",""good_move""]"
"21628","","<div style=""width:500px;"">
  <p>What determined the result of this run?</p>
  </div>","79","html-slider-response","69","1442127","0.0-7.0-1.11","133","1","2025-08-06 08:51:39","36c45c0696341be0efffe67d72a12abb","41.122.207.218","Mozilla/5.0 (Windows NT 10.0; Win64; x64) AppleWebKit/537.36 (KHTML, like Gecko) Chrome/138.0.0.0 Safari/537.36","WebKit","Chrome","138.0.0.0","Windows","10.0","https://app.prolific.com/","en-GB,en-US;q=0.9,en;q=0.8","6744814c173b9afac78cf039","6877649eabb845cf142cd221","689316d881f1c6bdb11bc3fc","1","6744814c173b9afac78cf039","1","2025-08-06T09:15:45.789Z","","","","AttribQ","","","","","","","","","","","50","","","","","","","","","","","","","","","","","","","","","","","","","","",""
"12133","","<div style=""width:500px;"">
  <p>How much control did you have over the ball?</p>
  </div>","68","html-slider-response","70","1454265","0.0-7.0-2.11","133","1","2025-08-06 08:51:39","36c45c0696341be0efffe67d72a12abb","41.122.207.218","Mozilla/5.0 (Windows NT 10.0; Win64; x64) AppleWebKit/537.36 (KHTML, like Gecko) Chrome/138.0.0.0 Safari/537.36","WebKit","Chrome","138.0.0.0","Windows","10.0","https://app.prolific.com/","en-GB,en-US;q=0.9,en;q=0.8","6744814c173b9afac78cf039","6877649eabb845cf142cd221","689316d881f1c6bdb11bc3fc","1","6744814c173b9afac78cf039","1","2025-08-06T09:15:57.927Z","","","","ControlQ","","","","","","","","","","","50","","","","","","","","","","","","","","","","","","","","","","","","","","",""
"9647","","<div style=""width:500px;"">
  <p>How would you describe your current emotional state?</p>
  </div>","78","html-slider-response","71","1463928","0.0-7.0-3.11","133","1","2025-08-06 08:51:39","36c45c0696341be0efffe67d72a12abb","41.122.207.218","Mozilla/5.0 (Windows NT 10.0; Win64; x64) AppleWebKit/537.36 (KHTML, like Gecko) Chrome/138.0.0.0 Safari/537.36","WebKit","Chrome","138.0.0.0","Windows","10.0","https://app.prolific.com/","en-GB,en-US;q=0.9,en;q=0.8","6744814c173b9afac78cf039","6877649eabb845cf142cd221","689316d881f1c6bdb11bc3fc","1","6744814c173b9afac78cf039","1","2025-08-06T09:16:07.591Z","","","","StressQ","","","","","","","","","","","50","","","","","","","","","","","","","","","","","","","","","","","","","","",""
"12664","","<div style=""width:500px;"">
  <p>What best describes how you currently feel?</p>
  </div>","41","html-slider-response","72","1476597","0.0-7.0-4.11","133","1","2025-08-06 08:51:39","36c45c0696341be0efffe67d72a12abb","41.122.207.218","Mozilla/5.0 (Windows NT 10.0; Win64; x64) AppleWebKit/537.36 (KHTML, like Gecko) Chrome/138.0.0.0 Safari/537.36","WebKit","Chrome","138.0.0.0","Windows","10.0","https://app.prolific.com/","en-GB,en-US;q=0.9,en;q=0.8","6744814c173b9afac78cf039","6877649eabb845cf142cd221","689316d881f1c6bdb11bc3fc","1","6744814c173b9afac78cf039","1","2025-08-06T09:16:20.259Z","","","","MotivationQ","","","","","","","","","","","50","","","","","","","","","","","","","","","","","","","","","","","","","","",""
"","","","","ctl-task-cpt","73","1523465","0.0-7.0-0.12","133","1","2025-08-06 08:51:39","36c45c0696341be0efffe67d72a12abb","41.122.207.218","Mozilla/5.0 (Windows NT 10.0; Win64; x64) AppleWebKit/537.36 (KHTML, like Gecko) Chrome/138.0.0.0 Safari/537.36","WebKit","Chrome","138.0.0.0","Windows","10.0","https://app.prolific.com/","en-GB,en-US;q=0.9,en;q=0.8","6744814c173b9afac78cf039","6877649eabb845cf142cd221","689316d881f1c6bdb11bc3fc","1","6744814c173b9afac78cf039","1","2025-08-06T09:17:07.127Z","","","","","","","","","","","","","","","","win-only","1","g1:NE,g2:SW","0.8","13","0","1484440.4","14808.5","19817.6","43702.3","1","4","4","6","2","4","4","38","34","0.2878787878787879","5009.1","3000","1930","[""down"",""left""]","{""num_key_presses"":6,""num_perfect"":5,""num_errors"":0,""num_randdir"":1,""num_randdir_good_moves"":1,""num_whilered"":0,""num_whileblue"":0,""num_blue"":0,""num_good_moves"":6}","[300.22232142857143,293.12857142857143,1.6,300.22232142857143,293.12857142857143,121,300.22232142857143,293.12857142857143,462.6,300.22232142857143,293.12857142857143,572.2,300.22232142857143,293.12857142857143,677.5,300.22232142857143,293.12857142857143,781.9,300.22232142857143,293.12857142857143,885.6,300.22232142857143,293.12857142857143,994,300.22232142857143,293.12857142857143,1330.5,300.22232142857143,293.12857142857143,1451,300.22232142857143,293.12857142857143,1553.8,300.22232142857143,293.12857142857143,1654.9,300.22232142857143,293.12857142857143,1770.7,300.22232142857143,293.12857142857143,1891,300.22232142857143,293.12857142857143,2001.5,300.22232142857143,293.12857142857143,2105.5,300.22232142857143,293.12857142857143,2209.3,300.22232142857143,293.12857142857143,2312.5,300.22232142857143,293.12857142857143,2701.3,300.22232142857143,293.12857142857143,2804.1,300.22232142857143,293.12857142857143,2913.9,300.22232142857143,293.12857142857143,3024.9,300.22232142857143,293.12857142857143,3125.9,300.22232142857143,293.12857142857143,3245.3,300.22232142857143,293.12857142857143,3364.3,300.22232142857143,293.12857142857143,3474.6,300.22232142857143,293.12857142857143,3601.6,300.22232142857143,293.12857142857143,3701.6,300.22232142857143,293.12857142857143,3815.8,300.22232142857143,293.12857142857143,3919.2,300.22232142857143,293.12857142857143,4214.3,300.22232142857143,293.12857142857143,4320,300.22232142857143,293.12857142857143,4420.7,300.22232142857143,293.12857142857143,4771.2,300.22232142857143,293.12857142857143,4882.1,300.22232142857143,293.12857142857143,4989.7]","[1817.2,1817.2,1000,0,817.2,""smooth"",""left"",""left"",""good_move"",6379.7,4559.6,2334.4,1820.1,2225.2,""smooth"",""left"",""left"",""good_move"",10531.4,4150.6,3115.7,6381,1034.8,""smooth"",""left"",""left"",""good_move"",15551.8,5018.3,2256.6,10533.5,2761.7,""smooth"",""down"",""down"",""good_move"",19622.6,4067.4,2123.9,15555.3,1943.5,""oops"",""down"",""down"",""good_move"",23403.2,3779.7,3058.7,19623.6,721,""smooth"",""down"",""down"",""good_move""]"
"6087","","<div style=""width:500px;"">
  <p>What determined the result of this run?</p>
  </div>","81","html-slider-response","74","1529554","0.0-7.0-1.12","133","1","2025-08-06 08:51:39","36c45c0696341be0efffe67d72a12abb","41.122.207.218","Mozilla/5.0 (Windows NT 10.0; Win64; x64) AppleWebKit/537.36 (KHTML, like Gecko) Chrome/138.0.0.0 Safari/537.36","WebKit","Chrome","138.0.0.0","Windows","10.0","https://app.prolific.com/","en-GB,en-US;q=0.9,en;q=0.8","6744814c173b9afac78cf039","6877649eabb845cf142cd221","689316d881f1c6bdb11bc3fc","1","6744814c173b9afac78cf039","1","2025-08-06T09:17:13.216Z","","","","AttribQ","","","","","","","","","","","50","","","","","","","","","","","","","","","","","","","","","","","","","","",""
"10876","","<div style=""width:500px;"">
  <p>How much control did you have over the ball?</p>
  </div>","38","html-slider-response","75","1540434","0.0-7.0-2.12","133","1","2025-08-06 08:51:39","36c45c0696341be0efffe67d72a12abb","41.122.207.218","Mozilla/5.0 (Windows NT 10.0; Win64; x64) AppleWebKit/537.36 (KHTML, like Gecko) Chrome/138.0.0.0 Safari/537.36","WebKit","Chrome","138.0.0.0","Windows","10.0","https://app.prolific.com/","en-GB,en-US;q=0.9,en;q=0.8","6744814c173b9afac78cf039","6877649eabb845cf142cd221","689316d881f1c6bdb11bc3fc","1","6744814c173b9afac78cf039","1","2025-08-06T09:17:24.096Z","","","","ControlQ","","","","","","","","","","","50","","","","","","","","","","","","","","","","","","","","","","","","","","",""
"9252","","<div style=""width:500px;"">
  <p>How would you describe your current emotional state?</p>
  </div>","22","html-slider-response","76","1549692","0.0-7.0-3.12","133","1","2025-08-06 08:51:39","36c45c0696341be0efffe67d72a12abb","41.122.207.218","Mozilla/5.0 (Windows NT 10.0; Win64; x64) AppleWebKit/537.36 (KHTML, like Gecko) Chrome/138.0.0.0 Safari/537.36","WebKit","Chrome","138.0.0.0","Windows","10.0","https://app.prolific.com/","en-GB,en-US;q=0.9,en;q=0.8","6744814c173b9afac78cf039","6877649eabb845cf142cd221","689316d881f1c6bdb11bc3fc","1","6744814c173b9afac78cf039","1","2025-08-06T09:17:33.354Z","","","","StressQ","","","","","","","","","","","50","","","","","","","","","","","","","","","","","","","","","","","","","","",""
"6500","","<div style=""width:500px;"">
  <p>What best describes how you currently feel?</p>
  </div>","67","html-slider-response","77","1556196","0.0-7.0-4.12","133","1","2025-08-06 08:51:39","36c45c0696341be0efffe67d72a12abb","41.122.207.218","Mozilla/5.0 (Windows NT 10.0; Win64; x64) AppleWebKit/537.36 (KHTML, like Gecko) Chrome/138.0.0.0 Safari/537.36","WebKit","Chrome","138.0.0.0","Windows","10.0","https://app.prolific.com/","en-GB,en-US;q=0.9,en;q=0.8","6744814c173b9afac78cf039","6877649eabb845cf142cd221","689316d881f1c6bdb11bc3fc","1","6744814c173b9afac78cf039","1","2025-08-06T09:17:39.858Z","","","","MotivationQ","","","","","","","","","","","50","","","","","","","","","","","","","","","","","","","","","","","","","","",""
"","","","","ctl-task-cpt","78","1629531","0.0-7.0-0.13","133","1","2025-08-06 08:51:39","36c45c0696341be0efffe67d72a12abb","41.122.207.218","Mozilla/5.0 (Windows NT 10.0; Win64; x64) AppleWebKit/537.36 (KHTML, like Gecko) Chrome/138.0.0.0 Safari/537.36","WebKit","Chrome","138.0.0.0","Windows","10.0","https://app.prolific.com/","en-GB,en-US;q=0.9,en;q=0.8","6744814c173b9afac78cf039","6877649eabb845cf142cd221","689316d881f1c6bdb11bc3fc","1","6744814c173b9afac78cf039","1","2025-08-06T09:18:53.193Z","","","","","","","","","","","","","","","","win-only","2","g1:SE,g2:NW","0.9","14","0","1564039.6","13569.2","18582.5","69953.4","1","4","8","6","2","8","8","46","38","0.3484848484848485","5013.3","3000","1770","[""left"",""up""]","{""num_key_presses"":8,""num_perfect"":7,""num_errors"":0,""num_randdir"":1,""num_randdir_good_moves"":0,""num_whilered"":0,""num_whileblue"":0,""num_blue"":3,""num_good_moves"":7}","[298.22232142857143,295.12857142857143,2.9,298.22232142857143,295.12857142857143,103.3,298.22232142857143,295.12857142857143,426.6,298.22232142857143,295.12857142857143,530.7,298.22232142857143,295.12857142857143,641.1,360.22232142857143,475.12857142857143,1187.3,360.22232142857143,475.12857142857143,1293.6,360.22232142857143,475.12857142857143,1398.3,360.22232142857143,475.12857142857143,1734.7,360.22232142857143,475.12857142857143,1848.5,360.22232142857143,475.12857142857143,1954.8,360.22232142857143,475.12857142857143,2264.2,360.22232142857143,475.12857142857143,2370.1,360.22232142857143,475.12857142857143,2509,360.22232142857143,475.12857142857143,2610.4,360.22232142857143,475.12857142857143,2775.5,360.22232142857143,475.12857142857143,2881,360.22232142857143,475.12857142857143,3106.3,360.22232142857143,475.12857142857143,3214.4,360.22232142857143,475.12857142857143,3317.6,360.22232142857143,475.12857142857143,3666.4,360.22232142857143,475.12857142857143,3774.5,360.22232142857143,475.12857142857143,3876,360.22232142857143,475.12857142857143,4226.1,360.22232142857143,475.12857142857143,4333.6,360.22232142857143,475.12857142857143,4439.4,360.22232142857143,475.12857142857143,4787.2,360.22232142857143,475.12857142857143,4895,360.22232142857143,475.12857142857143,4995.7]","[2447.3,2447.3,1000,0,1447.3,""smooth"",""left"",""left"",""good_move"",9340.8,6892.1,2345.1,2448.7,4547,""smooth"",""left"",""left"",""good_move"",15148.9,5807.2,2891.3,9341.7,2915.9,""oops"",""left"",""down"",""bad_move"",25790.6,10638.7,2448.8,22764.1,577.7,""smooth"",""left"",""left"",""good_move"",30772.2,4980.5,2032,25791.7,2948.5,""smooth"",""up"",""up"",""good_move"",40225.4,9451.4,2492.8,36946.9,785.7,""smooth"",""up"",""up"",""good_move"",45217.8,4989.6,2362,40228.2,2627.6,""smooth"",""up"",""up"",""good_move"",50886.8,5668,2742,45218.8,2926,""smooth"",""up"",""up"",""good_move""]"
"18683","","<div style=""width:500px;"">
  <p>What determined the result of this run?</p>
