"rt","response_timestamp","stimulus","response","trial_type","trial_index","time_elapsed","internal_node_id","run_id","condition","recorded_at","source_code_version","ip","user_agent","device","browser","browser_version","platform","platform_version","referer","accept_language","PROLIFIC_PID","STUDY_ID","SESSION_ID","BATCH","prolific_id","batch","realtime","success","question_order","question_id","eventType","responses","item_order","radio_event_ids","radio_event_times","key_event_times","mouse_event_times","straightlining","zigzagging","honeypot","view_history","slider_start","which_type","canvas_config","goals_layout","control_level","trial_number","tutorial_trial_number","trial_start_time","phase1_start_time","phase2_start_time","phase3_start_time","goal_1_value","goal_1_distance","goal_2_value","goal_2_distance","goal_selected","outcome","outcome_total","participant_final_score","participant_initial_score","participant_final_score_prop","goal_choice_rt","allocated_time","allocated_time_remaining","goal_direction","counts","mouse_movements","key_presses"
"12287","1753865033522","<p style='font-size:40px;line-height:1.25'><strong>Welcome to the experiment!</strong></p><p style='font-size:1.1em;line-height:1.25'>Thank you for participanting in our experiment again! You will be asked to play the Dysfunctional Ball Game again. We will briefly recap the rules before we start.</p><p style='font-size:1.1em;line-height:1.25'>Press <strong>Next</strong> to continue.</p>","0","custom-html-button-response","0","12288","0.0-0.0","44","1","2025-07-30 08:43:43","36c45c0696341be0efffe67d72a12abb","78.137.214.242","Mozilla/5.0 (Windows NT 10.0; Win64; x64) AppleWebKit/537.36 (KHTML, like Gecko) Chrome/138.0.0.0 Safari/537.36","WebKit","Chrome","138.0.0.0","Windows","10.0","https://app.prolific.com/","en-US,en;q=0.9,pt-PT;q=0.8,pt;q=0.7","6744700ac7a3406e40f009c5","687a360dabe5252b5ada7185","6889dae574f3e18dfb7474cf","0","6744700ac7a3406e40f009c5","0","2025-07-30T08:43:53.523Z","","","","","","","","","","","","","","","","","","","","","","","","","","","","","","","","","","","","","","","","","",""
"6416","","","","fullscreen","1","19712","0.0-1.0","44","1","2025-07-30 08:43:43","36c45c0696341be0efffe67d72a12abb","78.137.214.242","Mozilla/5.0 (Windows NT 10.0; Win64; x64) AppleWebKit/537.36 (KHTML, like Gecko) Chrome/138.0.0.0 Safari/537.36","WebKit","Chrome","138.0.0.0","Windows","10.0","https://app.prolific.com/","en-US,en;q=0.9,pt-PT;q=0.8,pt;q=0.7","6744700ac7a3406e40f009c5","687a360dabe5252b5ada7185","6889dae574f3e18dfb7474cf","0","6744700ac7a3406e40f009c5","0","","true","","","","","","","","","","","","","","","","","","","","","","","","","","","","","","","","","","","","","","","","",""
"2744","1753865043691"," <p style='font-size:1.1em;line-height:1.25'>Thank you for closing all other tabs.</p><p style='font-size:1.1em;line-height:1.25'>We will now invite you to fill in some questionnaires, before starting the game.<br>This will take about 5 minutes.<br></p><p style='font-size:1.1em;line-height:1.25'>Press the <strong>Next</strong> button to continue.</p>","0","custom-html-button-response","2","22456","0.0-2.0","44","1","2025-07-30 08:43:43","36c45c0696341be0efffe67d72a12abb","78.137.214.242","Mozilla/5.0 (Windows NT 10.0; Win64; x64) AppleWebKit/537.36 (KHTML, like Gecko) Chrome/138.0.0.0 Safari/537.36","WebKit","Chrome","138.0.0.0","Windows","10.0","https://app.prolific.com/","en-US,en;q=0.9,pt-PT;q=0.8,pt;q=0.7","6744700ac7a3406e40f009c5","687a360dabe5252b5ada7185","6889dae574f3e18dfb7474cf","0","6744700ac7a3406e40f009c5","0","2025-07-30T08:44:03.691Z","","","","","","","","","","","","","","","","","","","","","","","","","","","","","","","","","","","","","","","","","",""
"1591","","","{""assigned_sex"":""female""}","survey-multi-choice","3","24048","0.0-3.0-0.0","44","1","2025-07-30 08:43:43","36c45c0696341be0efffe67d72a12abb","78.137.214.242","Mozilla/5.0 (Windows NT 10.0; Win64; x64) AppleWebKit/537.36 (KHTML, like Gecko) Chrome/138.0.0.0 Safari/537.36","WebKit","Chrome","138.0.0.0","Windows","10.0","https://app.prolific.com/","en-US,en;q=0.9,pt-PT;q=0.8,pt;q=0.7","6744700ac7a3406e40f009c5","687a360dabe5252b5ada7185","6889dae574f3e18dfb7474cf","0","6744700ac7a3406e40f009c5","0","","","[0]","0","demographics","","","","","","","","","","","","","","","","","","","","","","","","","","","","","","","","","","","","","",""
"3294","1753865048577","<p style='font-size:1.1em;line-height:1.25'>In the following, we will perform a baseline assessment. This means that we will ask you a few questions relating to your experiences over the past month.<br></p><p style='font-size:1.1em;line-height:1.25'>Press the <strong>Next</strong> button to continue.</p>","0","custom-html-button-response","4","27343","0.0-4.0-0.0","44","1","2025-07-30 08:43:43","36c45c0696341be0efffe67d72a12abb","78.137.214.242","Mozilla/5.0 (Windows NT 10.0; Win64; x64) AppleWebKit/537.36 (KHTML, like Gecko) Chrome/138.0.0.0 Safari/537.36","WebKit","Chrome","138.0.0.0","Windows","10.0","https://app.prolific.com/","en-US,en;q=0.9,pt-PT;q=0.8,pt;q=0.7","6744700ac7a3406e40f009c5","687a360dabe5252b5ada7185","6889dae574f3e18dfb7474cf","0","6744700ac7a3406e40f009c5","0","2025-07-30T08:44:08.578Z","","","","","","","","","","","","","","","","","","","","","","","","","","","","","","","","","","","","","","","","","",""
"58701.39999999991","","","","survey-template","5","86046","0.0-4.0-1.0","44","1","2025-07-30 08:43:43","36c45c0696341be0efffe67d72a12abb","78.137.214.242","Mozilla/5.0 (Windows NT 10.0; Win64; x64) AppleWebKit/537.36 (KHTML, like Gecko) Chrome/138.0.0.0 Safari/537.36","WebKit","Chrome","138.0.0.0","Windows","10.0","https://app.prolific.com/","en-US,en;q=0.9,pt-PT;q=0.8,pt;q=0.7","6744700ac7a3406e40f009c5","687a360dabe5252b5ada7185","6889dae574f3e18dfb7474cf","0","6744700ac7a3406e40f009c5","0","2025-07-30T08:45:07.281Z","","","","pss","{""Q01"":""1"",""Q02"":""1"",""Q03"":""1"",""Q04"":""2"",""Q05"":""1"",""Q06"":""1"",""Q07"":""1"",""Q08"":""1"",""Q09"":""2"",""Q10"":""1""}","[0,1,2,3,4,5,6,7,8,9]","[""Q01"",""Q01"",""Q02"",""Q03"",""Q04"",""Q04"",""Q05"",""Q06"",""Q07"",""Q08"",""Q09"",""Q10""]","[7274.399999999907,11239.79999999993,14608.199999999953,16958.5,22491,23998.199999999953,28160.5,36321.29999999993,41622,44822.39999999991,53299.19999999995,57867.79999999993]","[]","[0.19999999995343387,6647.29999999993,7274.399999999907,11239.79999999993,14608.199999999953,16958.5,22491,23998.199999999953,28160.5,36321.29999999993,40811.89999999991,41622,44822.39999999991,53299.19999999995,57300.69999999995,57867.79999999993,58699.89999999991]","0.5","0.4444444444444444","0","","","","","","","","","","","","","","","","","","","","","","","","","","","","",""
"2320","1753865109602","<p style='font-size:1.1em;line-height:1.25'>Thank you for your answers! Now we will ask you a few more questions relating to your feelings in the last 24 hours.<br></p><p style='font-size:1.1em;line-height:1.25'>Press the <strong>Next</strong> button to continue.</p>","0","custom-html-button-response","6","88367","0.0-4.0-2.0","44","1","2025-07-30 08:43:43","36c45c0696341be0efffe67d72a12abb","78.137.214.242","Mozilla/5.0 (Windows NT 10.0; Win64; x64) AppleWebKit/537.36 (KHTML, like Gecko) Chrome/138.0.0.0 Safari/537.36","WebKit","Chrome","138.0.0.0","Windows","10.0","https://app.prolific.com/","en-US,en;q=0.9,pt-PT;q=0.8,pt;q=0.7","6744700ac7a3406e40f009c5","687a360dabe5252b5ada7185","6889dae574f3e18dfb7474cf","0","6744700ac7a3406e40f009c5","0","2025-07-30T08:45:09.602Z","","","","","","","","","","","","","","","","","","","","","","","","","","","","","","","","","","","","","","","","","",""
"61054.10000000009","","","","survey-template","7","149424","0.0-4.0-3.0","44","1","2025-07-30 08:43:43","36c45c0696341be0efffe67d72a12abb","78.137.214.242","Mozilla/5.0 (Windows NT 10.0; Win64; x64) AppleWebKit/537.36 (KHTML, like Gecko) Chrome/138.0.0.0 Safari/537.36","WebKit","Chrome","138.0.0.0","Windows","10.0","https://app.prolific.com/","en-US,en;q=0.9,pt-PT;q=0.8,pt;q=0.7","6744700ac7a3406e40f009c5","687a360dabe5252b5ada7185","6889dae574f3e18dfb7474cf","0","6744700ac7a3406e40f009c5","0","2025-07-30T08:46:10.659Z","","","","drsp","{""Q01"":""0"",""Q02"":""0"",""Q03"":""0"",""Q04"":""0"",""Q05"":""0"",""Q06"":""0"",""Q07"":""0"",""Q08"":""0"",""Q09"":""2"",""Q10"":""2"",""Q11"":""2"",""Q12"":""2"",""Q13"":""5"",""Q14"":""2"",""Q15"":""0"",""Q16"":""0"",""Q17"":""0"",""Q18"":""0"",""Q19"":""3"",""Q20"":""0"",""Q21"":""0"",""Q22"":""0""}","[0,1,2,3,4,5,6,7,8,9,10,11,12,13,14,15,16,17,18,19,20,21]","[""Q01"",""Q02"",""Q03"",""Q04"",""Q05"",""Q06"",""Q07"",""Q08"",""Q09"",""Q10"",""Q11"",""Q12"",""Q13"",""Q14"",""Q12"",""Q15"",""Q16"",""Q17"",""Q18"",""Q19"",""Q20"",""Q21"",""Q22""]","[2792.600000000093,4355.900000000023,5092.5,5887.800000000047,6758,8132.100000000093,10368.600000000093,11560.5,15020.800000000047,19324.300000000047,20210.5,23742.70000000007,26095.800000000047,30110.300000000047,32747.600000000093,36377.10000000009,39397.30000000005,43073.70000000007,43755.80000000005,49960.5,53723.90000000002,57359.20000000007,60310.60000000009]","[]","[0.10000000009313226,2792.600000000093,3479.70000000007,4355.900000000023,5092.5,5887.800000000047,6758,8132.100000000093,10368.600000000093,11560.5,15020.800000000047,19324.300000000047,20210.5,23742.70000000007,26095.800000000047,30110.300000000047,32747.600000000093,35975.10000000009,36377.10000000009,39397.30000000005,43073.70000000007,43755.80000000005,45031.10000000009,49960.5,53723.90000000002,57359.20000000007,60310.60000000009,61051.70000000007]","0.6818181818181818","0","0","","","","","","","","","","","","","","","","","","","","","","","","","","","","",""
"18685.400000000023","","","","survey-template","8","168110","0.0-4.0-4.0","44","1","2025-07-30 08:43:43","36c45c0696341be0efffe67d72a12abb","78.137.214.242","Mozilla/5.0 (Windows NT 10.0; Win64; x64) AppleWebKit/537.36 (KHTML, like Gecko) Chrome/138.0.0.0 Safari/537.36","WebKit","Chrome","138.0.0.0","Windows","10.0","https://app.prolific.com/","en-US,en;q=0.9,pt-PT;q=0.8,pt;q=0.7","6744700ac7a3406e40f009c5","687a360dabe5252b5ada7185","6889dae574f3e18dfb7474cf","0","6744700ac7a3406e40f009c5","0","2025-07-30T08:46:29.345Z","","","","stress","{""Q01"":""1"",""Q02"":""2"",""Q03"":""1""}","[0,1,2]","[""Q01"",""Q02"",""Q03"",""Q03""]","[4634.300000000047,13164.099999999977,15655.400000000023,17942.800000000047]","[]","[4634.300000000047,13164.099999999977,15655.400000000023,16982.699999999953,17942.800000000047,18684.800000000047]","0.6666666666666666","0","0","","","","","","","","","","","","","","","","","","","","","","","","","","","","",""
"31070","","","","instructions","9","199181","0.0-5.0-0.0","44","1","2025-07-30 08:43:43","36c45c0696341be0efffe67d72a12abb","78.137.214.242","Mozilla/5.0 (Windows NT 10.0; Win64; x64) AppleWebKit/537.36 (KHTML, like Gecko) Chrome/138.0.0.0 Safari/537.36","WebKit","Chrome","138.0.0.0","Windows","10.0","https://app.prolific.com/","en-US,en;q=0.9,pt-PT;q=0.8,pt;q=0.7","6744700ac7a3406e40f009c5","687a360dabe5252b5ada7185","6889dae574f3e18dfb7474cf","0","6744700ac7a3406e40f009c5","0","","","","","","","","","","","","","","","[{""page_index"":0,""viewing_time"":31070}]","","","","","","","","","","","","","","","","","","","","","","","","","","","",""
"8082","","<p>Before you start with this game please answer the following three questions yourself. </p>
  <p>Through this game, we measure several aspects of your cognitive performance, such as reaction times, multi-tasking capabilities </p>
  <p>and the ability to assess the situation you are in.</p>
  <p></p>
  <p><b>How good do you usually are in such tasks?</b></p>","88","html-slider-response","10","207264","0.0-6.0-0.0","44","1","2025-07-30 08:43:43","36c45c0696341be0efffe67d72a12abb","78.137.214.242","Mozilla/5.0 (Windows NT 10.0; Win64; x64) AppleWebKit/537.36 (KHTML, like Gecko) Chrome/138.0.0.0 Safari/537.36","WebKit","Chrome","138.0.0.0","Windows","10.0","https://app.prolific.com/","en-US,en;q=0.9,pt-PT;q=0.8,pt;q=0.7","6744700ac7a3406e40f009c5","687a360dabe5252b5ada7185","6889dae574f3e18dfb7474cf","0","6744700ac7a3406e40f009c5","0","2025-07-30T08:47:08.499Z","","","","PreSkillQ","","","","","","","","","","","50","","","","","","","","","","","","","","","","","","","","","","","","","","",""
"3811","","<div style=""width:500px;"">
  <p>How well do you think you will perform in this task compared to other participants?</p>
  </div>","75","html-slider-response","11","211075","0.0-6.0-1.0","44","1","2025-07-30 08:43:43","36c45c0696341be0efffe67d72a12abb","78.137.214.242","Mozilla/5.0 (Windows NT 10.0; Win64; x64) AppleWebKit/537.36 (KHTML, like Gecko) Chrome/138.0.0.0 Safari/537.36","WebKit","Chrome","138.0.0.0","Windows","10.0","https://app.prolific.com/","en-US,en;q=0.9,pt-PT;q=0.8,pt;q=0.7","6744700ac7a3406e40f009c5","687a360dabe5252b5ada7185","6889dae574f3e18dfb7474cf","0","6744700ac7a3406e40f009c5","0","2025-07-30T08:47:12.310Z","","","","PrePerfQ","","","","","","","","","","","50","","","","","","","","","","","","","","","","","","","","","","","","","","",""
"3334","","<div style=""width:500px;"">
  <p>What best describes how you currently feel?</p>
  </div>","40","html-slider-response","12","214409","0.0-6.0-2.0","44","1","2025-07-30 08:43:43","36c45c0696341be0efffe67d72a12abb","78.137.214.242","Mozilla/5.0 (Windows NT 10.0; Win64; x64) AppleWebKit/537.36 (KHTML, like Gecko) Chrome/138.0.0.0 Safari/537.36","WebKit","Chrome","138.0.0.0","Windows","10.0","https://app.prolific.com/","en-US,en;q=0.9,pt-PT;q=0.8,pt;q=0.7","6744700ac7a3406e40f009c5","687a360dabe5252b5ada7185","6889dae574f3e18dfb7474cf","0","6744700ac7a3406e40f009c5","0","2025-07-30T08:47:15.644Z","","","","PreMotivationQ","","","","","","","","","","","50","","","","","","","","","","","","","","","","","","","","","","","","","","",""
"","","","","ctl-task-cpt","13","243167","0.0-7.0-0.0","44","1","2025-07-30 08:43:43","36c45c0696341be0efffe67d72a12abb","78.137.214.242","Mozilla/5.0 (Windows NT 10.0; Win64; x64) AppleWebKit/537.36 (KHTML, like Gecko) Chrome/138.0.0.0 Safari/537.36","WebKit","Chrome","138.0.0.0","Windows","10.0","https://app.prolific.com/","en-US,en;q=0.9,pt-PT;q=0.8,pt;q=0.7","6744700ac7a3406e40f009c5","687a360dabe5252b5ada7185","6889dae574f3e18dfb7474cf","0","6744700ac7a3406e40f009c5","0","2025-07-30T08:47:44.402Z","","","","","","","","","","","","","","","","win-only","3","g1:SW,g2:NE","1","1","0","215343.7","2470.1","7470.6","25751.6","1","4","4","6","2","4","4","4","0","0.030303030303030304","5000.5","3000","685","[""up"",""right""]","{""num_key_presses"":6,""num_perfect"":6,""num_errors"":0,""num_randdir"":0,""num_randdir_good_moves"":0,""num_whilered"":0,""num_whileblue"":0,""num_blue"":0,""num_good_moves"":6}","[411.57142857142856,416.47767857142856,0.1,408.57142857142856,416.47767857142856,100.2,408.57142857142856,416.47767857142856,200.3,408.57142857142856,416.47767857142856,301.1,408.57142857142856,416.47767857142856,405.2,408.57142857142856,416.47767857142856,505.6,408.57142857142856,416.47767857142856,605.9,408.57142857142856,416.47767857142856,710.9,408.57142857142856,416.47767857142856,815.3,408.57142857142856,416.47767857142856,915.6,408.57142857142856,416.47767857142856,1016.2,408.57142857142856,416.47767857142856,1120.5,408.57142857142856,416.47767857142856,1225,408.57142857142856,416.47767857142856,1325.9,408.57142857142856,416.47767857142856,1430.2,408.57142857142856,416.47767857142856,1530.3,408.57142857142856,416.47767857142856,1631.8,408.57142857142856,416.47767857142856,1736.4,408.57142857142856,416.47767857142856,1840.7,408.57142857142856,416.47767857142856,1946.1,408.57142857142856,416.47767857142856,2051.1,408.57142857142856,416.47767857142856,2155.3,408.57142857142856,416.47767857142856,2260.7,408.57142857142856,416.47767857142856,2360.7,408.57142857142856,416.47767857142856,2465,408.57142857142856,416.47767857142856,2565.2,408.57142857142856,416.47767857142856,2666.4,408.57142857142856,416.47767857142856,2771.3,408.57142857142856,416.47767857142856,2875.9,408.57142857142856,416.47767857142856,2980.6,408.57142857142856,416.47767857142856,3081.3,408.57142857142856,416.47767857142856,3181.4,408.57142857142856,416.47767857142856,3286.7,408.57142857142856,416.47767857142856,3387,408.57142857142856,416.47767857142856,3490.3,408.57142857142856,416.47767857142856,3590.8,408.57142857142856,416.47767857142856,3695.7,408.57142857142856,416.47767857142856,3796.4,408.57142857142856,416.47767857142856,3896.8,408.57142857142856,416.47767857142856,4000.4,408.57142857142856,416.47767857142856,4105.4,408.57142857142856,416.47767857142856,4205.7,408.57142857142856,416.47767857142856,4310.2,408.57142857142856,416.47767857142856,4410.2,408.57142857142856,416.47767857142856,4510.6,408.57142857142856,416.47767857142856,4610.6,408.57142857142856,416.47767857142856,4716,408.57142857142856,416.47767857142856,4820.3,408.57142857142856,416.47767857142856,4920.4]","[1834.5,1834.5,1000,0,834.5,""smooth"",""right"",""right"",""good_move"",5181.7,3346.9,3071,1834.8,275.9,""smooth"",""up"",""up"",""good_move"",8664.7,3482.8,3194.7,5181.9,288.1,""smooth"",""right"",""right"",""good_move"",11681.7,3016.8,2668.3,8664.9,348.5,""smooth"",""up"",""up"",""good_move"",14316.8,2635,2346.9,11681.8,288.1,""smooth"",""right"",""right"",""good_move"",18190.7,3873.8,3559.1,14316.9,314.7,""smooth"",""up"",""up"",""good_move""]"
"2946","","<div style=""width:500px;"">
  <p>What determined the result of this run?</p>
  </div>","100","html-slider-response","14","246114","0.0-7.0-1.0","44","1","2025-07-30 08:43:43","36c45c0696341be0efffe67d72a12abb","78.137.214.242","Mozilla/5.0 (Windows NT 10.0; Win64; x64) AppleWebKit/537.36 (KHTML, like Gecko) Chrome/138.0.0.0 Safari/537.36","WebKit","Chrome","138.0.0.0","Windows","10.0","https://app.prolific.com/","en-US,en;q=0.9,pt-PT;q=0.8,pt;q=0.7","6744700ac7a3406e40f009c5","687a360dabe5252b5ada7185","6889dae574f3e18dfb7474cf","0","6744700ac7a3406e40f009c5","0","2025-07-30T08:47:47.349Z","","","","AttribQ","","","","","","","","","","","50","","","","","","","","","","","","","","","","","","","","","","","","","","",""
"3752","","<div style=""width:500px;"">
  <p>How much control did you have over the ball?</p>
  </div>","100","html-slider-response","15","249866","0.0-7.0-2.0","44","1","2025-07-30 08:43:43","36c45c0696341be0efffe67d72a12abb","78.137.214.242","Mozilla/5.0 (Windows NT 10.0; Win64; x64) AppleWebKit/537.36 (KHTML, like Gecko) Chrome/138.0.0.0 Safari/537.36","WebKit","Chrome","138.0.0.0","Windows","10.0","https://app.prolific.com/","en-US,en;q=0.9,pt-PT;q=0.8,pt;q=0.7","6744700ac7a3406e40f009c5","687a360dabe5252b5ada7185","6889dae574f3e18dfb7474cf","0","6744700ac7a3406e40f009c5","0","2025-07-30T08:47:51.101Z","","","","ControlQ","","","","","","","","","","","50","","","","","","","","","","","","","","","","","","","","","","","","","","",""
"7983","","<div style=""width:500px;"">
  <p>How would you describe your current emotional state?</p>
  </div>","26","html-slider-response","16","257850","0.0-7.0-3.0","44","1","2025-07-30 08:43:43","36c45c0696341be0efffe67d72a12abb","78.137.214.242","Mozilla/5.0 (Windows NT 10.0; Win64; x64) AppleWebKit/537.36 (KHTML, like Gecko) Chrome/138.0.0.0 Safari/537.36","WebKit","Chrome","138.0.0.0","Windows","10.0","https://app.prolific.com/","en-US,en;q=0.9,pt-PT;q=0.8,pt;q=0.7","6744700ac7a3406e40f009c5","687a360dabe5252b5ada7185","6889dae574f3e18dfb7474cf","0","6744700ac7a3406e40f009c5","0","2025-07-30T08:47:59.085Z","","","","StressQ","","","","","","","","","","","50","","","","","","","","","","","","","","","","","","","","","","","","","","",""
"3637","","<div style=""width:500px;"">
  <p>What best describes how you currently feel?</p>
  </div>","31","html-slider-response","17","261487","0.0-7.0-4.0","44","1","2025-07-30 08:43:43","36c45c0696341be0efffe67d72a12abb","78.137.214.242","Mozilla/5.0 (Windows NT 10.0; Win64; x64) AppleWebKit/537.36 (KHTML, like Gecko) Chrome/138.0.0.0 Safari/537.36","WebKit","Chrome","138.0.0.0","Windows","10.0","https://app.prolific.com/","en-US,en;q=0.9,pt-PT;q=0.8,pt;q=0.7","6744700ac7a3406e40f009c5","687a360dabe5252b5ada7185","6889dae574f3e18dfb7474cf","0","6744700ac7a3406e40f009c5","0","2025-07-30T08:48:02.722Z","","","","MotivationQ","","","","","","","","","","","50","","","","","","","","","","","","","","","","","","","","","","","","","","",""
"","","","","ctl-task-cpt","18","296669","0.0-7.0-0.1","44","1","2025-07-30 08:43:43","36c45c0696341be0efffe67d72a12abb","78.137.214.242","Mozilla/5.0 (Windows NT 10.0; Win64; x64) AppleWebKit/537.36 (KHTML, like Gecko) Chrome/138.0.0.0 Safari/537.36","WebKit","Chrome","138.0.0.0","Windows","10.0","https://app.prolific.com/","en-US,en;q=0.9,pt-PT;q=0.8,pt;q=0.7","6744700ac7a3406e40f009c5","687a360dabe5252b5ada7185","6889dae574f3e18dfb7474cf","0","6744700ac7a3406e40f009c5","0","2025-07-30T08:48:37.904Z","","","","","","","","","","","","","","","","win-only","0","g1:NW,g2:SE","0.9","2","0","262421.1","1299.5","6300.9","32165.6","1","4","8","6","1","1","0","4","4","0.030303030303030304","5001.4","3000","30","[""left"",""up""]","{""num_key_presses"":7,""num_perfect"":5,""num_errors"":1,""num_randdir"":1,""num_randdir_good_moves"":1,""num_whilered"":0,""num_whileblue"":0,""num_blue"":2,""num_good_moves"":5}","[415.57142857142856,417.47767857142856,0.1,415.57142857142856,417.47767857142856,100.8,415.57142857142856,417.47767857142856,200.8,414.57142857142856,417.47767857142856,302.2,414.57142857142856,417.47767857142856,405.7,414.57142857142856,417.47767857142856,505.9,414.57142857142856,417.47767857142856,606.8,414.57142857142856,417.47767857142856,712,414.57142857142856,417.47767857142856,815.9,414.57142857142856,417.47767857142856,916.7,414.57142857142856,417.47767857142856,1016.9,414.57142857142856,417.47767857142856,1121.1,414.57142857142856,417.47767857142856,1226.6,414.57142857142856,417.47767857142856,1326.8,414.57142857142856,417.47767857142856,1431.1,414.57142857142856,417.47767857142856,1537.1,414.57142857142856,417.47767857142856,1641.1,414.57142857142856,417.47767857142856,1741.3,414.57142857142856,417.47767857142856,1841.6,414.57142857142856,417.47767857142856,1941.9,414.57142857142856,417.47767857142856,2046.8,414.57142857142856,417.47767857142856,2147.1,414.57142857142856,417.47767857142856,2252.4,414.57142857142856,417.47767857142856,2352.5,414.57142857142856,417.47767857142856,2456.1,414.57142857142856,417.47767857142856,2560.6,414.57142857142856,417.47767857142856,2661.9,414.57142857142856,417.47767857142856,2762,414.57142857142856,417.47767857142856,2866.3,414.57142857142856,417.47767857142856,2970.6,414.57142857142856,417.47767857142856,3071.2,414.57142857142856,417.47767857142856,3176.5,414.57142857142856,417.47767857142856,3282.6,414.57142857142856,417.47767857142856,3386.6,414.57142857142856,417.47767857142856,3487,414.57142857142856,417.47767857142856,3591.9,414.57142857142856,417.47767857142856,3695.6,414.57142857142856,417.47767857142856,3796.5,414.57142857142856,417.47767857142856,3896.9,414.57142857142856,417.47767857142856,3997,414.57142857142856,417.47767857142856,4101,414.57142857142856,417.47767857142856,4201.7,414.57142857142856,417.47767857142856,4307.1,414.57142857142856,417.47767857142856,4411.1,414.57142857142856,417.47767857142856,4511.6,414.57142857142856,417.47767857142856,4611.8,414.57142857142856,417.47767857142856,4712,414.57142857142856,417.47767857142856,4817.6,414.57142857142856,417.47767857142856,4921.5]","[410.1,410.1,1000,0,-589.9,""error"",""-"",""-"",""no_move"",3891.1,3480.8,2195.7,1414.4,281,""smooth"",""down"",""down"",""bad_move"",7354,3462.7,2728.3,3891.3,734.4,""smooth"",""up"",""up"",""good_move"",9793,2438.8,2054.3,7354.2,384.5,""oops"",""up"",""up"",""good_move"",19544,9750.7,2438.7,16065,1040.3,""smooth"",""left"",""left"",""good_move"",22622.9,3078.7,2741.6,19544.2,337.1,""smooth"",""left"",""left"",""good_move"",25775.9,3152.8,2908.8,22623.1,244,""smooth"",""up"",""up"",""good_move""]"
"3324","","<div style=""width:500px;"">
  <p>What determined the result of this run?</p>
  </div>","91","html-slider-response","19","299994","0.0-7.0-1.1","44","1","2025-07-30 08:43:43","36c45c0696341be0efffe67d72a12abb","78.137.214.242","Mozilla/5.0 (Windows NT 10.0; Win64; x64) AppleWebKit/537.36 (KHTML, like Gecko) Chrome/138.0.0.0 Safari/537.36","WebKit","Chrome","138.0.0.0","Windows","10.0","https://app.prolific.com/","en-US,en;q=0.9,pt-PT;q=0.8,pt;q=0.7","6744700ac7a3406e40f009c5","687a360dabe5252b5ada7185","6889dae574f3e18dfb7474cf","0","6744700ac7a3406e40f009c5","0","2025-07-30T08:48:41.229Z","","","","AttribQ","","","","","","","","","","","50","","","","","","","","","","","","","","","","","","","","","","","","","","",""
"2635","","<div style=""width:500px;"">
  <p>How much control did you have over the ball?</p>
  </div>","84","html-slider-response","20","302630","0.0-7.0-2.1","44","1","2025-07-30 08:43:43","36c45c0696341be0efffe67d72a12abb","78.137.214.242","Mozilla/5.0 (Windows NT 10.0; Win64; x64) AppleWebKit/537.36 (KHTML, like Gecko) Chrome/138.0.0.0 Safari/537.36","WebKit","Chrome","138.0.0.0","Windows","10.0","https://app.prolific.com/","en-US,en;q=0.9,pt-PT;q=0.8,pt;q=0.7","6744700ac7a3406e40f009c5","687a360dabe5252b5ada7185","6889dae574f3e18dfb7474cf","0","6744700ac7a3406e40f009c5","0","2025-07-30T08:48:43.865Z","","","","ControlQ","","","","","","","","","","","50","","","","","","","","","","","","","","","","","","","","","","","","","","",""
"2331","","<div style=""width:500px;"">
  <p>How would you describe your current emotional state?</p>
  </div>","32","html-slider-response","21","304961","0.0-7.0-3.1","44","1","2025-07-30 08:43:43","36c45c0696341be0efffe67d72a12abb","78.137.214.242","Mozilla/5.0 (Windows NT 10.0; Win64; x64) AppleWebKit/537.36 (KHTML, like Gecko) Chrome/138.0.0.0 Safari/537.36","WebKit","Chrome","138.0.0.0","Windows","10.0","https://app.prolific.com/","en-US,en;q=0.9,pt-PT;q=0.8,pt;q=0.7","6744700ac7a3406e40f009c5","687a360dabe5252b5ada7185","6889dae574f3e18dfb7474cf","0","6744700ac7a3406e40f009c5","0","2025-07-30T08:48:46.196Z","","","","StressQ","","","","","","","","","","","50","","","","","","","","","","","","","","","","","","","","","","","","","","",""
"2268","","<div style=""width:500px;"">
  <p>What best describes how you currently feel?</p>
  </div>","19","html-slider-response","22","307230","0.0-7.0-4.1","44","1","2025-07-30 08:43:43","36c45c0696341be0efffe67d72a12abb","78.137.214.242","Mozilla/5.0 (Windows NT 10.0; Win64; x64) AppleWebKit/537.36 (KHTML, like Gecko) Chrome/138.0.0.0 Safari/537.36","WebKit","Chrome","138.0.0.0","Windows","10.0","https://app.prolific.com/","en-US,en;q=0.9,pt-PT;q=0.8,pt;q=0.7","6744700ac7a3406e40f009c5","687a360dabe5252b5ada7185","6889dae574f3e18dfb7474cf","0","6744700ac7a3406e40f009c5","0","2025-07-30T08:48:48.465Z","","","","MotivationQ","","","","","","","","","","","50","","","","","","","","","","","","","","","","","","","","","","","","","","",""
"","","","","ctl-task-cpt","23","339895","0.0-7.0-0.2","44","1","2025-07-30 08:43:43","36c45c0696341be0efffe67d72a12abb","78.137.214.242","Mozilla/5.0 (Windows NT 10.0; Win64; x64) AppleWebKit/537.36 (KHTML, like Gecko) Chrome/138.0.0.0 Safari/537.36","WebKit","Chrome","138.0.0.0","Windows","10.0","https://app.prolific.com/","en-US,en;q=0.9,pt-PT;q=0.8,pt;q=0.7","6744700ac7a3406e40f009c5","687a360dabe5252b5ada7185","6889dae574f3e18dfb7474cf","0","6744700ac7a3406e40f009c5","0","2025-07-30T08:49:21.130Z","","","","","","","","","","","","","","","","win-only","1","g1:NE,g2:SW","0.8","3","0","308164.6","794.7","5795.4","29646.3","1","4","4","6","2","4","4","8","4","0.06060606060606061","933.5","3000","925","[""down"",""left""]","{""num_key_presses"":6,""num_perfect"":6,""num_errors"":0,""num_randdir"":0,""num_randdir_good_moves"":0,""num_whilered"":0,""num_whileblue"":0,""num_blue"":2,""num_good_moves"":6}","[409.57142857142856,417.47767857142856,0.2,409.57142857142856,417.47767857142856,100.8,419.57142857142856,438.47767857142856,201.3,454.57142857142856,497.47767857142856,301.5,437.57142857142856,524.4776785714286,405.5,292.57142857142856,592.4776785714286,507,134.57142857142856,672.4776785714286,610.5,103.57142857142857,703.4776785714286,711.1,83.57142857142857,722.4776785714286,811.6,84.57142857142857,742.4776785714286,915.7,83.57142857142857,742.4776785714286,1021,83.57142857142857,742.4776785714286,1126,104.57142857142857,738.4776785714286,1231.6,181.57142857142856,711.4776785714286,1331.6,271.57142857142856,670.4776785714286,1436.8,309.57142857142856,654.4776785714286,1541.6,344.57142857142856,631.4776785714286,1641.7,358.57142857142856,613.4776785714286,1746.7,359.57142857142856,612.4776785714286,1850.6,359.57142857142856,612.4776785714286,1951.6,359.57142857142856,612.4776785714286,2055.5,359.57142857142856,612.4776785714286,2155.5,359.57142857142856,612.4776785714286,2255.9,359.57142857142856,612.4776785714286,2356.5,359.57142857142856,612.4776785714286,2460.7,359.57142857142856,612.4776785714286,2561.6,359.57142857142856,612.4776785714286,2666.5,359.57142857142856,612.4776785714286,2771.2,359.57142857142856,612.4776785714286,2876.6,359.57142857142856,612.4776785714286,2977,359.57142857142856,612.4776785714286,3081.2,359.57142857142856,612.4776785714286,3181.4,359.57142857142856,612.4776785714286,3286.7,359.57142857142856,612.4776785714286,3386.7,359.57142857142856,612.4776785714286,3491.1,359.57142857142856,612.4776785714286,3591.7,359.57142857142856,612.4776785714286,3695.7,359.57142857142856,612.4776785714286,3796.3,359.57142857142856,612.4776785714286,3901,359.57142857142856,612.4776785714286,4006.4,359.57142857142856,612.4776785714286,4111.6,359.57142857142856,612.4776785714286,4215.8,359.57142857142856,612.4776785714286,4317,359.57142857142856,612.4776785714286,4420.6,359.57142857142856,612.4776785714286,4520.6,359.57142857142856,612.4776785714286,4626.5,359.57142857142856,612.4776785714286,4726.9,359.57142857142856,612.4776785714286,4830.4,359.57142857142856,612.4776785714286,4930.4]","[1309.1,1309.1,1000,0,309.1,""smooth"",""down"",""down"",""good_move"",4410,3100.7,2683.4,1309.3,417.3,""smooth"",""down"",""down"",""good_move"",7653.1,3243,2888.3,4410.1,354.7,""smooth"",""left"",""left"",""good_move"",13824.9,6171.7,1977,11470.7,377.2,""smooth"",""down"",""down"",""good_move"",20495.2,6670,2978.5,17145.8,370.9,""smooth"",""left"",""left"",""good_move"",23762,3266.7,2993.1,20495.4,273.5,""smooth"",""left"",""left"",""good_move""]"
"4406","","<div style=""width:500px;"">
  <p>What determined the result of this run?</p>
  </div>","100","html-slider-response","24","344301","0.0-7.0-1.2","44","1","2025-07-30 08:43:43","36c45c0696341be0efffe67d72a12abb","78.137.214.242","Mozilla/5.0 (Windows NT 10.0; Win64; x64) AppleWebKit/537.36 (KHTML, like Gecko) Chrome/138.0.0.0 Safari/537.36","WebKit","Chrome","138.0.0.0","Windows","10.0","https://app.prolific.com/","en-US,en;q=0.9,pt-PT;q=0.8,pt;q=0.7","6744700ac7a3406e40f009c5","687a360dabe5252b5ada7185","6889dae574f3e18dfb7474cf","0","6744700ac7a3406e40f009c5","0","2025-07-30T08:49:25.536Z","","","","AttribQ","","","","","","","","","","","50","","","","","","","","","","","","","","","","","","","","","","","","","","",""
"2373","","<div style=""width:500px;"">
  <p>How much control did you have over the ball?</p>
  </div>","79","html-slider-response","25","346675","0.0-7.0-2.2","44","1","2025-07-30 08:43:43","36c45c0696341be0efffe67d72a12abb","78.137.214.242","Mozilla/5.0 (Windows NT 10.0; Win64; x64) AppleWebKit/537.36 (KHTML, like Gecko) Chrome/138.0.0.0 Safari/537.36","WebKit","Chrome","138.0.0.0","Windows","10.0","https://app.prolific.com/","en-US,en;q=0.9,pt-PT;q=0.8,pt;q=0.7","6744700ac7a3406e40f009c5","687a360dabe5252b5ada7185","6889dae574f3e18dfb7474cf","0","6744700ac7a3406e40f009c5","0","2025-07-30T08:49:27.910Z","","","","ControlQ","","","","","","","","","","","50","","","","","","","","","","","","","","","","","","","","","","","","","","",""
"2746","","<div style=""width:500px;"">
  <p>How would you describe your current emotional state?</p>
  </div>","31","html-slider-response","26","349422","0.0-7.0-3.2","44","1","2025-07-30 08:43:43","36c45c0696341be0efffe67d72a12abb","78.137.214.242","Mozilla/5.0 (Windows NT 10.0; Win64; x64) AppleWebKit/537.36 (KHTML, like Gecko) Chrome/138.0.0.0 Safari/537.36","WebKit","Chrome","138.0.0.0","Windows","10.0","https://app.prolific.com/","en-US,en;q=0.9,pt-PT;q=0.8,pt;q=0.7","6744700ac7a3406e40f009c5","687a360dabe5252b5ada7185","6889dae574f3e18dfb7474cf","0","6744700ac7a3406e40f009c5","0","2025-07-30T08:49:30.657Z","","","","StressQ","","","","","","","","","","","50","","","","","","","","","","","","","","","","","","","","","","","","","","",""
"2437","","<div style=""width:500px;"">
  <p>What best describes how you currently feel?</p>
  </div>","39","html-slider-response","27","351860","0.0-7.0-4.2","44","1","2025-07-30 08:43:43","36c45c0696341be0efffe67d72a12abb","78.137.214.242","Mozilla/5.0 (Windows NT 10.0; Win64; x64) AppleWebKit/537.36 (KHTML, like Gecko) Chrome/138.0.0.0 Safari/537.36","WebKit","Chrome","138.0.0.0","Windows","10.0","https://app.prolific.com/","en-US,en;q=0.9,pt-PT;q=0.8,pt;q=0.7","6744700ac7a3406e40f009c5","687a360dabe5252b5ada7185","6889dae574f3e18dfb7474cf","0","6744700ac7a3406e40f009c5","0","2025-07-30T08:49:33.095Z","","","","MotivationQ","","","","","","","","","","","50","","","","","","","","","","","","","","","","","","","","","","","","","","",""
"","","","","ctl-task-cpt","28","377028","0.0-7.0-0.3","44","1","2025-07-30 08:43:43","36c45c0696341be0efffe67d72a12abb","78.137.214.242","Mozilla/5.0 (Windows NT 10.0; Win64; x64) AppleWebKit/537.36 (KHTML, like Gecko) Chrome/138.0.0.0 Safari/537.36","WebKit","Chrome","138.0.0.0","Windows","10.0","https://app.prolific.com/","en-US,en;q=0.9,pt-PT;q=0.8,pt;q=0.7","6744700ac7a3406e40f009c5","687a360dabe5252b5ada7185","6889dae574f3e18dfb7474cf","0","6744700ac7a3406e40f009c5","0","2025-07-30T08:49:58.263Z","","","","","","","","","","","","","","","","win-only","0","g1:NW,g2:SE","0.7","4","0","352794","806","5811.1","22150.3","1","4","8","6","2","8","8","16","8","0.12121212121212122","1173.1","3000","1195","[""down"",""right""]","{""num_key_presses"":6,""num_perfect"":5,""num_errors"":0,""num_randdir"":1,""num_randdir_good_moves"":1,""num_whilered"":0,""num_whileblue"":0,""num_blue"":0,""num_good_moves"":6}","[417.57142857142856,403.47767857142856,0.1,417.57142857142856,403.47767857142856,104.5,423.57142857142856,407.47767857142856,205.4,434.57142857142856,412.47767857142856,309.4,504.57142857142856,496.47767857142856,410.3,612.5714285714286,604.4776785714286,510.3,691.5714285714286,669.4776785714286,614.2,689.5714285714286,670.4776785714286,714.7,723.5714285714286,697.4776785714286,820.2,740.5714285714286,708.4776785714286,920.3,740.5714285714286,708.4776785714286,1020.6,740.5714285714286,708.4776785714286,1124.5,740.5714285714286,708.4776785714286,1229.9,740.5714285714286,708.4776785714286,1330.7,740.5714285714286,708.4776785714286,1434.2,741.5714285714286,693.4776785714286,1534.4,741.5714285714286,693.4776785714286,1634.5,741.5714285714286,693.4776785714286,1739.4,741.5714285714286,693.4776785714286,1839.7,741.5714285714286,693.4776785714286,1939.8,741.5714285714286,693.4776785714286,2040,741.5714285714286,693.4776785714286,2144.2,741.5714285714286,693.4776785714286,2250.3,741.5714285714286,693.4776785714286,2350.4,741.5714285714286,693.4776785714286,2455.4,741.5714285714286,693.4776785714286,2559.5,741.5714285714286,693.4776785714286,2659.9,741.5714285714286,693.4776785714286,2760.4,741.5714285714286,693.4776785714286,2860.4,741.5714285714286,693.4776785714286,2960.5,741.5714285714286,693.4776785714286,3064.2,741.5714285714286,693.4776785714286,3165.7,741.5714285714286,693.4776785714286,3269.4,741.5714285714286,693.4776785714286,3370.6,741.5714285714286,693.4776785714286,3475.8,741.5714285714286,693.4776785714286,3579.3,741.5714285714286,693.4776785714286,3679.5,741.5714285714286,693.4776785714286,3779.9,741.5714285714286,693.4776785714286,3880.3,741.5714285714286,693.4776785714286,3984.5,741.5714285714286,693.4776785714286,4089.5,741.5714285714286,693.4776785714286,4189.9,741.5714285714286,693.4776785714286,4290.1,741.5714285714286,693.4776785714286,4395.1,741.5714285714286,693.4776785714286,4500.3,741.5714285714286,693.4776785714286,4604.4,741.5714285714286,693.4776785714286,4704.4,741.5714285714286,693.4776785714286,4805.8,741.5714285714286,693.4776785714286,4910]","[1358,1358,1000,0,358,""smooth"",""down"",""down"",""good_move"",4238.8,2880.5,2533.8,1358.3,346.7,""smooth"",""right"",""right"",""good_move"",7654.4,3415.4,3115,4239,300.4,""oops"",""down"",""down"",""good_move"",10706.8,3052.2,2784.7,7654.6,267.5,""smooth"",""right"",""right"",""good_move"",13224,2517.1,2219.5,10706.9,297.6,""smooth"",""down"",""down"",""good_move"",16253.8,3029.6,2759.3,13224.2,270.3,""smooth"",""right"",""right"",""good_move""]"
"3370","","<div style=""width:500px;"">
  <p>What determined the result of this run?</p>
  </div>","67","html-slider-response","29","380398","0.0-7.0-1.3","44","1","2025-07-30 08:43:43","36c45c0696341be0efffe67d72a12abb","78.137.214.242","Mozilla/5.0 (Windows NT 10.0; Win64; x64) AppleWebKit/537.36 (KHTML, like Gecko) Chrome/138.0.0.0 Safari/537.36","WebKit","Chrome","138.0.0.0","Windows","10.0","https://app.prolific.com/","en-US,en;q=0.9,pt-PT;q=0.8,pt;q=0.7","6744700ac7a3406e40f009c5","687a360dabe5252b5ada7185","6889dae574f3e18dfb7474cf","0","6744700ac7a3406e40f009c5","0","2025-07-30T08:50:01.633Z","","","","AttribQ","","","","","","","","","","","50","","","","","","","","","","","","","","","","","","","","","","","","","","",""
"4019","","<div style=""width:500px;"">
  <p>How much control did you have over the ball?</p>
  </div>","82","html-slider-response","30","384417","0.0-7.0-2.3","44","1","2025-07-30 08:43:43","36c45c0696341be0efffe67d72a12abb","78.137.214.242","Mozilla/5.0 (Windows NT 10.0; Win64; x64) AppleWebKit/537.36 (KHTML, like Gecko) Chrome/138.0.0.0 Safari/537.36","WebKit","Chrome","138.0.0.0","Windows","10.0","https://app.prolific.com/","en-US,en;q=0.9,pt-PT;q=0.8,pt;q=0.7","6744700ac7a3406e40f009c5","687a360dabe5252b5ada7185","6889dae574f3e18dfb7474cf","0","6744700ac7a3406e40f009c5","0","2025-07-30T08:50:05.652Z","","","","ControlQ","","","","","","","","","","","50","","","","","","","","","","","","","","","","","","","","","","","","","","",""
"2305","","<div style=""width:500px;"">
  <p>How would you describe your current emotional state?</p>
  </div>","28","html-slider-response","31","386723","0.0-7.0-3.3","44","1","2025-07-30 08:43:43","36c45c0696341be0efffe67d72a12abb","78.137.214.242","Mozilla/5.0 (Windows NT 10.0; Win64; x64) AppleWebKit/537.36 (KHTML, like Gecko) Chrome/138.0.0.0 Safari/537.36","WebKit","Chrome","138.0.0.0","Windows","10.0","https://app.prolific.com/","en-US,en;q=0.9,pt-PT;q=0.8,pt;q=0.7","6744700ac7a3406e40f009c5","687a360dabe5252b5ada7185","6889dae574f3e18dfb7474cf","0","6744700ac7a3406e40f009c5","0","2025-07-30T08:50:07.958Z","","","","StressQ","","","","","","","","","","","50","","","","","","","","","","","","","","","","","","","","","","","","","","",""
"2359","","<div style=""width:500px;"">
  <p>What best describes how you currently feel?</p>
  </div>","35","html-slider-response","32","389082","0.0-7.0-4.3","44","1","2025-07-30 08:43:43","36c45c0696341be0efffe67d72a12abb","78.137.214.242","Mozilla/5.0 (Windows NT 10.0; Win64; x64) AppleWebKit/537.36 (KHTML, like Gecko) Chrome/138.0.0.0 Safari/537.36","WebKit","Chrome","138.0.0.0","Windows","10.0","https://app.prolific.com/","en-US,en;q=0.9,pt-PT;q=0.8,pt;q=0.7","6744700ac7a3406e40f009c5","687a360dabe5252b5ada7185","6889dae574f3e18dfb7474cf","0","6744700ac7a3406e40f009c5","0","2025-07-30T08:50:10.317Z","","","","MotivationQ","","","","","","","","","","","50","","","","","","","","","","","","","","","","","","","","","","","","","","",""
"","","","","ctl-task-cpt","33","421734","0.0-7.0-0.4","44","1","2025-07-30 08:43:43","36c45c0696341be0efffe67d72a12abb","78.137.214.242","Mozilla/5.0 (Windows NT 10.0; Win64; x64) AppleWebKit/537.36 (KHTML, like Gecko) Chrome/138.0.0.0 Safari/537.36","WebKit","Chrome","138.0.0.0","Windows","10.0","https://app.prolific.com/","en-US,en;q=0.9,pt-PT;q=0.8,pt;q=0.7","6744700ac7a3406e40f009c5","687a360dabe5252b5ada7185","6889dae574f3e18dfb7474cf","0","6744700ac7a3406e40f009c5","0","2025-07-30T08:50:42.969Z","","","","","","","","","","","","","","","","win-only","2","g1:SE,g2:NW","0.6","5","0","390016.1","758.9","5761.6","29635.9","1","4","8","6","1","1","1","17","16","0.12878787878787878","1383.1","3000","390","[""down"",""right""]","{""num_key_presses"":8,""num_perfect"":6,""num_errors"":0,""num_randdir"":2,""num_randdir_good_moves"":0,""num_whilered"":0,""num_whileblue"":0,""num_blue"":1,""num_good_moves"":6}","[407.57142857142856,420.47767857142856,0.1,407.57142857142856,420.47767857142856,103.4,407.57142857142856,420.47767857142856,206.8,407.57142857142856,420.47767857142856,307.4,405.57142857142856,419.47767857142856,407.6,381.57142857142856,396.47767857142856,511.9,364.57142857142856,381.47767857142856,616.8,345.57142857142856,365.47767857142856,721.3,234.57142857142856,266.47767857142856,821.4,211.57142857142856,236.47767857142856,922.2,541.5714285714286,542.4776785714286,1026.7,741.5714285714286,726.4776785714286,1127.5,743.5714285714286,733.4776785714286,1231.5,743.5714285714286,733.4776785714286,1331.5,744.5714285714286,733.4776785714286,1431.9,744.5714285714286,733.4776785714286,1532.1,747.5714285714286,727.4776785714286,1636.6,747.5714285714286,725.4776785714286,1741.8,747.5714285714286,725.4776785714286,1846.2,747.5714285714286,725.4776785714286,1946.6,747.5714285714286,725.4776785714286,2052.6,747.5714285714286,725.4776785714286,2156.6,747.5714285714286,725.4776785714286,2262.4,747.5714285714286,725.4776785714286,2366.3,747.5714285714286,725.4776785714286,2471.2,747.5714285714286,725.4776785714286,2572.7,747.5714285714286,725.4776785714286,2676.3,747.5714285714286,725.4776785714286,2776.5,747.5714285714286,725.4776785714286,2876.6,747.5714285714286,725.4776785714286,2977.4,747.5714285714286,725.4776785714286,3082,747.5714285714286,725.4776785714286,3186.2,747.5714285714286,725.4776785714286,3286.8,747.5714285714286,725.4776785714286,3387.5,747.5714285714286,725.4776785714286,3491.3,747.5714285714286,725.4776785714286,3591.3,747.5714285714286,725.4776785714286,3692.8,747.5714285714286,725.4776785714286,3797.2,747.5714285714286,725.4776785714286,3901.5,747.5714285714286,725.4776785714286,4001.7,747.5714285714286,725.4776785714286,4102.2,747.5714285714286,725.4776785714286,4206.9,747.5714285714286,725.4776785714286,4307.8,747.5714285714286,725.4776785714286,4411.5,747.5714285714286,725.4776785714286,4511.8,747.5714285714286,725.4776785714286,4612.1,747.5714285714286,725.4776785714286,4717.8,747.5714285714286,725.4776785714286,4821.3,747.5714285714286,725.4776785714286,4922.1]","[1321.4,1321.4,1000,0,321.4,""oops"",""down"",""up"",""bad_move"",4130.2,2808.5,2450.5,1321.7,358,""smooth"",""right"",""right"",""good_move"",6807.2,2676.8,2427.9,4130.4,248.9,""oops"",""down"",""left"",""bad_move"",9135.2,2327.8,1775.4,6807.5,552.4,""smooth"",""right"",""right"",""good_move"",12545.3,3409.9,3127.4,9135.4,282.5,""smooth"",""down"",""down"",""good_move"",15093.2,2547.6,2252.8,12545.6,294.8,""smooth"",""down"",""down"",""good_move"",21205.3,6111.9,2118,18819.7,267.6,""smooth"",""down"",""down"",""good_move"",23784.4,2579,2261.6,21205.4,317.4,""smooth"",""right"",""right"",""good_move""]"
"3500","","<div style=""width:500px;"">
  <p>What determined the result of this run?</p>
  </div>","66","html-slider-response","34","425235","0.0-7.0-1.4","44","1","2025-07-30 08:43:43","36c45c0696341be0efffe67d72a12abb","78.137.214.242","Mozilla/5.0 (Windows NT 10.0; Win64; x64) AppleWebKit/537.36 (KHTML, like Gecko) Chrome/138.0.0.0 Safari/537.36","WebKit","Chrome","138.0.0.0","Windows","10.0","https://app.prolific.com/","en-US,en;q=0.9,pt-PT;q=0.8,pt;q=0.7","6744700ac7a3406e40f009c5","687a360dabe5252b5ada7185","6889dae574f3e18dfb7474cf","0","6744700ac7a3406e40f009c5","0","2025-07-30T08:50:46.470Z","","","","AttribQ","","","","","","","","","","","50","","","","","","","","","","","","","","","","","","","","","","","","","","",""
"5183","","<div style=""width:500px;"">
  <p>How much control did you have over the ball?</p>
  </div>","48","html-slider-response","35","430418","0.0-7.0-2.4","44","1","2025-07-30 08:43:43","36c45c0696341be0efffe67d72a12abb","78.137.214.242","Mozilla/5.0 (Windows NT 10.0; Win64; x64) AppleWebKit/537.36 (KHTML, like Gecko) Chrome/138.0.0.0 Safari/537.36","WebKit","Chrome","138.0.0.0","Windows","10.0","https://app.prolific.com/","en-US,en;q=0.9,pt-PT;q=0.8,pt;q=0.7","6744700ac7a3406e40f009c5","687a360dabe5252b5ada7185","6889dae574f3e18dfb7474cf","0","6744700ac7a3406e40f009c5","0","2025-07-30T08:50:51.653Z","","","","ControlQ","","","","","","","","","","","50","","","","","","","","","","","","","","","","","","","","","","","","","","",""
"3274","","<div style=""width:500px;"">
  <p>How would you describe your current emotional state?</p>
  </div>","40","html-slider-response","36","433692","0.0-7.0-3.4","44","1","2025-07-30 08:43:43","36c45c0696341be0efffe67d72a12abb","78.137.214.242","Mozilla/5.0 (Windows NT 10.0; Win64; x64) AppleWebKit/537.36 (KHTML, like Gecko) Chrome/138.0.0.0 Safari/537.36","WebKit","Chrome","138.0.0.0","Windows","10.0","https://app.prolific.com/","en-US,en;q=0.9,pt-PT;q=0.8,pt;q=0.7","6744700ac7a3406e40f009c5","687a360dabe5252b5ada7185","6889dae574f3e18dfb7474cf","0","6744700ac7a3406e40f009c5","0","2025-07-30T08:50:54.928Z","","","","StressQ","","","","","","","","","","","50","","","","","","","","","","","","","","","","","","","","","","","","","","",""
"1773","","<div style=""width:500px;"">
  <p>What best describes how you currently feel?</p>
  </div>","43","html-slider-response","37","435466","0.0-7.0-4.4","44","1","2025-07-30 08:43:43","36c45c0696341be0efffe67d72a12abb","78.137.214.242","Mozilla/5.0 (Windows NT 10.0; Win64; x64) AppleWebKit/537.36 (KHTML, like Gecko) Chrome/138.0.0.0 Safari/537.36","WebKit","Chrome","138.0.0.0","Windows","10.0","https://app.prolific.com/","en-US,en;q=0.9,pt-PT;q=0.8,pt;q=0.7","6744700ac7a3406e40f009c5","687a360dabe5252b5ada7185","6889dae574f3e18dfb7474cf","0","6744700ac7a3406e40f009c5","0","2025-07-30T08:50:56.701Z","","","","MotivationQ","","","","","","","","","","","50","","","","","","","","","","","","","","","","","","","","","","","","","","",""
"","","","","ctl-task-cpt","38","480959","0.0-7.0-0.5","44","1","2025-07-30 08:43:43","36c45c0696341be0efffe67d72a12abb","78.137.214.242","Mozilla/5.0 (Windows NT 10.0; Win64; x64) AppleWebKit/537.36 (KHTML, like Gecko) Chrome/138.0.0.0 Safari/537.36","WebKit","Chrome","138.0.0.0","Windows","10.0","https://app.prolific.com/","en-US,en;q=0.9,pt-PT;q=0.8,pt;q=0.7","6744700ac7a3406e40f009c5","687a360dabe5252b5ada7185","6889dae574f3e18dfb7474cf","0","6744700ac7a3406e40f009c5","0","2025-07-30T08:51:42.194Z","","","","","","","","","","","","","","","","win-only","3","g1:SW,g2:NE","0.5","6","0","436400.1","806.8","5810.3","42476","1","4","4","6","2","-4","-6","11","17","0.08333333333333333","1107","3000","-3015","[""up"",""right""]","{""num_key_presses"":12,""num_perfect"":5,""num_errors"":2,""num_randdir"":5,""num_randdir_good_moves"":2,""num_whilered"":0,""num_whileblue"":0,""num_blue"":1,""num_good_moves"":7}","[420.57142857142856,418.47767857142856,0,420.57142857142856,418.47767857142856,103.4,420.57142857142856,418.47767857142856,204.1,420.57142857142856,424.47767857142856,309,398.57142857142856,476.47767857142856,413.4,398.57142857142856,477.47767857142856,518.2,398.57142857142856,485.47767857142856,619.6,411.57142857142856,483.47767857142856,723.9,661.5714285714286,186.47767857142856,824.2,766.5714285714286,112.47767857142857,929.7,766.5714285714286,121.47767857142857,1033.6,766.5714285714286,121.47767857142857,1139.2,766.5714285714286,121.47767857142857,1239.7,753.5714285714286,146.47767857142856,1344.1,752.5714285714286,150.47767857142856,1444.1,752.5714285714286,150.47767857142856,1549.5,752.5714285714286,150.47767857142856,1653.4,752.5714285714286,150.47767857142856,1754.1,752.5714285714286,150.47767857142856,1858.3,752.5714285714286,150.47767857142856,1959.1,752.5714285714286,150.47767857142856,2059.4,752.5714285714286,150.47767857142856,2163.3,752.5714285714286,150.47767857142856,2264.2,752.5714285714286,150.47767857142856,2369.6,752.5714285714286,150.47767857142856,2473.8,752.5714285714286,150.47767857142856,2573.8,752.5714285714286,150.47767857142856,2674,752.5714285714286,150.47767857142856,2778.4,752.5714285714286,150.47767857142856,2878.4,752.5714285714286,150.47767857142856,2979.6,752.5714285714286,150.47767857142856,3084.2,752.5714285714286,150.47767857142856,3189.2,752.5714285714286,150.47767857142856,3294.3,752.5714285714286,150.47767857142856,3398.4,752.5714285714286,150.47767857142856,3498.5,752.5714285714286,150.47767857142856,3599.1,752.5714285714286,150.47767857142856,3699.1,752.5714285714286,150.47767857142856,3799.3,752.5714285714286,150.47767857142856,3903.4,752.5714285714286,150.47767857142856,4003.6,752.5714285714286,150.47767857142856,4104.3,752.5714285714286,150.47767857142856,4209.3,752.5714285714286,150.47767857142856,4314.1,752.5714285714286,150.47767857142856,4418.9,752.5714285714286,150.47767857142856,4523.9,752.5714285714286,150.47767857142856,4624.4,752.5714285714286,150.47767857142856,4728.8,752.5714285714286,150.47767857142856,4828.8,752.5714285714286,150.47767857142856,4933.7]","[1339.6,1339.6,1000,0,339.6,""oops"",""up"",""up"",""good_move"",4388.5,3048.6,2727.8,1339.9,320.8,""oops"",""right"",""left"",""bad_move"",7167.7,2779,2448.1,4388.7,330.9,""smooth"",""up"",""up"",""good_move"",10460.4,3292.5,3014.8,7167.9,277.7,""oops"",""right"",""down"",""bad_move"",13200.6,2740,2432.3,10460.6,307.7,""smooth"",""right"",""right"",""good_move"",15293.5,2092.7,1781.8,13200.8,310.9,""oops"",""right"",""down"",""bad_move"",21852.5,6558.9,2306.5,19195.1,350.9,""smooth"",""up"",""up"",""good_move"",24597.6,2745,2512.3,21852.6,232.7,""oops"",""right"",""right"",""good_move"",27344.5,2746.6,2516.1,24597.9,230.5,""smooth"",""right"",""right"",""good_move"",29798.5,2453.9,2175.3,27344.6,278.6,""smooth"",""right"",""right"",""good_move"",31343.5,1544.9,2405.8,29798.7,-861,""error"",""-"",""-"",""no_move"",32599.5,1255.9,2183.7,32345.7,-1929.9,""error"",""-"",""-"",""no_move""]"
"2668","","<div style=""width:500px;"">
  <p>What determined the result of this run?</p>
  </div>","0","html-slider-response","39","483628","0.0-7.0-1.5","44","1","2025-07-30 08:43:43","36c45c0696341be0efffe67d72a12abb","78.137.214.242","Mozilla/5.0 (Windows NT 10.0; Win64; x64) AppleWebKit/537.36 (KHTML, like Gecko) Chrome/138.0.0.0 Safari/537.36","WebKit","Chrome","138.0.0.0","Windows","10.0","https://app.prolific.com/","en-US,en;q=0.9,pt-PT;q=0.8,pt;q=0.7","6744700ac7a3406e40f009c5","687a360dabe5252b5ada7185","6889dae574f3e18dfb7474cf","0","6744700ac7a3406e40f009c5","0","2025-07-30T08:51:44.863Z","","","","AttribQ","","","","","","","","","","","50","","","","","","","","","","","","","","","","","","","","","","","","","","",""
"2085","","<div style=""width:500px;"">
  <p>How much control did you have over the ball?</p>
  </div>","7","html-slider-response","40","485713","0.0-7.0-2.5","44","1","2025-07-30 08:43:43","36c45c0696341be0efffe67d72a12abb","78.137.214.242","Mozilla/5.0 (Windows NT 10.0; Win64; x64) AppleWebKit/537.36 (KHTML, like Gecko) Chrome/138.0.0.0 Safari/537.36","WebKit","Chrome","138.0.0.0","Windows","10.0","https://app.prolific.com/","en-US,en;q=0.9,pt-PT;q=0.8,pt;q=0.7","6744700ac7a3406e40f009c5","687a360dabe5252b5ada7185","6889dae574f3e18dfb7474cf","0","6744700ac7a3406e40f009c5","0","2025-07-30T08:51:46.948Z","","","","ControlQ","","","","","","","","","","","50","","","","","","","","","","","","","","","","","","","","","","","","","","",""
"1867","","<div style=""width:500px;"">
  <p>How would you describe your current emotional state?</p>
  </div>","100","html-slider-response","41","487581","0.0-7.0-3.5","44","1","2025-07-30 08:43:43","36c45c0696341be0efffe67d72a12abb","78.137.214.242","Mozilla/5.0 (Windows NT 10.0; Win64; x64) AppleWebKit/537.36 (KHTML, like Gecko) Chrome/138.0.0.0 Safari/537.36","WebKit","Chrome","138.0.0.0","Windows","10.0","https://app.prolific.com/","en-US,en;q=0.9,pt-PT;q=0.8,pt;q=0.7","6744700ac7a3406e40f009c5","687a360dabe5252b5ada7185","6889dae574f3e18dfb7474cf","0","6744700ac7a3406e40f009c5","0","2025-07-30T08:51:48.816Z","","","","StressQ","","","","","","","","","","","50","","","","","","","","","","","","","","","","","","","","","","","","","","",""
"2667","","<div style=""width:500px;"">
  <p>What best describes how you currently feel?</p>
  </div>","17","html-slider-response","42","490248","0.0-7.0-4.5","44","1","2025-07-30 08:43:43","36c45c0696341be0efffe67d72a12abb","78.137.214.242","Mozilla/5.0 (Windows NT 10.0; Win64; x64) AppleWebKit/537.36 (KHTML, like Gecko) Chrome/138.0.0.0 Safari/537.36","WebKit","Chrome","138.0.0.0","Windows","10.0","https://app.prolific.com/","en-US,en;q=0.9,pt-PT;q=0.8,pt;q=0.7","6744700ac7a3406e40f009c5","687a360dabe5252b5ada7185","6889dae574f3e18dfb7474cf","0","6744700ac7a3406e40f009c5","0","2025-07-30T08:51:51.484Z","","","","MotivationQ","","","","","","","","","","","50","","","","","","","","","","","","","","","","","","","","","","","","","","",""
"","","","","ctl-task-cpt","43","540428","0.0-7.0-0.6","44","1","2025-07-30 08:43:43","36c45c0696341be0efffe67d72a12abb","78.137.214.242","Mozilla/5.0 (Windows NT 10.0; Win64; x64) AppleWebKit/537.36 (KHTML, like Gecko) Chrome/138.0.0.0 Safari/537.36","WebKit","Chrome","138.0.0.0","Windows","10.0","https://app.prolific.com/","en-US,en;q=0.9,pt-PT;q=0.8,pt;q=0.7","6744700ac7a3406e40f009c5","687a360dabe5252b5ada7185","6889dae574f3e18dfb7474cf","0","6744700ac7a3406e40f009c5","0","2025-07-30T08:52:41.663Z","","","","","","","","","","","","","","","","win-only","2","g1:SE,g2:NW","0.4","7","0","491182.8","884.8","5885.9","47161.4","1","4","4","6","1","-1","-2","9","11","0.06818181818181818","2050.1","3000","-3015","[""down"",""right""]","{""num_key_presses"":10,""num_perfect"":3,""num_errors"":1,""num_randdir"":6,""num_randdir_good_moves"":1,""num_whilered"":0,""num_whileblue"":1,""num_blue"":5,""num_good_moves"":5}","[413.57142857142856,423.47767857142856,0.1,413.57142857142856,423.47767857142856,101.5,413.57142857142856,423.47767857142856,205.6,428.57142857142856,454.47767857142856,306.6,472.57142857142856,491.47767857142856,411.9,434.57142857142856,420.47767857142856,515.5,204.57142857142856,205.47767857142856,615.5,164.57142857142856,146.47767857142856,716.6,127.57142857142857,104.47767857142857,821.8,119.57142857142857,100.47767857142857,925.8,118.57142857142857,100.47767857142857,1025.8,118.57142857142857,103.47767857142857,1126.4,118.57142857142857,103.47767857142857,1231.9,118.57142857142857,103.47767857142857,1336.3,118.57142857142857,103.47767857142857,1436.7,118.57142857142857,103.47767857142857,1541.5,206.57142857142856,240.47767857142856,1646.4,590.5714285714286,650.4776785714286,1751.7,653.5714285714286,675.4776785714286,1855.9,751.5714285714286,724.4776785714286,1960.4,777.5714285714286,743.4776785714286,2060.6,777.5714285714286,743.4776785714286,2161.8,779.5714285714286,738.4776785714286,2265.7,779.5714285714286,738.4776785714286,2371.5,779.5714285714286,738.4776785714286,2476.4,779.5714285714286,738.4776785714286,2576.4,779.5714285714286,738.4776785714286,2676.4,779.5714285714286,738.4776785714286,2780.9,779.5714285714286,738.4776785714286,2886.3,779.5714285714286,738.4776785714286,2990.3,779.5714285714286,738.4776785714286,3091,779.5714285714286,738.4776785714286,3191.3,779.5714285714286,738.4776785714286,3291.8,779.5714285714286,738.4776785714286,3396.2,779.5714285714286,738.4776785714286,3496.5,779.5714285714286,738.4776785714286,3600.7,779.5714285714286,738.4776785714286,3700.9,779.5714285714286,738.4776785714286,3801.8,779.5714285714286,738.4776785714286,3905.7,779.5714285714286,738.4776785714286,4005.9,779.5714285714286,738.4776785714286,4106.6,779.5714285714286,738.4776785714286,4210.7,779.5714285714286,738.4776785714286,4310.7,779.5714285714286,738.4776785714286,4411.3,779.5714285714286,738.4776785714286,4516.2,779.5714285714286,738.4776785714286,4622,779.5714285714286,738.4776785714286,4726,779.5714285714286,738.4776785714286,4826,779.5714285714286,738.4776785714286,4926.5]","[8023.3,8023.3,2130.1,5329.5,563.7,""oops"",""down"",""left"",""bad_move"",13656.4,5632.8,1883.8,11399.2,373.4,""smooth"",""down"",""down"",""good_move"",16167.3,2510.7,2189,13656.6,321.7,""smooth"",""right"",""right"",""good_move"",18473.2,2305.7,1987.8,16167.5,317.9,""oops"",""right"",""left"",""bad_move"",20852.2,2378.7,2057,18473.5,321.7,""oops"",""right"",""left"",""bad_move"",24113.2,3261,3032.4,20852.2,228.6,""smooth"",""down"",""down"",""good_move"",26867,2753.7,2472.3,24113.4,281.4,""oops"",""right"",""up"",""bad_move"",32429.2,5561.9,2427.2,29745.2,256.8,""oops"",""right"",""down"",""good_move"",35429.1,2999.7,2701.4,32429.4,298.3,""oops"",""right"",""up"",""bad_move"",38826.1,3396.8,3145.7,35429.3,251.1,""while_blue"",""down"",""down"",""good_move""]"
"2364","","<div style=""width:500px;"">
  <p>What determined the result of this run?</p>
  </div>","0","html-slider-response","44","542793","0.0-7.0-1.6","44","1","2025-07-30 08:43:43","36c45c0696341be0efffe67d72a12abb","78.137.214.242","Mozilla/5.0 (Windows NT 10.0; Win64; x64) AppleWebKit/537.36 (KHTML, like Gecko) Chrome/138.0.0.0 Safari/537.36","WebKit","Chrome","138.0.0.0","Windows","10.0","https://app.prolific.com/","en-US,en;q=0.9,pt-PT;q=0.8,pt;q=0.7","6744700ac7a3406e40f009c5","687a360dabe5252b5ada7185","6889dae574f3e18dfb7474cf","0","6744700ac7a3406e40f009c5","0","2025-07-30T08:52:44.028Z","","","","AttribQ","","","","","","","","","","","50","","","","","","","","","","","","","","","","","","","","","","","","","","",""
"1872","","<div style=""width:500px;"">
  <p>How much control did you have over the ball?</p>
  </div>","0","html-slider-response","45","544666","0.0-7.0-2.6","44","1","2025-07-30 08:43:43","36c45c0696341be0efffe67d72a12abb","78.137.214.242","Mozilla/5.0 (Windows NT 10.0; Win64; x64) AppleWebKit/537.36 (KHTML, like Gecko) Chrome/138.0.0.0 Safari/537.36","WebKit","Chrome","138.0.0.0","Windows","10.0","https://app.prolific.com/","en-US,en;q=0.9,pt-PT;q=0.8,pt;q=0.7","6744700ac7a3406e40f009c5","687a360dabe5252b5ada7185","6889dae574f3e18dfb7474cf","0","6744700ac7a3406e40f009c5","0","2025-07-30T08:52:45.901Z","","","","ControlQ","","","","","","","","","","","50","","","","","","","","","","","","","","","","","","","","","","","","","","",""
"2945","","<div style=""width:500px;"">
  <p>How would you describe your current emotional state?</p>
  </div>","100","html-slider-response","46","547612","0.0-7.0-3.6","44","1","2025-07-30 08:43:43","36c45c0696341be0efffe67d72a12abb","78.137.214.242","Mozilla/5.0 (Windows NT 10.0; Win64; x64) AppleWebKit/537.36 (KHTML, like Gecko) Chrome/138.0.0.0 Safari/537.36","WebKit","Chrome","138.0.0.0","Windows","10.0","https://app.prolific.com/","en-US,en;q=0.9,pt-PT;q=0.8,pt;q=0.7","6744700ac7a3406e40f009c5","687a360dabe5252b5ada7185","6889dae574f3e18dfb7474cf","0","6744700ac7a3406e40f009c5","0","2025-07-30T08:52:48.847Z","","","","StressQ","","","","","","","","","","","50","","","","","","","","","","","","","","","","","","","","","","","","","","",""
"3663","","<div style=""width:500px;"">
  <p>What best describes how you currently feel?</p>
  </div>","0","html-slider-response","47","551276","0.0-7.0-4.6","44","1","2025-07-30 08:43:43","36c45c0696341be0efffe67d72a12abb","78.137.214.242","Mozilla/5.0 (Windows NT 10.0; Win64; x64) AppleWebKit/537.36 (KHTML, like Gecko) Chrome/138.0.0.0 Safari/537.36","WebKit","Chrome","138.0.0.0","Windows","10.0","https://app.prolific.com/","en-US,en;q=0.9,pt-PT;q=0.8,pt;q=0.7","6744700ac7a3406e40f009c5","687a360dabe5252b5ada7185","6889dae574f3e18dfb7474cf","0","6744700ac7a3406e40f009c5","0","2025-07-30T08:52:52.511Z","","","","MotivationQ","","","","","","","","","","","50","","","","","","","","","","","","","","","","","","","","","","","","","","",""
"","","","","ctl-task-cpt","48","588834","0.0-7.0-0.7","44","1","2025-07-30 08:43:43","36c45c0696341be0efffe67d72a12abb","78.137.214.242","Mozilla/5.0 (Windows NT 10.0; Win64; x64) AppleWebKit/537.36 (KHTML, like Gecko) Chrome/138.0.0.0 Safari/537.36","WebKit","Chrome","138.0.0.0","Windows","10.0","https://app.prolific.com/","en-US,en;q=0.9,pt-PT;q=0.8,pt;q=0.7","6744700ac7a3406e40f009c5","687a360dabe5252b5ada7185","6889dae574f3e18dfb7474cf","0","6744700ac7a3406e40f009c5","0","2025-07-30T08:53:30.069Z","","","","","","","","","","","","","","","","win-only","2","g1:SE,g2:NW","0.3","8","0","552210.2","741","5741.4","34540.1","1","4","8","6","1","-1","-1","8","9","0.06060606060606061","1965.1","3000","-3015","[""down"",""right""]","{""num_key_presses"":10,""num_perfect"":3,""num_errors"":0,""num_randdir"":7,""num_randdir_good_moves"":3,""num_whilered"":0,""num_whileblue"":0,""num_blue"":0,""num_good_moves"":5}","[422.57142857142856,427.47767857142856,0.1,422.57142857142856,427.47767857142856,105.5,422.57142857142856,427.47767857142856,209.6,421.57142857142856,435.47767857142856,309.8,425.57142857142856,459.47767857142856,410,416.57142857142856,470.47767857142856,515.4,409.57142857142856,471.47767857142856,619.8,409.57142857142856,471.47767857142856,724.2,409.57142857142856,471.47767857142856,824.2,409.57142857142856,471.47767857142856,924.5,359.57142857142856,428.47767857142856,1025.3,179.57142857142856,295.47767857142856,1130.1,175.57142857142856,290.47767857142856,1234.9,376.57142857142856,452.47767857142856,1341.3,762.5714285714286,804.4776785714286,1445.4,783.5714285714286,829.4776785714286,1549.6,788.5714285714286,807.4776785714286,1649.6,789.5714285714286,776.4776785714286,1750.6,789.5714285714286,775.4776785714286,1855.2,789.5714285714286,775.4776785714286,1959.2,789.5714285714286,775.4776785714286,2059.7,774.5714285714286,765.4776785714286,2164.5,774.5714285714286,765.4776785714286,2265.2,774.5714285714286,765.4776785714286,2369.4,774.5714285714286,765.4776785714286,2469.7,774.5714285714286,765.4776785714286,2569.7,774.5714285714286,765.4776785714286,2675,774.5714285714286,765.4776785714286,2775.1,774.5714285714286,765.4776785714286,2879.2,774.5714285714286,765.4776785714286,2979.4,774.5714285714286,765.4776785714286,3084.7,774.5714285714286,765.4776785714286,3184.7,774.5714285714286,765.4776785714286,3284.8,774.5714285714286,765.4776785714286,3389.6,774.5714285714286,765.4776785714286,3490.1,774.5714285714286,765.4776785714286,3590.4,774.5714285714286,765.4776785714286,3695,774.5714285714286,765.4776785714286,3799.6,774.5714285714286,765.4776785714286,3905.7,774.5714285714286,765.4776785714286,4009.4,774.5714285714286,765.4776785714286,4115,774.5714285714286,765.4776785714286,4219.1,774.5714285714286,765.4776785714286,4319.3,774.5714285714286,765.4776785714286,4419.4,774.5714285714286,765.4776785714286,4519.8,774.5714285714286,765.4776785714286,4625.1,774.5714285714286,765.4776785714286,4729.4,774.5714285714286,765.4776785714286,4835.2,774.5714285714286,765.4776785714286,4939.1]","[1415.1,1415.1,1000,0,415.1,""oops"",""down"",""right"",""good_move"",3946.2,2530.8,2114.7,1415.4,416.1,""smooth"",""right"",""right"",""good_move"",6381.3,2434.9,2157.2,3946.4,277.7,""oops"",""down"",""up"",""bad_move"",9866.2,3484.7,3197.7,6381.5,287,""smooth"",""down"",""down"",""good_move"",12836.2,2969.8,2712.7,9866.4,257.1,""oops"",""down"",""up"",""bad_move"",15487.2,2650.9,2360.1,12836.3,290.8,""oops"",""down"",""down"",""good_move"",18575.3,3087.9,2810.7,15487.4,277.2,""smooth"",""left"",""left"",""bad_move"",21624.2,3048.7,2845.4,18575.5,203.3,""oops"",""down"",""up"",""bad_move"",23989.4,2365,2086.7,21624.4,278.3,""oops"",""right"",""up"",""bad_move"",26449.1,2459.6,2222.8,23989.6,236.7,""oops"",""down"",""right"",""good_move""]"
"2670","","<div style=""width:500px;"">
  <p>What determined the result of this run?</p>
  </div>","0","html-slider-response","49","591505","0.0-7.0-1.7","44","1","2025-07-30 08:43:43","36c45c0696341be0efffe67d72a12abb","78.137.214.242","Mozilla/5.0 (Windows NT 10.0; Win64; x64) AppleWebKit/537.36 (KHTML, like Gecko) Chrome/138.0.0.0 Safari/537.36","WebKit","Chrome","138.0.0.0","Windows","10.0","https://app.prolific.com/","en-US,en;q=0.9,pt-PT;q=0.8,pt;q=0.7","6744700ac7a3406e40f009c5","687a360dabe5252b5ada7185","6889dae574f3e18dfb7474cf","0","6744700ac7a3406e40f009c5","0","2025-07-30T08:53:32.740Z","","","","AttribQ","","","","","","","","","","","50","","","","","","","","","","","","","","","","","","","","","","","","","","",""
"1569","","<div style=""width:500px;"">
  <p>How much control did you have over the ball?</p>
  </div>","0","html-slider-response","50","593075","0.0-7.0-2.7","44","1","2025-07-30 08:43:43","36c45c0696341be0efffe67d72a12abb","78.137.214.242","Mozilla/5.0 (Windows NT 10.0; Win64; x64) AppleWebKit/537.36 (KHTML, like Gecko) Chrome/138.0.0.0 Safari/537.36","WebKit","Chrome","138.0.0.0","Windows","10.0","https://app.prolific.com/","en-US,en;q=0.9,pt-PT;q=0.8,pt;q=0.7","6744700ac7a3406e40f009c5","687a360dabe5252b5ada7185","6889dae574f3e18dfb7474cf","0","6744700ac7a3406e40f009c5","0","2025-07-30T08:53:34.310Z","","","","ControlQ","","","","","","","","","","","50","","","","","","","","","","","","","","","","","","","","","","","","","","",""
"1605","","<div style=""width:500px;"">
  <p>How would you describe your current emotional state?</p>
  </div>","100","html-slider-response","51","594681","0.0-7.0-3.7","44","1","2025-07-30 08:43:43","36c45c0696341be0efffe67d72a12abb","78.137.214.242","Mozilla/5.0 (Windows NT 10.0; Win64; x64) AppleWebKit/537.36 (KHTML, like Gecko) Chrome/138.0.0.0 Safari/537.36","WebKit","Chrome","138.0.0.0","Windows","10.0","https://app.prolific.com/","en-US,en;q=0.9,pt-PT;q=0.8,pt;q=0.7","6744700ac7a3406e40f009c5","687a360dabe5252b5ada7185","6889dae574f3e18dfb7474cf","0","6744700ac7a3406e40f009c5","0","2025-07-30T08:53:35.916Z","","","","StressQ","","","","","","","","","","","50","","","","","","","","","","","","","","","","","","","","","","","","","","",""
"1627","","<div style=""width:500px;"">
  <p>What best describes how you currently feel?</p>
  </div>","0","html-slider-response","52","596309","0.0-7.0-4.7","44","1","2025-07-30 08:43:43","36c45c0696341be0efffe67d72a12abb","78.137.214.242","Mozilla/5.0 (Windows NT 10.0; Win64; x64) AppleWebKit/537.36 (KHTML, like Gecko) Chrome/138.0.0.0 Safari/537.36","WebKit","Chrome","138.0.0.0","Windows","10.0","https://app.prolific.com/","en-US,en;q=0.9,pt-PT;q=0.8,pt;q=0.7","6744700ac7a3406e40f009c5","687a360dabe5252b5ada7185","6889dae574f3e18dfb7474cf","0","6744700ac7a3406e40f009c5","0","2025-07-30T08:53:37.544Z","","","","MotivationQ","","","","","","","","","","","50","","","","","","","","","","","","","","","","","","","","","","","","","","",""
"","","","","ctl-task-cpt","53","639543","0.0-7.0-0.8","44","1","2025-07-30 08:43:43","36c45c0696341be0efffe67d72a12abb","78.137.214.242","Mozilla/5.0 (Windows NT 10.0; Win64; x64) AppleWebKit/537.36 (KHTML, like Gecko) Chrome/138.0.0.0 Safari/537.36","WebKit","Chrome","138.0.0.0","Windows","10.0","https://app.prolific.com/","en-US,en;q=0.9,pt-PT;q=0.8,pt;q=0.7","6744700ac7a3406e40f009c5","687a360dabe5252b5ada7185","6889dae574f3e18dfb7474cf","0","6744700ac7a3406e40f009c5","0","2025-07-30T08:54:20.778Z","","","","","","","","","","","","","","","","win-only","3","g1:SW,g2:NE","0.4","9","0","597243","1056.2","6060.5","40216.5","1","4","8","6","2","-8","-8","0","8","0","1653.8","3000","-3015","[""up"",""right""]","{""num_key_presses"":9,""num_perfect"":4,""num_errors"":0,""num_randdir"":5,""num_randdir_good_moves"":2,""num_whilered"":0,""num_whileblue"":0,""num_blue"":2,""num_good_moves"":6}","[407.57142857142856,421.47767857142856,0.2,407.57142857142856,421.47767857142856,104.8,404.57142857142856,429.47767857142856,209.8,381.57142857142856,441.47767857142856,310.2,346.57142857142856,483.47767857142856,414.3,370.57142857142856,460.47767857142856,519.8,380.57142857142856,453.47767857142856,624.1,409.57142857142856,453.47767857142856,725.1,417.57142857142856,450.47767857142856,829,416.57142857142856,455.47767857142856,929.4,454.57142857142856,421.47767857142856,1029.4,595.5714285714286,316.47767857142856,1129.7,643.5714285714286,265.47767857142856,1230,668.5714285714286,190.47767857142856,1334.3,686.5714285714286,148.47767857142856,1434.7,718.5714285714286,109.47767857142857,1535,733.5714285714286,95.47767857142857,1639.2,734.5714285714286,95.47767857142857,1739.3,734.5714285714286,100.47767857142857,1839.7,727.5714285714286,120.47767857142857,1944.3,727.5714285714286,120.47767857142857,2044.9,727.5714285714286,120.47767857142857,2150.2,727.5714285714286,120.47767857142857,2250.6,726.5714285714286,120.47767857142857,2354.3,726.5714285714286,120.47767857142857,2454.7,726.5714285714286,120.47767857142857,2554.9,726.5714285714286,120.47767857142857,2659.5,726.5714285714286,120.47767857142857,2760.2,726.5714285714286,120.47767857142857,2864.2,726.5714285714286,120.47767857142857,2964.6,726.5714285714286,120.47767857142857,3070.2,726.5714285714286,120.47767857142857,3170.8,726.5714285714286,120.47767857142857,3275,726.5714285714286,120.47767857142857,3375.1,726.5714285714286,120.47767857142857,3480.1,726.5714285714286,120.47767857142857,3584.7,726.5714285714286,120.47767857142857,3684.9,726.5714285714286,120.47767857142857,3784.9,726.5714285714286,120.47767857142857,3889.4,726.5714285714286,120.47767857142857,3990.1,726.5714285714286,120.47767857142857,4090.2,726.5714285714286,120.47767857142857,4194.7,726.5714285714286,120.47767857142857,4295.2,726.5714285714286,120.47767857142857,4400.1,726.5714285714286,120.47767857142857,4504,726.5714285714286,120.47767857142857,4604.9,726.5714285714286,120.47767857142857,4709.7,726.5714285714286,120.47767857142857,4814,726.5714285714286,120.47767857142857,4914.4]","[1320.3,1320.3,1000,0,320.3,""smooth"",""right"",""right"",""good_move"",12065.5,10744.9,3345.5,8434.6,285.4,""oops"",""up"",""up"",""good_move"",14400.3,2334.7,1841.9,12065.6,492.8,""smooth"",""up"",""up"",""good_move"",17097.2,2696.7,2245.2,14400.5,451.5,""oops"",""right"",""down"",""bad_move"",20079.2,2981.7,2635.7,17097.5,346,""oops"",""up"",""right"",""good_move"",22830.5,2751,2461.8,20079.5,289.2,""smooth"",""right"",""right"",""good_move"",25505.3,2674.6,2403.6,22830.7,271,""smooth"",""up"",""up"",""good_move"",28791.3,3285.8,3027.7,25505.5,258.1,""oops"",""up"",""down"",""bad_move"",31532.2,2740.7,2507.5,28791.5,233.2,""oops"",""up"",""left"",""bad_move""]"
"2416","","<div style=""width:500px;"">
  <p>What determined the result of this run?</p>
  </div>","0","html-slider-response","54","641959","0.0-7.0-1.8","44","1","2025-07-30 08:43:43","36c45c0696341be0efffe67d72a12abb","78.137.214.242","Mozilla/5.0 (Windows NT 10.0; Win64; x64) AppleWebKit/537.36 (KHTML, like Gecko) Chrome/138.0.0.0 Safari/537.36","WebKit","Chrome","138.0.0.0","Windows","10.0","https://app.prolific.com/","en-US,en;q=0.9,pt-PT;q=0.8,pt;q=0.7","6744700ac7a3406e40f009c5","687a360dabe5252b5ada7185","6889dae574f3e18dfb7474cf","0","6744700ac7a3406e40f009c5","0","2025-07-30T08:54:23.195Z","","","","AttribQ","","","","","","","","","","","50","","","","","","","","","","","","","","","","","","","","","","","","","","",""
"1545","","<div style=""width:500px;"">
  <p>How much control did you have over the ball?</p>
  </div>","0","html-slider-response","55","643505","0.0-7.0-2.8","44","1","2025-07-30 08:43:43","36c45c0696341be0efffe67d72a12abb","78.137.214.242","Mozilla/5.0 (Windows NT 10.0; Win64; x64) AppleWebKit/537.36 (KHTML, like Gecko) Chrome/138.0.0.0 Safari/537.36","WebKit","Chrome","138.0.0.0","Windows","10.0","https://app.prolific.com/","en-US,en;q=0.9,pt-PT;q=0.8,pt;q=0.7","6744700ac7a3406e40f009c5","687a360dabe5252b5ada7185","6889dae574f3e18dfb7474cf","0","6744700ac7a3406e40f009c5","0","2025-07-30T08:54:24.741Z","","","","ControlQ","","","","","","","","","","","50","","","","","","","","","","","","","","","","","","","","","","","","","","",""
"1647","","<div style=""width:500px;"">
  <p>How would you describe your current emotional state?</p>
  </div>","100","html-slider-response","56","645154","0.0-7.0-3.8","44","1","2025-07-30 08:43:43","36c45c0696341be0efffe67d72a12abb","78.137.214.242","Mozilla/5.0 (Windows NT 10.0; Win64; x64) AppleWebKit/537.36 (KHTML, like Gecko) Chrome/138.0.0.0 Safari/537.36","WebKit","Chrome","138.0.0.0","Windows","10.0","https://app.prolific.com/","en-US,en;q=0.9,pt-PT;q=0.8,pt;q=0.7","6744700ac7a3406e40f009c5","687a360dabe5252b5ada7185","6889dae574f3e18dfb7474cf","0","6744700ac7a3406e40f009c5","0","2025-07-30T08:54:26.389Z","","","","StressQ","","","","","","","","","","","50","","","","","","","","","","","","","","","","","","","","","","","","","","",""
"1651","","<div style=""width:500px;"">
  <p>What best describes how you currently feel?</p>
  </div>","0","html-slider-response","57","646805","0.0-7.0-4.8","44","1","2025-07-30 08:43:43","36c45c0696341be0efffe67d72a12abb","78.137.214.242","Mozilla/5.0 (Windows NT 10.0; Win64; x64) AppleWebKit/537.36 (KHTML, like Gecko) Chrome/138.0.0.0 Safari/537.36","WebKit","Chrome","138.0.0.0","Windows","10.0","https://app.prolific.com/","en-US,en;q=0.9,pt-PT;q=0.8,pt;q=0.7","6744700ac7a3406e40f009c5","687a360dabe5252b5ada7185","6889dae574f3e18dfb7474cf","0","6744700ac7a3406e40f009c5","0","2025-07-30T08:54:28.040Z","","","","MotivationQ","","","","","","","","","","","50","","","","","","","","","","","","","","","","","","","","","","","","","","",""
"","","","","ctl-task-cpt","58","670871","0.0-7.0-0.9","44","1","2025-07-30 08:43:43","36c45c0696341be0efffe67d72a12abb","78.137.214.242","Mozilla/5.0 (Windows NT 10.0; Win64; x64) AppleWebKit/537.36 (KHTML, like Gecko) Chrome/138.0.0.0 Safari/537.36","WebKit","Chrome","138.0.0.0","Windows","10.0","https://app.prolific.com/","en-US,en;q=0.9,pt-PT;q=0.8,pt;q=0.7","6744700ac7a3406e40f009c5","687a360dabe5252b5ada7185","6889dae574f3e18dfb7474cf","0","6744700ac7a3406e40f009c5","0","2025-07-30T08:54:52.106Z","","","","","","","","","","","","","","","","win-only","3","g1:SW,g2:NE","0.5","10","0","647739.4","709.6","5711.1","21047.5","1","4","4","6","2","4","4","4","0","0.030303030303030304","1858.6","3000","1140","[""up"",""right""]","{""num_key_presses"":6,""num_perfect"":4,""num_errors"":0,""num_randdir"":2,""num_randdir_good_moves"":2,""num_whilered"":0,""num_whileblue"":0,""num_blue"":0,""num_good_moves"":6}","[410.57142857142856,422.47767857142856,0.1,410.57142857142856,422.47767857142856,100.5,410.57142857142856,422.47767857142856,201.4,397.57142857142856,451.47767857142856,306.1,367.57142857142856,490.47767857142856,411.3,350.57142857142856,512.4776785714286,515.8,351.57142857142856,516.4776785714286,620.6,404.57142857142856,561.4776785714286,721.1,464.57142857142856,554.4776785714286,821.4,531.5714285714286,421.47767857142856,925.9,645.5714285714286,245.47767857142856,1026.3,677.5714285714286,185.47767857142856,1127.2,685.5714285714286,172.47767857142856,1230.5,715.5714285714286,137.47767857142856,1330.9,727.5714285714286,125.47767857142857,1436,729.5714285714286,123.47767857142857,1536.5,739.5714285714286,114.47767857142857,1641.3,740.5714285714286,113.47767857142857,1746.3,740.5714285714286,113.47767857142857,1846.6,740.5714285714286,113.47767857142857,1950.8,738.5714285714286,120.47767857142857,2051.3,736.5714285714286,124.47767857142857,2156.7,736.5714285714286,124.47767857142857,2260.8,736.5714285714286,124.47767857142857,2361.2,736.5714285714286,124.47767857142857,2465.9,736.5714285714286,124.47767857142857,2566.6,736.5714285714286,124.47767857142857,2670.8,736.5714285714286,124.47767857142857,2771.2,736.5714285714286,124.47767857142857,2876.8,736.5714285714286,124.47767857142857,2980.8,736.5714285714286,124.47767857142857,3080.9,736.5714285714286,124.47767857142857,3185.8,736.5714285714286,124.47767857142857,3290.5,736.5714285714286,124.47767857142857,3390.6,736.5714285714286,124.47767857142857,3490.9,736.5714285714286,124.47767857142857,3591.4,736.5714285714286,124.47767857142857,3696.4,736.5714285714286,124.47767857142857,3800.5,736.5714285714286,124.47767857142857,3901.1,736.5714285714286,124.47767857142857,4001.4,736.5714285714286,124.47767857142857,4106.6,736.5714285714286,124.47767857142857,4210.5,736.5714285714286,124.47767857142857,4311.2,736.5714285714286,124.47767857142857,4417.1,736.5714285714286,124.47767857142857,4520.7,736.5714285714286,124.47767857142857,4620.9,736.5714285714286,124.47767857142857,4721.3,736.5714285714286,124.47767857142857,4821.9,736.5714285714286,124.47767857142857,4925.6]","[1338.6,1338.6,1000,0,338.6,""smooth"",""up"",""up"",""good_move"",4409.4,3070.5,2739.9,1338.9,330.6,""smooth"",""up"",""up"",""good_move"",7265.3,2855.7,2524.1,4409.6,331.6,""oops"",""up"",""up"",""good_move"",9484.2,2218.8,1878.3,7265.4,340.5,""oops"",""right"",""right"",""good_move"",12589.2,3104.8,2860,9484.4,244.8,""smooth"",""right"",""right"",""good_move"",15245.4,2656.1,2353.8,12589.4,302.3,""smooth"",""right"",""right"",""good_move""]"
"2998","","<div style=""width:500px;"">
  <p>What determined the result of this run?</p>
  </div>","0","html-slider-response","59","673870","0.0-7.0-1.9","44","1","2025-07-30 08:43:43","36c45c0696341be0efffe67d72a12abb","78.137.214.242","Mozilla/5.0 (Windows NT 10.0; Win64; x64) AppleWebKit/537.36 (KHTML, like Gecko) Chrome/138.0.0.0 Safari/537.36","WebKit","Chrome","138.0.0.0","Windows","10.0","https://app.prolific.com/","en-US,en;q=0.9,pt-PT;q=0.8,pt;q=0.7","6744700ac7a3406e40f009c5","687a360dabe5252b5ada7185","6889dae574f3e18dfb7474cf","0","6744700ac7a3406e40f009c5","0","2025-07-30T08:54:55.105Z","","","","AttribQ","","","","","","","","","","","50","","","","","","","","","","","","","","","","","","","","","","","","","","",""
"2525","","<div style=""width:500px;"">
  <p>How much control did you have over the ball?</p>
  </div>","5","html-slider-response","60","676395","0.0-7.0-2.9","44","1","2025-07-30 08:43:43","36c45c0696341be0efffe67d72a12abb","78.137.214.242","Mozilla/5.0 (Windows NT 10.0; Win64; x64) AppleWebKit/537.36 (KHTML, like Gecko) Chrome/138.0.0.0 Safari/537.36","WebKit","Chrome","138.0.0.0","Windows","10.0","https://app.prolific.com/","en-US,en;q=0.9,pt-PT;q=0.8,pt;q=0.7","6744700ac7a3406e40f009c5","687a360dabe5252b5ada7185","6889dae574f3e18dfb7474cf","0","6744700ac7a3406e40f009c5","0","2025-07-30T08:54:57.630Z","","","","ControlQ","","","","","","","","","","","50","","","","","","","","","","","","","","","","","","","","","","","","","","",""
"1981","","<div style=""width:500px;"">
  <p>How would you describe your current emotional state?</p>
  </div>","98","html-slider-response","61","678376","0.0-7.0-3.9","44","1","2025-07-30 08:43:43","36c45c0696341be0efffe67d72a12abb","78.137.214.242","Mozilla/5.0 (Windows NT 10.0; Win64; x64) AppleWebKit/537.36 (KHTML, like Gecko) Chrome/138.0.0.0 Safari/537.36","WebKit","Chrome","138.0.0.0","Windows","10.0","https://app.prolific.com/","en-US,en;q=0.9,pt-PT;q=0.8,pt;q=0.7","6744700ac7a3406e40f009c5","687a360dabe5252b5ada7185","6889dae574f3e18dfb7474cf","0","6744700ac7a3406e40f009c5","0","2025-07-30T08:54:59.611Z","","","","StressQ","","","","","","","","","","","50","","","","","","","","","","","","","","","","","","","","","","","","","","",""
"3064","","<div style=""width:500px;"">
  <p>What best describes how you currently feel?</p>
  </div>","3","html-slider-response","62","681442","0.0-7.0-4.9","44","1","2025-07-30 08:43:43","36c45c0696341be0efffe67d72a12abb","78.137.214.242","Mozilla/5.0 (Windows NT 10.0; Win64; x64) AppleWebKit/537.36 (KHTML, like Gecko) Chrome/138.0.0.0 Safari/537.36","WebKit","Chrome","138.0.0.0","Windows","10.0","https://app.prolific.com/","en-US,en;q=0.9,pt-PT;q=0.8,pt;q=0.7","6744700ac7a3406e40f009c5","687a360dabe5252b5ada7185","6889dae574f3e18dfb7474cf","0","6744700ac7a3406e40f009c5","0","2025-07-30T08:55:02.677Z","","","","MotivationQ","","","","","","","","","","","50","","","","","","","","","","","","","","","","","","","","","","","","","","",""
"","","","","ctl-task-cpt","63","715734","0.0-7.0-0.10","44","1","2025-07-30 08:43:43","36c45c0696341be0efffe67d72a12abb","78.137.214.242","Mozilla/5.0 (Windows NT 10.0; Win64; x64) AppleWebKit/537.36 (KHTML, like Gecko) Chrome/138.0.0.0 Safari/537.36","WebKit","Chrome","138.0.0.0","Windows","10.0","https://app.prolific.com/","en-US,en;q=0.9,pt-PT;q=0.8,pt;q=0.7","6744700ac7a3406e40f009c5","687a360dabe5252b5ada7185","6889dae574f3e18dfb7474cf","0","6744700ac7a3406e40f009c5","0","2025-07-30T08:55:36.969Z","","","","","","","","","","","","","","","","win-only","1","g1:NE,g2:SW","0.6","11","0","682375.9","709.8","5710.4","31275.6","1","4","4","6","2","4","4","8","4","0.06060606060606061","1475","3000","565","[""down"",""left""]","{""num_key_presses"":6,""num_perfect"":4,""num_errors"":0,""num_randdir"":2,""num_randdir_good_moves"":2,""num_whilered"":0,""num_whileblue"":0,""num_blue"":3,""num_good_moves"":6}","[422.57142857142856,422.47767857142856,0.1,422.57142857142856,422.47767857142856,100.6,421.57142857142856,428.47767857142856,201.2,375.57142857142856,505.47767857142856,305.4,271.57142857142856,612.4776785714286,405.4,200.57142857142856,671.4776785714286,506.1,178.57142857142856,690.4776785714286,610.4,140.57142857142856,713.4776785714286,710.5,131.57142857142856,719.4776785714286,811.5,129.57142857142856,720.4776785714286,911.5,122.57142857142857,722.4776785714286,1015.9,122.57142857142857,722.4776785714286,1121.3,122.57142857142857,722.4776785714286,1226,122.57142857142857,722.4776785714286,1330.8,122.57142857142857,722.4776785714286,1430.8,122.57142857142857,722.4776785714286,1531.2,122.57142857142857,722.4776785714286,1635.9,136.57142857142856,711.4776785714286,1740.7,214.57142857142856,654.4776785714286,1841.1,224.57142857142856,642.4776785714286,1941.1,224.57142857142856,642.4776785714286,2046,224.57142857142856,642.4776785714286,2150.6,224.57142857142856,642.4776785714286,2251.7,224.57142857142856,642.4776785714286,2355.4,224.57142857142856,642.4776785714286,2456.5,224.57142857142856,642.4776785714286,2561.5,224.57142857142856,642.4776785714286,2665.5,224.57142857142856,642.4776785714286,2765.7,224.57142857142856,642.4776785714286,2865.8,224.57142857142856,642.4776785714286,2966.1,224.57142857142856,642.4776785714286,3071.3,224.57142857142856,642.4776785714286,3171.4,224.57142857142856,642.4776785714286,3271.6,224.57142857142856,642.4776785714286,3375.3,224.57142857142856,642.4776785714286,3475.3,224.57142857142856,642.4776785714286,3575.3,224.57142857142856,642.4776785714286,3676.3,224.57142857142856,642.4776785714286,3780.5,224.57142857142856,642.4776785714286,3880.5,224.57142857142856,642.4776785714286,3985.4,224.57142857142856,642.4776785714286,4085.8,224.57142857142856,642.4776785714286,4190.4,224.57142857142856,642.4776785714286,4290.6,224.57142857142856,642.4776785714286,4391,224.57142857142856,642.4776785714286,4491.2,224.57142857142856,642.4776785714286,4596,224.57142857142856,642.4776785714286,4696,224.57142857142856,642.4776785714286,4796.8,224.57142857142856,642.4776785714286,4901.2]","[4324.6,4324.6,1973.9,2005.4,345.3,""smooth"",""down"",""down"",""good_move"",7691.4,3366.4,2806.7,4325,559.7,""oops"",""left"",""left"",""good_move"",17837.6,10146,2658.7,14880.2,298.7,""smooth"",""down"",""down"",""good_move"",20638.4,2800.6,2139.7,17837.9,660.8,""smooth"",""left"",""left"",""good_move"",23339.5,2700.8,2408.1,20638.7,292.7,""oops"",""down"",""down"",""good_move"",25477.4,2137.8,1826.3,23339.6,311.5,""smooth"",""left"",""left"",""good_move""]"
"3597","","<div style=""width:500px;"">
  <p>What determined the result of this run?</p>
  </div>","5","html-slider-response","64","719332","0.0-7.0-1.10","44","1","2025-07-30 08:43:43","36c45c0696341be0efffe67d72a12abb","78.137.214.242","Mozilla/5.0 (Windows NT 10.0; Win64; x64) AppleWebKit/537.36 (KHTML, like Gecko) Chrome/138.0.0.0 Safari/537.36","WebKit","Chrome","138.0.0.0","Windows","10.0","https://app.prolific.com/","en-US,en;q=0.9,pt-PT;q=0.8,pt;q=0.7","6744700ac7a3406e40f009c5","687a360dabe5252b5ada7185","6889dae574f3e18dfb7474cf","0","6744700ac7a3406e40f009c5","0","2025-07-30T08:55:40.567Z","","","","AttribQ","","","","","","","","","","","50","","","","","","","","","","","","","","","","","","","","","","","","","","",""
"2838","","<div style=""width:500px;"">
  <p>How much control did you have over the ball?</p>
  </div>","16","html-slider-response","65","722171","0.0-7.0-2.10","44","1","2025-07-30 08:43:43","36c45c0696341be0efffe67d72a12abb","78.137.214.242","Mozilla/5.0 (Windows NT 10.0; Win64; x64) AppleWebKit/537.36 (KHTML, like Gecko) Chrome/138.0.0.0 Safari/537.36","WebKit","Chrome","138.0.0.0","Windows","10.0","https://app.prolific.com/","en-US,en;q=0.9,pt-PT;q=0.8,pt;q=0.7","6744700ac7a3406e40f009c5","687a360dabe5252b5ada7185","6889dae574f3e18dfb7474cf","0","6744700ac7a3406e40f009c5","0","2025-07-30T08:55:43.406Z","","","","ControlQ","","","","","","","","","","","50","","","","","","","","","","","","","","","","","","","","","","","","","","",""
"2470","","<div style=""width:500px;"">
  <p>How would you describe your current emotional state?</p>
  </div>","93","html-slider-response","66","724641","0.0-7.0-3.10","44","1","2025-07-30 08:43:43","36c45c0696341be0efffe67d72a12abb","78.137.214.242","Mozilla/5.0 (Windows NT 10.0; Win64; x64) AppleWebKit/537.36 (KHTML, like Gecko) Chrome/138.0.0.0 Safari/537.36","WebKit","Chrome","138.0.0.0","Windows","10.0","https://app.prolific.com/","en-US,en;q=0.9,pt-PT;q=0.8,pt;q=0.7","6744700ac7a3406e40f009c5","687a360dabe5252b5ada7185","6889dae574f3e18dfb7474cf","0","6744700ac7a3406e40f009c5","0","2025-07-30T08:55:45.876Z","","","","StressQ","","","","","","","","","","","50","","","","","","","","","","","","","","","","","","","","","","","","","","",""
"2341","","<div style=""width:500px;"">
  <p>What best describes how you currently feel?</p>
  </div>","12","html-slider-response","67","726982","0.0-7.0-4.10","44","1","2025-07-30 08:43:43","36c45c0696341be0efffe67d72a12abb","78.137.214.242","Mozilla/5.0 (Windows NT 10.0; Win64; x64) AppleWebKit/537.36 (KHTML, like Gecko) Chrome/138.0.0.0 Safari/537.36","WebKit","Chrome","138.0.0.0","Windows","10.0","https://app.prolific.com/","en-US,en;q=0.9,pt-PT;q=0.8,pt;q=0.7","6744700ac7a3406e40f009c5","687a360dabe5252b5ada7185","6889dae574f3e18dfb7474cf","0","6744700ac7a3406e40f009c5","0","2025-07-30T08:55:48.217Z","","","","MotivationQ","","","","","","","","","","","50","","","","","","","","","","","","","","","","","","","","","","","","","","",""
"","","","","ctl-task-cpt","68","770037","0.0-7.0-0.11","44","1","2025-07-30 08:43:43","36c45c0696341be0efffe67d72a12abb","78.137.214.242","Mozilla/5.0 (Windows NT 10.0; Win64; x64) AppleWebKit/537.36 (KHTML, like Gecko) Chrome/138.0.0.0 Safari/537.36","WebKit","Chrome","138.0.0.0","Windows","10.0","https://app.prolific.com/","en-US,en;q=0.9,pt-PT;q=0.8,pt;q=0.7","6744700ac7a3406e40f009c5","687a360dabe5252b5ada7185","6889dae574f3e18dfb7474cf","0","6744700ac7a3406e40f009c5","0","2025-07-30T08:56:31.272Z","","","","","","","","","","","","","","","","win-only","1","g1:NE,g2:SW","0.7","12","0","727916.7","760.8","5761","40035.6","1","4","8","6","2","-8","-8","0","8","0","1582.5","3000","-3015","[""down"",""left""]","{""num_key_presses"":9,""num_perfect"":6,""num_errors"":0,""num_randdir"":3,""num_randdir_good_moves"":0,""num_whilered"":0,""num_whileblue"":0,""num_blue"":3,""num_good_moves"":6}","[410.57142857142856,416.47767857142856,0,411.57142857142856,416.47767857142856,105.1,411.57142857142856,416.47767857142856,209.5,408.57142857142856,439.47767857142856,310.3,370.57142857142856,503.47767857142856,414.4,328.57142857142856,563.4776785714286,514.9,324.57142857142856,569.4776785714286,614.9,309.57142857142856,590.4776785714286,719.7,303.57142857142856,598.4776785714286,820.1,293.57142857142856,612.4776785714286,924.7,271.57142857142856,628.4776785714286,1030.1,237.57142857142856,652.4776785714286,1135.5,185.57142857142856,698.4776785714286,1239.8,140.57142857142856,731.4776785714286,1340.2,119.57142857142857,745.4776785714286,1444.8,110.57142857142857,749.4776785714286,1544.8,110.57142857142857,749.4776785714286,1646,110.57142857142857,749.4776785714286,1750,109.57142857142857,749.4776785714286,1854.7,102.57142857142857,753.4776785714286,1954.8,102.57142857142857,753.4776785714286,2055.1,102.57142857142857,753.4776785714286,2160,102.57142857142857,753.4776785714286,2264.4,102.57142857142857,753.4776785714286,2364.8,102.57142857142857,753.4776785714286,2469.6,102.57142857142857,753.4776785714286,2569.7,102.57142857142857,753.4776785714286,2675.2,102.57142857142857,753.4776785714286,2780.8,102.57142857142857,753.4776785714286,2885.4,102.57142857142857,753.4776785714286,2985.6,102.57142857142857,753.4776785714286,3090.1,102.57142857142857,753.4776785714286,3194.7,102.57142857142857,753.4776785714286,3295,102.57142857142857,753.4776785714286,3395.8,102.57142857142857,753.4776785714286,3499.4,102.57142857142857,753.4776785714286,3599.9,102.57142857142857,753.4776785714286,3700.7,102.57142857142857,753.4776785714286,3805.7,102.57142857142857,753.4776785714286,3909.9,102.57142857142857,753.4776785714286,4014.4,102.57142857142857,753.4776785714286,4114.4,102.57142857142857,753.4776785714286,4215.2,102.57142857142857,753.4776785714286,4320,102.57142857142857,753.4776785714286,4421,102.57142857142857,753.4776785714286,4524.8,102.57142857142857,753.4776785714286,4629.3,102.57142857142857,753.4776785714286,4730.2,102.57142857142857,753.4776785714286,4835.1,102.57142857142857,753.4776785714286,4939.6]","[1418.9,1418.9,1000,0,418.9,""smooth"",""down"",""down"",""good_move"",3671.2,2252,1949.1,1419.2,302.9,""smooth"",""down"",""down"",""good_move"",5990.1,2318.8,2013.1,3671.3,305.7,""smooth"",""down"",""down"",""good_move"",11133.1,5142.9,1852.8,8969.2,311.1,""smooth"",""left"",""left"",""good_move"",17684,6550.6,2795.2,14584.6,304.2,""smooth"",""left"",""left"",""good_move"",20777,3092.8,2772.7,17684.2,320.1,""oops"",""left"",""right"",""bad_move"",23657.3,2880.2,2629.1,20777.1,251.1,""oops"",""left"",""right"",""bad_move"",29396,5738.5,2426,26694.2,275.8,""smooth"",""left"",""left"",""good_move"",31549.1,2152.9,1852.4,29396.2,300.5,""oops"",""left"",""right"",""bad_move""]"
"2776","","<div style=""width:500px;"">
  <p>What determined the result of this run?</p>
  </div>","0","html-slider-response","69","772813","0.0-7.0-1.11","44","1","2025-07-30 08:43:43","36c45c0696341be0efffe67d72a12abb","78.137.214.242","Mozilla/5.0 (Windows NT 10.0; Win64; x64) AppleWebKit/537.36 (KHTML, like Gecko) Chrome/138.0.0.0 Safari/537.36","WebKit","Chrome","138.0.0.0","Windows","10.0","https://app.prolific.com/","en-US,en;q=0.9,pt-PT;q=0.8,pt;q=0.7","6744700ac7a3406e40f009c5","687a360dabe5252b5ada7185","6889dae574f3e18dfb7474cf","0","6744700ac7a3406e40f009c5","0","2025-07-30T08:56:34.048Z","","","","AttribQ","","","","","","","","","","","50","","","","","","","","","","","","","","","","","","","","","","","","","","",""
"1676","","<div style=""width:500px;"">
  <p>How much control did you have over the ball?</p>
  </div>","0","html-slider-response","70","774490","0.0-7.0-2.11","44","1","2025-07-30 08:43:43","36c45c0696341be0efffe67d72a12abb","78.137.214.242","Mozilla/5.0 (Windows NT 10.0; Win64; x64) AppleWebKit/537.36 (KHTML, like Gecko) Chrome/138.0.0.0 Safari/537.36","WebKit","Chrome","138.0.0.0","Windows","10.0","https://app.prolific.com/","en-US,en;q=0.9,pt-PT;q=0.8,pt;q=0.7","6744700ac7a3406e40f009c5","687a360dabe5252b5ada7185","6889dae574f3e18dfb7474cf","0","6744700ac7a3406e40f009c5","0","2025-07-30T08:56:35.725Z","","","","ControlQ","","","","","","","","","","","50","","","","","","","","","","","","","","","","","","","","","","","","","","",""
"1593","","<div style=""width:500px;"">
  <p>How would you describe your current emotional state?</p>
  </div>","100","html-slider-response","71","776085","0.0-7.0-3.11","44","1","2025-07-30 08:43:43","36c45c0696341be0efffe67d72a12abb","78.137.214.242","Mozilla/5.0 (Windows NT 10.0; Win64; x64) AppleWebKit/537.36 (KHTML, like Gecko) Chrome/138.0.0.0 Safari/537.36","WebKit","Chrome","138.0.0.0","Windows","10.0","https://app.prolific.com/","en-US,en;q=0.9,pt-PT;q=0.8,pt;q=0.7","6744700ac7a3406e40f009c5","687a360dabe5252b5ada7185","6889dae574f3e18dfb7474cf","0","6744700ac7a3406e40f009c5","0","2025-07-30T08:56:37.320Z","","","","StressQ","","","","","","","","","","","50","","","","","","","","","","","","","","","","","","","","","","","","","","",""
"1549","","<div style=""width:500px;"">
  <p>What best describes how you currently feel?</p>
  </div>","0","html-slider-response","72","777634","0.0-7.0-4.11","44","1","2025-07-30 08:43:43","36c45c0696341be0efffe67d72a12abb","78.137.214.242","Mozilla/5.0 (Windows NT 10.0; Win64; x64) AppleWebKit/537.36 (KHTML, like Gecko) Chrome/138.0.0.0 Safari/537.36","WebKit","Chrome","138.0.0.0","Windows","10.0","https://app.prolific.com/","en-US,en;q=0.9,pt-PT;q=0.8,pt;q=0.7","6744700ac7a3406e40f009c5","687a360dabe5252b5ada7185","6889dae574f3e18dfb7474cf","0","6744700ac7a3406e40f009c5","0","2025-07-30T08:56:38.869Z","","","","MotivationQ","","","","","","","","","","","50","","","","","","","","","","","","","","","","","","","","","","","","","","",""
"","","","","ctl-task-cpt","73","806599","0.0-7.0-0.12","44","1","2025-07-30 08:43:43","36c45c0696341be0efffe67d72a12abb","78.137.214.242","Mozilla/5.0 (Windows NT 10.0; Win64; x64) AppleWebKit/537.36 (KHTML, like Gecko) Chrome/138.0.0.0 Safari/537.36","WebKit","Chrome","138.0.0.0","Windows","10.0","https://app.prolific.com/","en-US,en;q=0.9,pt-PT;q=0.8,pt;q=0.7","6744700ac7a3406e40f009c5","687a360dabe5252b5ada7185","6889dae574f3e18dfb7474cf","0","6744700ac7a3406e40f009c5","0","2025-07-30T08:57:07.834Z","","","","","","","","","","","","","","","","win-only","1","g1:NE,g2:SW","0.8","13","0","778569.1","862.9","5867","25946.3","1","4","4","6","1","1","1","1","0","0.007575757575757576","1701.4","3000","1725","[""up"",""right""]","{""num_key_presses"":4,""num_perfect"":3,""num_errors"":0,""num_randdir"":1,""num_randdir_good_moves"":1,""num_whilered"":0,""num_whileblue"":0,""num_blue"":3,""num_good_moves"":4}","[418.57142857142856,422.47767857142856,0.2,418.57142857142856,422.47767857142856,103,417.57142857142856,422.47767857142856,207.2,418.57142857142856,453.47767857142856,307.4,366.57142857142856,510.47767857142856,408.1,289.57142857142856,581.4776785714286,513.5,287.57142857142856,610.4776785714286,617.9,264.57142857142856,645.4776785714286,718,256.57142857142856,655.4776785714286,818.2,316.57142857142856,606.4776785714286,918.3,334.57142857142856,593.4776785714286,1023.6,265.57142857142856,641.4776785714286,1127.3,202.57142857142856,666.4776785714286,1228.3,274.57142857142856,555.4776785714286,1332.6,587.5714285714286,256.47767857142856,1437.7,716.5714285714286,142.47767857142856,1543.4,758.5714285714286,111.47767857142857,1647.6,763.5714285714286,109.47767857142857,1747.7,762.5714285714286,118.47767857142857,1852.3,743.5714285714286,159.47767857142856,1953.1,743.5714285714286,159.47767857142856,2058.2,743.5714285714286,159.47767857142856,2158.3,743.5714285714286,159.47767857142856,2258.8,743.5714285714286,159.47767857142856,2362.5,743.5714285714286,159.47767857142856,2467.8,743.5714285714286,159.47767857142856,2568.3,743.5714285714286,159.47767857142856,2668.5,743.5714285714286,159.47767857142856,2773.3,743.5714285714286,159.47767857142856,2878.9,743.5714285714286,159.47767857142856,2982.5,743.5714285714286,159.47767857142856,3082.9,743.5714285714286,159.47767857142856,3187.3,743.5714285714286,159.47767857142856,3287.3,743.5714285714286,159.47767857142856,3387.6,743.5714285714286,159.47767857142856,3492.5,743.5714285714286,159.47767857142856,3597.3,743.5714285714286,159.47767857142856,3698.3,743.5714285714286,159.47767857142856,3802.2,743.5714285714286,159.47767857142856,3902.5,743.5714285714286,159.47767857142856,4008.2,743.5714285714286,159.47767857142856,4112.6,743.5714285714286,159.47767857142856,4218.2,743.5714285714286,159.47767857142856,4323.5,743.5714285714286,159.47767857142856,4427.6,743.5714285714286,159.47767857142856,4532.2,743.5714285714286,159.47767857142856,4635.1,743.5714285714286,159.47767857142856,4738.3,743.5714285714286,159.47767857142856,4838.6,743.5714285714286,159.47767857142856,4942.5]","[4588.7,4588.7,2241.8,2004.1,342.8,""smooth"",""up"",""up"",""good_move"",8241.6,3652.7,3324.2,4588.9,328.5,""oops"",""right"",""up"",""good_move"",18383.8,10142.1,2378.5,15713.3,292,""smooth"",""right"",""right"",""good_move"",19991.7,1607.8,1275.8,18383.9,332,""smooth"",""right"",""right"",""good_move""]"
"3694","","<div style=""width:500px;"">
  <p>What determined the result of this run?</p>
  </div>","0","html-slider-response","74","810293","0.0-7.0-1.12","44","1","2025-07-30 08:43:43","36c45c0696341be0efffe67d72a12abb","78.137.214.242","Mozilla/5.0 (Windows NT 10.0; Win64; x64) AppleWebKit/537.36 (KHTML, like Gecko) Chrome/138.0.0.0 Safari/537.36","WebKit","Chrome","138.0.0.0","Windows","10.0","https://app.prolific.com/","en-US,en;q=0.9,pt-PT;q=0.8,pt;q=0.7","6744700ac7a3406e40f009c5","687a360dabe5252b5ada7185","6889dae574f3e18dfb7474cf","0","6744700ac7a3406e40f009c5","0","2025-07-30T08:57:11.528Z","","","","AttribQ","","","","","","","","","","","50","","","","","","","","","","","","","","","","","","","","","","","","","","",""
"2470","","<div style=""width:500px;"">
  <p>How much control did you have over the ball?</p>
  </div>","6","html-slider-response","75","812763","0.0-7.0-2.12","44","1","2025-07-30 08:43:43","36c45c0696341be0efffe67d72a12abb","78.137.214.242","Mozilla/5.0 (Windows NT 10.0; Win64; x64) AppleWebKit/537.36 (KHTML, like Gecko) Chrome/138.0.0.0 Safari/537.36","WebKit","Chrome","138.0.0.0","Windows","10.0","https://app.prolific.com/","en-US,en;q=0.9,pt-PT;q=0.8,pt;q=0.7","6744700ac7a3406e40f009c5","687a360dabe5252b5ada7185","6889dae574f3e18dfb7474cf","0","6744700ac7a3406e40f009c5","0","2025-07-30T08:57:13.998Z","","","","ControlQ","","","","","","","","","","","50","","","","","","","","","","","","","","","","","","","","","","","","","","",""
"1815","","<div style=""width:500px;"">
  <p>How would you describe your current emotional state?</p>
  </div>","100","html-slider-response","76","814580","0.0-7.0-3.12","44","1","2025-07-30 08:43:43","36c45c0696341be0efffe67d72a12abb","78.137.214.242","Mozilla/5.0 (Windows NT 10.0; Win64; x64) AppleWebKit/537.36 (KHTML, like Gecko) Chrome/138.0.0.0 Safari/537.36","WebKit","Chrome","138.0.0.0","Windows","10.0","https://app.prolific.com/","en-US,en;q=0.9,pt-PT;q=0.8,pt;q=0.7","6744700ac7a3406e40f009c5","687a360dabe5252b5ada7185","6889dae574f3e18dfb7474cf","0","6744700ac7a3406e40f009c5","0","2025-07-30T08:57:15.815Z","","","","StressQ","","","","","","","","","","","50","","","","","","","","","","","","","","","","","","","","","","","","","","",""
"2042","","<div style=""width:500px;"">
  <p>What best describes how you currently feel?</p>
