"rt","response_timestamp","stimulus","response","trial_type","trial_index","time_elapsed","internal_node_id","run_id","condition","recorded_at","source_code_version","ip","user_agent","device","browser","browser_version","platform","platform_version","referer","accept_language","PROLIFIC_PID","STUDY_ID","SESSION_ID","BATCH","prolific_id","batch","realtime","success","question_order","question_id","eventType","responses","item_order","radio_event_ids","radio_event_times","key_event_times","mouse_event_times","straightlining","zigzagging","honeypot","view_history","slider_start","which_type","canvas_config","goals_layout","control_level","trial_number","tutorial_trial_number","trial_start_time","phase1_start_time","phase2_start_time","phase3_start_time","goal_1_value","goal_1_distance","goal_2_value","goal_2_distance","goal_selected","outcome","outcome_total","participant_final_score","participant_initial_score","participant_final_score_prop","goal_choice_rt","allocated_time","allocated_time_remaining","goal_direction","counts","mouse_movements","key_presses"
"2862","1753864920985","<p style='font-size:40px;line-height:1.25'><strong>Welcome to the experiment!</strong></p><p style='font-size:1.1em;line-height:1.25'>Thank you for participanting in our experiment again! You will be asked to play the Dysfunctional Ball Game again. We will briefly recap the rules before we start.</p><p style='font-size:1.1em;line-height:1.25'>Press <strong>Next</strong> to continue.</p>","0","custom-html-button-response","0","2863","0.0-0.0","37","1","2025-07-30 08:41:57","36c45c0696341be0efffe67d72a12abb","78.84.164.26","Mozilla/5.0 (Windows NT 10.0; Win64; x64) AppleWebKit/537.36 (KHTML, like Gecko) Chrome/138.0.0.0 Safari/537.36","WebKit","Chrome","138.0.0.0","Windows","10.0","https://app.prolific.com/","en-GB,en-US;q=0.9,en;q=0.8","67458e548861194752950b3e","687a19d2168e237449fb8af4","6889da36102fce62d2a6f01e","0","67458e548861194752950b3e","0","2025-07-30T08:42:00.985Z","","","","","","","","","","","","","","","","","","","","","","","","","","","","","","","","","","","","","","","","","",""
"1287","","","","fullscreen","1","5177","0.0-1.0","37","1","2025-07-30 08:41:57","36c45c0696341be0efffe67d72a12abb","78.84.164.26","Mozilla/5.0 (Windows NT 10.0; Win64; x64) AppleWebKit/537.36 (KHTML, like Gecko) Chrome/138.0.0.0 Safari/537.36","WebKit","Chrome","138.0.0.0","Windows","10.0","https://app.prolific.com/","en-GB,en-US;q=0.9,en;q=0.8","67458e548861194752950b3e","687a19d2168e237449fb8af4","6889da36102fce62d2a6f01e","0","67458e548861194752950b3e","0","","true","","","","","","","","","","","","","","","","","","","","","","","","","","","","","","","","","","","","","","","","",""
"1406","1753864924705"," <p style='font-size:1.1em;line-height:1.25'>Thank you for closing all other tabs.</p><p style='font-size:1.1em;line-height:1.25'>We will now invite you to fill in some questionnaires, before starting the game.<br>This will take about 5 minutes.<br></p><p style='font-size:1.1em;line-height:1.25'>Press the <strong>Next</strong> button to continue.</p>","0","custom-html-button-response","2","6583","0.0-2.0","37","1","2025-07-30 08:41:57","36c45c0696341be0efffe67d72a12abb","78.84.164.26","Mozilla/5.0 (Windows NT 10.0; Win64; x64) AppleWebKit/537.36 (KHTML, like Gecko) Chrome/138.0.0.0 Safari/537.36","WebKit","Chrome","138.0.0.0","Windows","10.0","https://app.prolific.com/","en-GB,en-US;q=0.9,en;q=0.8","67458e548861194752950b3e","687a19d2168e237449fb8af4","6889da36102fce62d2a6f01e","0","67458e548861194752950b3e","0","2025-07-30T08:42:04.705Z","","","","","","","","","","","","","","","","","","","","","","","","","","","","","","","","","","","","","","","","","",""
"5377","","","{""assigned_sex"":""male""}","survey-multi-choice","3","11961","0.0-3.0-0.0","37","1","2025-07-30 08:41:57","36c45c0696341be0efffe67d72a12abb","78.84.164.26","Mozilla/5.0 (Windows NT 10.0; Win64; x64) AppleWebKit/537.36 (KHTML, like Gecko) Chrome/138.0.0.0 Safari/537.36","WebKit","Chrome","138.0.0.0","Windows","10.0","https://app.prolific.com/","en-GB,en-US;q=0.9,en;q=0.8","67458e548861194752950b3e","687a19d2168e237449fb8af4","6889da36102fce62d2a6f01e","0","67458e548861194752950b3e","0","","","[0]","0","demographics","","","","","","","","","","","","","","","","","","","","","","","","","","","","","","","","","","","","","",""
"1611","1753864931694","<p style='font-size:1.1em;line-height:1.25'>In the following, we will perform a baseline assessment. This means that we will ask you a few questions relating to your experiences over the past month.<br></p><p style='font-size:1.1em;line-height:1.25'>Press the <strong>Next</strong> button to continue.</p>","0","custom-html-button-response","4","13573","0.0-4.0-0.0","37","1","2025-07-30 08:41:57","36c45c0696341be0efffe67d72a12abb","78.84.164.26","Mozilla/5.0 (Windows NT 10.0; Win64; x64) AppleWebKit/537.36 (KHTML, like Gecko) Chrome/138.0.0.0 Safari/537.36","WebKit","Chrome","138.0.0.0","Windows","10.0","https://app.prolific.com/","en-GB,en-US;q=0.9,en;q=0.8","67458e548861194752950b3e","687a19d2168e237449fb8af4","6889da36102fce62d2a6f01e","0","67458e548861194752950b3e","0","2025-07-30T08:42:11.695Z","","","","","","","","","","","","","","","","","","","","","","","","","","","","","","","","","","","","","","","","","",""
"50618.80000001192","","","","survey-template","5","64193","0.0-4.0-1.0","37","1","2025-07-30 08:41:57","36c45c0696341be0efffe67d72a12abb","78.84.164.26","Mozilla/5.0 (Windows NT 10.0; Win64; x64) AppleWebKit/537.36 (KHTML, like Gecko) Chrome/138.0.0.0 Safari/537.36","WebKit","Chrome","138.0.0.0","Windows","10.0","https://app.prolific.com/","en-GB,en-US;q=0.9,en;q=0.8","67458e548861194752950b3e","687a19d2168e237449fb8af4","6889da36102fce62d2a6f01e","0","67458e548861194752950b3e","0","2025-07-30T08:43:02.315Z","","","","pss","{""Q01"":""1"",""Q02"":""2"",""Q03"":""1"",""Q04"":""1"",""Q05"":""1"",""Q06"":""1"",""Q07"":""3"",""Q08"":""1"",""Q09"":""2"",""Q10"":""1""}","[0,1,2,3,4,5,6,7,8,9]","[""Q01"",""Q02"",""Q03"",""Q04"",""Q05"",""Q06"",""Q07"",""Q08"",""Q09"",""Q10""]","[5976.300000011921,9981.300000011921,12486.5,17939.19999998808,20594,29069.100000023842,37311.5,41091.90000003576,46634.80000001192,49131.69999998808]","[]","[0.10000002384185791,5285.900000035763,5976.300000011921,9066.100000023842,9981.300000011921,12486.5,16942,17542,17939.19999998808,20594,29069.100000023842,37311.5,40566.5,41091.90000003576,45299.10000002384,46049.40000003576,46634.80000001192,49131.69999998808,50617.19999998808]","0.5","0.4444444444444444","0","","","","","","","","","","","","","","","","","","","","","","","","","","","","",""
"3327","1753864985643","<p style='font-size:1.1em;line-height:1.25'>Thank you for your answers! Now we will ask you a few more questions relating to your feelings in the last 24 hours.<br></p><p style='font-size:1.1em;line-height:1.25'>Press the <strong>Next</strong> button to continue.</p>","0","custom-html-button-response","6","67521","0.0-4.0-2.0","37","1","2025-07-30 08:41:57","36c45c0696341be0efffe67d72a12abb","78.84.164.26","Mozilla/5.0 (Windows NT 10.0; Win64; x64) AppleWebKit/537.36 (KHTML, like Gecko) Chrome/138.0.0.0 Safari/537.36","WebKit","Chrome","138.0.0.0","Windows","10.0","https://app.prolific.com/","en-GB,en-US;q=0.9,en;q=0.8","67458e548861194752950b3e","687a19d2168e237449fb8af4","6889da36102fce62d2a6f01e","0","67458e548861194752950b3e","0","2025-07-30T08:43:05.643Z","","","","","","","","","","","","","","","","","","","","","","","","","","","","","","","","","","","","","","","","","",""
"68895.89999997616","","","","survey-template","7","136420","0.0-4.0-3.0","37","1","2025-07-30 08:41:57","36c45c0696341be0efffe67d72a12abb","78.84.164.26","Mozilla/5.0 (Windows NT 10.0; Win64; x64) AppleWebKit/537.36 (KHTML, like Gecko) Chrome/138.0.0.0 Safari/537.36","WebKit","Chrome","138.0.0.0","Windows","10.0","https://app.prolific.com/","en-GB,en-US;q=0.9,en;q=0.8","67458e548861194752950b3e","687a19d2168e237449fb8af4","6889da36102fce62d2a6f01e","0","67458e548861194752950b3e","0","2025-07-30T08:44:14.542Z","","","","drsp","{""Q01"":""1"",""Q02"":""1"",""Q03"":""1"",""Q04"":""1"",""Q05"":""0"",""Q06"":""0"",""Q07"":""1"",""Q08"":""0"",""Q09"":""1"",""Q10"":""0"",""Q11"":""0"",""Q12"":""3"",""Q13"":""5"",""Q14"":""3"",""Q15"":""1"",""Q16"":""1"",""Q17"":""0"",""Q18"":""0"",""Q19"":""0"",""Q20"":""1"",""Q21"":""0"",""Q22"":""0""}","[0,1,2,3,4,5,6,7,8,9,10,11,12,13,14,15,16,17,18,19,20,21]","[""Q01"",""Q02"",""Q03"",""Q04"",""Q05"",""Q06"",""Q07"",""Q08"",""Q09"",""Q10"",""Q11"",""Q12"",""Q13"",""Q14"",""Q15"",""Q16"",""Q17"",""Q18"",""Q19"",""Q20"",""Q21"",""Q22""]","[3778.199999988079,4565.300000011921,5735.5,7768,11833.300000011921,14945.699999988079,19326.19999998808,21732.80000001192,25865.30000001192,29562.899999976158,31332.899999976158,33545.39999997616,36177.89999997616,39568,44997.89999997616,50855.39999997616,52566.09999996424,54058,58356,61640,65368.19999998808,68285.39999997616]","[]","[0,2592.899999976158,3208.099999964237,3778.199999988079,4565.300000011921,5735.5,7768,10310.5,11090.300000011921,11833.300000011921,14472.699999988079,14945.699999988079,18342.899999976158,19326.19999998808,21732.80000001192,25865.30000001192,29562.899999976158,31332.899999976158,33545.39999997616,36177.89999997616,39568,44512.5,44997.89999997616,50855.39999997616,52566.09999996424,53502.89999997616,54058,57868.19999998808,58356,61640,65368.19999998808,68285.39999997616,68893.5]","0.45454545454545453","0.38095238095238093","0","","","","","","","","","","","","","","","","","","","","","","","","","","","","",""
"12589.099999964237","","","","survey-template","8","149010","0.0-4.0-4.0","37","1","2025-07-30 08:41:57","36c45c0696341be0efffe67d72a12abb","78.84.164.26","Mozilla/5.0 (Windows NT 10.0; Win64; x64) AppleWebKit/537.36 (KHTML, like Gecko) Chrome/138.0.0.0 Safari/537.36","WebKit","Chrome","138.0.0.0","Windows","10.0","https://app.prolific.com/","en-GB,en-US;q=0.9,en;q=0.8","67458e548861194752950b3e","687a19d2168e237449fb8af4","6889da36102fce62d2a6f01e","0","67458e548861194752950b3e","0","2025-07-30T08:44:27.132Z","","","","stress","{""Q01"":""1"",""Q02"":""2"",""Q03"":""1""}","[0,1,2]","[""Q01"",""Q02"",""Q03""]","[2838.099999964237,8440.899999976158,11928.300000011921]","[]","[2838.099999964237,7968.599999964237,8440.899999976158,11928.300000011921,12588.5]","0.6666666666666666","0","0","","","","","","","","","","","","","","","","","","","","","","","","","","","","",""
"12074","","","","instructions","9","161084","0.0-5.0-0.0","37","1","2025-07-30 08:41:57","36c45c0696341be0efffe67d72a12abb","78.84.164.26","Mozilla/5.0 (Windows NT 10.0; Win64; x64) AppleWebKit/537.36 (KHTML, like Gecko) Chrome/138.0.0.0 Safari/537.36","WebKit","Chrome","138.0.0.0","Windows","10.0","https://app.prolific.com/","en-GB,en-US;q=0.9,en;q=0.8","67458e548861194752950b3e","687a19d2168e237449fb8af4","6889da36102fce62d2a6f01e","0","67458e548861194752950b3e","0","","","","","","","","","","","","","","","[{""page_index"":0,""viewing_time"":12074}]","","","","","","","","","","","","","","","","","","","","","","","","","","","",""
"4307","","<p>Before you start with this game please answer the following three questions yourself. </p>
  <p>Through this game, we measure several aspects of your cognitive performance, such as reaction times, multi-tasking capabilities </p>
  <p>and the ability to assess the situation you are in.</p>
  <p></p>
  <p><b>How good do you usually are in such tasks?</b></p>","70","html-slider-response","10","165404","0.0-6.0-0.0","37","1","2025-07-30 08:41:57","36c45c0696341be0efffe67d72a12abb","78.84.164.26","Mozilla/5.0 (Windows NT 10.0; Win64; x64) AppleWebKit/537.36 (KHTML, like Gecko) Chrome/138.0.0.0 Safari/537.36","WebKit","Chrome","138.0.0.0","Windows","10.0","https://app.prolific.com/","en-GB,en-US;q=0.9,en;q=0.8","67458e548861194752950b3e","687a19d2168e237449fb8af4","6889da36102fce62d2a6f01e","0","67458e548861194752950b3e","0","2025-07-30T08:44:43.526Z","","","","PreSkillQ","","","","","","","","","","","50","","","","","","","","","","","","","","","","","","","","","","","","","","",""
"4229","","<div style=""width:500px;"">
  <p>How well do you think you will perform in this task compared to other participants?</p>
  </div>","67","html-slider-response","11","169634","0.0-6.0-1.0","37","1","2025-07-30 08:41:57","36c45c0696341be0efffe67d72a12abb","78.84.164.26","Mozilla/5.0 (Windows NT 10.0; Win64; x64) AppleWebKit/537.36 (KHTML, like Gecko) Chrome/138.0.0.0 Safari/537.36","WebKit","Chrome","138.0.0.0","Windows","10.0","https://app.prolific.com/","en-GB,en-US;q=0.9,en;q=0.8","67458e548861194752950b3e","687a19d2168e237449fb8af4","6889da36102fce62d2a6f01e","0","67458e548861194752950b3e","0","2025-07-30T08:44:47.756Z","","","","PrePerfQ","","","","","","","","","","","50","","","","","","","","","","","","","","","","","","","","","","","","","","",""
"3089","","<div style=""width:500px;"">
  <p>What best describes how you currently feel?</p>
  </div>","66","html-slider-response","12","172724","0.0-6.0-2.0","37","1","2025-07-30 08:41:57","36c45c0696341be0efffe67d72a12abb","78.84.164.26","Mozilla/5.0 (Windows NT 10.0; Win64; x64) AppleWebKit/537.36 (KHTML, like Gecko) Chrome/138.0.0.0 Safari/537.36","WebKit","Chrome","138.0.0.0","Windows","10.0","https://app.prolific.com/","en-GB,en-US;q=0.9,en;q=0.8","67458e548861194752950b3e","687a19d2168e237449fb8af4","6889da36102fce62d2a6f01e","0","67458e548861194752950b3e","0","2025-07-30T08:44:50.846Z","","","","PreMotivationQ","","","","","","","","","","","50","","","","","","","","","","","","","","","","","","","","","","","","","","",""
"","","","","ctl-task-cpt","13","193196","0.0-7.0-0.0","37","1","2025-07-30 08:41:57","36c45c0696341be0efffe67d72a12abb","78.84.164.26","Mozilla/5.0 (Windows NT 10.0; Win64; x64) AppleWebKit/537.36 (KHTML, like Gecko) Chrome/138.0.0.0 Safari/537.36","WebKit","Chrome","138.0.0.0","Windows","10.0","https://app.prolific.com/","en-GB,en-US;q=0.9,en;q=0.8","67458e548861194752950b3e","687a19d2168e237449fb8af4","6889da36102fce62d2a6f01e","0","67458e548861194752950b3e","0","2025-07-30T08:45:11.318Z","","","","","","","","","","","","","","","","win-only","3","g1:SW,g2:NE","1","1","0","173711.4","2728.9","7732.1","17466.5","1","4","8","6","1","1","1","1","0","0.007575757575757576","5003.2","3000","1605","[""down"",""left""]","{""num_key_presses"":4,""num_perfect"":4,""num_errors"":0,""num_randdir"":0,""num_randdir_good_moves"":0,""num_whilered"":0,""num_whileblue"":0,""num_blue"":0,""num_good_moves"":4}","[424.0714133126395,415.32142761775424,0.1,424.0714133126395,415.32142761775424,104.1,424.0714133126395,415.32142761775424,206.4,424.0714133126395,415.32142761775424,308.2,424.0714133126395,415.32142761775424,412.3,421.5714133126395,416.57142761775424,517.9,412.8214133126395,417.82142761775424,622.2,386.5714133126395,435.32142761775424,726.4,366.5714133126395,452.82142761775424,827.6,344.0714133126395,485.32142761775424,932.3,344.0714133126395,485.32142761775424,1037,344.0714133126395,485.32142761775424,1137.3,344.0714133126395,485.32142761775424,1241.7,344.0714133126395,485.32142761775424,1341.9,344.0714133126395,485.32142761775424,1446.8,344.0714133126395,485.32142761775424,1547.1,344.0714133126395,485.32142761775424,1651.9,344.0714133126395,485.32142761775424,1757.3,344.0714133126395,485.32142761775424,1862.2,344.0714133126395,485.32142761775424,1967.2,344.0714133126395,485.32142761775424,2067.4,344.0714133126395,485.32142761775424,2172.6,344.0714133126395,485.32142761775424,2276.8,344.0714133126395,485.32142761775424,2377.2,344.0714133126395,485.32142761775424,2481.7,344.0714133126395,485.32142761775424,2587,344.0714133126395,485.32142761775424,2687,351.5714133126395,477.82142761775424,2792,351.5714133126395,477.82142761775424,2892.1,351.5714133126395,477.82142761775424,2992.6,351.5714133126395,477.82142761775424,3097.5,351.5714133126395,477.82142761775424,3197.5,351.5714133126395,477.82142761775424,3302,351.5714133126395,477.82142761775424,3407.1,351.5714133126395,477.82142761775424,3511.6,351.5714133126395,477.82142761775424,3612.7,351.5714133126395,477.82142761775424,3716.3,351.5714133126395,477.82142761775424,3816.5,351.5714133126395,477.82142761775424,3917.6,351.5714133126395,477.82142761775424,4021.8,351.5714133126395,477.82142761775424,4121.8,351.5714133126395,477.82142761775424,4222,351.5714133126395,477.82142761775424,4326.9,331.5714133126395,496.57142761775424,4427.4,331.5714133126395,496.57142761775424,4531.7,219.0714133126395,451.57142761775424,4632.6,136.5714133126395,650.3214276177542,4736.9,121.5714133126395,656.5714276177542,4841.9,86.5714133126395,740.3214276177542,4948.3]","[1036.2,1036.2,1000,0,36.2,""smooth"",""down"",""down"",""good_move"",4766.4,3729.9,3078.1,1036.5,651.8,""smooth"",""left"",""left"",""good_move"",7267.7,2501.1,2105.5,4766.6,395.6,""smooth"",""left"",""left"",""good_move"",9641.9,2373.9,2034.6,7268,339.3,""smooth"",""down"",""down"",""good_move""]"
"2417","","<div style=""width:500px;"">
  <p>What determined the result of this run?</p>
  </div>","50","html-slider-response","14","195614","0.0-7.0-1.0","37","1","2025-07-30 08:41:57","36c45c0696341be0efffe67d72a12abb","78.84.164.26","Mozilla/5.0 (Windows NT 10.0; Win64; x64) AppleWebKit/537.36 (KHTML, like Gecko) Chrome/138.0.0.0 Safari/537.36","WebKit","Chrome","138.0.0.0","Windows","10.0","https://app.prolific.com/","en-GB,en-US;q=0.9,en;q=0.8","67458e548861194752950b3e","687a19d2168e237449fb8af4","6889da36102fce62d2a6f01e","0","67458e548861194752950b3e","0","2025-07-30T08:45:13.736Z","","","","AttribQ","","","","","","","","","","","50","","","","","","","","","","","","","","","","","","","","","","","","","","",""
"1019","","<div style=""width:500px;"">
  <p>How much control did you have over the ball?</p>
  </div>","50","html-slider-response","15","196634","0.0-7.0-2.0","37","1","2025-07-30 08:41:57","36c45c0696341be0efffe67d72a12abb","78.84.164.26","Mozilla/5.0 (Windows NT 10.0; Win64; x64) AppleWebKit/537.36 (KHTML, like Gecko) Chrome/138.0.0.0 Safari/537.36","WebKit","Chrome","138.0.0.0","Windows","10.0","https://app.prolific.com/","en-GB,en-US;q=0.9,en;q=0.8","67458e548861194752950b3e","687a19d2168e237449fb8af4","6889da36102fce62d2a6f01e","0","67458e548861194752950b3e","0","2025-07-30T08:45:14.756Z","","","","ControlQ","","","","","","","","","","","50","","","","","","","","","","","","","","","","","","","","","","","","","","",""
"1544","","<div style=""width:500px;"">
  <p>How would you describe your current emotional state?</p>
  </div>","50","html-slider-response","16","198179","0.0-7.0-3.0","37","1","2025-07-30 08:41:57","36c45c0696341be0efffe67d72a12abb","78.84.164.26","Mozilla/5.0 (Windows NT 10.0; Win64; x64) AppleWebKit/537.36 (KHTML, like Gecko) Chrome/138.0.0.0 Safari/537.36","WebKit","Chrome","138.0.0.0","Windows","10.0","https://app.prolific.com/","en-GB,en-US;q=0.9,en;q=0.8","67458e548861194752950b3e","687a19d2168e237449fb8af4","6889da36102fce62d2a6f01e","0","67458e548861194752950b3e","0","2025-07-30T08:45:16.301Z","","","","StressQ","","","","","","","","","","","50","","","","","","","","","","","","","","","","","","","","","","","","","","",""
"959","","<div style=""width:500px;"">
  <p>What best describes how you currently feel?</p>
  </div>","50","html-slider-response","17","199139","0.0-7.0-4.0","37","1","2025-07-30 08:41:57","36c45c0696341be0efffe67d72a12abb","78.84.164.26","Mozilla/5.0 (Windows NT 10.0; Win64; x64) AppleWebKit/537.36 (KHTML, like Gecko) Chrome/138.0.0.0 Safari/537.36","WebKit","Chrome","138.0.0.0","Windows","10.0","https://app.prolific.com/","en-GB,en-US;q=0.9,en;q=0.8","67458e548861194752950b3e","687a19d2168e237449fb8af4","6889da36102fce62d2a6f01e","0","67458e548861194752950b3e","0","2025-07-30T08:45:17.261Z","","","","MotivationQ","","","","","","","","","","","50","","","","","","","","","","","","","","","","","","","","","","","","","","",""
"","","","","ctl-task-cpt","18","232357","0.0-7.0-0.1","37","1","2025-07-30 08:41:57","36c45c0696341be0efffe67d72a12abb","78.84.164.26","Mozilla/5.0 (Windows NT 10.0; Win64; x64) AppleWebKit/537.36 (KHTML, like Gecko) Chrome/138.0.0.0 Safari/537.36","WebKit","Chrome","138.0.0.0","Windows","10.0","https://app.prolific.com/","en-GB,en-US;q=0.9,en;q=0.8","67458e548861194752950b3e","687a19d2168e237449fb8af4","6889da36102fce62d2a6f01e","0","67458e548861194752950b3e","0","2025-07-30T08:45:50.479Z","","","","","","","","","","","","","","","","win-only","1","g1:NE,g2:SW","0.9","2","0","200125.8","997.8","6001.1","30212.6","1","4","4","6","2","4","3","4","1","0.030303030303030304","1206.5","3000","500","[""down"",""left""]","{""num_key_presses"":7,""num_perfect"":5,""num_errors"":1,""num_randdir"":1,""num_randdir_good_moves"":1,""num_whilered"":0,""num_whileblue"":0,""num_blue"":2,""num_good_moves"":6}","[416.5714133126395,410.32142761775424,0.1,416.5714133126395,411.57142761775424,100.9,416.5714133126395,411.57142761775424,202.4,416.5714133126395,411.57142761775424,302.5,416.5714133126395,409.07142761775424,403.2,416.5714133126395,409.07142761775424,508.7,416.5714133126395,409.07142761775424,613.5,416.5714133126395,410.32142761775424,717.6,326.5714133126395,511.57142761775424,823.4,131.5714133126395,679.0714276177542,928.7,110.3214133126395,690.3214276177542,1032.7,61.57141331263951,737.8214276177542,1133.1,46.57141331263951,747.8214276177542,1239.1,45.32141331263951,749.0714276177542,1342.8,67.8214133126395,727.8214276177542,1443.2,174.0714133126395,675.3214276177542,1547.9,397.8214133126395,586.5714276177542,1648,396.5714133126395,587.8214276177542,1748.1,391.5714133126395,590.3214276177542,1852.7,387.8214133126395,591.5714276177542,1952.7,385.3214133126395,600.3214276177542,2053.2,385.3214133126395,600.3214276177542,2157.4,385.3214133126395,600.3214276177542,2258.1,397.8214133126395,605.3214276177542,2363.6,382.8214133126395,606.5714276177542,2467.4,381.5714133126395,606.5714276177542,2572.7,381.5714133126395,606.5714276177542,2673.5,381.5714133126395,606.5714276177542,2778.9,381.5714133126395,606.5714276177542,2882.7,381.5714133126395,606.5714276177542,2987.8,381.5714133126395,606.5714276177542,3087.9,381.5714133126395,606.5714276177542,3192.8,381.5714133126395,606.5714276177542,3293.6,381.5714133126395,606.5714276177542,3398.7,381.5714133126395,606.5714276177542,3502.4,381.5714133126395,606.5714276177542,3603.2,381.5714133126395,606.5714276177542,3708.2,381.5714133126395,606.5714276177542,3813.2,381.5714133126395,606.5714276177542,3917.4,381.5714133126395,606.5714276177542,4017.7,381.5714133126395,606.5714276177542,4122.6,381.5714133126395,606.5714276177542,4223.1,381.5714133126395,606.5714276177542,4323.6,381.5714133126395,606.5714276177542,4427.5,381.5714133126395,606.5714276177542,4528.9,381.5714133126395,606.5714276177542,4633.3,381.5714133126395,606.5714276177542,4737.4,381.5714133126395,606.5714276177542,4838.9,381.5714133126395,606.5714276177542,4943.3]","[1408.7,1408.7,1000,0,408.7,""smooth"",""down"",""down"",""good_move"",7450.3,6041.4,2298.1,4810,342.2,""smooth"",""down"",""down"",""good_move"",14381.1,6930.7,1901.3,12084.7,395.1,""smooth"",""left"",""left"",""good_move"",17364.3,2983,2637,14381.3,346,""oops"",""left"",""down"",""good_move"",19500.4,2135.9,1664.7,17364.5,471.2,""smooth"",""left"",""left"",""good_move"",20414.6,914,2462.8,19500.6,-1548.8,""error"",""-"",""-"",""no_move"",24116.3,3701.5,2112.8,21419.9,583.6,""smooth"",""left"",""left"",""good_move""]"
"2663","","<div style=""width:500px;"">
  <p>What determined the result of this run?</p>
  </div>","50","html-slider-response","19","235020","0.0-7.0-1.1","37","1","2025-07-30 08:41:57","36c45c0696341be0efffe67d72a12abb","78.84.164.26","Mozilla/5.0 (Windows NT 10.0; Win64; x64) AppleWebKit/537.36 (KHTML, like Gecko) Chrome/138.0.0.0 Safari/537.36","WebKit","Chrome","138.0.0.0","Windows","10.0","https://app.prolific.com/","en-GB,en-US;q=0.9,en;q=0.8","67458e548861194752950b3e","687a19d2168e237449fb8af4","6889da36102fce62d2a6f01e","0","67458e548861194752950b3e","0","2025-07-30T08:45:53.142Z","","","","AttribQ","","","","","","","","","","","50","","","","","","","","","","","","","","","","","","","","","","","","","","",""
"1416","","<div style=""width:500px;"">
  <p>How much control did you have over the ball?</p>
  </div>","50","html-slider-response","20","236437","0.0-7.0-2.1","37","1","2025-07-30 08:41:57","36c45c0696341be0efffe67d72a12abb","78.84.164.26","Mozilla/5.0 (Windows NT 10.0; Win64; x64) AppleWebKit/537.36 (KHTML, like Gecko) Chrome/138.0.0.0 Safari/537.36","WebKit","Chrome","138.0.0.0","Windows","10.0","https://app.prolific.com/","en-GB,en-US;q=0.9,en;q=0.8","67458e548861194752950b3e","687a19d2168e237449fb8af4","6889da36102fce62d2a6f01e","0","67458e548861194752950b3e","0","2025-07-30T08:45:54.559Z","","","","ControlQ","","","","","","","","","","","50","","","","","","","","","","","","","","","","","","","","","","","","","","",""
"974","","<div style=""width:500px;"">
  <p>How would you describe your current emotional state?</p>
  </div>","49","html-slider-response","21","237412","0.0-7.0-3.1","37","1","2025-07-30 08:41:57","36c45c0696341be0efffe67d72a12abb","78.84.164.26","Mozilla/5.0 (Windows NT 10.0; Win64; x64) AppleWebKit/537.36 (KHTML, like Gecko) Chrome/138.0.0.0 Safari/537.36","WebKit","Chrome","138.0.0.0","Windows","10.0","https://app.prolific.com/","en-GB,en-US;q=0.9,en;q=0.8","67458e548861194752950b3e","687a19d2168e237449fb8af4","6889da36102fce62d2a6f01e","0","67458e548861194752950b3e","0","2025-07-30T08:45:55.534Z","","","","StressQ","","","","","","","","","","","50","","","","","","","","","","","","","","","","","","","","","","","","","","",""
"2017","","<div style=""width:500px;"">
  <p>What best describes how you currently feel?</p>
  </div>","50","html-slider-response","22","239429","0.0-7.0-4.1","37","1","2025-07-30 08:41:57","36c45c0696341be0efffe67d72a12abb","78.84.164.26","Mozilla/5.0 (Windows NT 10.0; Win64; x64) AppleWebKit/537.36 (KHTML, like Gecko) Chrome/138.0.0.0 Safari/537.36","WebKit","Chrome","138.0.0.0","Windows","10.0","https://app.prolific.com/","en-GB,en-US;q=0.9,en;q=0.8","67458e548861194752950b3e","687a19d2168e237449fb8af4","6889da36102fce62d2a6f01e","0","67458e548861194752950b3e","0","2025-07-30T08:45:57.552Z","","","","MotivationQ","","","","","","","","","","","50","","","","","","","","","","","","","","","","","","","","","","","","","","",""
"","","","","ctl-task-cpt","23","261200","0.0-7.0-0.2","37","1","2025-07-30 08:41:57","36c45c0696341be0efffe67d72a12abb","78.84.164.26","Mozilla/5.0 (Windows NT 10.0; Win64; x64) AppleWebKit/537.36 (KHTML, like Gecko) Chrome/138.0.0.0 Safari/537.36","WebKit","Chrome","138.0.0.0","Windows","10.0","https://app.prolific.com/","en-GB,en-US;q=0.9,en;q=0.8","67458e548861194752950b3e","687a19d2168e237449fb8af4","6889da36102fce62d2a6f01e","0","67458e548861194752950b3e","0","2025-07-30T08:46:19.322Z","","","","","","","","","","","","","","","","win-only","2","g1:SE,g2:NW","0.8","3","0","240416.8","823.4","5825.9","18760.5","1","4","8","6","1","1","0","4","4","0.030303030303030304","3564.5","3000","1435","[""down"",""right""]","{""num_key_presses"":5,""num_perfect"":4,""num_errors"":1,""num_randdir"":0,""num_randdir_good_moves"":0,""num_whilered"":0,""num_whileblue"":0,""num_blue"":0,""num_good_moves"":4}","[412.8214133126395,426.57142761775424,0.1,412.8214133126395,426.57142761775424,101.9,424.0714133126395,416.57142761775424,202.1,441.5714133126395,401.57142761775424,302.3,461.5714133126395,425.32142761775424,407,471.5714133126395,429.07142761775424,508.3,257.8214133126395,199.07142761775424,615,251.5714133126395,36.57142761775425,715,199.0714133126395,44.07142761775425,817.3,130.3214133126395,52.82142761775425,922.2,130.3214133126395,52.82142761775425,1032,131.5714133126395,56.57142761775425,1137.6,135.3214133126395,71.57142761775425,1241.9,131.5714133126395,75.32142761775425,1347.9,131.5714133126395,75.32142761775425,1452.1,131.5714133126395,75.32142761775425,1557.2,77.8214133126395,32.82142761775425,1665.3,72.8214133126395,36.57142761775425,1767.3,74.0714133126395,39.07142761775425,1871.8,81.5714133126395,61.57142761775425,1971.8,326.5714133126395,309.07142761775424,2072,606.5714133126395,551.5714276177542,2172.4,624.0714133126395,704.0714276177542,2281.4,654.0714133126395,736.5714276177542,2381.4,737.8214133126395,751.5714276177542,2481.5,746.5714133126395,761.5714276177542,2582,746.5714133126395,761.5714276177542,2687.5,746.5714133126395,761.5714276177542,2798.4,740.3214133126395,766.5714276177542,2898.6,739.0714133126395,766.5714276177542,3002,739.0714133126395,766.5714276177542,3102.5,739.0714133126395,766.5714276177542,3207.1,739.0714133126395,766.5714276177542,3314.3,739.0714133126395,766.5714276177542,3417.2,739.0714133126395,766.5714276177542,3517.3,739.0714133126395,769.0714276177542,3622.3,739.0714133126395,770.3214276177542,3731.5,739.0714133126395,771.5714276177542,3831.6,802.8214133126395,775.3214276177542,3931.7,802.8214133126395,775.3214276177542,4031.8,802.8214133126395,775.3214276177542,4133.9,802.8214133126395,775.3214276177542,4237.4,802.8214133126395,775.3214276177542,4346.6,802.8214133126395,775.3214276177542,4447.1,802.8214133126395,775.3214276177542,4552.4,802.8214133126395,775.3214276177542,4657,802.8214133126395,775.3214276177542,4757.6,802.8214133126395,775.3214276177542,4864.4,802.8214133126395,775.3214276177542,4964.6]","[550.9,550.9,1000,0,-449.1,""error"",""-"",""-"",""no_move"",4368.4,3817.5,2442.2,1561.7,364.6,""smooth"",""down"",""down"",""good_move"",7476,3107.3,2715.7,4368.7,391.6,""smooth"",""right"",""right"",""good_move"",10200.5,2724.2,2134.9,7476.3,589.3,""smooth"",""down"",""down"",""good_move"",12842.4,2641.7,2226,10200.7,415.7,""smooth"",""right"",""right"",""good_move""]"
"1704","","<div style=""width:500px;"">
  <p>What determined the result of this run?</p>
  </div>","66","html-slider-response","24","262904","0.0-7.0-1.2","37","1","2025-07-30 08:41:57","36c45c0696341be0efffe67d72a12abb","78.84.164.26","Mozilla/5.0 (Windows NT 10.0; Win64; x64) AppleWebKit/537.36 (KHTML, like Gecko) Chrome/138.0.0.0 Safari/537.36","WebKit","Chrome","138.0.0.0","Windows","10.0","https://app.prolific.com/","en-GB,en-US;q=0.9,en;q=0.8","67458e548861194752950b3e","687a19d2168e237449fb8af4","6889da36102fce62d2a6f01e","0","67458e548861194752950b3e","0","2025-07-30T08:46:21.027Z","","","","AttribQ","","","","","","","","","","","50","","","","","","","","","","","","","","","","","","","","","","","","","","",""
"2707","","<div style=""width:500px;"">
  <p>How much control did you have over the ball?</p>
  </div>","54","html-slider-response","25","265612","0.0-7.0-2.2","37","1","2025-07-30 08:41:57","36c45c0696341be0efffe67d72a12abb","78.84.164.26","Mozilla/5.0 (Windows NT 10.0; Win64; x64) AppleWebKit/537.36 (KHTML, like Gecko) Chrome/138.0.0.0 Safari/537.36","WebKit","Chrome","138.0.0.0","Windows","10.0","https://app.prolific.com/","en-GB,en-US;q=0.9,en;q=0.8","67458e548861194752950b3e","687a19d2168e237449fb8af4","6889da36102fce62d2a6f01e","0","67458e548861194752950b3e","0","2025-07-30T08:46:23.735Z","","","","ControlQ","","","","","","","","","","","50","","","","","","","","","","","","","","","","","","","","","","","","","","",""
"726","","<div style=""width:500px;"">
  <p>How would you describe your current emotional state?</p>
  </div>","61","html-slider-response","26","266339","0.0-7.0-3.2","37","1","2025-07-30 08:41:57","36c45c0696341be0efffe67d72a12abb","78.84.164.26","Mozilla/5.0 (Windows NT 10.0; Win64; x64) AppleWebKit/537.36 (KHTML, like Gecko) Chrome/138.0.0.0 Safari/537.36","WebKit","Chrome","138.0.0.0","Windows","10.0","https://app.prolific.com/","en-GB,en-US;q=0.9,en;q=0.8","67458e548861194752950b3e","687a19d2168e237449fb8af4","6889da36102fce62d2a6f01e","0","67458e548861194752950b3e","0","2025-07-30T08:46:24.461Z","","","","StressQ","","","","","","","","","","","50","","","","","","","","","","","","","","","","","","","","","","","","","","",""
"1552","","<div style=""width:500px;"">
  <p>What best describes how you currently feel?</p>
  </div>","58","html-slider-response","27","267892","0.0-7.0-4.2","37","1","2025-07-30 08:41:57","36c45c0696341be0efffe67d72a12abb","78.84.164.26","Mozilla/5.0 (Windows NT 10.0; Win64; x64) AppleWebKit/537.36 (KHTML, like Gecko) Chrome/138.0.0.0 Safari/537.36","WebKit","Chrome","138.0.0.0","Windows","10.0","https://app.prolific.com/","en-GB,en-US;q=0.9,en;q=0.8","67458e548861194752950b3e","687a19d2168e237449fb8af4","6889da36102fce62d2a6f01e","0","67458e548861194752950b3e","0","2025-07-30T08:46:26.014Z","","","","MotivationQ","","","","","","","","","","","50","","","","","","","","","","","","","","","","","","","","","","","","","","",""
"","","","","ctl-task-cpt","28","292462","0.0-7.0-0.3","37","1","2025-07-30 08:41:57","36c45c0696341be0efffe67d72a12abb","78.84.164.26","Mozilla/5.0 (Windows NT 10.0; Win64; x64) AppleWebKit/537.36 (KHTML, like Gecko) Chrome/138.0.0.0 Safari/537.36","WebKit","Chrome","138.0.0.0","Windows","10.0","https://app.prolific.com/","en-GB,en-US;q=0.9,en;q=0.8","67458e548861194752950b3e","687a19d2168e237449fb8af4","6889da36102fce62d2a6f01e","0","67458e548861194752950b3e","0","2025-07-30T08:46:50.584Z","","","","","","","","","","","","","","","","win-only","2","g1:SE,g2:NW","0.7","4","0","268879.5","629.3","5630.6","21555.4","1","4","4","6","1","1","1","5","4","0.03787878787878788","1459.2","3000","1350","[""down"",""right""]","{""num_key_presses"":4,""num_perfect"":4,""num_errors"":0,""num_randdir"":0,""num_randdir_good_moves"":0,""num_whilered"":0,""num_whileblue"":0,""num_blue"":1,""num_good_moves"":4}","[424.0714133126395,421.57142761775424,0.1,424.0714133126395,421.57142761775424,101.1,424.0714133126395,421.57142761775424,201.2,417.8214133126395,416.57142761775424,301.2,359.0714133126395,376.57142761775424,401.2,342.8214133126395,352.82142761775424,501.6,194.0714133126395,191.57142761775424,610.6,172.8214133126395,151.57142761775424,711.2,170.3214133126395,147.82142761775424,811.4,170.3214133126395,147.82142761775424,915.9,197.8214133126395,209.07142761775424,1016.1,702.8214133126395,636.5714276177542,1116.7,749.0714133126395,716.5714276177542,1226.8,756.5714133126395,736.5714276177542,1326.9,761.5714133126395,745.3214276177542,1427,761.5714133126395,745.3214276177542,1531.2,761.5714133126395,745.3214276177542,1631.4,764.0714133126395,746.5714276177542,1732.3,764.0714133126395,746.5714276177542,1836,764.0714133126395,746.5714276177542,1943.3,764.0714133126395,746.5714276177542,2043.4,764.0714133126395,746.5714276177542,2143.4,764.0714133126395,746.5714276177542,2246.3,764.0714133126395,746.5714276177542,2351.5,764.0714133126395,746.5714276177542,2451.7,764.0714133126395,746.5714276177542,2551.8,764.0714133126395,746.5714276177542,2651.8,764.0714133126395,746.5714276177542,2759.9,764.0714133126395,746.5714276177542,2859.9,764.0714133126395,746.5714276177542,2959.9,764.0714133126395,746.5714276177542,3060,764.0714133126395,746.5714276177542,3161,764.0714133126395,746.5714276177542,3261.6,764.0714133126395,746.5714276177542,3366.1,764.0714133126395,746.5714276177542,3476.2,764.0714133126395,746.5714276177542,3576.4,764.0714133126395,746.5714276177542,3680.8,764.0714133126395,746.5714276177542,3781.8,764.0714133126395,746.5714276177542,3886.7,764.0714133126395,746.5714276177542,3993.5,764.0714133126395,746.5714276177542,4096.3,764.0714133126395,746.5714276177542,4201,764.0714133126395,746.5714276177542,4301.5,764.0714133126395,746.5714276177542,4409.5,764.0714133126395,746.5714276177542,4509.6,764.0714133126395,746.5714276177542,4609.9,764.0714133126395,746.5714276177542,4711.2,764.0714133126395,746.5714276177542,4811.7,764.0714133126395,746.5714276177542,4916.4]","[1563.2,1563.2,1000,0,563.2,""smooth"",""down"",""down"",""good_move"",4179.3,2615.7,2231.4,1563.6,384.3,""smooth"",""right"",""right"",""good_move"",7655.9,3476.4,3077.5,4179.5,398.9,""smooth"",""right"",""right"",""good_move"",15809.4,8153.3,3315.3,11974.9,519.3,""smooth"",""down"",""down"",""good_move""]"
"2804","","<div style=""width:500px;"">
  <p>What determined the result of this run?</p>
  </div>","49","html-slider-response","29","295267","0.0-7.0-1.3","37","1","2025-07-30 08:41:57","36c45c0696341be0efffe67d72a12abb","78.84.164.26","Mozilla/5.0 (Windows NT 10.0; Win64; x64) AppleWebKit/537.36 (KHTML, like Gecko) Chrome/138.0.0.0 Safari/537.36","WebKit","Chrome","138.0.0.0","Windows","10.0","https://app.prolific.com/","en-GB,en-US;q=0.9,en;q=0.8","67458e548861194752950b3e","687a19d2168e237449fb8af4","6889da36102fce62d2a6f01e","0","67458e548861194752950b3e","0","2025-07-30T08:46:53.389Z","","","","AttribQ","","","","","","","","","","","50","","","","","","","","","","","","","","","","","","","","","","","","","","",""
"877","","<div style=""width:500px;"">
  <p>How much control did you have over the ball?</p>
  </div>","51","html-slider-response","30","296145","0.0-7.0-2.3","37","1","2025-07-30 08:41:57","36c45c0696341be0efffe67d72a12abb","78.84.164.26","Mozilla/5.0 (Windows NT 10.0; Win64; x64) AppleWebKit/537.36 (KHTML, like Gecko) Chrome/138.0.0.0 Safari/537.36","WebKit","Chrome","138.0.0.0","Windows","10.0","https://app.prolific.com/","en-GB,en-US;q=0.9,en;q=0.8","67458e548861194752950b3e","687a19d2168e237449fb8af4","6889da36102fce62d2a6f01e","0","67458e548861194752950b3e","0","2025-07-30T08:46:54.267Z","","","","ControlQ","","","","","","","","","","","50","","","","","","","","","","","","","","","","","","","","","","","","","","",""
"929","","<div style=""width:500px;"">
  <p>How would you describe your current emotional state?</p>
  </div>","51","html-slider-response","31","297075","0.0-7.0-3.3","37","1","2025-07-30 08:41:57","36c45c0696341be0efffe67d72a12abb","78.84.164.26","Mozilla/5.0 (Windows NT 10.0; Win64; x64) AppleWebKit/537.36 (KHTML, like Gecko) Chrome/138.0.0.0 Safari/537.36","WebKit","Chrome","138.0.0.0","Windows","10.0","https://app.prolific.com/","en-GB,en-US;q=0.9,en;q=0.8","67458e548861194752950b3e","687a19d2168e237449fb8af4","6889da36102fce62d2a6f01e","0","67458e548861194752950b3e","0","2025-07-30T08:46:55.197Z","","","","StressQ","","","","","","","","","","","50","","","","","","","","","","","","","","","","","","","","","","","","","","",""
"817","","<div style=""width:500px;"">
  <p>What best describes how you currently feel?</p>
  </div>","49","html-slider-response","32","297892","0.0-7.0-4.3","37","1","2025-07-30 08:41:57","36c45c0696341be0efffe67d72a12abb","78.84.164.26","Mozilla/5.0 (Windows NT 10.0; Win64; x64) AppleWebKit/537.36 (KHTML, like Gecko) Chrome/138.0.0.0 Safari/537.36","WebKit","Chrome","138.0.0.0","Windows","10.0","https://app.prolific.com/","en-GB,en-US;q=0.9,en;q=0.8","67458e548861194752950b3e","687a19d2168e237449fb8af4","6889da36102fce62d2a6f01e","0","67458e548861194752950b3e","0","2025-07-30T08:46:56.015Z","","","","MotivationQ","","","","","","","","","","","50","","","","","","","","","","","","","","","","","","","","","","","","","","",""
"","","","","ctl-task-cpt","33","346416","0.0-7.0-0.4","37","1","2025-07-30 08:41:57","36c45c0696341be0efffe67d72a12abb","78.84.164.26","Mozilla/5.0 (Windows NT 10.0; Win64; x64) AppleWebKit/537.36 (KHTML, like Gecko) Chrome/138.0.0.0 Safari/537.36","WebKit","Chrome","138.0.0.0","Windows","10.0","https://app.prolific.com/","en-GB,en-US;q=0.9,en;q=0.8","67458e548861194752950b3e","687a19d2168e237449fb8af4","6889da36102fce62d2a6f01e","0","67458e548861194752950b3e","0","2025-07-30T08:47:44.538Z","","","","","","","","","","","","","","","","win-only","2","g1:SE,g2:NW","0.6","5","0","298879.6","1184.1","6185.8","45506.1","1","4","8","6","2","-8","-14","0","5","0","757.7","3000","-2995","[""left"",""up""]","{""num_key_presses"":20,""num_perfect"":5,""num_errors"":6,""num_randdir"":4,""num_randdir_good_moves"":2,""num_whilered"":5,""num_whileblue"":3,""num_blue"":3,""num_good_moves"":8}","[421.5714133126395,422.82142761775424,0.1,420.3214133126395,421.57142761775424,102,420.3214133126395,421.57142761775424,206.8,399.0714133126395,444.07142761775424,308.1,159.0714133126395,289.07142761775424,411.8,161.5714133126395,229.07142761775424,516.4,129.0714133126395,161.57142761775424,621.6,79.0714133126395,76.57142761775425,722.4,97.8214133126395,89.07142761775425,826.2,109.0714133126395,96.57142761775425,926.8,351.5714133126395,436.57142761775424,1026.8,766.5714133126395,481.57142761775424,1131.6,792.8214133126395,461.57142761775424,1237.3,794.0714133126395,461.57142761775424,1342.6,794.0714133126395,461.57142761775424,1446.1,794.0714133126395,461.57142761775424,1546.8,794.0714133126395,461.57142761775424,1646.8,794.0714133126395,461.57142761775424,1747,794.0714133126395,461.57142761775424,1847,794.0714133126395,461.57142761775424,1952.2,794.0714133126395,461.57142761775424,2057.3,794.0714133126395,461.57142761775424,2161.3,794.0714133126395,461.57142761775424,2262.6,794.0714133126395,461.57142761775424,2366.7,794.0714133126395,461.57142761775424,2467.1,794.0714133126395,461.57142761775424,2567.4,794.0714133126395,461.57142761775424,2671.8,794.0714133126395,461.57142761775424,2771.9,794.0714133126395,461.57142761775424,2872,794.0714133126395,461.57142761775424,2972.1,794.0714133126395,461.57142761775424,3076.7,794.0714133126395,461.57142761775424,3181.3,794.0714133126395,461.57142761775424,3281.3,794.0714133126395,461.57142761775424,3386.7,794.0714133126395,461.57142761775424,3486.7,794.0714133126395,461.57142761775424,3587,792.8214133126395,461.57142761775424,3691.1,791.5714133126395,461.57142761775424,3791.6,790.3214133126395,461.57142761775424,3892.2,790.3214133126395,460.32142761775424,3996.2,790.3214133126395,460.32142761775424,4096.4,790.3214133126395,460.32142761775424,4202.8,790.3214133126395,460.32142761775424,4306.5,790.3214133126395,460.32142761775424,4408,790.3214133126395,460.32142761775424,4511.7,790.3214133126395,460.32142761775424,4611.9,786.5714133126395,460.32142761775424,4711.9,784.0714133126395,459.07142761775424,4816.6,784.0714133126395,459.07142761775424,4916.6]","[1498.1,1498.1,1000,0,498.1,""smooth"",""up"",""up"",""good_move"",4257.9,2759.6,2419.5,1498.3,340.2,""oops"",""up"",""right"",""bad_move"",7088.1,2829.9,2455.3,4258.2,374.6,""oops"",""up"",""left"",""good_move"",9933.9,2845.6,2527.5,7088.3,318.1,""smooth"",""up"",""up"",""good_move"",13458,3523.9,3266.1,9934.1,257.8,""oops"",""left"",""up"",""good_move"",16678,3219.8,2953.5,13458.2,266.3,""smooth"",""left"",""left"",""good_move"",19478.2,2800,2546.6,16678.2,253.4,""smooth"",""left"",""left"",""good_move"",21943.5,2465.2,2172.9,19478.3,292.3,""oops"",""left"",""right"",""bad_move"",23744,1800.4,1530.9,21943.7,269.5,""while_blue"",""left"",""left"",""good_move"",24212.2,468,2420.9,23744.2,-1952.9,""error"",""-"",""-"",""no_move"",27895.9,3683.7,2479.2,25215.8,200.9,""while_blue"",""left"",""down"",""bad_move"",29822.2,1926.1,1525.4,27896.1,400.7,""smooth"",""left"",""left"",""good_move"",31758,1935.7,2969,29822.3,-1033.3,""error"",""-"",""-"",""no_move"",31976.1,218,2969,29822.3,-815.2,""while_red"",""-"",""-"",""no_move"",32123.9,365.8,2969,29822.3,-667.4,""while_red"",""-"",""-"",""no_move"",32500,741.9,2969,29822.3,-291.3,""while_red"",""-"",""-"",""no_move"",32676.3,918.2,2969,29822.3,-115,""while_red"",""-"",""-"",""no_move"",33138.2,1380.1,2543.1,32759.4,-2164.3,""error"",""-"",""-"",""no_move"",33342.5,204.1,2543.1,32759.4,-1960,""while_red"",""-"",""-"",""no_move"",36392.1,3253.7,1976.4,34139.4,276.3,""while_blue"",""up"",""down"",""bad_move""]"
"3016","","<div style=""width:500px;"">
  <p>What determined the result of this run?</p>
  </div>","6","html-slider-response","34","349433","0.0-7.0-1.4","37","1","2025-07-30 08:41:57","36c45c0696341be0efffe67d72a12abb","78.84.164.26","Mozilla/5.0 (Windows NT 10.0; Win64; x64) AppleWebKit/537.36 (KHTML, like Gecko) Chrome/138.0.0.0 Safari/537.36","WebKit","Chrome","138.0.0.0","Windows","10.0","https://app.prolific.com/","en-GB,en-US;q=0.9,en;q=0.8","67458e548861194752950b3e","687a19d2168e237449fb8af4","6889da36102fce62d2a6f01e","0","67458e548861194752950b3e","0","2025-07-30T08:47:47.555Z","","","","AttribQ","","","","","","","","","","","50","","","","","","","","","","","","","","","","","","","","","","","","","","",""
"1544","","<div style=""width:500px;"">
  <p>How much control did you have over the ball?</p>
  </div>","13","html-slider-response","35","350978","0.0-7.0-2.4","37","1","2025-07-30 08:41:57","36c45c0696341be0efffe67d72a12abb","78.84.164.26","Mozilla/5.0 (Windows NT 10.0; Win64; x64) AppleWebKit/537.36 (KHTML, like Gecko) Chrome/138.0.0.0 Safari/537.36","WebKit","Chrome","138.0.0.0","Windows","10.0","https://app.prolific.com/","en-GB,en-US;q=0.9,en;q=0.8","67458e548861194752950b3e","687a19d2168e237449fb8af4","6889da36102fce62d2a6f01e","0","67458e548861194752950b3e","0","2025-07-30T08:47:49.100Z","","","","ControlQ","","","","","","","","","","","50","","","","","","","","","","","","","","","","","","","","","","","","","","",""
"1455","","<div style=""width:500px;"">
  <p>How would you describe your current emotional state?</p>
  </div>","16","html-slider-response","36","352433","0.0-7.0-3.4","37","1","2025-07-30 08:41:57","36c45c0696341be0efffe67d72a12abb","78.84.164.26","Mozilla/5.0 (Windows NT 10.0; Win64; x64) AppleWebKit/537.36 (KHTML, like Gecko) Chrome/138.0.0.0 Safari/537.36","WebKit","Chrome","138.0.0.0","Windows","10.0","https://app.prolific.com/","en-GB,en-US;q=0.9,en;q=0.8","67458e548861194752950b3e","687a19d2168e237449fb8af4","6889da36102fce62d2a6f01e","0","67458e548861194752950b3e","0","2025-07-30T08:47:50.556Z","","","","StressQ","","","","","","","","","","","50","","","","","","","","","","","","","","","","","","","","","","","","","","",""
"959","","<div style=""width:500px;"">
  <p>What best describes how you currently feel?</p>
  </div>","27","html-slider-response","37","353393","0.0-7.0-4.4","37","1","2025-07-30 08:41:57","36c45c0696341be0efffe67d72a12abb","78.84.164.26","Mozilla/5.0 (Windows NT 10.0; Win64; x64) AppleWebKit/537.36 (KHTML, like Gecko) Chrome/138.0.0.0 Safari/537.36","WebKit","Chrome","138.0.0.0","Windows","10.0","https://app.prolific.com/","en-GB,en-US;q=0.9,en;q=0.8","67458e548861194752950b3e","687a19d2168e237449fb8af4","6889da36102fce62d2a6f01e","0","67458e548861194752950b3e","0","2025-07-30T08:47:51.515Z","","","","MotivationQ","","","","","","","","","","","50","","","","","","","","","","","","","","","","","","","","","","","","","","",""
"","","","","ctl-task-cpt","38","378451","0.0-7.0-0.5","37","1","2025-07-30 08:41:57","36c45c0696341be0efffe67d72a12abb","78.84.164.26","Mozilla/5.0 (Windows NT 10.0; Win64; x64) AppleWebKit/537.36 (KHTML, like Gecko) Chrome/138.0.0.0 Safari/537.36","WebKit","Chrome","138.0.0.0","Windows","10.0","https://app.prolific.com/","en-GB,en-US;q=0.9,en;q=0.8","67458e548861194752950b3e","687a19d2168e237449fb8af4","6889da36102fce62d2a6f01e","0","67458e548861194752950b3e","0","2025-07-30T08:48:16.573Z","","","","","","","","","","","","","","","","win-only","1","g1:NE,g2:SW","0.5","6","0","354379.9","930","5930.5","22041.7","1","4","4","6","2","4","4","4","0","0.030303030303030304","1019.8","3000","1040","[""down"",""left""]","{""num_key_presses"":6,""num_perfect"":4,""num_errors"":0,""num_randdir"":2,""num_randdir_good_moves"":2,""num_whilered"":0,""num_whileblue"":0,""num_blue"":0,""num_good_moves"":6}","[417.8214133126395,411.57142761775424,0.1,426.5714133126395,416.57142761775424,100.7,431.5714133126395,407.82142761775424,206.3,575.3214133126395,321.57142761775424,306.3,496.5714133126395,355.32142761775424,411.5,276.5714133126395,644.0714276177542,515.1,286.5714133126395,666.5714276177542,615.6,225.3214133126395,731.5714276177542,720.8,151.5714133126395,766.5714276177542,826.1,105.3214133126395,785.3214276177542,926.9,56.57141331263951,766.5714276177542,1028.7,67.8214133126395,771.5714276177542,1130.4,454.0714133126395,681.5714276177542,1230.4,386.5714133126395,677.8214276177542,1330.8,349.0714133126395,669.0714276177542,1431.5,349.0714133126395,669.0714276177542,1536.1,349.0714133126395,669.0714276177542,1640.1,349.0714133126395,669.0714276177542,1740.8,349.0714133126395,669.0714276177542,1845.6,349.0714133126395,669.0714276177542,1950.7,349.0714133126395,669.0714276177542,2050.9,349.0714133126395,669.0714276177542,2151,349.0714133126395,669.0714276177542,2255.7,349.0714133126395,669.0714276177542,2361,349.0714133126395,669.0714276177542,2466.7,349.0714133126395,669.0714276177542,2570.1,349.0714133126395,669.0714276177542,2670.3,344.0714133126395,669.0714276177542,2771.2,309.0714133126395,666.5714276177542,2875.6,271.5714133126395,666.5714276177542,2980.6,264.0714133126395,666.5714276177542,3085.3,261.5714133126395,665.3214276177542,3185.9,261.5714133126395,665.3214276177542,3290.7,261.5714133126395,664.0714276177542,3390.8,261.5714133126395,664.0714276177542,3490.9,259.0714133126395,664.0714276177542,3591.6,241.5714133126395,676.5714276177542,3695.1,227.8214133126395,672.8214276177542,3796,230.3214133126395,662.8214276177542,3900.4,274.0714133126395,646.5714276177542,4000.6,276.5714133126395,641.5714276177542,4100.9,275.3214133126395,642.8214276177542,4206.2,270.3214133126395,646.5714276177542,4311,270.3214133126395,646.5714276177542,4415.2,270.3214133126395,646.5714276177542,4515.7,270.3214133126395,646.5714276177542,4615.8,270.3214133126395,646.5714276177542,4716.2,270.3214133126395,646.5714276177542,4816.5,270.3214133126395,646.5714276177542,4921]","[1574.9,1574.9,1000,0,574.9,""oops"",""down"",""left"",""good_move"",4852.8,3277.7,2993.7,1575.1,284,""oops"",""down"",""down"",""good_move"",7491.4,2638.3,2364.7,4853.1,273.6,""smooth"",""left"",""left"",""good_move"",10128.8,2637.2,2336.9,7491.6,300.3,""smooth"",""down"",""down"",""good_move"",13355,3226,2959.8,10129,266.2,""smooth"",""left"",""left"",""good_move"",16015,2659.8,2365.7,13355.2,294.1,""smooth"",""down"",""down"",""good_move""]"
"1881","","<div style=""width:500px;"">
  <p>What determined the result of this run?</p>
  </div>","51","html-slider-response","39","380333","0.0-7.0-1.5","37","1","2025-07-30 08:41:57","36c45c0696341be0efffe67d72a12abb","78.84.164.26","Mozilla/5.0 (Windows NT 10.0; Win64; x64) AppleWebKit/537.36 (KHTML, like Gecko) Chrome/138.0.0.0 Safari/537.36","WebKit","Chrome","138.0.0.0","Windows","10.0","https://app.prolific.com/","en-GB,en-US;q=0.9,en;q=0.8","67458e548861194752950b3e","687a19d2168e237449fb8af4","6889da36102fce62d2a6f01e","0","67458e548861194752950b3e","0","2025-07-30T08:48:18.455Z","","","","AttribQ","","","","","","","","","","","50","","","","","","","","","","","","","","","","","","","","","","","","","","",""
"1364","","<div style=""width:500px;"">
  <p>How much control did you have over the ball?</p>
  </div>","53","html-slider-response","40","381698","0.0-7.0-2.5","37","1","2025-07-30 08:41:57","36c45c0696341be0efffe67d72a12abb","78.84.164.26","Mozilla/5.0 (Windows NT 10.0; Win64; x64) AppleWebKit/537.36 (KHTML, like Gecko) Chrome/138.0.0.0 Safari/537.36","WebKit","Chrome","138.0.0.0","Windows","10.0","https://app.prolific.com/","en-GB,en-US;q=0.9,en;q=0.8","67458e548861194752950b3e","687a19d2168e237449fb8af4","6889da36102fce62d2a6f01e","0","67458e548861194752950b3e","0","2025-07-30T08:48:19.820Z","","","","ControlQ","","","","","","","","","","","50","","","","","","","","","","","","","","","","","","","","","","","","","","",""
"810","","<div style=""width:500px;"">
  <p>How would you describe your current emotional state?</p>
  </div>","50","html-slider-response","41","382508","0.0-7.0-3.5","37","1","2025-07-30 08:41:57","36c45c0696341be0efffe67d72a12abb","78.84.164.26","Mozilla/5.0 (Windows NT 10.0; Win64; x64) AppleWebKit/537.36 (KHTML, like Gecko) Chrome/138.0.0.0 Safari/537.36","WebKit","Chrome","138.0.0.0","Windows","10.0","https://app.prolific.com/","en-GB,en-US;q=0.9,en;q=0.8","67458e548861194752950b3e","687a19d2168e237449fb8af4","6889da36102fce62d2a6f01e","0","67458e548861194752950b3e","0","2025-07-30T08:48:20.630Z","","","","StressQ","","","","","","","","","","","50","","","","","","","","","","","","","","","","","","","","","","","","","","",""
"1185","","<div style=""width:500px;"">
  <p>What best describes how you currently feel?</p>
  </div>","49","html-slider-response","42","383693","0.0-7.0-4.5","37","1","2025-07-30 08:41:57","36c45c0696341be0efffe67d72a12abb","78.84.164.26","Mozilla/5.0 (Windows NT 10.0; Win64; x64) AppleWebKit/537.36 (KHTML, like Gecko) Chrome/138.0.0.0 Safari/537.36","WebKit","Chrome","138.0.0.0","Windows","10.0","https://app.prolific.com/","en-GB,en-US;q=0.9,en;q=0.8","67458e548861194752950b3e","687a19d2168e237449fb8af4","6889da36102fce62d2a6f01e","0","67458e548861194752950b3e","0","2025-07-30T08:48:21.815Z","","","","MotivationQ","","","","","","","","","","","50","","","","","","","","","","","","","","","","","","","","","","","","","","",""
"","","","","ctl-task-cpt","43","445077","0.0-7.0-0.6","37","1","2025-07-30 08:41:57","36c45c0696341be0efffe67d72a12abb","78.84.164.26","Mozilla/5.0 (Windows NT 10.0; Win64; x64) AppleWebKit/537.36 (KHTML, like Gecko) Chrome/138.0.0.0 Safari/537.36","WebKit","Chrome","138.0.0.0","Windows","10.0","https://app.prolific.com/","en-GB,en-US;q=0.9,en;q=0.8","67458e548861194752950b3e","687a19d2168e237449fb8af4","6889da36102fce62d2a6f01e","0","67458e548861194752950b3e","0","2025-07-30T08:49:23.199Z","","","","","","","","","","","","","","","","win-only","3","g1:SW,g2:NE","0.4","7","0","384680.3","1771.7","6773","58365.8","1","4","8","6","2","-8","-17","0","4","0","985.3","3000","-3000","[""up"",""right""]","{""num_key_presses"":32,""num_perfect"":4,""num_errors"":9,""num_randdir"":5,""num_randdir_good_moves"":2,""num_whilered"":14,""num_whileblue"":5,""num_blue"":6,""num_good_moves"":8}","[416.5714133126395,414.07142761775424,0.2,416.5714133126395,414.07142761775424,101.6,416.5714133126395,414.07142761775424,203.6,405.3214133126395,406.57142761775424,309.5,366.5714133126395,417.82142761775424,419.2,559.0714133126395,269.07142761775424,519.7,644.0714133126395,75.32142761775425,619.8,720.3214133126395,-20.928572382245747,724,776.5714133126395,14.071427617754253,828.7,760.3214133126395,34.07142761775425,929,750.3214133126395,71.57142761775425,1029.2,746.5714133126395,74.07142761775425,1134.9,799.0714133126395,112.82142761775425,1239.4,811.5714133126395,117.82142761775425,1340,811.5714133126395,117.82142761775425,1444,811.5714133126395,117.82142761775425,1544.4,811.5714133126395,117.82142761775425,1652.5,811.5714133126395,117.82142761775425,1752.7,811.5714133126395,117.82142761775425,1853.7,811.5714133126395,117.82142761775425,1953.9,811.5714133126395,117.82142761775425,2054.2,811.5714133126395,117.82142761775425,2158.9,811.5714133126395,117.82142761775425,2268,811.5714133126395,117.82142761775425,2368.2,811.5714133126395,117.82142761775425,2468.3,811.5714133126395,117.82142761775425,2569.2,811.5714133126395,117.82142761775425,2673.7,811.5714133126395,117.82142761775425,2785.2,811.5714133126395,117.82142761775425,2885.4,811.5714133126395,117.82142761775425,2985.7,811.5714133126395,117.82142761775425,3086.3,811.5714133126395,117.82142761775425,3188.5,811.5714133126395,117.82142761775425,3288.8,811.5714133126395,117.82142761775425,3394.1,811.5714133126395,117.82142761775425,3500.9,811.5714133126395,117.82142761775425,3600.9,811.5714133126395,117.82142761775425,3701.6,811.5714133126395,117.82142761775425,3803.9,806.5714133126395,117.82142761775425,3904.2,802.8214133126395,120.32142761775425,4004.2,801.5714133126395,120.32142761775425,4108.8,816.5714133126395,100.32142761775425,4208.8,821.5714133126395,76.57142761775425,4309.5,821.5714133126395,76.57142761775425,4418.9,821.5714133126395,76.57142761775425,4523.5,821.5714133126395,76.57142761775425,4629.4,821.5714133126395,76.57142761775425,4734.4,821.5714133126395,76.57142761775425,4835.1,821.5714133126395,76.57142761775425,4938.9]","[1466.1,1466.1,1000.4,0,465.7,""while_blue"",""up"",""down"",""bad_move"",4632.5,3166.2,2684.1,1466.3,482.1,""while_blue"",""right"",""up"",""good_move"",6965.7,2333,1943.5,4632.7,389.5,""oops"",""right"",""right"",""good_move"",10388.3,3422.4,3067.2,6965.9,355.2,""smooth"",""right"",""right"",""good_move"",12920.3,2532,2127.8,10388.3,404.2,""while_blue"",""up"",""down"",""bad_move"",15870,2949.6,2412,12920.4,537.6,""while_blue"",""up"",""up"",""good_move"",18552.3,2682.1,2390.7,15870.2,291.4,""oops"",""up"",""right"",""good_move"",21590.1,3037.7,2584.9,18552.4,452.8,""while_blue"",""up"",""left"",""bad_move"",24142.3,2552,2229,21590.3,323,""smooth"",""up"",""up"",""good_move"",28075.2,3932.8,3607.7,24142.4,325.1,""oops"",""up"",""left"",""bad_move"",29948.4,1873.1,1523.3,28075.3,349.8,""smooth"",""up"",""up"",""good_move"",36588.2,6639.6,2302.4,33868.2,417.6,""oops"",""right"",""left"",""bad_move"",39456.2,2867.7,2574,36588.5,293.7,""smooth"",""right"",""right"",""good_move"",42476.8,3020.3,2712.9,39456.5,307.4,""oops"",""right"",""left"",""bad_move"",45204.1,2727.1,3167.7,42477,-440.6,""error"",""-"",""-"",""no_move"",45788.3,584.2,3167.7,42477,143.7,""while_red"",""-"",""-"",""no_move"",45984.1,779.9,3167.7,42477,339.4,""while_red"",""-"",""-"",""no_move"",46163.1,958.9,3167.7,42477,518.4,""while_red"",""-"",""-"",""no_move"",46324.3,1120.1,2370.4,46207.5,-2253.6,""error"",""-"",""-"",""no_move"",46476.3,151.9,2370.4,46207.5,-2101.6,""while_red"",""-"",""-"",""no_move"",46648.7,324.3,2370.4,46207.5,-1929.2,""while_red"",""-"",""-"",""no_move"",46802.2,477.8,2370.4,46207.5,-1775.7,""while_red"",""-"",""-"",""no_move"",46948.5,624.1,2370.4,46207.5,-1629.4,""while_red"",""-"",""-"",""no_move"",47112.3,787.9,2370.4,46207.5,-1465.6,""while_red"",""-"",""-"",""no_move"",47262.3,937.9,2370.4,46207.5,-1315.6,""while_red"",""-"",""-"",""no_move"",47412.2,1087.8,2324.8,47327.5,-2240.1,""error"",""-"",""-"",""no_move"",47576.2,163.8,2324.8,47327.5,-2076.1,""while_red"",""-"",""-"",""no_move"",47738.1,325.7,2324.8,47327.5,-1914.2,""while_red"",""-"",""-"",""no_move"",47908.2,495.8,2324.8,47327.5,-1744.1,""while_red"",""-"",""-"",""no_move"",48084,671.6,2324.8,47327.5,-1568.3,""while_red"",""-"",""-"",""no_move"",48252.3,839.9,2324.8,47327.5,-1400,""while_red"",""-"",""-"",""no_move"",48422,1009.6,2566.4,48417.6,-2562,""error"",""-"",""-"",""no_move""]"
"1196","","<div style=""width:500px;"">
  <p>What determined the result of this run?</p>
  </div>","50","html-slider-response","44","446274","0.0-7.0-1.6","37","1","2025-07-30 08:41:57","36c45c0696341be0efffe67d72a12abb","78.84.164.26","Mozilla/5.0 (Windows NT 10.0; Win64; x64) AppleWebKit/537.36 (KHTML, like Gecko) Chrome/138.0.0.0 Safari/537.36","WebKit","Chrome","138.0.0.0","Windows","10.0","https://app.prolific.com/","en-GB,en-US;q=0.9,en;q=0.8","67458e548861194752950b3e","687a19d2168e237449fb8af4","6889da36102fce62d2a6f01e","0","67458e548861194752950b3e","0","2025-07-30T08:49:24.396Z","","","","AttribQ","","","","","","","","","","","50","","","","","","","","","","","","","","","","","","","","","","","","","","",""
"1162","","<div style=""width:500px;"">
  <p>How much control did you have over the ball?</p>
  </div>","48","html-slider-response","45","447437","0.0-7.0-2.6","37","1","2025-07-30 08:41:57","36c45c0696341be0efffe67d72a12abb","78.84.164.26","Mozilla/5.0 (Windows NT 10.0; Win64; x64) AppleWebKit/537.36 (KHTML, like Gecko) Chrome/138.0.0.0 Safari/537.36","WebKit","Chrome","138.0.0.0","Windows","10.0","https://app.prolific.com/","en-GB,en-US;q=0.9,en;q=0.8","67458e548861194752950b3e","687a19d2168e237449fb8af4","6889da36102fce62d2a6f01e","0","67458e548861194752950b3e","0","2025-07-30T08:49:25.559Z","","","","ControlQ","","","","","","","","","","","50","","","","","","","","","","","","","","","","","","","","","","","","","","",""
"914","","<div style=""width:500px;"">
  <p>How would you describe your current emotional state?</p>
  </div>","50","html-slider-response","46","448351","0.0-7.0-3.6","37","1","2025-07-30 08:41:57","36c45c0696341be0efffe67d72a12abb","78.84.164.26","Mozilla/5.0 (Windows NT 10.0; Win64; x64) AppleWebKit/537.36 (KHTML, like Gecko) Chrome/138.0.0.0 Safari/537.36","WebKit","Chrome","138.0.0.0","Windows","10.0","https://app.prolific.com/","en-GB,en-US;q=0.9,en;q=0.8","67458e548861194752950b3e","687a19d2168e237449fb8af4","6889da36102fce62d2a6f01e","0","67458e548861194752950b3e","0","2025-07-30T08:49:26.473Z","","","","StressQ","","","","","","","","","","","50","","","","","","","","","","","","","","","","","","","","","","","","","","",""
"734","","<div style=""width:500px;"">
  <p>What best describes how you currently feel?</p>
  </div>","50","html-slider-response","47","449086","0.0-7.0-4.6","37","1","2025-07-30 08:41:57","36c45c0696341be0efffe67d72a12abb","78.84.164.26","Mozilla/5.0 (Windows NT 10.0; Win64; x64) AppleWebKit/537.36 (KHTML, like Gecko) Chrome/138.0.0.0 Safari/537.36","WebKit","Chrome","138.0.0.0","Windows","10.0","https://app.prolific.com/","en-GB,en-US;q=0.9,en;q=0.8","67458e548861194752950b3e","687a19d2168e237449fb8af4","6889da36102fce62d2a6f01e","0","67458e548861194752950b3e","0","2025-07-30T08:49:27.208Z","","","","MotivationQ","","","","","","","","","","","50","","","","","","","","","","","","","","","","","","","","","","","","","","",""
"","","","","ctl-task-cpt","48","486501","0.0-7.0-0.7","37","1","2025-07-30 08:41:57","36c45c0696341be0efffe67d72a12abb","78.84.164.26","Mozilla/5.0 (Windows NT 10.0; Win64; x64) AppleWebKit/537.36 (KHTML, like Gecko) Chrome/138.0.0.0 Safari/537.36","WebKit","Chrome","138.0.0.0","Windows","10.0","https://app.prolific.com/","en-GB,en-US;q=0.9,en;q=0.8","67458e548861194752950b3e","687a19d2168e237449fb8af4","6889da36102fce62d2a6f01e","0","67458e548861194752950b3e","0","2025-07-30T08:50:04.623Z","","","","","","","","","","","","","","","","win-only","1","g1:NE,g2:SW","0.3","8","0","450073.1","532.3","5535.5","34395.7","1","4","4","6","2","-4","-9","0","0","0","2085.2","3000","-3000","[""down"",""left""]","{""num_key_presses"":15,""num_perfect"":1,""num_errors"":5,""num_randdir"":4,""num_randdir_good_moves"":3,""num_whilered"":5,""num_whileblue"":2,""num_blue"":2,""num_good_moves"":5}","[429.0714133126395,415.32142761775424,0.2,426.5714133126395,415.32142761775424,103.4,431.5714133126395,406.57142761775424,208.7,529.0714133126395,291.57142761775424,313,477.8214133126395,327.82142761775424,417.9,531.5714133126395,326.57142761775424,518.1,614.0714133126395,221.57142761775424,623.8,606.5714133126395,209.07142761775424,727.9,309.0714133126395,541.5714276177542,829,229.0714133126395,669.0714276177542,934,161.5714133126395,715.3214276177542,1034,71.5714133126395,742.8214276177542,1134.9,36.57141331263951,762.8214276177542,1238.4,36.57141331263951,762.8214276177542,1339.6,36.57141331263951,762.8214276177542,1443.1,45.32141331263951,756.5714276177542,1543.6,46.57141331263951,755.3214276177542,1643.7,46.57141331263951,755.3214276177542,1743.7,46.57141331263951,755.3214276177542,1847.9,46.57141331263951,755.3214276177542,1948.3,46.57141331263951,755.3214276177542,2048.7,51.57141331263951,760.3214276177542,2152.9,64.0714133126395,751.5714276177542,2252.9,101.5714133126395,709.0714276177542,2353.3,371.5714133126395,491.57142761775424,2459,386.5714133126395,485.32142761775424,2559.1,386.5714133126395,485.32142761775424,2663.5,356.5714133126395,446.57142761775424,2763.6,266.5714133126395,145.32142761775424,2864.2,295.3214133126395,21.571427617754253,2967.9,351.5714133126395,-28.428572382245747,3068.5,409.0714133126395,-49.67857238224575,3174.2,411.5714133126395,-48.42857238224575,3279.3,409.0714133126395,-44.67857238224575,3384.1,434.0714133126395,-2.178572382245747,3488.4,434.0714133126395,-2.178572382245747,3588.9,434.0714133126395,-2.178572382245747,3688.9,434.0714133126395,-2.178572382245747,3788.9,434.0714133126395,-2.178572382245747,3893.3,434.0714133126395,-2.178572382245747,3993.5,434.0714133126395,-2.178572382245747,4093.5,434.0714133126395,-2.178572382245747,4193.5,434.0714133126395,-2.178572382245747,4293.8,434.0714133126395,-2.178572382245747,4398.2,434.0714133126395,-2.178572382245747,4498.5,434.0714133126395,-2.178572382245747,4598.6,434.0714133126395,-2.178572382245747,4702.8,434.0714133126395,-2.178572382245747,4803,434.0714133126395,-2.178572382245747,4903]","[1682.5,1682.5,1000,0,682.5,""oops"",""down"",""down"",""good_move"",4103,2420.4,2069.8,1682.7,350.6,""oops"",""down"",""left"",""good_move"",6548.6,2445.3,3051.5,4103.3,-606.2,""error"",""-"",""-"",""no_move"",7970.7,1421.9,3149.8,7550.5,-2729.6,""error"",""-"",""-"",""no_move"",11994.8,4023.9,2715.8,8974.7,304.3,""while_blue"",""down"",""left"",""good_move"",15488.9,3493.8,2911.6,11995.1,582.2,""oops"",""down"",""left"",""good_move"",18442.8,2953.8,2452,15489,501.8,""smooth"",""down"",""down"",""good_move"",21415,2972.1,2437.6,18442.9,534.5,""oops"",""down"",""right"",""bad_move"",24266.8,2851.5,2505,21415.3,346.5,""while_blue"",""down"",""up"",""bad_move"",24835,568,2768.8,24267,-2200.8,""error"",""-"",""-"",""no_move"",25006.8,171.8,2768.8,24267,-2029,""while_red"",""-"",""-"",""no_move"",25166.9,331.9,2768.8,24267,-1868.9,""while_red"",""-"",""-"",""no_move"",25322.8,487.8,2768.8,24267,-1713,""while_red"",""-"",""-"",""no_move"",25488.7,653.7,2768.8,24267,-1547.1,""while_red"",""-"",""-"",""no_move"",25649.4,814.4,2768.8,24267,-1386.4,""while_red"",""-"",""-"",""no_move""]"
"1285","","<div style=""width:500px;"">
  <p>What determined the result of this run?</p>
  </div>","50","html-slider-response","49","487786","0.0-7.0-1.7","37","1","2025-07-30 08:41:57","36c45c0696341be0efffe67d72a12abb","78.84.164.26","Mozilla/5.0 (Windows NT 10.0; Win64; x64) AppleWebKit/537.36 (KHTML, like Gecko) Chrome/138.0.0.0 Safari/537.36","WebKit","Chrome","138.0.0.0","Windows","10.0","https://app.prolific.com/","en-GB,en-US;q=0.9,en;q=0.8","67458e548861194752950b3e","687a19d2168e237449fb8af4","6889da36102fce62d2a6f01e","0","67458e548861194752950b3e","0","2025-07-30T08:50:05.909Z","","","","AttribQ","","","","","","","","","","","50","","","","","","","","","","","","","","","","","","","","","","","","","","",""
"757","","<div style=""width:500px;"">
  <p>How much control did you have over the ball?</p>
  </div>","49","html-slider-response","50","488544","0.0-7.0-2.7","37","1","2025-07-30 08:41:57","36c45c0696341be0efffe67d72a12abb","78.84.164.26","Mozilla/5.0 (Windows NT 10.0; Win64; x64) AppleWebKit/537.36 (KHTML, like Gecko) Chrome/138.0.0.0 Safari/537.36","WebKit","Chrome","138.0.0.0","Windows","10.0","https://app.prolific.com/","en-GB,en-US;q=0.9,en;q=0.8","67458e548861194752950b3e","687a19d2168e237449fb8af4","6889da36102fce62d2a6f01e","0","67458e548861194752950b3e","0","2025-07-30T08:50:06.666Z","","","","ControlQ","","","","","","","","","","","50","","","","","","","","","","","","","","","","","","","","","","","","","","",""
"697","","<div style=""width:500px;"">
  <p>How would you describe your current emotional state?</p>
  </div>","50","html-slider-response","51","489241","0.0-7.0-3.7","37","1","2025-07-30 08:41:57","36c45c0696341be0efffe67d72a12abb","78.84.164.26","Mozilla/5.0 (Windows NT 10.0; Win64; x64) AppleWebKit/537.36 (KHTML, like Gecko) Chrome/138.0.0.0 Safari/537.36","WebKit","Chrome","138.0.0.0","Windows","10.0","https://app.prolific.com/","en-GB,en-US;q=0.9,en;q=0.8","67458e548861194752950b3e","687a19d2168e237449fb8af4","6889da36102fce62d2a6f01e","0","67458e548861194752950b3e","0","2025-07-30T08:50:07.363Z","","","","StressQ","","","","","","","","","","","50","","","","","","","","","","","","","","","","","","","","","","","","","","",""
"644","","<div style=""width:500px;"">
  <p>What best describes how you currently feel?</p>
  </div>","49","html-slider-response","52","489886","0.0-7.0-4.7","37","1","2025-07-30 08:41:57","36c45c0696341be0efffe67d72a12abb","78.84.164.26","Mozilla/5.0 (Windows NT 10.0; Win64; x64) AppleWebKit/537.36 (KHTML, like Gecko) Chrome/138.0.0.0 Safari/537.36","WebKit","Chrome","138.0.0.0","Windows","10.0","https://app.prolific.com/","en-GB,en-US;q=0.9,en;q=0.8","67458e548861194752950b3e","687a19d2168e237449fb8af4","6889da36102fce62d2a6f01e","0","67458e548861194752950b3e","0","2025-07-30T08:50:08.008Z","","","","MotivationQ","","","","","","","","","","","50","","","","","","","","","","","","","","","","","","","","","","","","","","",""
"","","","","ctl-task-cpt","53","513986","0.0-7.0-0.8","37","1","2025-07-30 08:41:57","36c45c0696341be0efffe67d72a12abb","78.84.164.26","Mozilla/5.0 (Windows NT 10.0; Win64; x64) AppleWebKit/537.36 (KHTML, like Gecko) Chrome/138.0.0.0 Safari/537.36","WebKit","Chrome","138.0.0.0","Windows","10.0","https://app.prolific.com/","en-GB,en-US;q=0.9,en;q=0.8","67458e548861194752950b3e","687a19d2168e237449fb8af4","6889da36102fce62d2a6f01e","0","67458e548861194752950b3e","0","2025-07-30T08:50:32.108Z","","","","","","","","","","","","","","","","win-only","2","g1:SE,g2:NW","0.4","9","0","490873.5","930.9","5936","21080.8","1","4","4","6","1","1","1","1","0","0.007575757575757576","1490.6","3000","160","[""down"",""right""]","{""num_key_presses"":6,""num_perfect"":3,""num_errors"":0,""num_randdir"":3,""num_randdir_good_moves"":2,""num_whilered"":0,""num_whileblue"":0,""num_blue"":0,""num_good_moves"":5}","[409.0714133126395,414.07142761775424,0.3,409.0714133126395,411.57142761775424,104.9,407.8214133126395,472.82142761775424,209.8,441.5714133126395,577.8214276177542,309.9,449.0714133126395,582.8214276177542,414.5,447.8214133126395,511.57142761775424,515.1,456.5714133126395,476.57142761775424,619.5,460.3214133126395,492.82142761775424,720.1,466.5714133126395,500.32142761775424,824.4,466.5714133126395,500.32142761775424,924.7,466.5714133126395,500.32142761775424,1024.7,474.0714133126395,510.32142761775424,1124.8,619.0714133126395,659.0714276177542,1224.9,731.5714133126395,742.8214276177542,1325,766.5714133126395,754.0714276177542,1425.2,770.3214133126395,755.3214276177542,1525.7,769.0714133126395,755.3214276177542,1629.7,716.5714133126395,610.3214276177542,1730.5,626.5714133126395,420.32142761775424,1835.3,629.0714133126395,419.07142761775424,1940.3,635.3214133126395,440.32142761775424,2045.5,646.5714133126395,454.07142761775424,2146,655.3214133126395,459.07142761775424,2249.5,666.5714133126395,462.82142761775424,2349.8,676.5714133126395,470.32142761775424,2449.9,680.3214133126395,474.07142761775424,2551.8,680.3214133126395,474.07142761775424,2654.8,680.3214133126395,474.07142761775424,2759.8,680.3214133126395,474.07142761775424,2860.9,680.3214133126395,474.07142761775424,2965.1,680.3214133126395,474.07142761775424,3069.7,680.3214133126395,479.07142761775424,3169.8,680.3214133126395,480.32142761775424,3274.6,680.3214133126395,480.32142761775424,3379.7,680.3214133126395,480.32142761775424,3484.8,680.3214133126395,480.32142761775424,3584.9,680.3214133126395,480.32142761775424,3689.2,680.3214133126395,482.82142761775424,3789.8,680.3214133126395,484.07142761775424,3889.9,680.3214133126395,484.07142761775424,3990,680.3214133126395,484.07142761775424,4095.1,680.3214133126395,484.07142761775424,4195.4,680.3214133126395,484.07142761775424,4299.4,680.3214133126395,484.07142761775424,4400,680.3214133126395,484.07142761775424,4505.1,680.3214133126395,484.07142761775424,4609.9,680.3214133126395,484.07142761775424,4715.1,680.3214133126395,484.07142761775424,4819.7,680.3214133126395,484.07142761775424,4924.5]","[2208.5,2208.5,1000,0,1208.5,""oops"",""right"",""right"",""good_move"",4430.1,2221.2,1823.1,2208.9,398.1,""oops"",""down"",""left"",""bad_move"",6748.1,2317.8,2005.7,4430.3,312.1,""smooth"",""right"",""right"",""good_move"",9781.9,3033.7,2734.4,6748.2,299.3,""smooth"",""down"",""down"",""good_move"",12647.9,2865.8,2539.7,9782.1,326.1,""smooth"",""right"",""right"",""good_move"",15045.8,2397.7,2066.9,12648.1,330.8,""oops"",""down"",""down"",""good_move""]"
"2864","","<div style=""width:500px;"">
  <p>What determined the result of this run?</p>
  </div>","63","html-slider-response","54","516851","0.0-7.0-1.8","37","1","2025-07-30 08:41:57","36c45c0696341be0efffe67d72a12abb","78.84.164.26","Mozilla/5.0 (Windows NT 10.0; Win64; x64) AppleWebKit/537.36 (KHTML, like Gecko) Chrome/138.0.0.0 Safari/537.36","WebKit","Chrome","138.0.0.0","Windows","10.0","https://app.prolific.com/","en-GB,en-US;q=0.9,en;q=0.8","67458e548861194752950b3e","687a19d2168e237449fb8af4","6889da36102fce62d2a6f01e","0","67458e548861194752950b3e","0","2025-07-30T08:50:34.973Z","","","","AttribQ","","","","","","","","","","","50","","","","","","","","","","","","","","","","","","","","","","","","","","",""
"778","","<div style=""width:500px;"">
  <p>How much control did you have over the ball?</p>
  </div>","65","html-slider-response","55","517630","0.0-7.0-2.8","37","1","2025-07-30 08:41:57","36c45c0696341be0efffe67d72a12abb","78.84.164.26","Mozilla/5.0 (Windows NT 10.0; Win64; x64) AppleWebKit/537.36 (KHTML, like Gecko) Chrome/138.0.0.0 Safari/537.36","WebKit","Chrome","138.0.0.0","Windows","10.0","https://app.prolific.com/","en-GB,en-US;q=0.9,en;q=0.8","67458e548861194752950b3e","687a19d2168e237449fb8af4","6889da36102fce62d2a6f01e","0","67458e548861194752950b3e","0","2025-07-30T08:50:35.752Z","","","","ControlQ","","","","","","","","","","","50","","","","","","","","","","","","","","","","","","","","","","","","","","",""
"2211","","<div style=""width:500px;"">
  <p>How would you describe your current emotional state?</p>
  </div>","42","html-slider-response","56","519842","0.0-7.0-3.8","37","1","2025-07-30 08:41:57","36c45c0696341be0efffe67d72a12abb","78.84.164.26","Mozilla/5.0 (Windows NT 10.0; Win64; x64) AppleWebKit/537.36 (KHTML, like Gecko) Chrome/138.0.0.0 Safari/537.36","WebKit","Chrome","138.0.0.0","Windows","10.0","https://app.prolific.com/","en-GB,en-US;q=0.9,en;q=0.8","67458e548861194752950b3e","687a19d2168e237449fb8af4","6889da36102fce62d2a6f01e","0","67458e548861194752950b3e","0","2025-07-30T08:50:37.964Z","","","","StressQ","","","","","","","","","","","50","","","","","","","","","","","","","","","","","","","","","","","","","","",""
"967","","<div style=""width:500px;"">
  <p>What best describes how you currently feel?</p>
  </div>","45","html-slider-response","57","520809","0.0-7.0-4.8","37","1","2025-07-30 08:41:57","36c45c0696341be0efffe67d72a12abb","78.84.164.26","Mozilla/5.0 (Windows NT 10.0; Win64; x64) AppleWebKit/537.36 (KHTML, like Gecko) Chrome/138.0.0.0 Safari/537.36","WebKit","Chrome","138.0.0.0","Windows","10.0","https://app.prolific.com/","en-GB,en-US;q=0.9,en;q=0.8","67458e548861194752950b3e","687a19d2168e237449fb8af4","6889da36102fce62d2a6f01e","0","67458e548861194752950b3e","0","2025-07-30T08:50:38.931Z","","","","MotivationQ","","","","","","","","","","","50","","","","","","","","","","","","","","","","","","","","","","","","","","",""
"","","","","ctl-task-cpt","58","550312","0.0-7.0-0.9","37","1","2025-07-30 08:41:57","36c45c0696341be0efffe67d72a12abb","78.84.164.26","Mozilla/5.0 (Windows NT 10.0; Win64; x64) AppleWebKit/537.36 (KHTML, like Gecko) Chrome/138.0.0.0 Safari/537.36","WebKit","Chrome","138.0.0.0","Windows","10.0","https://app.prolific.com/","en-GB,en-US;q=0.9,en;q=0.8","67458e548861194752950b3e","687a19d2168e237449fb8af4","6889da36102fce62d2a6f01e","0","67458e548861194752950b3e","0","2025-07-30T08:51:08.434Z","","","","","","","","","","","","","","","","win-only","2","g1:SE,g2:NW","0.5","10","0","521796.4","591.5","5595.5","26485.2","1","4","8","6","2","-8","-8","0","1","0","848","3000","-3000","[""left"",""up""]","{""num_key_presses"":5,""num_perfect"":2,""num_errors"":0,""num_randdir"":3,""num_randdir_good_moves"":0,""num_whilered"":0,""num_whileblue"":0,""num_blue"":1,""num_good_moves"":1}","[421.5714133126395,410.32142761775424,0,421.5714133126395,410.32142761775424,104.4,421.5714133126395,411.57142761775424,208.9,391.5714133126395,389.07142761775424,309.3,247.8214133126395,286.57142761775424,409.4,172.8214133126395,176.57142761775424,514.8,97.8214133126395,119.07142761775425,615.6,76.5714133126395,101.57142761775425,719.7,76.5714133126395,101.57142761775425,824.2,76.5714133126395,100.32142761775425,929,126.5714133126395,125.32142761775425,1033.8,249.0714133126395,209.07142761775424,1134,251.5714133126395,214.07142761775424,1239.3,251.5714133126395,214.07142761775424,1344.7,251.5714133126395,214.07142761775424,1449.4,251.5714133126395,214.07142761775424,1554.5,251.5714133126395,214.07142761775424,1654.7,251.5714133126395,214.07142761775424,1759.7,251.5714133126395,214.07142761775424,1864.6,251.5714133126395,214.07142761775424,1964.9,251.5714133126395,214.07142761775424,2068.8,251.5714133126395,214.07142761775424,2169.5,251.5714133126395,214.07142761775424,2273.7,251.5714133126395,214.07142761775424,2375.3,251.5714133126395,214.07142761775424,2479.1,251.5714133126395,214.07142761775424,2579.2,251.5714133126395,214.07142761775424,2684.4,251.5714133126395,214.07142761775424,2789.2,251.5714133126395,214.07142761775424,2894.4,251.5714133126395,214.07142761775424,2998.9,251.5714133126395,214.07142761775424,3099,251.5714133126395,214.07142761775424,3199.7,251.5714133126395,214.07142761775424,3304.2,251.5714133126395,214.07142761775424,3405.5,251.5714133126395,214.07142761775424,3509,251.5714133126395,214.07142761775424,3609.1,251.5714133126395,214.07142761775424,3709.6,251.5714133126395,214.07142761775424,3813.8,251.5714133126395,214.07142761775424,3919.7,251.5714133126395,214.07142761775424,4024.1,251.5714133126395,214.07142761775424,4129.6,251.5714133126395,214.07142761775424,4233.6,251.5714133126395,214.07142761775424,4335.2,251.5714133126395,214.07142761775424,4438.6,251.5714133126395,212.82142761775424,4538.7,242.8214133126395,210.32142761775424,4638.8,224.0714133126395,212.82142761775424,4738.9,216.5714133126395,214.07142761775424,4839.5,216.5714133126395,211.57142761775424,4943.7]","[1757.9,1757.9,1000,0,757.9,""oops"",""up"",""right"",""bad_move"",4769.5,3011.3,2612.7,1758.2,398.6,""oops"",""down"",""down"",""bad_move"",7579.4,2809.6,2471.4,4769.8,338.2,""smooth"",""down"",""down"",""bad_move"",11283.6,3704,3422.5,7579.6,281.5,""oops"",""left"",""right"",""bad_move"",13693.9,2410.1,1958.7,11283.8,451.4,""smooth"",""left"",""left"",""good_move""]"
"1517","","<div style=""width:500px;"">
  <p>What determined the result of this run?</p>
  </div>","50","html-slider-response","59","551830","0.0-7.0-1.9","37","1","2025-07-30 08:41:57","36c45c0696341be0efffe67d72a12abb","78.84.164.26","Mozilla/5.0 (Windows NT 10.0; Win64; x64) AppleWebKit/537.36 (KHTML, like Gecko) Chrome/138.0.0.0 Safari/537.36","WebKit","Chrome","138.0.0.0","Windows","10.0","https://app.prolific.com/","en-GB,en-US;q=0.9,en;q=0.8","67458e548861194752950b3e","687a19d2168e237449fb8af4","6889da36102fce62d2a6f01e","0","67458e548861194752950b3e","0","2025-07-30T08:51:09.952Z","","","","AttribQ","","","","","","","","","","","50","","","","","","","","","","","","","","","","","","","","","","","","","","",""
"1266","","<div style=""width:500px;"">
  <p>How much control did you have over the ball?</p>
  </div>","50","html-slider-response","60","553097","0.0-7.0-2.9","37","1","2025-07-30 08:41:57","36c45c0696341be0efffe67d72a12abb","78.84.164.26","Mozilla/5.0 (Windows NT 10.0; Win64; x64) AppleWebKit/537.36 (KHTML, like Gecko) Chrome/138.0.0.0 Safari/537.36","WebKit","Chrome","138.0.0.0","Windows","10.0","https://app.prolific.com/","en-GB,en-US;q=0.9,en;q=0.8","67458e548861194752950b3e","687a19d2168e237449fb8af4","6889da36102fce62d2a6f01e","0","67458e548861194752950b3e","0","2025-07-30T08:51:11.219Z","","","","ControlQ","","","","","","","","","","","50","","","","","","","","","","","","","","","","","","","","","","","","","","",""
"1087","","<div style=""width:500px;"">
  <p>How would you describe your current emotional state?</p>
  </div>","50","html-slider-response","61","554184","0.0-7.0-3.9","37","1","2025-07-30 08:41:57","36c45c0696341be0efffe67d72a12abb","78.84.164.26","Mozilla/5.0 (Windows NT 10.0; Win64; x64) AppleWebKit/537.36 (KHTML, like Gecko) Chrome/138.0.0.0 Safari/537.36","WebKit","Chrome","138.0.0.0","Windows","10.0","https://app.prolific.com/","en-GB,en-US;q=0.9,en;q=0.8","67458e548861194752950b3e","687a19d2168e237449fb8af4","6889da36102fce62d2a6f01e","0","67458e548861194752950b3e","0","2025-07-30T08:51:12.307Z","","","","StressQ","","","","","","","","","","","50","","","","","","","","","","","","","","","","","","","","","","","","","","",""
"1132","","<div style=""width:500px;"">
  <p>What best describes how you currently feel?</p>
  </div>","50","html-slider-response","62","555317","0.0-7.0-4.9","37","1","2025-07-30 08:41:57","36c45c0696341be0efffe67d72a12abb","78.84.164.26","Mozilla/5.0 (Windows NT 10.0; Win64; x64) AppleWebKit/537.36 (KHTML, like Gecko) Chrome/138.0.0.0 Safari/537.36","WebKit","Chrome","138.0.0.0","Windows","10.0","https://app.prolific.com/","en-GB,en-US;q=0.9,en;q=0.8","67458e548861194752950b3e","687a19d2168e237449fb8af4","6889da36102fce62d2a6f01e","0","67458e548861194752950b3e","0","2025-07-30T08:51:13.439Z","","","","MotivationQ","","","","","","","","","","","50","","","","","","","","","","","","","","","","","","","","","","","","","","",""
"","","","","ctl-task-cpt","63","612032","0.0-7.0-0.10","37","1","2025-07-30 08:41:57","36c45c0696341be0efffe67d72a12abb","78.84.164.26","Mozilla/5.0 (Windows NT 10.0; Win64; x64) AppleWebKit/537.36 (KHTML, like Gecko) Chrome/138.0.0.0 Safari/537.36","WebKit","Chrome","138.0.0.0","Windows","10.0","https://app.prolific.com/","en-GB,en-US;q=0.9,en;q=0.8","67458e548861194752950b3e","687a19d2168e237449fb8af4","6889da36102fce62d2a6f01e","0","67458e548861194752950b3e","0","2025-07-30T08:52:10.154Z","","","","","","","","","","","","","","","","win-only","0","g1:NW,g2:SE","0.6","11","0","556304.4","561.2","5565.8","53696.2","1","4","8","6","2","-8","-16","0","0","0","1531.5","3000","-3005","[""down"",""right""]","{""num_key_presses"":19,""num_perfect"":6,""num_errors"":8,""num_randdir"":4,""num_randdir_good_moves"":1,""num_whilered"":1,""num_whileblue"":3,""num_blue"":3,""num_good_moves"":8}","[416.5714133126395,420.32142761775424,0.2,416.5714133126395,420.32142761775424,104.2,415.3214133126395,421.57142761775424,204.2,419.0714133126395,437.82142761775424,304.7,420.3214133126395,440.32142761775424,409.7,420.3214133126395,440.32142761775424,514.3,420.3214133126395,441.57142761775424,614.4,420.3214133126395,441.57142761775424,714.6,421.5714133126395,441.57142761775424,819.1,534.0714133126395,502.82142761775424,919.2,722.8214133126395,637.8214276177542,1019.7,780.3214133126395,711.5714276177542,1124.9,800.3214133126395,736.5714276177542,1229.3,800.3214133126395,740.3214276177542,1329.3,786.5714133126395,761.5714276177542,1435.2,781.5714133126395,766.5714276177542,1546.7,781.5714133126395,766.5714276177542,1649.3,796.5714133126395,749.0714276177542,1749.6,1014.0714133126395,550.3214276177542,1849.7,981.5714133126395,557.8214276177542,1950,981.5714133126395,557.8214276177542,2055.7,981.5714133126395,557.8214276177542,2159.2,981.5714133126395,557.8214276177542,2259.8,981.5714133126395,557.8214276177542,2364,981.5714133126395,557.8214276177542,2464,981.5714133126395,557.8214276177542,2564,981.5714133126395,557.8214276177542,2664.8,981.5714133126395,557.8214276177542,2770,981.5714133126395,557.8214276177542,2874.1,981.5714133126395,557.8214276177542,2978.9,981.5714133126395,557.8214276177542,3079.1,981.5714133126395,557.8214276177542,3179.3,981.5714133126395,557.8214276177542,3284.2,981.5714133126395,557.8214276177542,3384.4,981.5714133126395,557.8214276177542,3484.4,981.5714133126395,557.8214276177542,3584.4,981.5714133126395,557.8214276177542,3685.1,981.5714133126395,557.8214276177542,3789.5,981.5714133126395,557.8214276177542,3894,981.5714133126395,557.8214276177542,3994.6,981.5714133126395,557.8214276177542,4094.7,981.5714133126395,557.8214276177542,4199.4,981.5714133126395,557.8214276177542,4304.2,981.5714133126395,557.8214276177542,4404.5,981.5714133126395,557.8214276177542,4509.5,981.5714133126395,557.8214276177542,4615.5,981.5714133126395,557.8214276177542,4719.5,981.5714133126395,557.8214276177542,4820.2,981.5714133126395,557.8214276177542,4924.5]","[1401.5,1401.5,1000,0,401.5,""smooth"",""right"",""right"",""good_move"",4369.7,2968,2646.9,1401.7,321.1,""oops"",""down"",""up"",""bad_move"",6933.4,2563.3,2277.3,4370.1,286,""smooth"",""down"",""down"",""good_move"",9259.5,2326,2051.6,6933.5,274.4,""oops"",""down"",""left"",""bad_move"",11963.5,2703.7,2486,9259.8,217.7,""while_blue"",""down"",""left"",""bad_move"",14953.3,2989.6,2678.5,11963.7,311.1,""smooth"",""down"",""down"",""good_move"",17713.8,2760.3,2496.4,14953.5,263.9,""while_blue"",""right"",""right"",""good_move"",20907.2,3193.1,2909,17714.1,284.1,""oops"",""right"",""up"",""bad_move"",23407.5,2500,2252.1,20907.5,247.9,""smooth"",""down"",""down"",""good_move"",26081.2,2673.4,2421.6,23407.8,251.8,""while_blue"",""right"",""up"",""bad_move"",28646.4,2565,2279.3,26081.4,285.7,""smooth"",""down"",""down"",""good_move"",31751.4,3104.8,2841.4,28646.6,263.4,""oops"",""right"",""down"",""good_move"",34679.6,2928.1,2687,31751.5,241.1,""smooth"",""right"",""right"",""good_move"",37125.3,2445.5,2501.8,34679.8,-56.3,""error"",""-"",""-"",""no_move"",37715.4,590,2501.8,34679.8,533.8,""while_red"",""-"",""-"",""no_move"",38703.5,1578.1,2063,38129.8,-1489.3,""error"",""-"",""-"",""no_move"",40305.6,1602,1639.9,39704.9,-1039.2,""error"",""-"",""-"",""no_move"",42239.3,1933.5,2237.4,41309.4,-1307.5,""error"",""-"",""-"",""no_move"",44549.3,2309.9,2295.5,43239.9,-986.1,""error"",""-"",""-"",""no_move""]"
"1726","","<div style=""width:500px;"">
  <p>What determined the result of this run?</p>
  </div>","57","html-slider-response","64","613758","0.0-7.0-1.10","37","1","2025-07-30 08:41:57","36c45c0696341be0efffe67d72a12abb","78.84.164.26","Mozilla/5.0 (Windows NT 10.0; Win64; x64) AppleWebKit/537.36 (KHTML, like Gecko) Chrome/138.0.0.0 Safari/537.36","WebKit","Chrome","138.0.0.0","Windows","10.0","https://app.prolific.com/","en-GB,en-US;q=0.9,en;q=0.8","67458e548861194752950b3e","687a19d2168e237449fb8af4","6889da36102fce62d2a6f01e","0","67458e548861194752950b3e","0","2025-07-30T08:52:11.880Z","","","","AttribQ","","","","","","","","","","","50","","","","","","","","","","","","","","","","","","","","","","","","","","",""
"2047","","<div style=""width:500px;"">
  <p>How much control did you have over the ball?</p>
  </div>","33","html-slider-response","65","615805","0.0-7.0-2.10","37","1","2025-07-30 08:41:57","36c45c0696341be0efffe67d72a12abb","78.84.164.26","Mozilla/5.0 (Windows NT 10.0; Win64; x64) AppleWebKit/537.36 (KHTML, like Gecko) Chrome/138.0.0.0 Safari/537.36","WebKit","Chrome","138.0.0.0","Windows","10.0","https://app.prolific.com/","en-GB,en-US;q=0.9,en;q=0.8","67458e548861194752950b3e","687a19d2168e237449fb8af4","6889da36102fce62d2a6f01e","0","67458e548861194752950b3e","0","2025-07-30T08:52:13.928Z","","","","ControlQ","","","","","","","","","","","50","","","","","","","","","","","","","","","","","","","","","","","","","","",""
"2151","","<div style=""width:500px;"">
  <p>How would you describe your current emotional state?</p>
  </div>","30","html-slider-response","66","617957","0.0-7.0-3.10","37","1","2025-07-30 08:41:57","36c45c0696341be0efffe67d72a12abb","78.84.164.26","Mozilla/5.0 (Windows NT 10.0; Win64; x64) AppleWebKit/537.36 (KHTML, like Gecko) Chrome/138.0.0.0 Safari/537.36","WebKit","Chrome","138.0.0.0","Windows","10.0","https://app.prolific.com/","en-GB,en-US;q=0.9,en;q=0.8","67458e548861194752950b3e","687a19d2168e237449fb8af4","6889da36102fce62d2a6f01e","0","67458e548861194752950b3e","0","2025-07-30T08:52:16.080Z","","","","StressQ","","","","","","","","","","","50","","","","","","","","","","","","","","","","","","","","","","","","","","",""
"915","","<div style=""width:500px;"">
  <p>What best describes how you currently feel?</p>
  </div>","42","html-slider-response","67","618873","0.0-7.0-4.10","37","1","2025-07-30 08:41:57","36c45c0696341be0efffe67d72a12abb","78.84.164.26","Mozilla/5.0 (Windows NT 10.0; Win64; x64) AppleWebKit/537.36 (KHTML, like Gecko) Chrome/138.0.0.0 Safari/537.36","WebKit","Chrome","138.0.0.0","Windows","10.0","https://app.prolific.com/","en-GB,en-US;q=0.9,en;q=0.8","67458e548861194752950b3e","687a19d2168e237449fb8af4","6889da36102fce62d2a6f01e","0","67458e548861194752950b3e","0","2025-07-30T08:52:16.995Z","","","","MotivationQ","","","","","","","","","","","50","","","","","","","","","","","","","","","","","","","","","","","","","","",""
"","","","","ctl-task-cpt","68","632592","0.0-7.0-0.11","37","1","2025-07-30 08:41:57","36c45c0696341be0efffe67d72a12abb","78.84.164.26","Mozilla/5.0 (Windows NT 10.0; Win64; x64) AppleWebKit/537.36 (KHTML, like Gecko) Chrome/138.0.0.0 Safari/537.36","WebKit","Chrome","138.0.0.0","Windows","10.0","https://app.prolific.com/","en-GB,en-US;q=0.9,en;q=0.8","67458e548861194752950b3e","687a19d2168e237449fb8af4","6889da36102fce62d2a6f01e","0","67458e548861194752950b3e","0","2025-07-30T08:52:30.714Z","","","","","","","","","","","","","","","","win-only","3","g1:SW,g2:NE","0.7","12","0","619860","1693.8","6695.5","10701.2","1","4","4","6","1","-1","-1","0","0","0","1584.7","3000","-3015","[""down"",""left""]","{""num_key_presses"":0,""num_perfect"":0,""num_errors"":0,""num_randdir"":0,""num_randdir_good_moves"":0,""num_whilered"":0,""num_whileblue"":0,""num_blue"":0,""num_good_moves"":0}","[410.3214133126395,405.32142761775424,0.2,416.5714133126395,397.82142761775424,103.2,440.3214133126395,411.57142761775424,206.3,441.5714133126395,417.82142761775424,307.7,572.8214133126395,172.82142761775424,412.3,677.8214133126395,69.07142761775425,516.5,676.5714133126395,71.57142761775425,616.6,567.8214133126395,251.57142761775424,716.7,326.5714133126395,612.8214276177542,817,147.8214133126395,732.8214276177542,917.1,121.5714133126395,745.3214276177542,1021.5,112.8214133126395,761.5714276177542,1122.1,97.8214133126395,765.3214276177542,1222.1,97.8214133126395,765.3214276177542,1322.3,87.8214133126395,760.3214276177542,1426.6,87.8214133126395,760.3214276177542,1527.6,87.8214133126395,760.3214276177542,1632,71.5714133126395,761.5714276177542,1737.4,70.3214133126395,761.5714276177542,1841.9,114.0714133126395,696.5714276177542,1946.9,256.5714133126395,466.57142761775424,2047.1,272.8214133126395,445.32142761775424,2152,300.3214133126395,451.57142761775424,2252.8,301.5714133126395,451.57142761775424,2356.8,301.5714133126395,451.57142761775424,2457.2,301.5714133126395,451.57142761775424,2561.4,301.5714133126395,451.57142761775424,2661.5,301.5714133126395,451.57142761775424,2762.3,301.5714133126395,451.57142761775424,2866.5,301.5714133126395,451.57142761775424,2967.9,301.5714133126395,451.57142761775424,3071.9,301.5714133126395,451.57142761775424,3177.7,301.5714133126395,451.57142761775424,3282.4,301.5714133126395,451.57142761775424,3386.4,301.5714133126395,451.57142761775424,3487,301.5714133126395,451.57142761775424,3591.8,301.5714133126395,451.57142761775424,3697.1,301.5714133126395,451.57142761775424,3797.4,301.5714133126395,451.57142761775424,3902.3,301.5714133126395,451.57142761775424,4006.8,301.5714133126395,451.57142761775424,4106.9,301.5714133126395,451.57142761775424,4211.9,301.5714133126395,451.57142761775424,4316.7,301.5714133126395,451.57142761775424,4417.7,301.5714133126395,451.57142761775424,4517.7,301.5714133126395,451.57142761775424,4621.8,301.5714133126395,451.57142761775424,4722.3,301.5714133126395,451.57142761775424,4827.2,301.5714133126395,451.57142761775424,4931.8]","[]"
"1925","","<div style=""width:500px;"">
  <p>What determined the result of this run?</p>
  </div>","49","html-slider-response","69","634518","0.0-7.0-1.11","37","1","2025-07-30 08:41:57","36c45c0696341be0efffe67d72a12abb","78.84.164.26","Mozilla/5.0 (Windows NT 10.0; Win64; x64) AppleWebKit/537.36 (KHTML, like Gecko) Chrome/138.0.0.0 Safari/537.36","WebKit","Chrome","138.0.0.0","Windows","10.0","https://app.prolific.com/","en-GB,en-US;q=0.9,en;q=0.8","67458e548861194752950b3e","687a19d2168e237449fb8af4","6889da36102fce62d2a6f01e","0","67458e548861194752950b3e","0","2025-07-30T08:52:32.640Z","","","","AttribQ","","","","","","","","","","","50","","","","","","","","","","","","","","","","","","","","","","","","","","",""
"1154","","<div style=""width:500px;"">
  <p>How much control did you have over the ball?</p>
  </div>","50","html-slider-response","70","635673","0.0-7.0-2.11","37","1","2025-07-30 08:41:57","36c45c0696341be0efffe67d72a12abb","78.84.164.26","Mozilla/5.0 (Windows NT 10.0; Win64; x64) AppleWebKit/537.36 (KHTML, like Gecko) Chrome/138.0.0.0 Safari/537.36","WebKit","Chrome","138.0.0.0","Windows","10.0","https://app.prolific.com/","en-GB,en-US;q=0.9,en;q=0.8","67458e548861194752950b3e","687a19d2168e237449fb8af4","6889da36102fce62d2a6f01e","0","67458e548861194752950b3e","0","2025-07-30T08:52:33.795Z","","","","ControlQ","","","","","","","","","","","50","","","","","","","","","","","","","","","","","","","","","","","","","","",""
"869","","<div style=""width:500px;"">
  <p>How would you describe your current emotional state?</p>
  </div>","51","html-slider-response","71","636543","0.0-7.0-3.11","37","1","2025-07-30 08:41:57","36c45c0696341be0efffe67d72a12abb","78.84.164.26","Mozilla/5.0 (Windows NT 10.0; Win64; x64) AppleWebKit/537.36 (KHTML, like Gecko) Chrome/138.0.0.0 Safari/537.36","WebKit","Chrome","138.0.0.0","Windows","10.0","https://app.prolific.com/","en-GB,en-US;q=0.9,en;q=0.8","67458e548861194752950b3e","687a19d2168e237449fb8af4","6889da36102fce62d2a6f01e","0","67458e548861194752950b3e","0","2025-07-30T08:52:34.665Z","","","","StressQ","","","","","","","","","","","50","","","","","","","","","","","","","","","","","","","","","","","","","","",""
"1042","","<div style=""width:500px;"">
  <p>What best describes how you currently feel?</p>
  </div>","50","html-slider-response","72","637586","0.0-7.0-4.11","37","1","2025-07-30 08:41:57","36c45c0696341be0efffe67d72a12abb","78.84.164.26","Mozilla/5.0 (Windows NT 10.0; Win64; x64) AppleWebKit/537.36 (KHTML, like Gecko) Chrome/138.0.0.0 Safari/537.36","WebKit","Chrome","138.0.0.0","Windows","10.0","https://app.prolific.com/","en-GB,en-US;q=0.9,en;q=0.8","67458e548861194752950b3e","687a19d2168e237449fb8af4","6889da36102fce62d2a6f01e","0","67458e548861194752950b3e","0","2025-07-30T08:52:35.708Z","","","","MotivationQ","","","","","","","","","","","50","","","","","","","","","","","","","","","","","","","","","","","","","","",""
"","","","","ctl-task-cpt","73","679311","0.0-7.0-0.12","37","1","2025-07-30 08:41:57","36c45c0696341be0efffe67d72a12abb","78.84.164.26","Mozilla/5.0 (Windows NT 10.0; Win64; x64) AppleWebKit/537.36 (KHTML, like Gecko) Chrome/138.0.0.0 Safari/537.36","WebKit","Chrome","138.0.0.0","Windows","10.0","https://app.prolific.com/","en-GB,en-US;q=0.9,en;q=0.8","67458e548861194752950b3e","687a19d2168e237449fb8af4","6889da36102fce62d2a6f01e","0","67458e548861194752950b3e","0","2025-07-30T08:53:17.433Z","","","","","","","","","","","","","","","","win-only","2","g1:SE,g2:NW","0.8","13","0","638572.8","380.9","5385.4","38705.3","1","4","8","6","2","-8","-9","0","0","0","1665.9","3000","-3005","[""left"",""up""]","{""num_key_presses"":8,""num_perfect"":5,""num_errors"":1,""num_randdir"":2,""num_randdir_good_moves"":0,""num_whilered"":0,""num_whileblue"":1,""num_blue"":3,""num_good_moves"":6}","[412.8214133126395,407.82142761775424,0.1,411.5714133126395,411.57142761775424,104.5,407.8214133126395,421.57142761775424,205.2,406.5714133126395,530.3214276177542,309.7,484.0714133126395,551.5714276177542,414.4,490.3214133126395,460.32142761775424,514.4,476.5714133126395,444.07142761775424,614.5,476.5714133126395,450.32142761775424,719.7,481.5714133126395,456.57142761775424,820.8,481.5714133126395,456.57142761775424,932.1,486.5714133126395,457.82142761775424,1034.7,427.8214133126395,411.57142761775424,1135.7,170.3214133126395,200.32142761775424,1240.9,157.8214133126395,141.57142761775424,1344.4,152.8214133126395,135.32142761775424,1445.2,86.5714133126395,82.82142761775425,1545.2,86.5714133126395,82.82142761775425,1649.3,86.5714133126395,82.82142761775425,1750.1,145.3214133126395,131.57142761775424,1850.3,510.3214133126395,335.32142761775424,1954.3,661.5714133126395,515.3214276177542,2054.7,670.3214133126395,540.3214276177542,2159.4,632.8214133126395,512.8214276177542,2259.6,612.8214133126395,499.07142761775424,2360.3,611.5714133126395,499.07142761775424,2464.3,611.5714133126395,499.07142761775424,2565.8,611.5714133126395,499.07142761775424,2670.1,611.5714133126395,499.07142761775424,2770.9,611.5714133126395,499.07142761775424,2875.1,611.5714133126395,499.07142761775424,2980.2,611.5714133126395,499.07142761775424,3084.6,616.5714133126395,510.32142761775424,3185.1,617.8214133126395,511.57142761775424,3289.5,617.8214133126395,511.57142761775424,3389.6,617.8214133126395,511.57142761775424,3494.7,621.5714133126395,495.32142761775424,3595,621.5714133126395,500.32142761775424,3699.3,620.3214133126395,501.57142761775424,3799.7,620.3214133126395,501.57142761775424,3900.7,620.3214133126395,501.57142761775424,4004.4,620.3214133126395,501.57142761775424,4104.4,620.3214133126395,501.57142761775424,4209.2,620.3214133126395,501.57142761775424,4309.6,620.3214133126395,501.57142761775424,4409.6,620.3214133126395,501.57142761775424,4514.5,597.8214133126395,469.07142761775424,4614.5,594.0714133126395,457.82142761775424,4715.2,597.8214133126395,450.32142761775424,4819.6,585.3214133126395,427.82142761775424,4919.7]","[5096,5096,2648.5,2010.4,437.1,""smooth"",""up"",""up"",""good_move"",11647.3,6551,2542.8,8715.1,389.4,""smooth"",""left"",""left"",""good_move"",14592.1,2944.5,2476.8,11647.6,467.7,""oops"",""up"",""right"",""bad_move"",17679.5,3087.2,2672.8,14592.3,414.4,""oops"",""left"",""down"",""bad_move"",20429.5,2749.7,2324.8,17679.8,424.9,""smooth"",""left"",""left"",""good_move"",23227.2,2797.5,2481.2,20429.7,316.3,""smooth"",""up"",""up"",""good_move"",26943.7,3716.3,3403.2,23227.4,313.1,""while_blue"",""left"",""up"",""good_move"",30149.8,3205.8,2854.8,26944,351,""smooth"",""left"",""left"",""good_move""]"
"4249","","<div style=""width:500px;"">
  <p>What determined the result of this run?</p>
  </div>","0","html-slider-response","74","683561","0.0-7.0-1.12","37","1","2025-07-30 08:41:57","36c45c0696341be0efffe67d72a12abb","78.84.164.26","Mozilla/5.0 (Windows NT 10.0; Win64; x64) AppleWebKit/537.36 (KHTML, like Gecko) Chrome/138.0.0.0 Safari/537.36","WebKit","Chrome","138.0.0.0","Windows","10.0","https://app.prolific.com/","en-GB,en-US;q=0.9,en;q=0.8","67458e548861194752950b3e","687a19d2168e237449fb8af4","6889da36102fce62d2a6f01e","0","67458e548861194752950b3e","0","2025-07-30T08:53:21.683Z","","","","AttribQ","","","","","","","","","","","50","","","","","","","","","","","","","","","","","","","","","","","","","","",""
"1312","","<div style=""width:500px;"">
  <p>How much control did you have over the ball?</p>
  </div>","0","html-slider-response","75","684873","0.0-7.0-2.12","37","1","2025-07-30 08:41:57","36c45c0696341be0efffe67d72a12abb","78.84.164.26","Mozilla/5.0 (Windows NT 10.0; Win64; x64) AppleWebKit/537.36 (KHTML, like Gecko) Chrome/138.0.0.0 Safari/537.36","WebKit","Chrome","138.0.0.0","Windows","10.0","https://app.prolific.com/","en-GB,en-US;q=0.9,en;q=0.8","67458e548861194752950b3e","687a19d2168e237449fb8af4","6889da36102fce62d2a6f01e","0","67458e548861194752950b3e","0","2025-07-30T08:53:22.995Z","","","","ControlQ","","","","","","","","","","","50","","","","","","","","","","","","","","","","","","","","","","","","","","",""
"3014","","<div style=""width:500px;"">
  <p>How would you describe your current emotional state?</p>
