"rt","response_timestamp","stimulus","response","trial_type","trial_index","time_elapsed","internal_node_id","run_id","condition","recorded_at","source_code_version","ip","user_agent","device","browser","browser_version","platform","platform_version","referer","accept_language","PROLIFIC_PID","STUDY_ID","SESSION_ID","BATCH","prolific_id","batch","realtime","success","question_order","question_id","eventType","responses","item_order","radio_event_ids","radio_event_times","key_event_times","mouse_event_times","straightlining","zigzagging","honeypot","view_history","slider_start","which_type","canvas_config","goals_layout","control_level","trial_number","tutorial_trial_number","trial_start_time","phase1_start_time","phase2_start_time","phase3_start_time","goal_1_value","goal_1_distance","goal_2_value","goal_2_distance","goal_selected","outcome","outcome_total","participant_final_score","participant_initial_score","participant_final_score_prop","goal_choice_rt","allocated_time","allocated_time_remaining","goal_direction","counts","mouse_movements","key_presses"
"4030","1754471086491","<p style='font-size:40px;line-height:1.25'><strong>Welcome to the experiment!</strong></p><p style='font-size:1.1em;line-height:1.25'>Thank you for participanting in our experiment again! You will be asked to play the Dysfunctional Ball Game again. We will briefly recap the rules before we start.</p><p style='font-size:1.1em;line-height:1.25'>Press <strong>Next</strong> to continue.</p>","0","custom-html-button-response","0","4037","0.0-0.0","158","1","2025-08-06 09:04:38","36c45c0696341be0efffe67d72a12abb","41.122.155.184","Mozilla/5.0 (Windows NT 10.0; Win64; x64) AppleWebKit/537.36 (KHTML, like Gecko) Chrome/138.0.0.0 Safari/537.36","WebKit","Chrome","138.0.0.0","Windows","10.0","https://app.prolific.com/","en-ZA,en-GB;q=0.9,en-US;q=0.8,en;q=0.7,de;q=0.6,zh-CN;q=0.5,zh;q=0.4","674da5296d8cc775b40c8311","687a1a965b9f5b85a264363e","6893174ff096df9169768788","1","674da5296d8cc775b40c8311","1","2025-08-06T09:04:46.493Z","","","","","","","","","","","","","","","","","","","","","","","","","","","","","","","","","","","","","","","","","",""
"5138","","","","fullscreen","1","10195","0.0-1.0","158","1","2025-08-06 09:04:38","36c45c0696341be0efffe67d72a12abb","41.122.155.184","Mozilla/5.0 (Windows NT 10.0; Win64; x64) AppleWebKit/537.36 (KHTML, like Gecko) Chrome/138.0.0.0 Safari/537.36","WebKit","Chrome","138.0.0.0","Windows","10.0","https://app.prolific.com/","en-ZA,en-GB;q=0.9,en-US;q=0.8,en;q=0.7,de;q=0.6,zh-CN;q=0.5,zh;q=0.4","674da5296d8cc775b40c8311","687a1a965b9f5b85a264363e","6893174ff096df9169768788","1","674da5296d8cc775b40c8311","1","","true","","","","","","","","","","","","","","","","","","","","","","","","","","","","","","","","","","","","","","","","",""
"2221","1754471094874"," <p style='font-size:1.1em;line-height:1.25'>Thank you for closing all other tabs.</p><p style='font-size:1.1em;line-height:1.25'>We will now invite you to fill in some questionnaires, before starting the game.<br>This will take about 5 minutes.<br></p><p style='font-size:1.1em;line-height:1.25'>Press the <strong>Next</strong> button to continue.</p>","0","custom-html-button-response","2","12419","0.0-2.0","158","1","2025-08-06 09:04:38","36c45c0696341be0efffe67d72a12abb","41.122.155.184","Mozilla/5.0 (Windows NT 10.0; Win64; x64) AppleWebKit/537.36 (KHTML, like Gecko) Chrome/138.0.0.0 Safari/537.36","WebKit","Chrome","138.0.0.0","Windows","10.0","https://app.prolific.com/","en-ZA,en-GB;q=0.9,en-US;q=0.8,en;q=0.7,de;q=0.6,zh-CN;q=0.5,zh;q=0.4","674da5296d8cc775b40c8311","687a1a965b9f5b85a264363e","6893174ff096df9169768788","1","674da5296d8cc775b40c8311","1","2025-08-06T09:04:54.875Z","","","","","","","","","","","","","","","","","","","","","","","","","","","","","","","","","","","","","","","","","",""
"6126","","","{""assigned_sex"":""female""}","survey-multi-choice","3","18548","0.0-3.0-0.0","158","1","2025-08-06 09:04:38","36c45c0696341be0efffe67d72a12abb","41.122.155.184","Mozilla/5.0 (Windows NT 10.0; Win64; x64) AppleWebKit/537.36 (KHTML, like Gecko) Chrome/138.0.0.0 Safari/537.36","WebKit","Chrome","138.0.0.0","Windows","10.0","https://app.prolific.com/","en-ZA,en-GB;q=0.9,en-US;q=0.8,en;q=0.7,de;q=0.6,zh-CN;q=0.5,zh;q=0.4","674da5296d8cc775b40c8311","687a1a965b9f5b85a264363e","6893174ff096df9169768788","1","674da5296d8cc775b40c8311","1","","","[0]","0","demographics","","","","","","","","","","","","","","","","","","","","","","","","","","","","","","","","","","","","","",""
"3061","1754471104067","<p style='font-size:1.1em;line-height:1.25'>In the following, we will perform a baseline assessment. This means that we will ask you a few questions relating to your experiences over the past month.<br></p><p style='font-size:1.1em;line-height:1.25'>Press the <strong>Next</strong> button to continue.</p>","0","custom-html-button-response","4","21612","0.0-4.0-0.0","158","1","2025-08-06 09:04:38","36c45c0696341be0efffe67d72a12abb","41.122.155.184","Mozilla/5.0 (Windows NT 10.0; Win64; x64) AppleWebKit/537.36 (KHTML, like Gecko) Chrome/138.0.0.0 Safari/537.36","WebKit","Chrome","138.0.0.0","Windows","10.0","https://app.prolific.com/","en-ZA,en-GB;q=0.9,en-US;q=0.8,en;q=0.7,de;q=0.6,zh-CN;q=0.5,zh;q=0.4","674da5296d8cc775b40c8311","687a1a965b9f5b85a264363e","6893174ff096df9169768788","1","674da5296d8cc775b40c8311","1","2025-08-06T09:05:04.068Z","","","","","","","","","","","","","","","","","","","","","","","","","","","","","","","","","","","","","","","","","",""
"65937.5","","","","survey-template","5","87555","0.0-4.0-1.0","158","1","2025-08-06 09:04:38","36c45c0696341be0efffe67d72a12abb","41.122.155.184","Mozilla/5.0 (Windows NT 10.0; Win64; x64) AppleWebKit/537.36 (KHTML, like Gecko) Chrome/138.0.0.0 Safari/537.36","WebKit","Chrome","138.0.0.0","Windows","10.0","https://app.prolific.com/","en-ZA,en-GB;q=0.9,en-US;q=0.8,en;q=0.7,de;q=0.6,zh-CN;q=0.5,zh;q=0.4","674da5296d8cc775b40c8311","687a1a965b9f5b85a264363e","6893174ff096df9169768788","1","674da5296d8cc775b40c8311","1","2025-08-06T09:06:10.011Z","","","","pss","{""Q01"":""4"",""Q02"":""3"",""Q03"":""2"",""Q04"":""2"",""Q05"":""2"",""Q06"":""4"",""Q07"":""0"",""Q08"":""0"",""Q09"":""3"",""Q10"":""3""}","[0,1,2,3,4,5,6,7,8,9]","[""Q01"",""Q02"",""Q03"",""Q04"",""Q05"",""Q06"",""Q07"",""Q08"",""Q09"",""Q10""]","[28959.400000002235,33827.800000000745,38707.699999999255,39950.800000000745,41170,47982.60000000149,49274,50357.900000002235,51641.5,63984.400000002235]","[]","[0.10000000149011612,28959.400000002235,33827.800000000745,38707.699999999255,39950.800000000745,41170,42569.10000000149,47982.60000000149,49274,50357.900000002235,51641.5,53316.10000000149,59856.300000000745,63984.400000002235,65929.90000000224]","0.4","0.3333333333333333","0","","","","","","","","","","","","","","","","","","","","","","","","","","","","",""
"7813","1754471177829","<p style='font-size:1.1em;line-height:1.25'>Thank you for your answers! Now we will ask you a few more questions relating to your feelings in the last 24 hours.<br></p><p style='font-size:1.1em;line-height:1.25'>Press the <strong>Next</strong> button to continue.</p>","0","custom-html-button-response","6","95373","0.0-4.0-2.0","158","1","2025-08-06 09:04:38","36c45c0696341be0efffe67d72a12abb","41.122.155.184","Mozilla/5.0 (Windows NT 10.0; Win64; x64) AppleWebKit/537.36 (KHTML, like Gecko) Chrome/138.0.0.0 Safari/537.36","WebKit","Chrome","138.0.0.0","Windows","10.0","https://app.prolific.com/","en-ZA,en-GB;q=0.9,en-US;q=0.8,en;q=0.7,de;q=0.6,zh-CN;q=0.5,zh;q=0.4","674da5296d8cc775b40c8311","687a1a965b9f5b85a264363e","6893174ff096df9169768788","1","674da5296d8cc775b40c8311","1","2025-08-06T09:06:17.830Z","","","","","","","","","","","","","","","","","","","","","","","","","","","","","","","","","","","","","","","","","",""
"71045.19999999925","","","","survey-template","7","166430","0.0-4.0-3.0","158","1","2025-08-06 09:04:38","36c45c0696341be0efffe67d72a12abb","41.122.155.184","Mozilla/5.0 (Windows NT 10.0; Win64; x64) AppleWebKit/537.36 (KHTML, like Gecko) Chrome/138.0.0.0 Safari/537.36","WebKit","Chrome","138.0.0.0","Windows","10.0","https://app.prolific.com/","en-ZA,en-GB;q=0.9,en-US;q=0.8,en;q=0.7,de;q=0.6,zh-CN;q=0.5,zh;q=0.4","674da5296d8cc775b40c8311","687a1a965b9f5b85a264363e","6893174ff096df9169768788","1","674da5296d8cc775b40c8311","1","2025-08-06T09:07:28.886Z","","","","drsp","{""Q01"":""3"",""Q02"":""2"",""Q03"":""4"",""Q04"":""5"",""Q05"":""5"",""Q06"":""4"",""Q07"":""3"",""Q08"":""5"",""Q09"":""5"",""Q10"":""5"",""Q11"":""3"",""Q12"":""4"",""Q13"":""5"",""Q14"":""4"",""Q15"":""4"",""Q16"":""3"",""Q17"":""3"",""Q18"":""3"",""Q19"":""4"",""Q20"":""4"",""Q21"":""3"",""Q22"":""4""}","[0,1,2,3,4,5,6,7,8,9,10,11,12,13,14,15,16,17,18,19,20,21]","[""Q01"",""Q02"",""Q02"",""Q03"",""Q04"",""Q05"",""Q07"",""Q06"",""Q08"",""Q09"",""Q10"",""Q11"",""Q13"",""Q14"",""Q15"",""Q12"",""Q18"",""Q17"",""Q16"",""Q19"",""Q20"",""Q21"",""Q22""]","[4089.199999999255,5500.60000000149,8806.300000000745,11802.699999999255,13715.800000000745,16130.60000000149,20543.39999999851,21897.699999999255,25870.60000000149,33269.39999999851,34641,36305.699999999255,41510.300000000745,44272.60000000149,45706.5,49421.60000000149,56947.199999999255,58061.5,59501.89999999851,61316.39999999851,62566.199999999255,63981.5,69558.19999999925]","[]","[0.19999999925494194,4089.199999999255,5500.60000000149,8806.300000000745,11802.699999999255,13715.800000000745,16130.60000000149,18635.60000000149,20543.39999999851,21897.699999999255,24235.300000000745,25870.60000000149,33269.39999999851,34641,36305.699999999255,37815.10000000149,41510.300000000745,44272.60000000149,45706.5,49421.60000000149,54243,56947.199999999255,58061.5,59501.89999999851,61316.39999999851,62566.199999999255,63981.5,69558.19999999925,71038.89999999851]","0.36363636363636365","0.5238095238095238","0","","","","","","","","","","","","","","","","","","","","","","","","","","","","",""
"20059.60000000149","","","","survey-template","8","186494","0.0-4.0-4.0","158","1","2025-08-06 09:04:38","36c45c0696341be0efffe67d72a12abb","41.122.155.184","Mozilla/5.0 (Windows NT 10.0; Win64; x64) AppleWebKit/537.36 (KHTML, like Gecko) Chrome/138.0.0.0 Safari/537.36","WebKit","Chrome","138.0.0.0","Windows","10.0","https://app.prolific.com/","en-ZA,en-GB;q=0.9,en-US;q=0.8,en;q=0.7,de;q=0.6,zh-CN;q=0.5,zh;q=0.4","674da5296d8cc775b40c8311","687a1a965b9f5b85a264363e","6893174ff096df9169768788","1","674da5296d8cc775b40c8311","1","2025-08-06T09:07:48.951Z","","","","stress","{""Q01"":""2"",""Q02"":""2"",""Q03"":""3""}","[0,1,2]","[""Q01"",""Q02"",""Q03""]","[10061.10000000149,16787.699999999255,18532.5]","[]","[10061.10000000149,16787.699999999255,18532.5,20058.10000000149]","0.6666666666666666","0.5","0","","","","","","","","","","","","","","","","","","","","","","","","","","","","",""
"60826","","","","instructions","9","247324","0.0-5.0-0.0","158","1","2025-08-06 09:04:38","36c45c0696341be0efffe67d72a12abb","41.122.155.184","Mozilla/5.0 (Windows NT 10.0; Win64; x64) AppleWebKit/537.36 (KHTML, like Gecko) Chrome/138.0.0.0 Safari/537.36","WebKit","Chrome","138.0.0.0","Windows","10.0","https://app.prolific.com/","en-ZA,en-GB;q=0.9,en-US;q=0.8,en;q=0.7,de;q=0.6,zh-CN;q=0.5,zh;q=0.4","674da5296d8cc775b40c8311","687a1a965b9f5b85a264363e","6893174ff096df9169768788","1","674da5296d8cc775b40c8311","1","","","","","","","","","","","","","","","[{""page_index"":0,""viewing_time"":60825}]","","","","","","","","","","","","","","","","","","","","","","","","","","","",""
"8736","","<p>Before you start with this game please answer the following three questions yourself. </p>
  <p>Through this game, we measure several aspects of your cognitive performance, such as reaction times, multi-tasking capabilities </p>
  <p>and the ability to assess the situation you are in.</p>
  <p></p>
  <p><b>How good do you usually are in such tasks?</b></p>","77","html-slider-response","10","256064","0.0-6.0-0.0","158","1","2025-08-06 09:04:38","36c45c0696341be0efffe67d72a12abb","41.122.155.184","Mozilla/5.0 (Windows NT 10.0; Win64; x64) AppleWebKit/537.36 (KHTML, like Gecko) Chrome/138.0.0.0 Safari/537.36","WebKit","Chrome","138.0.0.0","Windows","10.0","https://app.prolific.com/","en-ZA,en-GB;q=0.9,en-US;q=0.8,en;q=0.7,de;q=0.6,zh-CN;q=0.5,zh;q=0.4","674da5296d8cc775b40c8311","687a1a965b9f5b85a264363e","6893174ff096df9169768788","1","674da5296d8cc775b40c8311","1","2025-08-06T09:08:58.521Z","","","","PreSkillQ","","","","","","","","","","","50","","","","","","","","","","","","","","","","","","","","","","","","","","",""
"5088","","<div style=""width:500px;"">
  <p>How well do you think you will perform in this task compared to other participants?</p>
  </div>","73","html-slider-response","11","261155","0.0-6.0-1.0","158","1","2025-08-06 09:04:38","36c45c0696341be0efffe67d72a12abb","41.122.155.184","Mozilla/5.0 (Windows NT 10.0; Win64; x64) AppleWebKit/537.36 (KHTML, like Gecko) Chrome/138.0.0.0 Safari/537.36","WebKit","Chrome","138.0.0.0","Windows","10.0","https://app.prolific.com/","en-ZA,en-GB;q=0.9,en-US;q=0.8,en;q=0.7,de;q=0.6,zh-CN;q=0.5,zh;q=0.4","674da5296d8cc775b40c8311","687a1a965b9f5b85a264363e","6893174ff096df9169768788","1","674da5296d8cc775b40c8311","1","2025-08-06T09:09:03.611Z","","","","PrePerfQ","","","","","","","","","","","50","","","","","","","","","","","","","","","","","","","","","","","","","","",""
"4692","","<div style=""width:500px;"">
  <p>What best describes how you currently feel?</p>
  </div>","71","html-slider-response","12","265852","0.0-6.0-2.0","158","1","2025-08-06 09:04:38","36c45c0696341be0efffe67d72a12abb","41.122.155.184","Mozilla/5.0 (Windows NT 10.0; Win64; x64) AppleWebKit/537.36 (KHTML, like Gecko) Chrome/138.0.0.0 Safari/537.36","WebKit","Chrome","138.0.0.0","Windows","10.0","https://app.prolific.com/","en-ZA,en-GB;q=0.9,en-US;q=0.8,en;q=0.7,de;q=0.6,zh-CN;q=0.5,zh;q=0.4","674da5296d8cc775b40c8311","687a1a965b9f5b85a264363e","6893174ff096df9169768788","1","674da5296d8cc775b40c8311","1","2025-08-06T09:09:08.309Z","","","","PreMotivationQ","","","","","","","","","","","50","","","","","","","","","","","","","","","","","","","","","","","","","","",""
"","","","","ctl-task-cpt","13","291421","0.0-7.0-0.0","158","1","2025-08-06 09:04:38","36c45c0696341be0efffe67d72a12abb","41.122.155.184","Mozilla/5.0 (Windows NT 10.0; Win64; x64) AppleWebKit/537.36 (KHTML, like Gecko) Chrome/138.0.0.0 Safari/537.36","WebKit","Chrome","138.0.0.0","Windows","10.0","https://app.prolific.com/","en-ZA,en-GB;q=0.9,en-US;q=0.8,en;q=0.7,de;q=0.6,zh-CN;q=0.5,zh;q=0.4","674da5296d8cc775b40c8311","687a1a965b9f5b85a264363e","6893174ff096df9169768788","1","674da5296d8cc775b40c8311","1","2025-08-06T09:09:33.877Z","","","","","","","","","","","","","","","","win-only","0","g1:NW,g2:SE","1","1","0","270225.8","5887","10893.2","22556.7","1","4","4","6","1","-1","-3","0","0","0","3275","3000","-2415","[""left"",""up""]","{""num_key_presses"":3,""num_perfect"":1,""num_errors"":2,""num_randdir"":0,""num_randdir_good_moves"":0,""num_whilered"":0,""num_whileblue"":0,""num_blue"":0,""num_good_moves"":0}","[338.4642857142857,341.5736597606114,0.9,338.4642857142857,341.5736597606114,109.5,338.4642857142857,341.5736597606114,211.7,338.4642857142857,341.5736597606114,314.2,338.4642857142857,341.5736597606114,415.7,338.4642857142857,341.5736597606114,527.4,338.4642857142857,341.5736597606114,629.9,338.4642857142857,341.5736597606114,742.4,338.4642857142857,341.5736597606114,844,338.4642857142857,341.5736597606114,956.5,338.4642857142857,341.5736597606114,1063.7,275.4642857142857,338.5736597606114,1164.2,180.96428571428572,308.5736597606114,1270.1,174.96428571428572,298.0736597606114,1370.5,167.46428571428572,289.0736597606114,1476.4,128.46428571428572,236.5736597606114,1579.8,114.96428571428572,218.5736597606114,1684.1,114.96428571428572,215.5736597606114,1792,114.96428571428572,215.5736597606114,1894.8,101.46428571428572,173.5736597606114,1995.5,65.46428571428572,92.5736597606114,2097.6,48.964285714285715,65.5736597606114,2198.2,47.464285714285715,65.5736597606114,2300.6,47.464285714285715,65.5736597606114,2403.9,48.964285714285715,71.5736597606114,2504,50.464285714285715,77.5736597606114,2610.5,51.964285714285715,77.5736597606114,2717.2,51.964285714285715,77.5736597606114,2817.4,51.964285714285715,77.5736597606114,2918.5,51.964285714285715,77.5736597606114,3025.8,51.964285714285715,77.5736597606114,3128.2,51.964285714285715,77.5736597606114,3228.7,51.964285714285715,77.5736597606114,3329.3,51.964285714285715,77.5736597606114,3430.5,51.964285714285715,77.5736597606114,3540.1,51.964285714285715,77.5736597606114,3644.6,51.964285714285715,77.5736597606114,3750.1,51.964285714285715,77.5736597606114,3850.3,51.964285714285715,77.5736597606114,3956.7,50.464285714285715,112.0736597606114,4064.7,47.464285714285715,140.5736597606114,4169.5,45.964285714285715,154.0736597606114,4279.5,44.464285714285715,161.5736597606114,4380.1,44.464285714285715,164.5736597606114,4480.6,44.464285714285715,164.5736597606114,4587.2,44.464285714285715,164.5736597606114,4687.7,44.464285714285715,164.5736597606114,4790.3,44.464285714285715,164.5736597606114,4895.1]","[4481.3,4481.4,1000,0,3481.4,""smooth"",""down"",""down"",""bad_move"",5209.6,727.5,2391.4,4482.2,-1663.9,""error"",""-"",""-"",""no_move"",7390.2,2180.2,2570.3,6210.4,-1390.5,""error"",""-"",""-"",""no_move""]"
"4752","","<div style=""width:500px;"">
  <p>What determined the result of this run?</p>
  </div>","18","html-slider-response","14","296176","0.0-7.0-1.0","158","1","2025-08-06 09:04:38","36c45c0696341be0efffe67d72a12abb","41.122.155.184","Mozilla/5.0 (Windows NT 10.0; Win64; x64) AppleWebKit/537.36 (KHTML, like Gecko) Chrome/138.0.0.0 Safari/537.36","WebKit","Chrome","138.0.0.0","Windows","10.0","https://app.prolific.com/","en-ZA,en-GB;q=0.9,en-US;q=0.8,en;q=0.7,de;q=0.6,zh-CN;q=0.5,zh;q=0.4","674da5296d8cc775b40c8311","687a1a965b9f5b85a264363e","6893174ff096df9169768788","1","674da5296d8cc775b40c8311","1","2025-08-06T09:09:38.632Z","","","","AttribQ","","","","","","","","","","","50","","","","","","","","","","","","","","","","","","","","","","","","","","",""
"4420","","<div style=""width:500px;"">
  <p>How much control did you have over the ball?</p>
  </div>","34","html-slider-response","15","300599","0.0-7.0-2.0","158","1","2025-08-06 09:04:38","36c45c0696341be0efffe67d72a12abb","41.122.155.184","Mozilla/5.0 (Windows NT 10.0; Win64; x64) AppleWebKit/537.36 (KHTML, like Gecko) Chrome/138.0.0.0 Safari/537.36","WebKit","Chrome","138.0.0.0","Windows","10.0","https://app.prolific.com/","en-ZA,en-GB;q=0.9,en-US;q=0.8,en;q=0.7,de;q=0.6,zh-CN;q=0.5,zh;q=0.4","674da5296d8cc775b40c8311","687a1a965b9f5b85a264363e","6893174ff096df9169768788","1","674da5296d8cc775b40c8311","1","2025-08-06T09:09:43.055Z","","","","ControlQ","","","","","","","","","","","50","","","","","","","","","","","","","","","","","","","","","","","","","","",""
"4879","","<div style=""width:500px;"">
  <p>How would you describe your current emotional state?</p>
  </div>","26","html-slider-response","16","305481","0.0-7.0-3.0","158","1","2025-08-06 09:04:38","36c45c0696341be0efffe67d72a12abb","41.122.155.184","Mozilla/5.0 (Windows NT 10.0; Win64; x64) AppleWebKit/537.36 (KHTML, like Gecko) Chrome/138.0.0.0 Safari/537.36","WebKit","Chrome","138.0.0.0","Windows","10.0","https://app.prolific.com/","en-ZA,en-GB;q=0.9,en-US;q=0.8,en;q=0.7,de;q=0.6,zh-CN;q=0.5,zh;q=0.4","674da5296d8cc775b40c8311","687a1a965b9f5b85a264363e","6893174ff096df9169768788","1","674da5296d8cc775b40c8311","1","2025-08-06T09:09:47.938Z","","","","StressQ","","","","","","","","","","","50","","","","","","","","","","","","","","","","","","","","","","","","","","",""
"5659","","<div style=""width:500px;"">
  <p>What best describes how you currently feel?</p>
  </div>","38","html-slider-response","17","311144","0.0-7.0-4.0","158","1","2025-08-06 09:04:38","36c45c0696341be0efffe67d72a12abb","41.122.155.184","Mozilla/5.0 (Windows NT 10.0; Win64; x64) AppleWebKit/537.36 (KHTML, like Gecko) Chrome/138.0.0.0 Safari/537.36","WebKit","Chrome","138.0.0.0","Windows","10.0","https://app.prolific.com/","en-ZA,en-GB;q=0.9,en-US;q=0.8,en;q=0.7,de;q=0.6,zh-CN;q=0.5,zh;q=0.4","674da5296d8cc775b40c8311","687a1a965b9f5b85a264363e","6893174ff096df9169768788","1","674da5296d8cc775b40c8311","1","2025-08-06T09:09:53.600Z","","","","MotivationQ","","","","","","","","","","","50","","","","","","","","","","","","","","","","","","","","","","","","","","",""
"","","","","ctl-task-cpt","18","354712","0.0-7.0-0.1","158","1","2025-08-06 09:04:38","36c45c0696341be0efffe67d72a12abb","41.122.155.184","Mozilla/5.0 (Windows NT 10.0; Win64; x64) AppleWebKit/537.36 (KHTML, like Gecko) Chrome/138.0.0.0 Safari/537.36","WebKit","Chrome","138.0.0.0","Windows","10.0","https://app.prolific.com/","en-ZA,en-GB;q=0.9,en-US;q=0.8,en;q=0.7,de;q=0.6,zh-CN;q=0.5,zh;q=0.4","674da5296d8cc775b40c8311","687a1a965b9f5b85a264363e","6893174ff096df9169768788","1","674da5296d8cc775b40c8311","1","2025-08-06T09:10:37.168Z","","","","","","","","","","","","","","","","win-only","3","g1:SW,g2:NE","0.9","2","0","315511.8","7540","12542.7","40563","1","4","8","6","1","-1","-1","0","0","0","5002.5","3000","-2235","[""down"",""left""]","{""num_key_presses"":5,""num_perfect"":5,""num_errors"":0,""num_randdir"":0,""num_randdir_good_moves"":0,""num_whilered"":0,""num_whileblue"":0,""num_blue"":3,""num_good_moves"":4}","[332.4642857142857,338.5736597606114,0.7,332.4642857142857,338.5736597606114,106.9,332.4642857142857,338.5736597606114,218.3,332.4642857142857,338.5736597606114,327,332.4642857142857,338.5736597606114,433.3,332.4642857142857,338.5736597606114,533.6,332.4642857142857,338.5736597606114,635.8,332.4642857142857,338.5736597606114,736.3,332.4642857142857,338.5736597606114,838.1,332.4642857142857,338.5736597606114,946.8,332.4642857142857,338.5736597606114,1047.3,332.4642857142857,338.5736597606114,1149.2,332.4642857142857,338.5736597606114,1256.4,332.4642857142857,338.5736597606114,1361.7,332.4642857142857,338.5736597606114,1466.7,332.4642857142857,338.5736597606114,1567.3,332.4642857142857,338.5736597606114,1668.2,332.4642857142857,338.5736597606114,1772.4,332.4642857142857,338.5736597606114,1874.9,332.4642857142857,338.5736597606114,1982.1,332.4642857142857,338.5736597606114,2083,332.4642857142857,338.5736597606114,2186,332.4642857142857,338.5736597606114,2289.3,332.4642857142857,338.5736597606114,2389.8,332.4642857142857,338.5736597606114,2499,332.4642857142857,338.5736597606114,2601.5,332.4642857142857,338.5736597606114,2702.2,332.4642857142857,338.5736597606114,2813.5,332.4642857142857,338.5736597606114,2917.3,332.4642857142857,338.5736597606114,3019.1,332.4642857142857,338.5736597606114,3121.7,332.4642857142857,338.5736597606114,3222.4,332.4642857142857,338.5736597606114,3327.6,332.4642857142857,338.5736597606114,3427.7,332.4642857142857,338.5736597606114,3527.8,332.4642857142857,338.5736597606114,3634.3,332.4642857142857,338.5736597606114,3735.9,332.4642857142857,338.5736597606114,3841.9,332.4642857142857,338.5736597606114,3951,332.4642857142857,338.5736597606114,4056,332.4642857142857,338.5736597606114,4157.8,332.4642857142857,338.5736597606114,4263.2,332.4642857142857,338.5736597606114,4366.4,332.4642857142857,338.5736597606114,4473.6,332.4642857142857,338.5736597606114,4582.4,332.4642857142857,338.5736597606114,4683.2,332.4642857142857,338.5736597606114,4790.4,332.4642857142857,338.5736597606114,4890.5,332.4642857142857,338.5736597606114,4995.2]","[4573.9,4573.9,2161.9,2010.9,401.1,""smooth"",""up"",""up"",""bad_move"",10959.3,6384.7,2102.4,8343,513.9,""smooth"",""left"",""left"",""good_move"",16803.3,5843.5,2194.9,14097.6,510.8,""smooth"",""left"",""left"",""good_move"",21529.6,4725.8,2851.2,16803.8,1874.6,""smooth"",""down"",""down"",""good_move"",24940.7,3410.2,2743.5,21530.5,666.7,""smooth"",""down"",""down"",""good_move""]"
"5543","","<div style=""width:500px;"">
  <p>What determined the result of this run?</p>
  </div>","60","html-slider-response","19","360258","0.0-7.0-1.1","158","1","2025-08-06 09:04:38","36c45c0696341be0efffe67d72a12abb","41.122.155.184","Mozilla/5.0 (Windows NT 10.0; Win64; x64) AppleWebKit/537.36 (KHTML, like Gecko) Chrome/138.0.0.0 Safari/537.36","WebKit","Chrome","138.0.0.0","Windows","10.0","https://app.prolific.com/","en-ZA,en-GB;q=0.9,en-US;q=0.8,en;q=0.7,de;q=0.6,zh-CN;q=0.5,zh;q=0.4","674da5296d8cc775b40c8311","687a1a965b9f5b85a264363e","6893174ff096df9169768788","1","674da5296d8cc775b40c8311","1","2025-08-06T09:10:42.714Z","","","","AttribQ","","","","","","","","","","","50","","","","","","","","","","","","","","","","","","","","","","","","","","",""
"2579","","<div style=""width:500px;"">
  <p>How much control did you have over the ball?</p>
  </div>","68","html-slider-response","20","362840","0.0-7.0-2.1","158","1","2025-08-06 09:04:38","36c45c0696341be0efffe67d72a12abb","41.122.155.184","Mozilla/5.0 (Windows NT 10.0; Win64; x64) AppleWebKit/537.36 (KHTML, like Gecko) Chrome/138.0.0.0 Safari/537.36","WebKit","Chrome","138.0.0.0","Windows","10.0","https://app.prolific.com/","en-ZA,en-GB;q=0.9,en-US;q=0.8,en;q=0.7,de;q=0.6,zh-CN;q=0.5,zh;q=0.4","674da5296d8cc775b40c8311","687a1a965b9f5b85a264363e","6893174ff096df9169768788","1","674da5296d8cc775b40c8311","1","2025-08-06T09:10:45.296Z","","","","ControlQ","","","","","","","","","","","50","","","","","","","","","","","","","","","","","","","","","","","","","","",""
"5958","","<div style=""width:500px;"">
  <p>How would you describe your current emotional state?</p>
  </div>","20","html-slider-response","21","368802","0.0-7.0-3.1","158","1","2025-08-06 09:04:38","36c45c0696341be0efffe67d72a12abb","41.122.155.184","Mozilla/5.0 (Windows NT 10.0; Win64; x64) AppleWebKit/537.36 (KHTML, like Gecko) Chrome/138.0.0.0 Safari/537.36","WebKit","Chrome","138.0.0.0","Windows","10.0","https://app.prolific.com/","en-ZA,en-GB;q=0.9,en-US;q=0.8,en;q=0.7,de;q=0.6,zh-CN;q=0.5,zh;q=0.4","674da5296d8cc775b40c8311","687a1a965b9f5b85a264363e","6893174ff096df9169768788","1","674da5296d8cc775b40c8311","1","2025-08-06T09:10:51.258Z","","","","StressQ","","","","","","","","","","","50","","","","","","","","","","","","","","","","","","","","","","","","","","",""
"8186","","<div style=""width:500px;"">
  <p>What best describes how you currently feel?</p>
  </div>","68","html-slider-response","22","376991","0.0-7.0-4.1","158","1","2025-08-06 09:04:38","36c45c0696341be0efffe67d72a12abb","41.122.155.184","Mozilla/5.0 (Windows NT 10.0; Win64; x64) AppleWebKit/537.36 (KHTML, like Gecko) Chrome/138.0.0.0 Safari/537.36","WebKit","Chrome","138.0.0.0","Windows","10.0","https://app.prolific.com/","en-ZA,en-GB;q=0.9,en-US;q=0.8,en;q=0.7,de;q=0.6,zh-CN;q=0.5,zh;q=0.4","674da5296d8cc775b40c8311","687a1a965b9f5b85a264363e","6893174ff096df9169768788","1","674da5296d8cc775b40c8311","1","2025-08-06T09:10:59.447Z","","","","MotivationQ","","","","","","","","","","","50","","","","","","","","","","","","","","","","","","","","","","","","","","",""
"","","","","ctl-task-cpt","23","405692","0.0-7.0-0.2","158","1","2025-08-06 09:04:38","36c45c0696341be0efffe67d72a12abb","41.122.155.184","Mozilla/5.0 (Windows NT 10.0; Win64; x64) AppleWebKit/537.36 (KHTML, like Gecko) Chrome/138.0.0.0 Safari/537.36","WebKit","Chrome","138.0.0.0","Windows","10.0","https://app.prolific.com/","en-ZA,en-GB;q=0.9,en-US;q=0.8,en;q=0.7,de;q=0.6,zh-CN;q=0.5,zh;q=0.4","674da5296d8cc775b40c8311","687a1a965b9f5b85a264363e","6893174ff096df9169768788","1","674da5296d8cc775b40c8311","1","2025-08-06T09:11:28.148Z","","","","","","","","","","","","","","","","win-only","3","g1:SW,g2:NE","0.8","3","0","381360.7","8836.5","13842.4","25686.9","1","4","8","6","1","1","1","1","0","0.007575757575757576","5005.9","3000","310","[""down"",""left""]","{""num_key_presses"":4,""num_perfect"":4,""num_errors"":0,""num_randdir"":0,""num_randdir_good_moves"":0,""num_whilered"":0,""num_whileblue"":0,""num_blue"":0,""num_good_moves"":4}","[335.4642857142857,338.5736597606114,0.3,335.4642857142857,338.5736597606114,104.6,335.4642857142857,338.5736597606114,204.7,335.4642857142857,338.5736597606114,304.8,335.4642857142857,338.5736597606114,405.2,335.4642857142857,338.5736597606114,509.7,335.4642857142857,338.5736597606114,615.4,335.4642857142857,338.5736597606114,716.1,335.4642857142857,338.5736597606114,819.9,335.4642857142857,338.5736597606114,924.5,335.4642857142857,338.5736597606114,1024.8,335.4642857142857,338.5736597606114,1125.3,335.4642857142857,338.5736597606114,1229.7,335.4642857142857,338.5736597606114,1330.3,335.4642857142857,338.5736597606114,1430.7,335.4642857142857,338.5736597606114,1534.6,335.4642857142857,338.5736597606114,1634.8,335.4642857142857,338.5736597606114,1739.5,335.4642857142857,338.5736597606114,1840.1,335.4642857142857,338.5736597606114,1940.3,335.4642857142857,338.5736597606114,2046.3,335.4642857142857,338.5736597606114,2151.1,335.4642857142857,338.5736597606114,2255.1,335.4642857142857,338.5736597606114,2360.5,335.4642857142857,338.5736597606114,2464.7,335.4642857142857,338.5736597606114,2565.2,335.4642857142857,338.5736597606114,2666.2,335.4642857142857,338.5736597606114,2770.5,335.4642857142857,338.5736597606114,2875.2,335.4642857142857,338.5736597606114,2980.1,335.4642857142857,338.5736597606114,3085,335.4642857142857,338.5736597606114,3185.1,335.4642857142857,338.5736597606114,3289.8,335.4642857142857,338.5736597606114,3390.1,335.4642857142857,338.5736597606114,3490.6,335.4642857142857,338.5736597606114,3593.8,335.4642857142857,338.5736597606114,3693.9,335.4642857142857,338.5736597606114,3794.5,335.4642857142857,338.5736597606114,3899,335.4642857142857,338.5736597606114,4000.9,335.4642857142857,338.5736597606114,4104.6,335.4642857142857,338.5736597606114,4210.5,335.4642857142857,338.5736597606114,4316.8,335.4642857142857,338.5736597606114,4418.9,335.4642857142857,338.5736597606114,4519.1,335.4642857142857,338.5736597606114,4619.7,335.4642857142857,338.5736597606114,4720.1,335.4642857142857,338.5736597606114,4820.2,335.4642857142857,338.5736597606114,4924.6]","[1628.5,1628.5,1000,0,628.5,""smooth"",""left"",""left"",""good_move"",5025,3395.8,2754.4,1629.2,641.4,""smooth"",""left"",""left"",""good_move"",8481.5,3456.2,2655.7,5025.3,800.5,""smooth"",""down"",""down"",""good_move"",11752.3,3270.4,2562.6,8481.9,707.8,""smooth"",""down"",""down"",""good_move""]"
"4973","","<div style=""width:500px;"">
  <p>What determined the result of this run?</p>
  </div>","16","html-slider-response","24","410666","0.0-7.0-1.2","158","1","2025-08-06 09:04:38","36c45c0696341be0efffe67d72a12abb","41.122.155.184","Mozilla/5.0 (Windows NT 10.0; Win64; x64) AppleWebKit/537.36 (KHTML, like Gecko) Chrome/138.0.0.0 Safari/537.36","WebKit","Chrome","138.0.0.0","Windows","10.0","https://app.prolific.com/","en-ZA,en-GB;q=0.9,en-US;q=0.8,en;q=0.7,de;q=0.6,zh-CN;q=0.5,zh;q=0.4","674da5296d8cc775b40c8311","687a1a965b9f5b85a264363e","6893174ff096df9169768788","1","674da5296d8cc775b40c8311","1","2025-08-06T09:11:33.122Z","","","","AttribQ","","","","","","","","","","","50","","","","","","","","","","","","","","","","","","","","","","","","","","",""
"3710","","<div style=""width:500px;"">
  <p>How much control did you have over the ball?</p>
  </div>","80","html-slider-response","25","414379","0.0-7.0-2.2","158","1","2025-08-06 09:04:38","36c45c0696341be0efffe67d72a12abb","41.122.155.184","Mozilla/5.0 (Windows NT 10.0; Win64; x64) AppleWebKit/537.36 (KHTML, like Gecko) Chrome/138.0.0.0 Safari/537.36","WebKit","Chrome","138.0.0.0","Windows","10.0","https://app.prolific.com/","en-ZA,en-GB;q=0.9,en-US;q=0.8,en;q=0.7,de;q=0.6,zh-CN;q=0.5,zh;q=0.4","674da5296d8cc775b40c8311","687a1a965b9f5b85a264363e","6893174ff096df9169768788","1","674da5296d8cc775b40c8311","1","2025-08-06T09:11:36.835Z","","","","ControlQ","","","","","","","","","","","50","","","","","","","","","","","","","","","","","","","","","","","","","","",""
"5224","","<div style=""width:500px;"">
  <p>How would you describe your current emotional state?</p>
  </div>","19","html-slider-response","26","419605","0.0-7.0-3.2","158","1","2025-08-06 09:04:38","36c45c0696341be0efffe67d72a12abb","41.122.155.184","Mozilla/5.0 (Windows NT 10.0; Win64; x64) AppleWebKit/537.36 (KHTML, like Gecko) Chrome/138.0.0.0 Safari/537.36","WebKit","Chrome","138.0.0.0","Windows","10.0","https://app.prolific.com/","en-ZA,en-GB;q=0.9,en-US;q=0.8,en;q=0.7,de;q=0.6,zh-CN;q=0.5,zh;q=0.4","674da5296d8cc775b40c8311","687a1a965b9f5b85a264363e","6893174ff096df9169768788","1","674da5296d8cc775b40c8311","1","2025-08-06T09:11:42.061Z","","","","StressQ","","","","","","","","","","","50","","","","","","","","","","","","","","","","","","","","","","","","","","",""
"5053","","<div style=""width:500px;"">
  <p>What best describes how you currently feel?</p>
  </div>","72","html-slider-response","27","424661","0.0-7.0-4.2","158","1","2025-08-06 09:04:38","36c45c0696341be0efffe67d72a12abb","41.122.155.184","Mozilla/5.0 (Windows NT 10.0; Win64; x64) AppleWebKit/537.36 (KHTML, like Gecko) Chrome/138.0.0.0 Safari/537.36","WebKit","Chrome","138.0.0.0","Windows","10.0","https://app.prolific.com/","en-ZA,en-GB;q=0.9,en-US;q=0.8,en;q=0.7,de;q=0.6,zh-CN;q=0.5,zh;q=0.4","674da5296d8cc775b40c8311","687a1a965b9f5b85a264363e","6893174ff096df9169768788","1","674da5296d8cc775b40c8311","1","2025-08-06T09:11:47.117Z","","","","MotivationQ","","","","","","","","","","","50","","","","","","","","","","","","","","","","","","","","","","","","","","",""
"","","","","ctl-task-cpt","28","441677","0.0-7.0-0.3","158","1","2025-08-06 09:04:38","36c45c0696341be0efffe67d72a12abb","41.122.155.184","Mozilla/5.0 (Windows NT 10.0; Win64; x64) AppleWebKit/537.36 (KHTML, like Gecko) Chrome/138.0.0.0 Safari/537.36","WebKit","Chrome","138.0.0.0","Windows","10.0","https://app.prolific.com/","en-ZA,en-GB;q=0.9,en-US;q=0.8,en;q=0.7,de;q=0.6,zh-CN;q=0.5,zh;q=0.4","674da5296d8cc775b40c8311","687a1a965b9f5b85a264363e","6893174ff096df9169768788","1","674da5296d8cc775b40c8311","1","2025-08-06T09:12:04.133Z","","","","","","","","","","","","","","","","win-only","3","g1:SW,g2:NE","0.7","4","0","429028.8","1724.9","6726.2","13996.4","1","4","4","6","2","-4","-4","0","1","0","5001.3","3000","-2710","[""up"",""right""]","{""num_key_presses"":1,""num_perfect"":1,""num_errors"":0,""num_randdir"":0,""num_randdir_good_moves"":0,""num_whilered"":0,""num_whileblue"":0,""num_blue"":0,""num_good_moves"":1}","[338.4642857142857,338.5736597606114,0.3,338.4642857142857,338.5736597606114,103.6,338.4642857142857,338.5736597606114,212.7,338.4642857142857,338.5736597606114,315.5,338.4642857142857,338.5736597606114,423.3,338.4642857142857,338.5736597606114,527.9,338.4642857142857,338.5736597606114,628.2,338.4642857142857,338.5736597606114,731,338.4642857142857,338.5736597606114,839.3,338.4642857142857,338.5736597606114,941.6,338.4642857142857,338.5736597606114,1045.3,338.4642857142857,338.5736597606114,1147,338.4642857142857,338.5736597606114,1254.8,338.4642857142857,338.5736597606114,1355.2,338.4642857142857,338.5736597606114,1457,338.4642857142857,338.5736597606114,1559.5,338.4642857142857,338.5736597606114,1661.9,338.4642857142857,338.5736597606114,1766.3,338.4642857142857,338.5736597606114,1889.7,338.4642857142857,338.5736597606114,1991.6,338.4642857142857,338.5736597606114,2094.4,338.4642857142857,338.5736597606114,2195.7,338.4642857142857,338.5736597606114,2296.1,338.4642857142857,338.5736597606114,2404.6,338.4642857142857,338.5736597606114,2504.8,338.4642857142857,338.5736597606114,2606.4,338.4642857142857,338.5736597606114,2708.1,338.4642857142857,338.5736597606114,2810.9,338.4642857142857,338.5736597606114,2916,338.4642857142857,338.5736597606114,3017.8,338.4642857142857,338.5736597606114,3123.9,338.4642857142857,338.5736597606114,3226.3,338.4642857142857,338.5736597606114,3331.5,338.4642857142857,338.5736597606114,3437.4,338.4642857142857,338.5736597606114,3540.7,338.4642857142857,338.5736597606114,3645.7,338.4642857142857,338.5736597606114,3745.8,338.4642857142857,338.5736597606114,3857.3,338.4642857142857,338.5736597606114,3961,338.4642857142857,338.5736597606114,4066.1,338.4642857142857,338.5736597606114,4167.9,338.4642857142857,338.5736597606114,4271.4,338.4642857142857,338.5736597606114,4373.1,338.4642857142857,338.5736597606114,4474.6,338.4642857142857,338.5736597606114,4575.4,338.4642857142857,338.5736597606114,4675.7,338.4642857142857,338.5736597606114,4777.1,338.4642857142857,338.5736597606114,4877.9,338.4642857142857,338.5736597606114,4981.2]","[3766.4,3766.4,1000,0,2766.4,""smooth"",""up"",""up"",""good_move""]"
"3703","","<div style=""width:500px;"">
  <p>What determined the result of this run?</p>
  </div>","15","html-slider-response","29","445381","0.0-7.0-1.3","158","1","2025-08-06 09:04:38","36c45c0696341be0efffe67d72a12abb","41.122.155.184","Mozilla/5.0 (Windows NT 10.0; Win64; x64) AppleWebKit/537.36 (KHTML, like Gecko) Chrome/138.0.0.0 Safari/537.36","WebKit","Chrome","138.0.0.0","Windows","10.0","https://app.prolific.com/","en-ZA,en-GB;q=0.9,en-US;q=0.8,en;q=0.7,de;q=0.6,zh-CN;q=0.5,zh;q=0.4","674da5296d8cc775b40c8311","687a1a965b9f5b85a264363e","6893174ff096df9169768788","1","674da5296d8cc775b40c8311","1","2025-08-06T09:12:07.837Z","","","","AttribQ","","","","","","","","","","","50","","","","","","","","","","","","","","","","","","","","","","","","","","",""
"3289","","<div style=""width:500px;"">
  <p>How much control did you have over the ball?</p>
  </div>","76","html-slider-response","30","448672","0.0-7.0-2.3","158","1","2025-08-06 09:04:38","36c45c0696341be0efffe67d72a12abb","41.122.155.184","Mozilla/5.0 (Windows NT 10.0; Win64; x64) AppleWebKit/537.36 (KHTML, like Gecko) Chrome/138.0.0.0 Safari/537.36","WebKit","Chrome","138.0.0.0","Windows","10.0","https://app.prolific.com/","en-ZA,en-GB;q=0.9,en-US;q=0.8,en;q=0.7,de;q=0.6,zh-CN;q=0.5,zh;q=0.4","674da5296d8cc775b40c8311","687a1a965b9f5b85a264363e","6893174ff096df9169768788","1","674da5296d8cc775b40c8311","1","2025-08-06T09:12:11.128Z","","","","ControlQ","","","","","","","","","","","50","","","","","","","","","","","","","","","","","","","","","","","","","","",""
"7738","","<div style=""width:500px;"">
  <p>How would you describe your current emotional state?</p>
  </div>","20","html-slider-response","31","456412","0.0-7.0-3.3","158","1","2025-08-06 09:04:38","36c45c0696341be0efffe67d72a12abb","41.122.155.184","Mozilla/5.0 (Windows NT 10.0; Win64; x64) AppleWebKit/537.36 (KHTML, like Gecko) Chrome/138.0.0.0 Safari/537.36","WebKit","Chrome","138.0.0.0","Windows","10.0","https://app.prolific.com/","en-ZA,en-GB;q=0.9,en-US;q=0.8,en;q=0.7,de;q=0.6,zh-CN;q=0.5,zh;q=0.4","674da5296d8cc775b40c8311","687a1a965b9f5b85a264363e","6893174ff096df9169768788","1","674da5296d8cc775b40c8311","1","2025-08-06T09:12:18.868Z","","","","StressQ","","","","","","","","","","","50","","","","","","","","","","","","","","","","","","","","","","","","","","",""
"4080","","<div style=""width:500px;"">
  <p>What best describes how you currently feel?</p>
  </div>","72","html-slider-response","32","460495","0.0-7.0-4.3","158","1","2025-08-06 09:04:38","36c45c0696341be0efffe67d72a12abb","41.122.155.184","Mozilla/5.0 (Windows NT 10.0; Win64; x64) AppleWebKit/537.36 (KHTML, like Gecko) Chrome/138.0.0.0 Safari/537.36","WebKit","Chrome","138.0.0.0","Windows","10.0","https://app.prolific.com/","en-ZA,en-GB;q=0.9,en-US;q=0.8,en;q=0.7,de;q=0.6,zh-CN;q=0.5,zh;q=0.4","674da5296d8cc775b40c8311","687a1a965b9f5b85a264363e","6893174ff096df9169768788","1","674da5296d8cc775b40c8311","1","2025-08-06T09:12:22.951Z","","","","MotivationQ","","","","","","","","","","","50","","","","","","","","","","","","","","","","","","","","","","","","","","",""
"","","","","ctl-task-cpt","33","493406","0.0-7.0-0.4","158","1","2025-08-06 09:04:38","36c45c0696341be0efffe67d72a12abb","41.122.155.184","Mozilla/5.0 (Windows NT 10.0; Win64; x64) AppleWebKit/537.36 (KHTML, like Gecko) Chrome/138.0.0.0 Safari/537.36","WebKit","Chrome","138.0.0.0","Windows","10.0","https://app.prolific.com/","en-ZA,en-GB;q=0.9,en-US;q=0.8,en;q=0.7,de;q=0.6,zh-CN;q=0.5,zh;q=0.4","674da5296d8cc775b40c8311","687a1a965b9f5b85a264363e","6893174ff096df9169768788","1","674da5296d8cc775b40c8311","1","2025-08-06T09:12:55.862Z","","","","","","","","","","","","","","","","win-only","2","g1:SE,g2:NW","0.6","5","0","464863","7768.3","12772","29896.7","1","4","4","6","2","-4","-4","0","0","0","5003.7","3000","-2650","[""left"",""up""]","{""num_key_presses"":4,""num_perfect"":1,""num_errors"":0,""num_randdir"":3,""num_randdir_good_moves"":2,""num_whilered"":0,""num_whileblue"":0,""num_blue"":1,""num_good_moves"":2}","[336.9642857142857,343.0736597606114,0.4,336.9642857142857,343.0736597606114,104.1,336.9642857142857,343.0736597606114,208.8,336.9642857142857,343.0736597606114,315.1,336.9642857142857,343.0736597606114,417.2,336.9642857142857,343.0736597606114,517.3,336.9642857142857,343.0736597606114,618.1,336.9642857142857,343.0736597606114,727.4,336.9642857142857,343.0736597606114,830.7,336.9642857142857,343.0736597606114,932.8,336.9642857142857,343.0736597606114,1043.9,336.9642857142857,343.0736597606114,1147.5,336.9642857142857,343.0736597606114,1247.6,336.9642857142857,343.0736597606114,1353.1,336.9642857142857,343.0736597606114,1454,336.9642857142857,343.0736597606114,1556.4,336.9642857142857,343.0736597606114,1657.5,336.9642857142857,343.0736597606114,1762.3,336.9642857142857,343.0736597606114,1862.9,336.9642857142857,343.0736597606114,1963.1,336.9642857142857,343.0736597606114,2070.3,336.9642857142857,343.0736597606114,2172.3,336.9642857142857,343.0736597606114,2273.3,336.9642857142857,343.0736597606114,2377.7,336.9642857142857,343.0736597606114,2483.7,336.9642857142857,343.0736597606114,2587.7,336.9642857142857,343.0736597606114,2693,336.9642857142857,343.0736597606114,2793.3,336.9642857142857,343.0736597606114,2897.9,336.9642857142857,343.0736597606114,2998.1,336.9642857142857,343.0736597606114,3107.2,336.9642857142857,343.0736597606114,3210.5,336.9642857142857,343.0736597606114,3312.4,336.9642857142857,343.0736597606114,3412.7,336.9642857142857,343.0736597606114,3512.8,336.9642857142857,343.0736597606114,3613.1,336.9642857142857,343.0736597606114,3723.5,336.9642857142857,343.0736597606114,3826.8,336.9642857142857,343.0736597606114,3927.9,336.9642857142857,343.0736597606114,4032.6,336.9642857142857,343.0736597606114,4132.6,336.9642857142857,343.0736597606114,4232.8,336.9642857142857,343.0736597606114,4338.3,336.9642857142857,343.0736597606114,4444.6,336.9642857142857,343.0736597606114,4547.9,336.9642857142857,343.0736597606114,4648.9,336.9642857142857,343.0736597606114,4752.1,336.9642857142857,343.0736597606114,4856.9,336.9642857142857,343.0736597606114,4957.4]","[1973.3,1973.3,1000,0,973.3,""smooth"",""right"",""right"",""bad_move"",4675.8,2701.9,1957.6,1973.9,744.3,""oops"",""up"",""up"",""good_move"",7091.3,2415.1,1806.8,4676.2,608.3,""oops"",""up"",""right"",""bad_move"",10700.9,3609.2,2921.6,7091.7,687.6,""oops"",""right"",""left"",""good_move""]"
"4215","","<div style=""width:500px;"">
  <p>What determined the result of this run?</p>
  </div>","13","html-slider-response","34","497622","0.0-7.0-1.4","158","1","2025-08-06 09:04:38","36c45c0696341be0efffe67d72a12abb","41.122.155.184","Mozilla/5.0 (Windows NT 10.0; Win64; x64) AppleWebKit/537.36 (KHTML, like Gecko) Chrome/138.0.0.0 Safari/537.36","WebKit","Chrome","138.0.0.0","Windows","10.0","https://app.prolific.com/","en-ZA,en-GB;q=0.9,en-US;q=0.8,en;q=0.7,de;q=0.6,zh-CN;q=0.5,zh;q=0.4","674da5296d8cc775b40c8311","687a1a965b9f5b85a264363e","6893174ff096df9169768788","1","674da5296d8cc775b40c8311","1","2025-08-06T09:13:00.078Z","","","","AttribQ","","","","","","","","","","","50","","","","","","","","","","","","","","","","","","","","","","","","","","",""
"3982","","<div style=""width:500px;"">
  <p>How much control did you have over the ball?</p>
  </div>","84","html-slider-response","35","501606","0.0-7.0-2.4","158","1","2025-08-06 09:04:38","36c45c0696341be0efffe67d72a12abb","41.122.155.184","Mozilla/5.0 (Windows NT 10.0; Win64; x64) AppleWebKit/537.36 (KHTML, like Gecko) Chrome/138.0.0.0 Safari/537.36","WebKit","Chrome","138.0.0.0","Windows","10.0","https://app.prolific.com/","en-ZA,en-GB;q=0.9,en-US;q=0.8,en;q=0.7,de;q=0.6,zh-CN;q=0.5,zh;q=0.4","674da5296d8cc775b40c8311","687a1a965b9f5b85a264363e","6893174ff096df9169768788","1","674da5296d8cc775b40c8311","1","2025-08-06T09:13:04.062Z","","","","ControlQ","","","","","","","","","","","50","","","","","","","","","","","","","","","","","","","","","","","","","","",""
"7547","","<div style=""width:500px;"">
  <p>How would you describe your current emotional state?</p>
  </div>","14","html-slider-response","36","509155","0.0-7.0-3.4","158","1","2025-08-06 09:04:38","36c45c0696341be0efffe67d72a12abb","41.122.155.184","Mozilla/5.0 (Windows NT 10.0; Win64; x64) AppleWebKit/537.36 (KHTML, like Gecko) Chrome/138.0.0.0 Safari/537.36","WebKit","Chrome","138.0.0.0","Windows","10.0","https://app.prolific.com/","en-ZA,en-GB;q=0.9,en-US;q=0.8,en;q=0.7,de;q=0.6,zh-CN;q=0.5,zh;q=0.4","674da5296d8cc775b40c8311","687a1a965b9f5b85a264363e","6893174ff096df9169768788","1","674da5296d8cc775b40c8311","1","2025-08-06T09:13:11.611Z","","","","StressQ","","","","","","","","","","","50","","","","","","","","","","","","","","","","","","","","","","","","","","",""
"4729","","<div style=""width:500px;"">
  <p>What best describes how you currently feel?</p>
  </div>","81","html-slider-response","37","513886","0.0-7.0-4.4","158","1","2025-08-06 09:04:38","36c45c0696341be0efffe67d72a12abb","41.122.155.184","Mozilla/5.0 (Windows NT 10.0; Win64; x64) AppleWebKit/537.36 (KHTML, like Gecko) Chrome/138.0.0.0 Safari/537.36","WebKit","Chrome","138.0.0.0","Windows","10.0","https://app.prolific.com/","en-ZA,en-GB;q=0.9,en-US;q=0.8,en;q=0.7,de;q=0.6,zh-CN;q=0.5,zh;q=0.4","674da5296d8cc775b40c8311","687a1a965b9f5b85a264363e","6893174ff096df9169768788","1","674da5296d8cc775b40c8311","1","2025-08-06T09:13:16.343Z","","","","MotivationQ","","","","","","","","","","","50","","","","","","","","","","","","","","","","","","","","","","","","","","",""
"","","","","ctl-task-cpt","38","540739","0.0-7.0-0.5","158","1","2025-08-06 09:04:38","36c45c0696341be0efffe67d72a12abb","41.122.155.184","Mozilla/5.0 (Windows NT 10.0; Win64; x64) AppleWebKit/537.36 (KHTML, like Gecko) Chrome/138.0.0.0 Safari/537.36","WebKit","Chrome","138.0.0.0","Windows","10.0","https://app.prolific.com/","en-ZA,en-GB;q=0.9,en-US;q=0.8,en;q=0.7,de;q=0.6,zh-CN;q=0.5,zh;q=0.4","674da5296d8cc775b40c8311","687a1a965b9f5b85a264363e","6893174ff096df9169768788","1","674da5296d8cc775b40c8311","1","2025-08-06T09:13:43.195Z","","","","","","","","","","","","","","","","win-only","1","g1:NE,g2:SW","0.5","6","0","518253.8","2060.7","7063.3","23832.9","1","4","8","6","1","-1","-1","0","0","0","5002.6","3000","-2360","[""up"",""right""]","{""num_key_presses"":4,""num_perfect"":2,""num_errors"":0,""num_randdir"":2,""num_randdir_good_moves"":1,""num_whilered"":0,""num_whileblue"":0,""num_blue"":1,""num_good_moves"":3}","[344.4642857142857,332.5736597606114,0.6,344.4642857142857,332.5736597606114,108.5,344.4642857142857,332.5736597606114,209.2,344.4642857142857,332.5736597606114,310.4,344.4642857142857,332.5736597606114,412,344.4642857142857,332.5736597606114,528.5,344.4642857142857,332.5736597606114,631.4,344.4642857142857,332.5736597606114,732.8,344.4642857142857,332.5736597606114,843.1,344.4642857142857,332.5736597606114,945.7,344.4642857142857,332.5736597606114,1054.8,344.4642857142857,332.5736597606114,1161,344.4642857142857,332.5736597606114,1276,344.4642857142857,332.5736597606114,1382.8,344.4642857142857,332.5736597606114,1489.6,344.4642857142857,332.5736597606114,1591,344.4642857142857,332.5736597606114,1692.8,344.4642857142857,332.5736597606114,1795.3,344.4642857142857,332.5736597606114,1896.3,344.4642857142857,332.5736597606114,2018.2,344.4642857142857,332.5736597606114,2119.9,344.4642857142857,332.5736597606114,2232.7,344.4642857142857,332.5736597606114,2336.3,344.4642857142857,332.5736597606114,2441.8,344.4642857142857,332.5736597606114,2542.3,344.4642857142857,332.5736597606114,2645.8,344.4642857142857,332.5736597606114,2746.3,344.4642857142857,332.5736597606114,2858,344.4642857142857,332.5736597606114,2961.4,344.4642857142857,332.5736597606114,3065.3,344.4642857142857,332.5736597606114,3166.3,344.4642857142857,332.5736597606114,3266.5,344.4642857142857,332.5736597606114,3372.3,344.4642857142857,332.5736597606114,3474.8,344.4642857142857,332.5736597606114,3577.1,344.4642857142857,332.5736597606114,3683.3,344.4642857142857,332.5736597606114,3786,344.4642857142857,332.5736597606114,3888.2,344.4642857142857,332.5736597606114,3990.1,344.4642857142857,332.5736597606114,4090.1,344.4642857142857,332.5736597606114,4190.6,344.4642857142857,332.5736597606114,4302.1,344.4642857142857,332.5736597606114,4405,344.4642857142857,332.5736597606114,4505,344.4642857142857,332.5736597606114,4606.2,344.4642857142857,332.5736597606114,4706.2,344.4642857142857,332.5736597606114,4809.8,344.4642857142857,332.5736597606114,4910]","[5258.3,5258.3,2686.1,2021.2,551,""smooth"",""up"",""up"",""good_move"",8155.2,2896.3,2292.1,5258.9,604.2,""oops"",""up"",""up"",""good_move"",10690.7,2535.1,1872.8,8155.6,662.3,""oops"",""right"",""left"",""bad_move"",13976,3284.9,2017.1,10691.1,1267.8,""smooth"",""right"",""right"",""good_move""]"
"50547","","<div style=""width:500px;"">
  <p>What determined the result of this run?</p>
  </div>","25","html-slider-response","39","591286","0.0-7.0-1.5","158","1","2025-08-06 09:04:38","36c45c0696341be0efffe67d72a12abb","41.122.155.184","Mozilla/5.0 (Windows NT 10.0; Win64; x64) AppleWebKit/537.36 (KHTML, like Gecko) Chrome/138.0.0.0 Safari/537.36","WebKit","Chrome","138.0.0.0","Windows","10.0","https://app.prolific.com/","en-ZA,en-GB;q=0.9,en-US;q=0.8,en;q=0.7,de;q=0.6,zh-CN;q=0.5,zh;q=0.4","674da5296d8cc775b40c8311","687a1a965b9f5b85a264363e","6893174ff096df9169768788","1","674da5296d8cc775b40c8311","1","2025-08-06T09:14:33.743Z","","","","AttribQ","","","","","","","","","","","50","","","","","","","","","","","","","","","","","","","","","","","","","","",""
"3264","","<div style=""width:500px;"">
  <p>How much control did you have over the ball?</p>
  </div>","73","html-slider-response","40","594553","0.0-7.0-2.5","158","1","2025-08-06 09:04:38","36c45c0696341be0efffe67d72a12abb","41.122.155.184","Mozilla/5.0 (Windows NT 10.0; Win64; x64) AppleWebKit/537.36 (KHTML, like Gecko) Chrome/138.0.0.0 Safari/537.36","WebKit","Chrome","138.0.0.0","Windows","10.0","https://app.prolific.com/","en-ZA,en-GB;q=0.9,en-US;q=0.8,en;q=0.7,de;q=0.6,zh-CN;q=0.5,zh;q=0.4","674da5296d8cc775b40c8311","687a1a965b9f5b85a264363e","6893174ff096df9169768788","1","674da5296d8cc775b40c8311","1","2025-08-06T09:14:37.009Z","","","","ControlQ","","","","","","","","","","","50","","","","","","","","","","","","","","","","","","","","","","","","","","",""
"3180","","<div style=""width:500px;"">
  <p>How would you describe your current emotional state?</p>
  </div>","73","html-slider-response","41","597736","0.0-7.0-3.5","158","1","2025-08-06 09:04:38","36c45c0696341be0efffe67d72a12abb","41.122.155.184","Mozilla/5.0 (Windows NT 10.0; Win64; x64) AppleWebKit/537.36 (KHTML, like Gecko) Chrome/138.0.0.0 Safari/537.36","WebKit","Chrome","138.0.0.0","Windows","10.0","https://app.prolific.com/","en-ZA,en-GB;q=0.9,en-US;q=0.8,en;q=0.7,de;q=0.6,zh-CN;q=0.5,zh;q=0.4","674da5296d8cc775b40c8311","687a1a965b9f5b85a264363e","6893174ff096df9169768788","1","674da5296d8cc775b40c8311","1","2025-08-06T09:14:40.192Z","","","","StressQ","","","","","","","","","","","50","","","","","","","","","","","","","","","","","","","","","","","","","","",""
"4045","","<div style=""width:500px;"">
  <p>What best describes how you currently feel?</p>
  </div>","62","html-slider-response","42","601783","0.0-7.0-4.5","158","1","2025-08-06 09:04:38","36c45c0696341be0efffe67d72a12abb","41.122.155.184","Mozilla/5.0 (Windows NT 10.0; Win64; x64) AppleWebKit/537.36 (KHTML, like Gecko) Chrome/138.0.0.0 Safari/537.36","WebKit","Chrome","138.0.0.0","Windows","10.0","https://app.prolific.com/","en-ZA,en-GB;q=0.9,en-US;q=0.8,en;q=0.7,de;q=0.6,zh-CN;q=0.5,zh;q=0.4","674da5296d8cc775b40c8311","687a1a965b9f5b85a264363e","6893174ff096df9169768788","1","674da5296d8cc775b40c8311","1","2025-08-06T09:14:44.240Z","","","","MotivationQ","","","","","","","","","","","50","","","","","","","","","","","","","","","","","","","","","","","","","","",""
"","","","","ctl-task-cpt","43","635821","0.0-7.0-0.6","158","1","2025-08-06 09:04:38","36c45c0696341be0efffe67d72a12abb","41.122.155.184","Mozilla/5.0 (Windows NT 10.0; Win64; x64) AppleWebKit/537.36 (KHTML, like Gecko) Chrome/138.0.0.0 Safari/537.36","WebKit","Chrome","138.0.0.0","Windows","10.0","https://app.prolific.com/","en-ZA,en-GB;q=0.9,en-US;q=0.8,en;q=0.7,de;q=0.6,zh-CN;q=0.5,zh;q=0.4","674da5296d8cc775b40c8311","687a1a965b9f5b85a264363e","6893174ff096df9169768788","1","674da5296d8cc775b40c8311","1","2025-08-06T09:15:18.277Z","","","","","","","","","","","","","","","","win-only","2","g1:SE,g2:NW","0.4","7","0","606151.1","4755.7","9758.3","31007.1","1","4","4","6","1","-1","-1","0","0","0","5002.6","3000","-2155","[""down"",""right""]","{""num_key_presses"":5,""num_perfect"":3,""num_errors"":0,""num_randdir"":2,""num_randdir_good_moves"":0,""num_whilered"":0,""num_whileblue"":0,""num_blue"":1,""num_good_moves"":2}","[338.4642857142857,338.5736597606114,0.9,338.4642857142857,338.5736597606114,105.9,338.4642857142857,338.5736597606114,221.6,338.4642857142857,338.5736597606114,351.6,338.4642857142857,338.5736597606114,454.5,338.4642857142857,338.5736597606114,555.3,338.4642857142857,338.5736597606114,655.6,338.4642857142857,338.5736597606114,755.7,338.4642857142857,338.5736597606114,862.7,338.4642857142857,338.5736597606114,965.8,338.4642857142857,338.5736597606114,1071,338.4642857142857,338.5736597606114,1177.7,338.4642857142857,338.5736597606114,1285.5,365.4642857142857,361.0736597606114,1388.8,389.4642857142857,385.0736597606114,1490.8,390.9642857142857,388.0736597606114,1591,390.9642857142857,389.5736597606114,1693.2,390.9642857142857,389.5736597606114,1796.2,389.4642857142857,388.0736597606114,1902.9,389.4642857142857,388.0736597606114,2003.6,389.4642857142857,388.0736597606114,2105.1,389.4642857142857,388.0736597606114,2205.6,389.4642857142857,388.0736597606114,2312,389.4642857142857,388.0736597606114,2415.9,389.4642857142857,388.0736597606114,2516.9,389.4642857142857,388.0736597606114,2623.6,389.4642857142857,388.0736597606114,2726,389.4642857142857,388.0736597606114,2836.7,389.4642857142857,388.0736597606114,2941.1,389.4642857142857,388.0736597606114,3054.5,389.4642857142857,388.0736597606114,3156,389.4642857142857,388.0736597606114,3261.1,389.4642857142857,388.0736597606114,3361.7,389.4642857142857,388.0736597606114,3466.5,389.4642857142857,388.0736597606114,3568.7,389.4642857142857,388.0736597606114,3672,389.4642857142857,388.0736597606114,3776.1,389.4642857142857,388.0736597606114,3885.8,389.4642857142857,388.0736597606114,3988.4,389.4642857142857,388.0736597606114,4093.3,389.4642857142857,388.0736597606114,4198.8,389.4642857142857,388.0736597606114,4298.9,389.4642857142857,388.0736597606114,4401.1,389.4642857142857,388.0736597606114,4502.7,389.4642857142857,388.0736597606114,4604.9,389.4642857142857,388.0736597606114,4705.4,389.4642857142857,388.0736597606114,4806.2,389.4642857142857,388.0736597606114,4912.2]","[1595.1,1595.1,1000,0,595.1,""smooth"",""up"",""up"",""bad_move"",4798.9,3202.4,2348,1596.6,854.3,""smooth"",""right"",""right"",""good_move"",8322.7,3523.2,2687.1,4799.6,836,""oops"",""right"",""left"",""bad_move"",15497.4,7174.3,2257.1,12193.8,1046.6,""smooth"",""down"",""down"",""good_move"",18680.6,3182.7,2562.4,15497.9,620.3,""oops"",""down"",""up"",""bad_move""]"
"3644","","<div style=""width:500px;"">
  <p>What determined the result of this run?</p>
  </div>","64","html-slider-response","44","639467","0.0-7.0-1.6","158","1","2025-08-06 09:04:38","36c45c0696341be0efffe67d72a12abb","41.122.155.184","Mozilla/5.0 (Windows NT 10.0; Win64; x64) AppleWebKit/537.36 (KHTML, like Gecko) Chrome/138.0.0.0 Safari/537.36","WebKit","Chrome","138.0.0.0","Windows","10.0","https://app.prolific.com/","en-ZA,en-GB;q=0.9,en-US;q=0.8,en;q=0.7,de;q=0.6,zh-CN;q=0.5,zh;q=0.4","674da5296d8cc775b40c8311","687a1a965b9f5b85a264363e","6893174ff096df9169768788","1","674da5296d8cc775b40c8311","1","2025-08-06T09:15:21.923Z","","","","AttribQ","","","","","","","","","","","50","","","","","","","","","","","","","","","","","","","","","","","","","","",""
"5814","","<div style=""width:500px;"">
  <p>How much control did you have over the ball?</p>
  </div>","78","html-slider-response","45","645284","0.0-7.0-2.6","158","1","2025-08-06 09:04:38","36c45c0696341be0efffe67d72a12abb","41.122.155.184","Mozilla/5.0 (Windows NT 10.0; Win64; x64) AppleWebKit/537.36 (KHTML, like Gecko) Chrome/138.0.0.0 Safari/537.36","WebKit","Chrome","138.0.0.0","Windows","10.0","https://app.prolific.com/","en-ZA,en-GB;q=0.9,en-US;q=0.8,en;q=0.7,de;q=0.6,zh-CN;q=0.5,zh;q=0.4","674da5296d8cc775b40c8311","687a1a965b9f5b85a264363e","6893174ff096df9169768788","1","674da5296d8cc775b40c8311","1","2025-08-06T09:15:27.741Z","","","","ControlQ","","","","","","","","","","","50","","","","","","","","","","","","","","","","","","","","","","","","","","",""
"4140","","<div style=""width:500px;"">
  <p>How would you describe your current emotional state?</p>
  </div>","67","html-slider-response","46","649428","0.0-7.0-3.6","158","1","2025-08-06 09:04:38","36c45c0696341be0efffe67d72a12abb","41.122.155.184","Mozilla/5.0 (Windows NT 10.0; Win64; x64) AppleWebKit/537.36 (KHTML, like Gecko) Chrome/138.0.0.0 Safari/537.36","WebKit","Chrome","138.0.0.0","Windows","10.0","https://app.prolific.com/","en-ZA,en-GB;q=0.9,en-US;q=0.8,en;q=0.7,de;q=0.6,zh-CN;q=0.5,zh;q=0.4","674da5296d8cc775b40c8311","687a1a965b9f5b85a264363e","6893174ff096df9169768788","1","674da5296d8cc775b40c8311","1","2025-08-06T09:15:31.884Z","","","","StressQ","","","","","","","","","","","50","","","","","","","","","","","","","","","","","","","","","","","","","","",""
"5362","","<div style=""width:500px;"">
  <p>What best describes how you currently feel?</p>
  </div>","65","html-slider-response","47","654793","0.0-7.0-4.6","158","1","2025-08-06 09:04:38","36c45c0696341be0efffe67d72a12abb","41.122.155.184","Mozilla/5.0 (Windows NT 10.0; Win64; x64) AppleWebKit/537.36 (KHTML, like Gecko) Chrome/138.0.0.0 Safari/537.36","WebKit","Chrome","138.0.0.0","Windows","10.0","https://app.prolific.com/","en-ZA,en-GB;q=0.9,en-US;q=0.8,en;q=0.7,de;q=0.6,zh-CN;q=0.5,zh;q=0.4","674da5296d8cc775b40c8311","687a1a965b9f5b85a264363e","6893174ff096df9169768788","1","674da5296d8cc775b40c8311","1","2025-08-06T09:15:37.249Z","","","","MotivationQ","","","","","","","","","","","50","","","","","","","","","","","","","","","","","","","","","","","","","","",""
"","","","","ctl-task-cpt","48","703036","0.0-7.0-0.7","158","1","2025-08-06 09:04:38","36c45c0696341be0efffe67d72a12abb","41.122.155.184","Mozilla/5.0 (Windows NT 10.0; Win64; x64) AppleWebKit/537.36 (KHTML, like Gecko) Chrome/138.0.0.0 Safari/537.36","WebKit","Chrome","138.0.0.0","Windows","10.0","https://app.prolific.com/","en-ZA,en-GB;q=0.9,en-US;q=0.8,en;q=0.7,de;q=0.6,zh-CN;q=0.5,zh;q=0.4","674da5296d8cc775b40c8311","687a1a965b9f5b85a264363e","6893174ff096df9169768788","1","674da5296d8cc775b40c8311","1","2025-08-06T09:16:25.492Z","","","","","","","","","","","","","","","","win-only","2","g1:SE,g2:NW","0.3","8","0","659163","2839.9","7842.9","45218.9","1","4","8","6","2","-8","-8","0","0","0","5003","3000","-2135","[""left"",""up""]","{""num_key_presses"":5,""num_perfect"":1,""num_errors"":0,""num_randdir"":4,""num_randdir_good_moves"":2,""num_whilered"":0,""num_whileblue"":0,""num_blue"":6,""num_good_moves"":3}","[342.9642857142857,343.0736597606114,0.4,342.9642857142857,343.0736597606114,106.9,342.9642857142857,343.0736597606114,219.5,342.9642857142857,343.0736597606114,323.1,342.9642857142857,343.0736597606114,432.4,342.9642857142857,343.0736597606114,541.3,342.9642857142857,343.0736597606114,646.6,342.9642857142857,343.0736597606114,758.5,342.9642857142857,343.0736597606114,869.4,345.9642857142857,347.5736597606114,970.7,371.4642857142857,395.5736597606114,1070.7,384.9642857142857,430.0736597606114,1171.2,384.9642857142857,430.0736597606114,1287.5,384.9642857142857,430.0736597606114,1390.6,384.9642857142857,430.0736597606114,1505.1,384.9642857142857,430.0736597606114,1610.9,384.9642857142857,430.0736597606114,1721.9,384.9642857142857,430.0736597606114,1823.3,384.9642857142857,430.0736597606114,1930.3,384.9642857142857,430.0736597606114,2031.1,384.9642857142857,430.0736597606114,2141.8,384.9642857142857,430.0736597606114,2260.4,384.9642857142857,430.0736597606114,2363.8,384.9642857142857,430.0736597606114,2473.8,384.9642857142857,430.0736597606114,2578.1,384.9642857142857,430.0736597606114,2678.3,384.9642857142857,430.0736597606114,2781.7,384.9642857142857,430.0736597606114,2886,384.9642857142857,430.0736597606114,2987,384.9642857142857,430.0736597606114,3101.5,384.9642857142857,430.0736597606114,3217.1,384.9642857142857,430.0736597606114,3318.9,384.9642857142857,430.0736597606114,3423.4,384.9642857142857,430.0736597606114,3524.4,384.9642857142857,430.0736597606114,3628.7,384.9642857142857,430.0736597606114,3729.1,384.9642857142857,430.0736597606114,3835.8,384.9642857142857,430.0736597606114,3941.7,384.9642857142857,430.0736597606114,4045,384.9642857142857,430.0736597606114,4157,384.9642857142857,430.0736597606114,4268.8,384.9642857142857,430.0736597606114,4372.9,384.9642857142857,430.0736597606114,4477.5,384.9642857142857,430.0736597606114,4577.6,384.9642857142857,430.0736597606114,4684.5,384.9642857142857,430.0736597606114,4796.3,384.9642857142857,430.0736597606114,4908.4]","[4948.1,4948.1,2481.4,2003.8,462.9,""oops"",""up"",""right"",""bad_move"",7949.1,2999,2091.4,4950.1,907.6,""oops"",""left"",""up"",""good_move"",24841.7,16891.8,2883.1,21332.7,625.9,""smooth"",""left"",""left"",""good_move"",28046.4,3197.4,2274.4,24849.1,923,""oops"",""left"",""left"",""good_move"",34080.4,6032.7,2166,31343.1,571.3,""oops"",""left"",""down"",""bad_move""]"
"44971","","<div style=""width:500px;"">
  <p>What determined the result of this run?</p>
  </div>","25","html-slider-response","49","748008","0.0-7.0-1.7","158","1","2025-08-06 09:04:38","36c45c0696341be0efffe67d72a12abb","41.122.155.184","Mozilla/5.0 (Windows NT 10.0; Win64; x64) AppleWebKit/537.36 (KHTML, like Gecko) Chrome/138.0.0.0 Safari/537.36","WebKit","Chrome","138.0.0.0","Windows","10.0","https://app.prolific.com/","en-ZA,en-GB;q=0.9,en-US;q=0.8,en;q=0.7,de;q=0.6,zh-CN;q=0.5,zh;q=0.4","674da5296d8cc775b40c8311","687a1a965b9f5b85a264363e","6893174ff096df9169768788","1","674da5296d8cc775b40c8311","1","2025-08-06T09:17:10.464Z","","","","AttribQ","","","","","","","","","","","50","","","","","","","","","","","","","","","","","","","","","","","","","","",""
"3631","","<div style=""width:500px;"">
  <p>How much control did you have over the ball?</p>
  </div>","72","html-slider-response","50","751642","0.0-7.0-2.7","158","1","2025-08-06 09:04:38","36c45c0696341be0efffe67d72a12abb","41.122.155.184","Mozilla/5.0 (Windows NT 10.0; Win64; x64) AppleWebKit/537.36 (KHTML, like Gecko) Chrome/138.0.0.0 Safari/537.36","WebKit","Chrome","138.0.0.0","Windows","10.0","https://app.prolific.com/","en-ZA,en-GB;q=0.9,en-US;q=0.8,en;q=0.7,de;q=0.6,zh-CN;q=0.5,zh;q=0.4","674da5296d8cc775b40c8311","687a1a965b9f5b85a264363e","6893174ff096df9169768788","1","674da5296d8cc775b40c8311","1","2025-08-06T09:17:14.098Z","","","","ControlQ","","","","","","","","","","","50","","","","","","","","","","","","","","","","","","","","","","","","","","",""
"9246","","<div style=""width:500px;"">
  <p>How would you describe your current emotional state?</p>
  </div>","16","html-slider-response","51","760890","0.0-7.0-3.7","158","1","2025-08-06 09:04:38","36c45c0696341be0efffe67d72a12abb","41.122.155.184","Mozilla/5.0 (Windows NT 10.0; Win64; x64) AppleWebKit/537.36 (KHTML, like Gecko) Chrome/138.0.0.0 Safari/537.36","WebKit","Chrome","138.0.0.0","Windows","10.0","https://app.prolific.com/","en-ZA,en-GB;q=0.9,en-US;q=0.8,en;q=0.7,de;q=0.6,zh-CN;q=0.5,zh;q=0.4","674da5296d8cc775b40c8311","687a1a965b9f5b85a264363e","6893174ff096df9169768788","1","674da5296d8cc775b40c8311","1","2025-08-06T09:17:23.347Z","","","","StressQ","","","","","","","","","","","50","","","","","","","","","","","","","","","","","","","","","","","","","","",""
"13287","","<div style=""width:500px;"">
  <p>What best describes how you currently feel?</p>
  </div>","20","html-slider-response","52","774181","0.0-7.0-4.7","158","1","2025-08-06 09:04:38","36c45c0696341be0efffe67d72a12abb","41.122.155.184","Mozilla/5.0 (Windows NT 10.0; Win64; x64) AppleWebKit/537.36 (KHTML, like Gecko) Chrome/138.0.0.0 Safari/537.36","WebKit","Chrome","138.0.0.0","Windows","10.0","https://app.prolific.com/","en-ZA,en-GB;q=0.9,en-US;q=0.8,en;q=0.7,de;q=0.6,zh-CN;q=0.5,zh;q=0.4","674da5296d8cc775b40c8311","687a1a965b9f5b85a264363e","6893174ff096df9169768788","1","674da5296d8cc775b40c8311","1","2025-08-06T09:17:36.637Z","","","","MotivationQ","","","","","","","","","","","50","","","","","","","","","","","","","","","","","","","","","","","","","","",""
"","","","","ctl-task-cpt","53","829724","0.0-7.0-0.8","158","1","2025-08-06 09:04:38","36c45c0696341be0efffe67d72a12abb","41.122.155.184","Mozilla/5.0 (Windows NT 10.0; Win64; x64) AppleWebKit/537.36 (KHTML, like Gecko) Chrome/138.0.0.0 Safari/537.36","WebKit","Chrome","138.0.0.0","Windows","10.0","https://app.prolific.com/","en-ZA,en-GB;q=0.9,en-US;q=0.8,en;q=0.7,de;q=0.6,zh-CN;q=0.5,zh;q=0.4","674da5296d8cc775b40c8311","687a1a965b9f5b85a264363e","6893174ff096df9169768788","1","674da5296d8cc775b40c8311","1","2025-08-06T09:18:32.180Z","","","","","","","","","","","","","","","","win-only","0","g1:NW,g2:SE","0.4","9","0","778549.1","12547.5","17553.3","52521.6","1","4","8","6","2","-8","-8","0","0","0","5005.8","3000","-1955","[""down"",""right""]","{""num_key_presses"":7,""num_perfect"":4,""num_errors"":0,""num_randdir"":3,""num_randdir_good_moves"":0,""num_whilered"":0,""num_whileblue"":0,""num_blue"":3,""num_good_moves"":4}","[332.4642857142857,338.5736597606114,0.6,332.4642857142857,338.5736597606114,100.7,332.4642857142857,338.5736597606114,224,332.4642857142857,338.5736597606114,331.2,332.4642857142857,338.5736597606114,434,332.4642857142857,338.5736597606114,557.4,332.4642857142857,338.5736597606114,667.1,332.4642857142857,338.5736597606114,773.1,332.4642857142857,338.5736597606114,883.2,332.4642857142857,338.5736597606114,991.8,332.4642857142857,338.5736597606114,1105.4,332.4642857142857,338.5736597606114,1213.2,332.4642857142857,338.5736597606114,1314.7,332.4642857142857,338.5736597606114,1421,332.4642857142857,338.5736597606114,1523.7,332.4642857142857,338.5736597606114,1633.5,332.4642857142857,338.5736597606114,1734,332.4642857142857,338.5736597606114,1850.5,332.4642857142857,338.5736597606114,1951.3,332.4642857142857,338.5736597606114,2063.4,332.4642857142857,338.5736597606114,2163.7,332.4642857142857,338.5736597606114,2269.9,332.4642857142857,338.5736597606114,2377,332.4642857142857,338.5736597606114,2480.3,332.4642857142857,338.5736597606114,2587.2,332.4642857142857,338.5736597606114,2692.3,332.4642857142857,338.5736597606114,2793.2,332.4642857142857,338.5736597606114,2902.5,332.4642857142857,338.5736597606114,3006.6,332.4642857142857,338.5736597606114,3109.3,332.4642857142857,338.5736597606114,3211,332.4642857142857,338.5736597606114,3311.9,332.4642857142857,338.5736597606114,3413.2,332.4642857142857,338.5736597606114,3514.5,332.4642857142857,338.5736597606114,3619.6,332.4642857142857,338.5736597606114,3721.8,332.4642857142857,338.5736597606114,3825.5,332.4642857142857,338.5736597606114,3931.9,332.4642857142857,338.5736597606114,4035,332.4642857142857,338.5736597606114,4138.6,332.4642857142857,338.5736597606114,4239.2,332.4642857142857,338.5736597606114,4339.3,332.4642857142857,338.5736597606114,4440.2,332.4642857142857,338.5736597606114,4556.8,332.4642857142857,338.5736597606114,4664.7,332.4642857142857,338.5736597606114,4771.6,332.4642857142857,338.5736597606114,4878.4,332.4642857142857,338.5736597606114,4979]","[5664.5,5664.5,3143.3,2019.9,501.3,""oops"",""down"",""left"",""bad_move"",15523.1,9857.2,2366.3,12544.4,612.4,""smooth"",""right"",""right"",""good_move"",19331.9,3807.9,3187.9,15524,620,""oops"",""right"",""up"",""bad_move"",22988.5,3655.2,2992.9,19333.3,662.3,""oops"",""down"",""left"",""bad_move"",25889.2,2899.5,2248.6,22989.7,650.9,""smooth"",""down"",""down"",""good_move"",28851.7,2962,2358.1,25889.7,603.9,""smooth"",""down"",""down"",""good_move"",31972.8,3120.2,2508.4,28852.6,611.8,""smooth"",""down"",""down"",""good_move""]"
"3854","","<div style=""width:500px;"">
  <p>What determined the result of this run?</p>
  </div>","20","html-slider-response","54","833580","0.0-7.0-1.8","158","1","2025-08-06 09:04:38","36c45c0696341be0efffe67d72a12abb","41.122.155.184","Mozilla/5.0 (Windows NT 10.0; Win64; x64) AppleWebKit/537.36 (KHTML, like Gecko) Chrome/138.0.0.0 Safari/537.36","WebKit","Chrome","138.0.0.0","Windows","10.0","https://app.prolific.com/","en-ZA,en-GB;q=0.9,en-US;q=0.8,en;q=0.7,de;q=0.6,zh-CN;q=0.5,zh;q=0.4","674da5296d8cc775b40c8311","687a1a965b9f5b85a264363e","6893174ff096df9169768788","1","674da5296d8cc775b40c8311","1","2025-08-06T09:18:36.036Z","","","","AttribQ","","","","","","","","","","","50","","","","","","","","","","","","","","","","","","","","","","","","","","",""
"3102","","<div style=""width:500px;"">
  <p>How much control did you have over the ball?</p>
  </div>","70","html-slider-response","55","836685","0.0-7.0-2.8","158","1","2025-08-06 09:04:38","36c45c0696341be0efffe67d72a12abb","41.122.155.184","Mozilla/5.0 (Windows NT 10.0; Win64; x64) AppleWebKit/537.36 (KHTML, like Gecko) Chrome/138.0.0.0 Safari/537.36","WebKit","Chrome","138.0.0.0","Windows","10.0","https://app.prolific.com/","en-ZA,en-GB;q=0.9,en-US;q=0.8,en;q=0.7,de;q=0.6,zh-CN;q=0.5,zh;q=0.4","674da5296d8cc775b40c8311","687a1a965b9f5b85a264363e","6893174ff096df9169768788","1","674da5296d8cc775b40c8311","1","2025-08-06T09:18:39.141Z","","","","ControlQ","","","","","","","","","","","50","","","","","","","","","","","","","","","","","","","","","","","","","","",""
"2909","","<div style=""width:500px;"">
  <p>How would you describe your current emotional state?</p>
  </div>","70","html-slider-response","56","839598","0.0-7.0-3.8","158","1","2025-08-06 09:04:38","36c45c0696341be0efffe67d72a12abb","41.122.155.184","Mozilla/5.0 (Windows NT 10.0; Win64; x64) AppleWebKit/537.36 (KHTML, like Gecko) Chrome/138.0.0.0 Safari/537.36","WebKit","Chrome","138.0.0.0","Windows","10.0","https://app.prolific.com/","en-ZA,en-GB;q=0.9,en-US;q=0.8,en;q=0.7,de;q=0.6,zh-CN;q=0.5,zh;q=0.4","674da5296d8cc775b40c8311","687a1a965b9f5b85a264363e","6893174ff096df9169768788","1","674da5296d8cc775b40c8311","1","2025-08-06T09:18:42.054Z","","","","StressQ","","","","","","","","","","","50","","","","","","","","","","","","","","","","","","","","","","","","","","",""
"5397","","<div style=""width:500px;"">
  <p>What best describes how you currently feel?</p>
  </div>","70","html-slider-response","57","844998","0.0-7.0-4.8","158","1","2025-08-06 09:04:38","36c45c0696341be0efffe67d72a12abb","41.122.155.184","Mozilla/5.0 (Windows NT 10.0; Win64; x64) AppleWebKit/537.36 (KHTML, like Gecko) Chrome/138.0.0.0 Safari/537.36","WebKit","Chrome","138.0.0.0","Windows","10.0","https://app.prolific.com/","en-ZA,en-GB;q=0.9,en-US;q=0.8,en;q=0.7,de;q=0.6,zh-CN;q=0.5,zh;q=0.4","674da5296d8cc775b40c8311","687a1a965b9f5b85a264363e","6893174ff096df9169768788","1","674da5296d8cc775b40c8311","1","2025-08-06T09:18:47.454Z","","","","MotivationQ","","","","","","","","","","","50","","","","","","","","","","","","","","","","","","","","","","","","","","",""
"","","","","ctl-task-cpt","58","872659","0.0-7.0-0.9","158","1","2025-08-06 09:04:38","36c45c0696341be0efffe67d72a12abb","41.122.155.184","Mozilla/5.0 (Windows NT 10.0; Win64; x64) AppleWebKit/537.36 (KHTML, like Gecko) Chrome/138.0.0.0 Safari/537.36","WebKit","Chrome","138.0.0.0","Windows","10.0","https://app.prolific.com/","en-ZA,en-GB;q=0.9,en-US;q=0.8,en;q=0.7,de;q=0.6,zh-CN;q=0.5,zh;q=0.4","674da5296d8cc775b40c8311","687a1a965b9f5b85a264363e","6893174ff096df9169768788","1","674da5296d8cc775b40c8311","1","2025-08-06T09:19:15.116Z","","","","","","","","","","","","","","","","win-only","2","g1:SE,g2:NW","0.5","10","0","849367.2","3089.5","8092.9","24628.3","1","4","4","6","2","-4","-4","0","0","0","5003.4","3000","-1240","[""left"",""up""]","{""num_key_presses"":5,""num_perfect"":2,""num_errors"":0,""num_randdir"":3,""num_randdir_good_moves"":2,""num_whilered"":0,""num_whileblue"":0,""num_blue"":0,""num_good_moves"":4}","[341.4642857142857,338.5736597606114,0.4,341.4642857142857,338.5736597606114,103.1,341.4642857142857,338.5736597606114,204.5,341.4642857142857,338.5736597606114,304.7,341.4642857142857,338.5736597606114,406,341.4642857142857,338.5736597606114,524.9,341.4642857142857,338.5736597606114,628.8,341.4642857142857,338.5736597606114,731.8,341.4642857142857,338.5736597606114,838.9,341.4642857142857,338.5736597606114,940.6,341.4642857142857,338.5736597606114,1044.3,341.4642857142857,338.5736597606114,1147.3,341.4642857142857,338.5736597606114,1247.7,341.4642857142857,338.5736597606114,1355.8,341.4642857142857,338.5736597606114,1465.6,341.4642857142857,338.5736597606114,1580.8,341.4642857142857,338.5736597606114,1681.4,341.4642857142857,338.5736597606114,1790.1,341.4642857142857,338.5736597606114,1896.1,341.4642857142857,338.5736597606114,1996.3,341.4642857142857,338.5736597606114,2098.3,341.4642857142857,338.5736597606114,2198.5,341.4642857142857,338.5736597606114,2302.9,341.4642857142857,338.5736597606114,2404,341.4642857142857,338.5736597606114,2510.3,341.4642857142857,338.5736597606114,2610.8,341.4642857142857,338.5736597606114,2713,341.4642857142857,338.5736597606114,2816,341.4642857142857,338.5736597606114,2916.4,341.4642857142857,338.5736597606114,3020.3,341.4642857142857,338.5736597606114,3137.8,341.4642857142857,338.5736597606114,3244.2,341.4642857142857,338.5736597606114,3353.2,341.4642857142857,338.5736597606114,3468.5,341.4642857142857,338.5736597606114,3587.1,341.4642857142857,338.5736597606114,3690,341.4642857142857,338.5736597606114,3803.9,341.4642857142857,338.5736597606114,3909.2,341.4642857142857,338.5736597606114,4013.6,341.4642857142857,338.5736597606114,4116.2,341.4642857142857,338.5736597606114,4248.4,341.4642857142857,338.5736597606114,4354.9,341.4642857142857,338.5736597606114,4458.5,341.4642857142857,338.5736597606114,4569.8,341.4642857142857,338.5736597606114,4688.9,341.4642857142857,338.5736597606114,4791.2,341.4642857142857,338.5736597606114,4891.4,341.4642857142857,338.5736597606114,4996.6]","[2709.8,2709.8,1000,0,1709.8,""oops"",""up"",""up"",""good_move"",5388.8,2677.8,2028.6,2711,649.3,""smooth"",""left"",""left"",""good_move"",7562.3,2172,1597.5,5390.3,574.5,""oops"",""left"",""right"",""bad_move"",11656.7,4090.3,2797.4,7566.4,1292.9,""smooth"",""left"",""left"",""good_move"",14071,2413.2,1934.6,11657.8,478.6,""oops"",""up"",""left"",""good_move""]"
"4540","","<div style=""width:500px;"">
  <p>What determined the result of this run?</p>
  </div>","28","html-slider-response","59","877202","0.0-7.0-1.9","158","1","2025-08-06 09:04:38","36c45c0696341be0efffe67d72a12abb","41.122.155.184","Mozilla/5.0 (Windows NT 10.0; Win64; x64) AppleWebKit/537.36 (KHTML, like Gecko) Chrome/138.0.0.0 Safari/537.36","WebKit","Chrome","138.0.0.0","Windows","10.0","https://app.prolific.com/","en-ZA,en-GB;q=0.9,en-US;q=0.8,en;q=0.7,de;q=0.6,zh-CN;q=0.5,zh;q=0.4","674da5296d8cc775b40c8311","687a1a965b9f5b85a264363e","6893174ff096df9169768788","1","674da5296d8cc775b40c8311","1","2025-08-06T09:19:19.659Z","","","","AttribQ","","","","","","","","","","","50","","","","","","","","","","","","","","","","","","","","","","","","","","",""
"4206","","<div style=""width:500px;"">
  <p>How much control did you have over the ball?</p>
  </div>","68","html-slider-response","60","881412","0.0-7.0-2.9","158","1","2025-08-06 09:04:38","36c45c0696341be0efffe67d72a12abb","41.122.155.184","Mozilla/5.0 (Windows NT 10.0; Win64; x64) AppleWebKit/537.36 (KHTML, like Gecko) Chrome/138.0.0.0 Safari/537.36","WebKit","Chrome","138.0.0.0","Windows","10.0","https://app.prolific.com/","en-ZA,en-GB;q=0.9,en-US;q=0.8,en;q=0.7,de;q=0.6,zh-CN;q=0.5,zh;q=0.4","674da5296d8cc775b40c8311","687a1a965b9f5b85a264363e","6893174ff096df9169768788","1","674da5296d8cc775b40c8311","1","2025-08-06T09:19:23.868Z","","","","ControlQ","","","","","","","","","","","50","","","","","","","","","","","","","","","","","","","","","","","","","","",""
"3939","","<div style=""width:500px;"">
  <p>How would you describe your current emotional state?</p>
  </div>","69","html-slider-response","61","885352","0.0-7.0-3.9","158","1","2025-08-06 09:04:38","36c45c0696341be0efffe67d72a12abb","41.122.155.184","Mozilla/5.0 (Windows NT 10.0; Win64; x64) AppleWebKit/537.36 (KHTML, like Gecko) Chrome/138.0.0.0 Safari/537.36","WebKit","Chrome","138.0.0.0","Windows","10.0","https://app.prolific.com/","en-ZA,en-GB;q=0.9,en-US;q=0.8,en;q=0.7,de;q=0.6,zh-CN;q=0.5,zh;q=0.4","674da5296d8cc775b40c8311","687a1a965b9f5b85a264363e","6893174ff096df9169768788","1","674da5296d8cc775b40c8311","1","2025-08-06T09:19:27.808Z","","","","StressQ","","","","","","","","","","","50","","","","","","","","","","","","","","","","","","","","","","","","","","",""
"5487","","<div style=""width:500px;"">
  <p>What best describes how you currently feel?</p>
  </div>","66","html-slider-response","62","890842","0.0-7.0-4.9","158","1","2025-08-06 09:04:38","36c45c0696341be0efffe67d72a12abb","41.122.155.184","Mozilla/5.0 (Windows NT 10.0; Win64; x64) AppleWebKit/537.36 (KHTML, like Gecko) Chrome/138.0.0.0 Safari/537.36","WebKit","Chrome","138.0.0.0","Windows","10.0","https://app.prolific.com/","en-ZA,en-GB;q=0.9,en-US;q=0.8,en;q=0.7,de;q=0.6,zh-CN;q=0.5,zh;q=0.4","674da5296d8cc775b40c8311","687a1a965b9f5b85a264363e","6893174ff096df9169768788","1","674da5296d8cc775b40c8311","1","2025-08-06T09:19:33.298Z","","","","MotivationQ","","","","","","","","","","","50","","","","","","","","","","","","","","","","","","","","","","","","","","",""
"","","","","ctl-task-cpt","63","933345","0.0-7.0-0.10","158","1","2025-08-06 09:04:38","36c45c0696341be0efffe67d72a12abb","41.122.155.184","Mozilla/5.0 (Windows NT 10.0; Win64; x64) AppleWebKit/537.36 (KHTML, like Gecko) Chrome/138.0.0.0 Safari/537.36","WebKit","Chrome","138.0.0.0","Windows","10.0","https://app.prolific.com/","en-ZA,en-GB;q=0.9,en-US;q=0.8,en;q=0.7,de;q=0.6,zh-CN;q=0.5,zh;q=0.4","674da5296d8cc775b40c8311","687a1a965b9f5b85a264363e","6893174ff096df9169768788","1","674da5296d8cc775b40c8311","1","2025-08-06T09:20:15.801Z","","","","","","","","","","","","","","","","win-only","1","g1:NE,g2:SW","0.6","11","0","895211.4","2068.4","7080.1","39481.5","1","4","8","6","2","-8","-9","0","0","0","5011.7","3000","-1685","[""down"",""left""]","{""num_key_presses"":8,""num_perfect"":5,""num_errors"":1,""num_randdir"":2,""num_randdir_good_moves"":1,""num_whilered"":0,""num_whileblue"":0,""num_blue"":2,""num_good_moves"":6}","[332.4642857142857,341.5736597606114,0.9,332.4642857142857,341.5736597606114,112.8,332.4642857142857,341.5736597606114,219.7,332.4642857142857,341.5736597606114,332.3,332.4642857142857,341.5736597606114,435.9,332.4642857142857,341.5736597606114,548.8,332.4642857142857,341.5736597606114,650.2,332.4642857142857,341.5736597606114,751,332.4642857142857,341.5736597606114,856.9,332.4642857142857,341.5736597606114,961.3,332.4642857142857,341.5736597606114,1070.3,332.4642857142857,341.5736597606114,1183.2,332.4642857142857,341.5736597606114,1290.6,332.4642857142857,341.5736597606114,1403.1,332.4642857142857,341.5736597606114,1503.1,332.4642857142857,341.5736597606114,1609.9,332.4642857142857,341.5736597606114,1711.4,332.4642857142857,341.5736597606114,1818.6,332.4642857142857,341.5736597606114,1925.9,332.4642857142857,341.5736597606114,2032.8,332.4642857142857,341.5736597606114,2138.6,332.4642857142857,341.5736597606114,2250,332.4642857142857,341.5736597606114,2363,332.4642857142857,341.5736597606114,2479.8,332.4642857142857,341.5736597606114,2586.4,332.4642857142857,341.5736597606114,2697.5,332.4642857142857,341.5736597606114,2810.4,332.4642857142857,341.5736597606114,2917.8,332.4642857142857,341.5736597606114,3029,332.4642857142857,341.5736597606114,3133.7,332.4642857142857,341.5736597606114,3245,332.4642857142857,341.5736597606114,3350.3,332.4642857142857,341.5736597606114,3454,332.4642857142857,341.5736597606114,3556.9,332.4642857142857,341.5736597606114,3657.1,332.4642857142857,341.5736597606114,3761.9,332.4642857142857,341.5736597606114,3868,332.4642857142857,341.5736597606114,3977.3,332.4642857142857,341.5736597606114,4085.8,332.4642857142857,341.5736597606114,4194.3,332.4642857142857,341.5736597606114,4299.9,332.4642857142857,341.5736597606114,4406.5,332.4642857142857,341.5736597606114,4511.6,332.4642857142857,341.5736597606114,4623.4,332.4642857142857,341.5736597606114,4723.8,332.4642857142857,341.5736597606114,4831.3,332.4642857142857,341.5736597606114,4938.3]","[2135.5,2135.5,1000,0,1135.5,""smooth"",""down"",""down"",""good_move"",5103.8,2967.5,2199.1,2136.3,768.4,""oops"",""left"",""down"",""good_move"",8839.7,3735.5,3199.6,5104.2,535.9,""smooth"",""left"",""left"",""good_move"",11703,2858.6,2300.1,8844.4,558.5,""oops"",""left"",""up"",""bad_move"",15409.6,3705.2,2789,15277.2,-2656.6,""error"",""-"",""-"",""no_move"",19869.8,4458.2,2767.1,16415,687.7,""smooth"",""down"",""down"",""good_move"",22933,3062.5,2440.8,19870.5,621.7,""smooth"",""down"",""down"",""good_move"",29368.9,6435.3,2526.3,26407.7,434.9,""smooth"",""left"",""left"",""good_move""]"
"3408","","<div style=""width:500px;"">
  <p>What determined the result of this run?</p>
  </div>","63","html-slider-response","64","936755","0.0-7.0-1.10","158","1","2025-08-06 09:04:38","36c45c0696341be0efffe67d72a12abb","41.122.155.184","Mozilla/5.0 (Windows NT 10.0; Win64; x64) AppleWebKit/537.36 (KHTML, like Gecko) Chrome/138.0.0.0 Safari/537.36","WebKit","Chrome","138.0.0.0","Windows","10.0","https://app.prolific.com/","en-ZA,en-GB;q=0.9,en-US;q=0.8,en;q=0.7,de;q=0.6,zh-CN;q=0.5,zh;q=0.4","674da5296d8cc775b40c8311","687a1a965b9f5b85a264363e","6893174ff096df9169768788","1","674da5296d8cc775b40c8311","1","2025-08-06T09:20:19.211Z","","","","AttribQ","","","","","","","","","","","50","","","","","","","","","","","","","","","","","","","","","","","","","","",""
"8185","","<div style=""width:500px;"">
  <p>How much control did you have over the ball?</p>
  </div>","85","html-slider-response","65","944943","0.0-7.0-2.10","158","1","2025-08-06 09:04:38","36c45c0696341be0efffe67d72a12abb","41.122.155.184","Mozilla/5.0 (Windows NT 10.0; Win64; x64) AppleWebKit/537.36 (KHTML, like Gecko) Chrome/138.0.0.0 Safari/537.36","WebKit","Chrome","138.0.0.0","Windows","10.0","https://app.prolific.com/","en-ZA,en-GB;q=0.9,en-US;q=0.8,en;q=0.7,de;q=0.6,zh-CN;q=0.5,zh;q=0.4","674da5296d8cc775b40c8311","687a1a965b9f5b85a264363e","6893174ff096df9169768788","1","674da5296d8cc775b40c8311","1","2025-08-06T09:20:27.399Z","","","","ControlQ","","","","","","","","","","","50","","","","","","","","","","","","","","","","","","","","","","","","","","",""
"5576","","<div style=""width:500px;"">
  <p>How would you describe your current emotional state?</p>
  </div>","70","html-slider-response","66","950521","0.0-7.0-3.10","158","1","2025-08-06 09:04:38","36c45c0696341be0efffe67d72a12abb","41.122.155.184","Mozilla/5.0 (Windows NT 10.0; Win64; x64) AppleWebKit/537.36 (KHTML, like Gecko) Chrome/138.0.0.0 Safari/537.36","WebKit","Chrome","138.0.0.0","Windows","10.0","https://app.prolific.com/","en-ZA,en-GB;q=0.9,en-US;q=0.8,en;q=0.7,de;q=0.6,zh-CN;q=0.5,zh;q=0.4","674da5296d8cc775b40c8311","687a1a965b9f5b85a264363e","6893174ff096df9169768788","1","674da5296d8cc775b40c8311","1","2025-08-06T09:20:32.978Z","","","","StressQ","","","","","","","","","","","50","","","","","","","","","","","","","","","","","","","","","","","","","","",""
"2485","","<div style=""width:500px;"">
  <p>What best describes how you currently feel?</p>
  </div>","74","html-slider-response","67","953009","0.0-7.0-4.10","158","1","2025-08-06 09:04:38","36c45c0696341be0efffe67d72a12abb","41.122.155.184","Mozilla/5.0 (Windows NT 10.0; Win64; x64) AppleWebKit/537.36 (KHTML, like Gecko) Chrome/138.0.0.0 Safari/537.36","WebKit","Chrome","138.0.0.0","Windows","10.0","https://app.prolific.com/","en-ZA,en-GB;q=0.9,en-US;q=0.8,en;q=0.7,de;q=0.6,zh-CN;q=0.5,zh;q=0.4","674da5296d8cc775b40c8311","687a1a965b9f5b85a264363e","6893174ff096df9169768788","1","674da5296d8cc775b40c8311","1","2025-08-06T09:20:35.466Z","","","","MotivationQ","","","","","","","","","","","50","","","","","","","","","","","","","","","","","","","","","","","","","","",""
"","","","","ctl-task-cpt","68","999940","0.0-7.0-0.11","158","1","2025-08-06 09:04:38","36c45c0696341be0efffe67d72a12abb","41.122.155.184","Mozilla/5.0 (Windows NT 10.0; Win64; x64) AppleWebKit/537.36 (KHTML, like Gecko) Chrome/138.0.0.0 Safari/537.36","WebKit","Chrome","138.0.0.0","Windows","10.0","https://app.prolific.com/","en-ZA,en-GB;q=0.9,en-US;q=0.8,en;q=0.7,de;q=0.6,zh-CN;q=0.5,zh;q=0.4","674da5296d8cc775b40c8311","687a1a965b9f5b85a264363e","6893174ff096df9169768788","1","674da5296d8cc775b40c8311","1","2025-08-06T09:21:22.397Z","","","","","","","","","","","","","","","","win-only","2","g1:SE,g2:NW","0.7","12","0","957377.7","1799.7","6804.9","43906","1","4","4","6","2","-4","-5","0","0","0","5005.2","3000","-1990","[""left"",""up""]","{""num_key_presses"":8,""num_perfect"":5,""num_errors"":1,""num_randdir"":2,""num_randdir_good_moves"":0,""num_whilered"":0,""num_whileblue"":0,""num_blue"":3,""num_good_moves"":3}","[338.4642857142857,347.5736597606114,0.5,338.4642857142857,347.5736597606114,106.5,338.4642857142857,347.5736597606114,212.6,338.4642857142857,347.5736597606114,325.2,338.4642857142857,347.5736597606114,432.8,338.4642857142857,347.5736597606114,533.7,338.4642857142857,347.5736597606114,639.7,351.9642857142857,362.5736597606114,751.7,413.4642857142857,413.5736597606114,861.2,416.4642857142857,416.5736597606114,966.7,440.4642857142857,448.0736597606114,1081.5,495.9642857142857,548.5736597606113,1192.8,495.9642857142857,548.5736597606113,1294.4,495.9642857142857,548.5736597606113,1396.1,495.9642857142857,548.5736597606113,1503.3,495.9642857142857,548.5736597606113,1612,495.9642857142857,548.5736597606113,1716.5,495.9642857142857,548.5736597606113,1816.8,495.9642857142857,548.5736597606113,1921,495.9642857142857,548.5736597606113,2023.3,495.9642857142857,548.5736597606113,2126.7,495.9642857142857,548.5736597606113,2228.4,495.9642857142857,548.5736597606113,2328.4,495.9642857142857,548.5736597606113,2432.9,495.9642857142857,548.5736597606113,2541.8,495.9642857142857,548.5736597606113,2649.7,495.9642857142857,548.5736597606113,2754.7,495.9642857142857,548.5736597606113,2860.5,495.9642857142857,548.5736597606113,2976.3,495.9642857142857,548.5736597606113,3086.4,495.9642857142857,548.5736597606113,3189.9,495.9642857142857,548.5736597606113,3298.1,495.9642857142857,548.5736597606113,3409.6,495.9642857142857,548.5736597606113,3514.9,495.9642857142857,548.5736597606113,3620.1,495.9642857142857,548.5736597606113,3726.2,495.9642857142857,548.5736597606113,3838,495.9642857142857,548.5736597606113,3946.8,495.9642857142857,548.5736597606113,4049.4,495.9642857142857,548.5736597606113,4150.1,495.9642857142857,548.5736597606113,4252.9,495.9642857142857,548.5736597606113,4362.9,495.9642857142857,548.5736597606113,4464.7,495.9642857142857,548.5736597606113,4575.1,495.9642857142857,548.5736597606113,4683.3,495.9642857142857,548.5736597606113,4787.4,495.9642857142857,548.5736597606113,4899.9]","[2343.2,2343.2,1000,0,1343.2,""smooth"",""left"",""left"",""good_move"",8886.1,6541.3,2651.6,5674.8,559.7,""smooth"",""left"",""left"",""good_move"",12265,3378.5,2858.6,8886.5,519.9,""oops"",""up"",""down"",""bad_move"",14823.4,2556.2,1818,12267.2,738.2,""smooth"",""left"",""left"",""good_move"",18438.8,3614.8,2005.3,14824,1609.5,""oops"",""up"",""down"",""bad_move"",22228.2,3788.5,2888.7,21603.1,-2263.6,""error"",""-"",""-"",""no_move"",26966,4736.4,2677.4,23231.4,1057.2,""smooth"",""right"",""right"",""bad_move"",33832.6,6865.3,2546.1,30764.9,521.6,""smooth"",""right"",""right"",""bad_move""]"
"3186","","<div style=""width:500px;"">
  <p>What determined the result of this run?</p>
  </div>","67","html-slider-response","69","1003130","0.0-7.0-1.11","158","1","2025-08-06 09:04:38","36c45c0696341be0efffe67d72a12abb","41.122.155.184","Mozilla/5.0 (Windows NT 10.0; Win64; x64) AppleWebKit/537.36 (KHTML, like Gecko) Chrome/138.0.0.0 Safari/537.36","WebKit","Chrome","138.0.0.0","Windows","10.0","https://app.prolific.com/","en-ZA,en-GB;q=0.9,en-US;q=0.8,en;q=0.7,de;q=0.6,zh-CN;q=0.5,zh;q=0.4","674da5296d8cc775b40c8311","687a1a965b9f5b85a264363e","6893174ff096df9169768788","1","674da5296d8cc775b40c8311","1","2025-08-06T09:21:25.586Z","","","","AttribQ","","","","","","","","","","","50","","","","","","","","","","","","","","","","","","","","","","","","","","",""
"4392","","<div style=""width:500px;"">
  <p>How much control did you have over the ball?</p>
  </div>","40","html-slider-response","70","1007526","0.0-7.0-2.11","158","1","2025-08-06 09:04:38","36c45c0696341be0efffe67d72a12abb","41.122.155.184","Mozilla/5.0 (Windows NT 10.0; Win64; x64) AppleWebKit/537.36 (KHTML, like Gecko) Chrome/138.0.0.0 Safari/537.36","WebKit","Chrome","138.0.0.0","Windows","10.0","https://app.prolific.com/","en-ZA,en-GB;q=0.9,en-US;q=0.8,en;q=0.7,de;q=0.6,zh-CN;q=0.5,zh;q=0.4","674da5296d8cc775b40c8311","687a1a965b9f5b85a264363e","6893174ff096df9169768788","1","674da5296d8cc775b40c8311","1","2025-08-06T09:21:29.983Z","","","","ControlQ","","","","","","","","","","","50","","","","","","","","","","","","","","","","","","","","","","","","","","",""
"3418","","<div style=""width:500px;"">
  <p>How would you describe your current emotional state?</p>
  </div>","67","html-slider-response","71","1010948","0.0-7.0-3.11","158","1","2025-08-06 09:04:38","36c45c0696341be0efffe67d72a12abb","41.122.155.184","Mozilla/5.0 (Windows NT 10.0; Win64; x64) AppleWebKit/537.36 (KHTML, like Gecko) Chrome/138.0.0.0 Safari/537.36","WebKit","Chrome","138.0.0.0","Windows","10.0","https://app.prolific.com/","en-ZA,en-GB;q=0.9,en-US;q=0.8,en;q=0.7,de;q=0.6,zh-CN;q=0.5,zh;q=0.4","674da5296d8cc775b40c8311","687a1a965b9f5b85a264363e","6893174ff096df9169768788","1","674da5296d8cc775b40c8311","1","2025-08-06T09:21:33.407Z","","","","StressQ","","","","","","","","","","","50","","","","","","","","","","","","","","","","","","","","","","","","","","",""
"3547","","<div style=""width:500px;"">
  <p>What best describes how you currently feel?</p>
  </div>","19","html-slider-response","72","1014501","0.0-7.0-4.11","158","1","2025-08-06 09:04:38","36c45c0696341be0efffe67d72a12abb","41.122.155.184","Mozilla/5.0 (Windows NT 10.0; Win64; x64) AppleWebKit/537.36 (KHTML, like Gecko) Chrome/138.0.0.0 Safari/537.36","WebKit","Chrome","138.0.0.0","Windows","10.0","https://app.prolific.com/","en-ZA,en-GB;q=0.9,en-US;q=0.8,en;q=0.7,de;q=0.6,zh-CN;q=0.5,zh;q=0.4","674da5296d8cc775b40c8311","687a1a965b9f5b85a264363e","6893174ff096df9169768788","1","674da5296d8cc775b40c8311","1","2025-08-06T09:21:36.957Z","","","","MotivationQ","","","","","","","","","","","50","","","","","","","","","","","","","","","","","","","","","","","","","","",""
"","","","","ctl-task-cpt","73","1064034","0.0-7.0-0.12","158","1","2025-08-06 09:04:38","36c45c0696341be0efffe67d72a12abb","41.122.155.184","Mozilla/5.0 (Windows NT 10.0; Win64; x64) AppleWebKit/537.36 (KHTML, like Gecko) Chrome/138.0.0.0 Safari/537.36","WebKit","Chrome","138.0.0.0","Windows","10.0","https://app.prolific.com/","en-ZA,en-GB;q=0.9,en-US;q=0.8,en;q=0.7,de;q=0.6,zh-CN;q=0.5,zh;q=0.4","674da5296d8cc775b40c8311","687a1a965b9f5b85a264363e","6893174ff096df9169768788","1","674da5296d8cc775b40c8311","1","2025-08-06T09:22:26.490Z","","","","","","","","","","","","","","","","win-only","3","g1:SW,g2:NE","0.8","13","0","1018871.4","3188","8202.1","46497.5","1","4","8","6","1","-1","-1","0","0","0","5014.1","3000","-1210","[""down"",""left""]","{""num_key_presses"":9,""num_perfect"":7,""num_errors"":0,""num_randdir"":2,""num_randdir_good_moves"":0,""num_whilered"":0,""num_whileblue"":0,""num_blue"":3,""num_good_moves"":6}","[342.9642857142857,343.0736597606114,1.2,342.9642857142857,343.0736597606114,111.2,342.9642857142857,343.0736597606114,224.3,342.9642857142857,343.0736597606114,336.6,342.9642857142857,343.0736597606114,438.3,342.9642857142857,343.0736597606114,548.4,342.9642857142857,343.0736597606114,653.8,342.9642857142857,343.0736597606114,759.8,342.9642857142857,343.0736597606114,867.7,342.9642857142857,343.0736597606114,976,342.9642857142857,343.0736597606114,1076.3,342.9642857142857,343.0736597606114,1189.3,342.9642857142857,343.0736597606114,1299,342.9642857142857,343.0736597606114,1417,342.9642857142857,343.0736597606114,1520.5,342.9642857142857,343.0736597606114,1628.5,342.9642857142857,343.0736597606114,1736,342.9642857142857,343.0736597606114,1844.1,342.9642857142857,343.0736597606114,1951.9,342.9642857142857,343.0736597606114,2057.9,342.9642857142857,343.0736597606114,2166.2,342.9642857142857,343.0736597606114,2276.1,342.9642857142857,343.0736597606114,2390.4,342.9642857142857,343.0736597606114,2500,342.9642857142857,343.0736597606114,2615.1,344.4642857142857,343.0736597606114,2720.9,344.4642857142857,346.0736597606114,2821.8,345.9642857142857,379.0736597606114,2927.5,345.9642857142857,379.0736597606114,3036.9,345.9642857142857,379.0736597606114,3148,345.9642857142857,379.0736597606114,3257.3,345.9642857142857,379.0736597606114,3359,345.9642857142857,379.0736597606114,3459.3,345.9642857142857,379.0736597606114,3560,345.9642857142857,379.0736597606114,3667.4,345.9642857142857,379.0736597606114,3769.7,345.9642857142857,379.0736597606114,3874.3,345.9642857142857,379.0736597606114,3975.7,345.9642857142857,379.0736597606114,4080.3,345.9642857142857,379.0736597606114,4188.4,345.9642857142857,379.0736597606114,4288.9,345.9642857142857,379.0736597606114,4389.7,345.9642857142857,379.0736597606114,4501.8,345.9642857142857,379.0736597606114,4606.9,345.9642857142857,379.0736597606114,4714.3,345.9642857142857,379.0736597606114,4820.3,345.9642857142857,379.0736597606114,4927.5]","[1714.7,1714.8,1000,0,714.8,""oops"",""left"",""up"",""bad_move"",4971,3253.6,2173.7,1717.4,1079.9,""smooth"",""down"",""down"",""good_move"",7707.5,2735,2214.2,4972.5,520.8,""smooth"",""down"",""down"",""good_move"",16491.3,8783,1902.6,14166.4,422.4,""smooth"",""down"",""down"",""good_move"",19854.8,3363.1,2832.7,16491.7,530.4,""oops"",""left"",""right"",""bad_move"",22951.7,3096.4,1726.9,19855.4,1369.5,""smooth"",""left"",""left"",""good_move"",26023.7,3070.9,2318.2,22952.8,752.7,""smooth"",""up"",""up"",""bad_move"",33040.7,7016.4,2293.1,30218.2,529.4,""smooth"",""left"",""left"",""good_move"",35926.5,2885.4,1635.9,33041.2,1249.5,""smooth"",""left"",""left"",""good_move""]"
"48869","","<div style=""width:500px;"">
  <p>What determined the result of this run?</p>
  </div>","69","html-slider-response","74","1112908","0.0-7.0-1.12","158","1","2025-08-06 09:04:38","36c45c0696341be0efffe67d72a12abb","41.122.155.184","Mozilla/5.0 (Windows NT 10.0; Win64; x64) AppleWebKit/537.36 (KHTML, like Gecko) Chrome/138.0.0.0 Safari/537.36","WebKit","Chrome","138.0.0.0","Windows","10.0","https://app.prolific.com/","en-ZA,en-GB;q=0.9,en-US;q=0.8,en;q=0.7,de;q=0.6,zh-CN;q=0.5,zh;q=0.4","674da5296d8cc775b40c8311","687a1a965b9f5b85a264363e","6893174ff096df9169768788","1","674da5296d8cc775b40c8311","1","2025-08-06T09:23:15.364Z","","","","AttribQ","","","","","","","","","","","50","","","","","","","","","","","","","","","","","","","","","","","","","","",""
"4229","","<div style=""width:500px;"">
  <p>How much control did you have over the ball?</p>
  </div>","63","html-slider-response","75","1117141","0.0-7.0-2.12","158","1","2025-08-06 09:04:38","36c45c0696341be0efffe67d72a12abb","41.122.155.184","Mozilla/5.0 (Windows NT 10.0; Win64; x64) AppleWebKit/537.36 (KHTML, like Gecko) Chrome/138.0.0.0 Safari/537.36","WebKit","Chrome","138.0.0.0","Windows","10.0","https://app.prolific.com/","en-ZA,en-GB;q=0.9,en-US;q=0.8,en;q=0.7,de;q=0.6,zh-CN;q=0.5,zh;q=0.4","674da5296d8cc775b40c8311","687a1a965b9f5b85a264363e","6893174ff096df9169768788","1","674da5296d8cc775b40c8311","1","2025-08-06T09:23:19.597Z","","","","ControlQ","","","","","","","","","","","50","","","","","","","","","","","","","","","","","","","","","","","","","","",""
"2965","","<div style=""width:500px;"">
  <p>How would you describe your current emotional state?</p>
  </div>","63","html-slider-response","76","1120108","0.0-7.0-3.12","158","1","2025-08-06 09:04:38","36c45c0696341be0efffe67d72a12abb","41.122.155.184","Mozilla/5.0 (Windows NT 10.0; Win64; x64) AppleWebKit/537.36 (KHTML, like Gecko) Chrome/138.0.0.0 Safari/537.36","WebKit","Chrome","138.0.0.0","Windows","10.0","https://app.prolific.com/","en-ZA,en-GB;q=0.9,en-US;q=0.8,en;q=0.7,de;q=0.6,zh-CN;q=0.5,zh;q=0.4","674da5296d8cc775b40c8311","687a1a965b9f5b85a264363e","6893174ff096df9169768788","1","674da5296d8cc775b40c8311","1","2025-08-06T09:23:22.564Z","","","","StressQ","","","","","","","","","","","50","","","","","","","","","","","","","","","","","","","","","","","","","","",""
"3663","","<div style=""width:500px;"">
  <p>What best describes how you currently feel?</p>
  </div>","28","html-slider-response","77","1123775","0.0-7.0-4.12","158","1","2025-08-06 09:04:38","36c45c0696341be0efffe67d72a12abb","41.122.155.184","Mozilla/5.0 (Windows NT 10.0; Win64; x64) AppleWebKit/537.36 (KHTML, like Gecko) Chrome/138.0.0.0 Safari/537.36","WebKit","Chrome","138.0.0.0","Windows","10.0","https://app.prolific.com/","en-ZA,en-GB;q=0.9,en-US;q=0.8,en;q=0.7,de;q=0.6,zh-CN;q=0.5,zh;q=0.4","674da5296d8cc775b40c8311","687a1a965b9f5b85a264363e","6893174ff096df9169768788","1","674da5296d8cc775b40c8311","1","2025-08-06T09:23:26.231Z","","","","MotivationQ","","","","","","","","","","","50","","","","","","","","","","","","","","","","","","","","","","","","","","",""
