"rt","response_timestamp","stimulus","response","trial_type","trial_index","time_elapsed","internal_node_id","run_id","condition","recorded_at","source_code_version","ip","user_agent","device","browser","browser_version","platform","platform_version","referer","accept_language","PROLIFIC_PID","STUDY_ID","SESSION_ID","BATCH","prolific_id","batch","realtime","success","question_order","question_id","eventType","responses","item_order","radio_event_ids","radio_event_times","key_event_times","mouse_event_times","straightlining","zigzagging","honeypot","view_history","slider_start","which_type","canvas_config","goals_layout","control_level","trial_number","tutorial_trial_number","trial_start_time","phase1_start_time","phase2_start_time","phase3_start_time","goal_1_value","goal_1_distance","goal_2_value","goal_2_distance","goal_selected","outcome","outcome_total","participant_final_score","participant_initial_score","participant_final_score_prop","goal_choice_rt","allocated_time","allocated_time_remaining","goal_direction","counts","mouse_movements","key_presses"
"41322","1753907760561","<p style='font-size:40px;line-height:1.25'><strong>Welcome to the experiment!</strong></p><p style='font-size:1.1em;line-height:1.25'>Thank you for participanting in our experiment again! You will be asked to play the Dysfunctional Ball Game again. We will briefly recap the rules before we start.</p><p style='font-size:1.1em;line-height:1.25'>Press <strong>Next</strong> to continue.</p>","0","custom-html-button-response","0","41324","0.0-0.0","104","1","2025-07-30 20:33:32","36c45c0696341be0efffe67d72a12abb","216.120.189.168","Mozilla/5.0 (Windows NT 10.0; Win64; x64) AppleWebKit/537.36 (KHTML, like Gecko) Chrome/138.0.0.0 Safari/537.36","WebKit","Chrome","138.0.0.0","Windows","10.0","https://app.prolific.com/","en-US,en;q=0.9","674eae0026291e33be89b46f","683dba9a53627eb9ab41b36a","688a81874f8673f9fb535cab","0","674eae0026291e33be89b46f","0","2025-07-30T20:36:00.562Z","","","","","","","","","","","","","","","","","","","","","","","","","","","","","","","","","","","","","","","","","",""
"8567","","","","fullscreen","1","51176","0.0-1.0","104","1","2025-07-30 20:33:32","36c45c0696341be0efffe67d72a12abb","216.120.189.168","Mozilla/5.0 (Windows NT 10.0; Win64; x64) AppleWebKit/537.36 (KHTML, like Gecko) Chrome/138.0.0.0 Safari/537.36","WebKit","Chrome","138.0.0.0","Windows","10.0","https://app.prolific.com/","en-US,en;q=0.9","674eae0026291e33be89b46f","683dba9a53627eb9ab41b36a","688a81874f8673f9fb535cab","0","674eae0026291e33be89b46f","0","","true","","","","","","","","","","","","","","","","","","","","","","","","","","","","","","","","","","","","","","","","",""
"5850","1753907776615"," <p style='font-size:1.1em;line-height:1.25'>Thank you for closing all other tabs.</p><p style='font-size:1.1em;line-height:1.25'>We will now invite you to fill in some questionnaires, before starting the game.<br>This will take about 5 minutes.<br></p><p style='font-size:1.1em;line-height:1.25'>Press the <strong>Next</strong> button to continue.</p>","0","custom-html-button-response","2","57379","0.0-2.0","104","1","2025-07-30 20:33:32","36c45c0696341be0efffe67d72a12abb","216.120.189.168","Mozilla/5.0 (Windows NT 10.0; Win64; x64) AppleWebKit/537.36 (KHTML, like Gecko) Chrome/138.0.0.0 Safari/537.36","WebKit","Chrome","138.0.0.0","Windows","10.0","https://app.prolific.com/","en-US,en;q=0.9","674eae0026291e33be89b46f","683dba9a53627eb9ab41b36a","688a81874f8673f9fb535cab","0","674eae0026291e33be89b46f","0","2025-07-30T20:36:16.616Z","","","","","","","","","","","","","","","","","","","","","","","","","","","","","","","","","","","","","","","","","",""
"6086","","","{""assigned_sex"":""female""}","survey-multi-choice","3","63466","0.0-3.0-0.0","104","1","2025-07-30 20:33:32","36c45c0696341be0efffe67d72a12abb","216.120.189.168","Mozilla/5.0 (Windows NT 10.0; Win64; x64) AppleWebKit/537.36 (KHTML, like Gecko) Chrome/138.0.0.0 Safari/537.36","WebKit","Chrome","138.0.0.0","Windows","10.0","https://app.prolific.com/","en-US,en;q=0.9","674eae0026291e33be89b46f","683dba9a53627eb9ab41b36a","688a81874f8673f9fb535cab","0","674eae0026291e33be89b46f","0","","","[0]","0","demographics","","","","","","","","","","","","","","","","","","","","","","","","","","","","","","","","","","","","","",""
"3356","1753907786060","<p style='font-size:1.1em;line-height:1.25'>In the following, we will perform a baseline assessment. This means that we will ask you a few questions relating to your experiences over the past month.<br></p><p style='font-size:1.1em;line-height:1.25'>Press the <strong>Next</strong> button to continue.</p>","0","custom-html-button-response","4","66823","0.0-4.0-0.0","104","1","2025-07-30 20:33:32","36c45c0696341be0efffe67d72a12abb","216.120.189.168","Mozilla/5.0 (Windows NT 10.0; Win64; x64) AppleWebKit/537.36 (KHTML, like Gecko) Chrome/138.0.0.0 Safari/537.36","WebKit","Chrome","138.0.0.0","Windows","10.0","https://app.prolific.com/","en-US,en;q=0.9","674eae0026291e33be89b46f","683dba9a53627eb9ab41b36a","688a81874f8673f9fb535cab","0","674eae0026291e33be89b46f","0","2025-07-30T20:36:26.060Z","","","","","","","","","","","","","","","","","","","","","","","","","","","","","","","","","","","","","","","","","",""
"53313.40000000037","","","","survey-template","5","120172","0.0-4.0-1.0","104","1","2025-07-30 20:33:32","36c45c0696341be0efffe67d72a12abb","216.120.189.168","Mozilla/5.0 (Windows NT 10.0; Win64; x64) AppleWebKit/537.36 (KHTML, like Gecko) Chrome/138.0.0.0 Safari/537.36","WebKit","Chrome","138.0.0.0","Windows","10.0","https://app.prolific.com/","en-US,en;q=0.9","674eae0026291e33be89b46f","683dba9a53627eb9ab41b36a","688a81874f8673f9fb535cab","0","674eae0026291e33be89b46f","0","2025-07-30T20:37:19.409Z","","","","pss","{""Q01"":""1"",""Q02"":""1"",""Q03"":""1"",""Q04"":""0"",""Q05"":""0"",""Q06"":""1"",""Q07"":""2"",""Q08"":""1"",""Q09"":""2"",""Q10"":""1""}","[0,1,2,3,4,5,6,7,8,9]","[""Q01"",""Q02"",""Q03"",""Q03"",""Q04"",""Q05"",""Q06"",""Q07"",""Q08"",""Q09"",""Q09"",""Q10""]","[3086.2000000001863,6320.9000000003725,9425.600000000093,10485.30000000028,21587.600000000093,26497.400000000373,31483.80000000028,36131.80000000028,41087.5,45644.10000000009,46873.5,51805.700000000186]","[]","[0.10000000009313226,3086.2000000001863,6320.9000000003725,9425.600000000093,10485.30000000028,21587.600000000093,26497.400000000373,31483.80000000028,36131.80000000028,41087.5,45644.10000000009,46873.5,51805.700000000186,53311.10000000009]","0.5","0.4444444444444444","0","","","","","","","","","","","","","","","","","","","","","","","","","","","","",""
"3604","1753907843015","<p style='font-size:1.1em;line-height:1.25'>Thank you for your answers! Now we will ask you a few more questions relating to your feelings in the last 24 hours.<br></p><p style='font-size:1.1em;line-height:1.25'>Press the <strong>Next</strong> button to continue.</p>","0","custom-html-button-response","6","123779","0.0-4.0-2.0","104","1","2025-07-30 20:33:32","36c45c0696341be0efffe67d72a12abb","216.120.189.168","Mozilla/5.0 (Windows NT 10.0; Win64; x64) AppleWebKit/537.36 (KHTML, like Gecko) Chrome/138.0.0.0 Safari/537.36","WebKit","Chrome","138.0.0.0","Windows","10.0","https://app.prolific.com/","en-US,en;q=0.9","674eae0026291e33be89b46f","683dba9a53627eb9ab41b36a","688a81874f8673f9fb535cab","0","674eae0026291e33be89b46f","0","2025-07-30T20:37:23.016Z","","","","","","","","","","","","","","","","","","","","","","","","","","","","","","","","","","","","","","","","","",""
"74638.69999999972","","","","survey-template","7","198420","0.0-4.0-3.0","104","1","2025-07-30 20:33:32","36c45c0696341be0efffe67d72a12abb","216.120.189.168","Mozilla/5.0 (Windows NT 10.0; Win64; x64) AppleWebKit/537.36 (KHTML, like Gecko) Chrome/138.0.0.0 Safari/537.36","WebKit","Chrome","138.0.0.0","Windows","10.0","https://app.prolific.com/","en-US,en;q=0.9","674eae0026291e33be89b46f","683dba9a53627eb9ab41b36a","688a81874f8673f9fb535cab","0","674eae0026291e33be89b46f","0","2025-07-30T20:38:37.657Z","","","","drsp","{""Q01"":""0"",""Q02"":""0"",""Q03"":""0"",""Q04"":""1"",""Q05"":""1"",""Q06"":""0"",""Q07"":""1"",""Q08"":""1"",""Q09"":""1"",""Q10"":""1"",""Q11"":""1"",""Q12"":""1"",""Q13"":""5"",""Q14"":""1"",""Q15"":""1"",""Q16"":""1"",""Q17"":""1"",""Q18"":""0"",""Q19"":""1"",""Q20"":""1"",""Q21"":""1"",""Q22"":""1""}","[0,1,2,3,4,5,6,7,8,9,10,11,12,13,14,15,16,17,18,19,20,21]","[""Q01"",""Q02"",""Q03"",""Q04"",""Q05"",""Q06"",""Q07"",""Q08"",""Q09"",""Q10"",""Q11"",""Q12"",""Q13"",""Q14"",""Q15"",""Q16"",""Q17"",""Q18"",""Q19"",""Q20"",""Q21"",""Q22""]","[4422.399999999907,5773.199999999721,7672.199999999721,9476.299999999814,11258.299999999814,13579.599999999627,16352.299999999814,28996.69999999972,39843.59999999963,41610,45231,46446.69999999972,49765.09999999963,52323.19999999972,54066.799999999814,55432.89999999991,57418.59999999963,58820.89999999991,60897.19999999972,65881.59999999963,68832.3999999999,72132.69999999972]","[]","[0.09999999962747097,4422.399999999907,5773.199999999721,7672.199999999721,9476.299999999814,11258.299999999814,13579.599999999627,16352.299999999814,28996.69999999972,39843.59999999963,41610,43742,45231,46446.69999999972,49765.09999999963,52323.19999999972,54066.799999999814,55432.89999999991,57418.59999999963,58820.89999999991,60897.19999999972,65881.59999999963,68832.3999999999,70818.09999999963,72132.69999999972,74635.69999999972]","0.7272727272727273","0.23809523809523808","0","","","","","","","","","","","","","","","","","","","","","","","","","","","","",""
"16267.5","","","","survey-template","8","214689","0.0-4.0-4.0","104","1","2025-07-30 20:33:32","36c45c0696341be0efffe67d72a12abb","216.120.189.168","Mozilla/5.0 (Windows NT 10.0; Win64; x64) AppleWebKit/537.36 (KHTML, like Gecko) Chrome/138.0.0.0 Safari/537.36","WebKit","Chrome","138.0.0.0","Windows","10.0","https://app.prolific.com/","en-US,en;q=0.9","674eae0026291e33be89b46f","683dba9a53627eb9ab41b36a","688a81874f8673f9fb535cab","0","674eae0026291e33be89b46f","0","2025-07-30T20:38:53.926Z","","","","stress","{""Q01"":""0"",""Q02"":""1"",""Q03"":""0""}","[0,1,2]","[""Q01"",""Q02"",""Q03""]","[2335.600000000093,9912.100000000093,13967.80000000028]","[]","[2335.600000000093,9912.100000000093,13967.80000000028,16266.80000000028]","0.6666666666666666","0","0","","","","","","","","","","","","","","","","","","","","","","","","","","","","",""
"3699","","","","instructions","9","218388","0.0-5.0-0.0","104","1","2025-07-30 20:33:32","36c45c0696341be0efffe67d72a12abb","216.120.189.168","Mozilla/5.0 (Windows NT 10.0; Win64; x64) AppleWebKit/537.36 (KHTML, like Gecko) Chrome/138.0.0.0 Safari/537.36","WebKit","Chrome","138.0.0.0","Windows","10.0","https://app.prolific.com/","en-US,en;q=0.9","674eae0026291e33be89b46f","683dba9a53627eb9ab41b36a","688a81874f8673f9fb535cab","0","674eae0026291e33be89b46f","0","","","","","","","","","","","","","","","[{""page_index"":0,""viewing_time"":3698}]","","","","","","","","","","","","","","","","","","","","","","","","","","","",""
"3507","","<p>Before you start with this game please answer the following three questions yourself. </p>
  <p>Through this game, we measure several aspects of your cognitive performance, such as reaction times, multi-tasking capabilities </p>
  <p>and the ability to assess the situation you are in.</p>
  <p></p>
  <p><b>How good do you usually are in such tasks?</b></p>","61","html-slider-response","10","221954","0.0-6.0-0.0","104","1","2025-07-30 20:33:32","36c45c0696341be0efffe67d72a12abb","216.120.189.168","Mozilla/5.0 (Windows NT 10.0; Win64; x64) AppleWebKit/537.36 (KHTML, like Gecko) Chrome/138.0.0.0 Safari/537.36","WebKit","Chrome","138.0.0.0","Windows","10.0","https://app.prolific.com/","en-US,en;q=0.9","674eae0026291e33be89b46f","683dba9a53627eb9ab41b36a","688a81874f8673f9fb535cab","0","674eae0026291e33be89b46f","0","2025-07-30T20:39:01.191Z","","","","PreSkillQ","","","","","","","","","","","50","","","","","","","","","","","","","","","","","","","","","","","","","","",""
"2792","","<div style=""width:500px;"">
  <p>How well do you think you will perform in this task compared to other participants?</p>
  </div>","67","html-slider-response","11","224747","0.0-6.0-1.0","104","1","2025-07-30 20:33:32","36c45c0696341be0efffe67d72a12abb","216.120.189.168","Mozilla/5.0 (Windows NT 10.0; Win64; x64) AppleWebKit/537.36 (KHTML, like Gecko) Chrome/138.0.0.0 Safari/537.36","WebKit","Chrome","138.0.0.0","Windows","10.0","https://app.prolific.com/","en-US,en;q=0.9","674eae0026291e33be89b46f","683dba9a53627eb9ab41b36a","688a81874f8673f9fb535cab","0","674eae0026291e33be89b46f","0","2025-07-30T20:39:03.984Z","","","","PrePerfQ","","","","","","","","","","","50","","","","","","","","","","","","","","","","","","","","","","","","","","",""
"2918","","<div style=""width:500px;"">
  <p>What best describes how you currently feel?</p>
  </div>","55","html-slider-response","12","227666","0.0-6.0-2.0","104","1","2025-07-30 20:33:32","36c45c0696341be0efffe67d72a12abb","216.120.189.168","Mozilla/5.0 (Windows NT 10.0; Win64; x64) AppleWebKit/537.36 (KHTML, like Gecko) Chrome/138.0.0.0 Safari/537.36","WebKit","Chrome","138.0.0.0","Windows","10.0","https://app.prolific.com/","en-US,en;q=0.9","674eae0026291e33be89b46f","683dba9a53627eb9ab41b36a","688a81874f8673f9fb535cab","0","674eae0026291e33be89b46f","0","2025-07-30T20:39:06.903Z","","","","PreMotivationQ","","","","","","","","","","","50","","","","","","","","","","","","","","","","","","","","","","","","","","",""
"","","","","ctl-task-cpt","13","255263","0.0-7.0-0.0","104","1","2025-07-30 20:33:32","36c45c0696341be0efffe67d72a12abb","216.120.189.168","Mozilla/5.0 (Windows NT 10.0; Win64; x64) AppleWebKit/537.36 (KHTML, like Gecko) Chrome/138.0.0.0 Safari/537.36","WebKit","Chrome","138.0.0.0","Windows","10.0","https://app.prolific.com/","en-US,en;q=0.9","674eae0026291e33be89b46f","683dba9a53627eb9ab41b36a","688a81874f8673f9fb535cab","0","674eae0026291e33be89b46f","0","2025-07-30T20:39:34.500Z","","","","","","","","","","","","","","","","win-only","3","g1:SW,g2:NE","1","1","0","233368","2485.2","7486.7","24498.2","1","4","8","6","1","1","1","1","0","0.007575757575757576","1950.6","3000","1410","[""down"",""left""]","{""num_key_presses"":4,""num_perfect"":4,""num_errors"":0,""num_randdir"":0,""num_randdir_good_moves"":0,""num_whilered"":0,""num_whileblue"":0,""num_blue"":2,""num_good_moves"":4}","[302.22232142857143,299.12857142857143,8.1,302.22232142857143,299.12857142857143,100.9,302.22232142857143,299.12857142857143,206.1,302.22232142857143,299.12857142857143,312.7,302.22232142857143,299.12857142857143,415.1,302.22232142857143,299.12857142857143,515.1,302.22232142857143,299.12857142857143,615.9,302.22232142857143,299.12857142857143,721.1,302.22232142857143,299.12857142857143,828.7,302.22232142857143,299.12857142857143,928.9,197.22232142857143,375.12857142857143,1074.6,196.22232142857143,375.12857142857143,1178.3,164.22232142857143,403.12857142857143,1278.6,85.22232142857143,491.12857142857143,1378.7,66.22232142857143,525.1285714285714,1479.1,53.222321428571426,554.1285714285714,1579.4,52.222321428571426,557.1285714285714,1680.8,52.222321428571426,557.1285714285714,1780.9,52.222321428571426,557.1285714285714,1885.7,52.222321428571426,557.1285714285714,1995.7,52.222321428571426,557.1285714285714,2095.9,52.222321428571426,557.1285714285714,2200.6,52.222321428571426,557.1285714285714,2306.6,52.222321428571426,557.1285714285714,2411.9,52.222321428571426,557.1285714285714,2512,52.222321428571426,557.1285714285714,2616.1,52.222321428571426,557.1285714285714,2716.1,52.222321428571426,557.1285714285714,2820.7,52.222321428571426,557.1285714285714,2928.3,52.222321428571426,557.1285714285714,3030.6,52.222321428571426,557.1285714285714,3130.9,52.222321428571426,557.1285714285714,3235.4,52.222321428571426,557.1285714285714,3336.3,52.222321428571426,557.1285714285714,3445.2,52.222321428571426,557.1285714285714,3550.4,58.222321428571426,554.1285714285714,3655.6,120.22232142857143,517.1285714285714,3761.7,152.22232142857143,492.12857142857143,3862.1,174.22232142857143,460.12857142857143,3966,175.22232142857143,459.12857142857143,4070.6,175.22232142857143,459.12857142857143,4176,171.22232142857143,462.12857142857143,4276,113.22232142857143,497.12857142857143,4376.1,94.22232142857143,505.12857142857143,4480.2,94.22232142857143,499.12857142857143,4581.1,106.22232142857143,477.12857142857143,4681.3,114.22232142857143,465.12857142857143,4785.9,116.22232142857143,461.12857142857143,4890.5,117.22232142857143,459.12857142857143,4995.1]","[8542.7,8542.7,2365.6,5598.7,578.4,""smooth"",""down"",""down"",""good_move"",11409.4,2866.3,2463,8543.1,403.3,""smooth"",""left"",""left"",""good_move"",14049.5,2639.9,2281.3,11409.7,358.5,""smooth"",""down"",""down"",""good_move"",16921.7,2872.1,2499.5,14049.7,372.5,""smooth"",""left"",""left"",""good_move""]"
"3960","","<div style=""width:500px;"">
  <p>What determined the result of this run?</p>
  </div>","57","html-slider-response","14","259223","0.0-7.0-1.0","104","1","2025-07-30 20:33:32","36c45c0696341be0efffe67d72a12abb","216.120.189.168","Mozilla/5.0 (Windows NT 10.0; Win64; x64) AppleWebKit/537.36 (KHTML, like Gecko) Chrome/138.0.0.0 Safari/537.36","WebKit","Chrome","138.0.0.0","Windows","10.0","https://app.prolific.com/","en-US,en;q=0.9","674eae0026291e33be89b46f","683dba9a53627eb9ab41b36a","688a81874f8673f9fb535cab","0","674eae0026291e33be89b46f","0","2025-07-30T20:39:38.460Z","","","","AttribQ","","","","","","","","","","","50","","","","","","","","","","","","","","","","","","","","","","","","","","",""
"2410","","<div style=""width:500px;"">
  <p>How much control did you have over the ball?</p>
  </div>","36","html-slider-response","15","261635","0.0-7.0-2.0","104","1","2025-07-30 20:33:32","36c45c0696341be0efffe67d72a12abb","216.120.189.168","Mozilla/5.0 (Windows NT 10.0; Win64; x64) AppleWebKit/537.36 (KHTML, like Gecko) Chrome/138.0.0.0 Safari/537.36","WebKit","Chrome","138.0.0.0","Windows","10.0","https://app.prolific.com/","en-US,en;q=0.9","674eae0026291e33be89b46f","683dba9a53627eb9ab41b36a","688a81874f8673f9fb535cab","0","674eae0026291e33be89b46f","0","2025-07-30T20:39:40.872Z","","","","ControlQ","","","","","","","","","","","50","","","","","","","","","","","","","","","","","","","","","","","","","","",""
"2480","","<div style=""width:500px;"">
  <p>How would you describe your current emotional state?</p>
  </div>","39","html-slider-response","16","264116","0.0-7.0-3.0","104","1","2025-07-30 20:33:32","36c45c0696341be0efffe67d72a12abb","216.120.189.168","Mozilla/5.0 (Windows NT 10.0; Win64; x64) AppleWebKit/537.36 (KHTML, like Gecko) Chrome/138.0.0.0 Safari/537.36","WebKit","Chrome","138.0.0.0","Windows","10.0","https://app.prolific.com/","en-US,en;q=0.9","674eae0026291e33be89b46f","683dba9a53627eb9ab41b36a","688a81874f8673f9fb535cab","0","674eae0026291e33be89b46f","0","2025-07-30T20:39:43.353Z","","","","StressQ","","","","","","","","","","","50","","","","","","","","","","","","","","","","","","","","","","","","","","",""
"2933","","<div style=""width:500px;"">
  <p>What best describes how you currently feel?</p>
  </div>","38","html-slider-response","17","267050","0.0-7.0-4.0","104","1","2025-07-30 20:33:32","36c45c0696341be0efffe67d72a12abb","216.120.189.168","Mozilla/5.0 (Windows NT 10.0; Win64; x64) AppleWebKit/537.36 (KHTML, like Gecko) Chrome/138.0.0.0 Safari/537.36","WebKit","Chrome","138.0.0.0","Windows","10.0","https://app.prolific.com/","en-US,en;q=0.9","674eae0026291e33be89b46f","683dba9a53627eb9ab41b36a","688a81874f8673f9fb535cab","0","674eae0026291e33be89b46f","0","2025-07-30T20:39:46.287Z","","","","MotivationQ","","","","","","","","","","","50","","","","","","","","","","","","","","","","","","","","","","","","","","",""
"","","","","ctl-task-cpt","18","297257","0.0-7.0-0.1","104","1","2025-07-30 20:33:32","36c45c0696341be0efffe67d72a12abb","216.120.189.168","Mozilla/5.0 (Windows NT 10.0; Win64; x64) AppleWebKit/537.36 (KHTML, like Gecko) Chrome/138.0.0.0 Safari/537.36","WebKit","Chrome","138.0.0.0","Windows","10.0","https://app.prolific.com/","en-US,en;q=0.9","674eae0026291e33be89b46f","683dba9a53627eb9ab41b36a","688a81874f8673f9fb535cab","0","674eae0026291e33be89b46f","0","2025-07-30T20:40:16.494Z","","","","","","","","","","","","","","","","win-only","3","g1:SW,g2:NE","0.9","2","0","272657","1455.1","6456.3","27192.2","1","4","4","6","1","-1","-2","0","1","0","2101.5","3000","-3005","[""down"",""left""]","{""num_key_presses"":6,""num_perfect"":4,""num_errors"":1,""num_randdir"":1,""num_randdir_good_moves"":0,""num_whilered"":0,""num_whileblue"":0,""num_blue"":1,""num_good_moves"":4}","[302.22232142857143,291.12857142857143,0.2,302.22232142857143,291.12857142857143,101.9,302.22232142857143,291.12857142857143,205.4,302.22232142857143,291.12857142857143,305.6,302.22232142857143,291.12857142857143,406.1,302.22232142857143,291.12857142857143,506.6,302.22232142857143,291.12857142857143,611.1,302.22232142857143,291.12857142857143,717.9,291.22232142857143,293.12857142857143,818.6,163.22232142857143,352.12857142857143,918.8,107.22232142857143,402.12857142857143,1020.5,107.22232142857143,402.12857142857143,1121.7,107.22232142857143,406.12857142857143,1225.7,25.222321428571426,577.1285714285714,1335,14.222321428571426,592.1285714285714,1435.3,13.222321428571426,590.1285714285714,1535.8,13.222321428571426,580.1285714285714,1636.5,34.222321428571426,546.1285714285714,1741.1,39.222321428571426,538.1285714285714,1841.2,39.222321428571426,538.1285714285714,1951,39.222321428571426,538.1285714285714,2055.5,39.222321428571426,538.1285714285714,2156.3,39.222321428571426,538.1285714285714,2261,39.222321428571426,538.1285714285714,2368.2,39.222321428571426,538.1285714285714,2471.2,39.222321428571426,538.1285714285714,2575.3,39.222321428571426,538.1285714285714,2676.1,39.222321428571426,538.1285714285714,2784,39.222321428571426,538.1285714285714,2885.8,39.222321428571426,538.1285714285714,2985.8,39.222321428571426,538.1285714285714,3086.7,39.222321428571426,538.1285714285714,3190.6,39.222321428571426,538.1285714285714,3291,39.222321428571426,538.1285714285714,3400.3,39.222321428571426,538.1285714285714,3500.3,39.222321428571426,538.1285714285714,3600.9,39.222321428571426,538.1285714285714,3705.7,39.222321428571426,538.1285714285714,3805.7,39.222321428571426,538.1285714285714,3905.7,39.222321428571426,538.1285714285714,4005.9,39.222321428571426,538.1285714285714,4110.6,39.222321428571426,538.1285714285714,4210.6,39.222321428571426,538.1285714285714,4310.6,49.222321428571426,534.1285714285714,4410.6,160.22232142857143,447.12857142857143,4511.8,230.22232142857143,381.12857142857143,4617.8,230.22232142857143,380.12857142857143,4718.2,232.22232142857143,371.12857142857143,4821.6,228.22232142857143,377.12857142857143,4926.8]","[1474.9,1474.9,1000,0.1,474.8,""smooth"",""down"",""down"",""good_move"",8416.5,6941.7,2446.1,5199.5,771.1,""smooth"",""down"",""down"",""good_move"",11166,2749.2,2039.2,8416.8,710,""oops"",""down"",""up"",""bad_move"",11414.8,248.3,2145,11166.5,-1896.7,""error"",""-"",""-"",""no_move"",15598.2,4183,2608.2,12416.3,573.7,""smooth"",""down"",""down"",""good_move"",18400.8,2802.3,2283.5,15598.5,518.8,""smooth"",""left"",""left"",""good_move""]"
"6971","","<div style=""width:500px;"">
  <p>What determined the result of this run?</p>
  </div>","37","html-slider-response","19","304229","0.0-7.0-1.1","104","1","2025-07-30 20:33:32","36c45c0696341be0efffe67d72a12abb","216.120.189.168","Mozilla/5.0 (Windows NT 10.0; Win64; x64) AppleWebKit/537.36 (KHTML, like Gecko) Chrome/138.0.0.0 Safari/537.36","WebKit","Chrome","138.0.0.0","Windows","10.0","https://app.prolific.com/","en-US,en;q=0.9","674eae0026291e33be89b46f","683dba9a53627eb9ab41b36a","688a81874f8673f9fb535cab","0","674eae0026291e33be89b46f","0","2025-07-30T20:40:23.466Z","","","","AttribQ","","","","","","","","","","","50","","","","","","","","","","","","","","","","","","","","","","","","","","",""
"2457","","<div style=""width:500px;"">
  <p>How much control did you have over the ball?</p>
  </div>","46","html-slider-response","20","306687","0.0-7.0-2.1","104","1","2025-07-30 20:33:32","36c45c0696341be0efffe67d72a12abb","216.120.189.168","Mozilla/5.0 (Windows NT 10.0; Win64; x64) AppleWebKit/537.36 (KHTML, like Gecko) Chrome/138.0.0.0 Safari/537.36","WebKit","Chrome","138.0.0.0","Windows","10.0","https://app.prolific.com/","en-US,en;q=0.9","674eae0026291e33be89b46f","683dba9a53627eb9ab41b36a","688a81874f8673f9fb535cab","0","674eae0026291e33be89b46f","0","2025-07-30T20:40:25.924Z","","","","ControlQ","","","","","","","","","","","50","","","","","","","","","","","","","","","","","","","","","","","","","","",""
"2726","","<div style=""width:500px;"">
  <p>How would you describe your current emotional state?</p>
  </div>","62","html-slider-response","21","309414","0.0-7.0-3.1","104","1","2025-07-30 20:33:32","36c45c0696341be0efffe67d72a12abb","216.120.189.168","Mozilla/5.0 (Windows NT 10.0; Win64; x64) AppleWebKit/537.36 (KHTML, like Gecko) Chrome/138.0.0.0 Safari/537.36","WebKit","Chrome","138.0.0.0","Windows","10.0","https://app.prolific.com/","en-US,en;q=0.9","674eae0026291e33be89b46f","683dba9a53627eb9ab41b36a","688a81874f8673f9fb535cab","0","674eae0026291e33be89b46f","0","2025-07-30T20:40:28.651Z","","","","StressQ","","","","","","","","","","","50","","","","","","","","","","","","","","","","","","","","","","","","","","",""
"2226","","<div style=""width:500px;"">
  <p>What best describes how you currently feel?</p>
  </div>","57","html-slider-response","22","311641","0.0-7.0-4.1","104","1","2025-07-30 20:33:32","36c45c0696341be0efffe67d72a12abb","216.120.189.168","Mozilla/5.0 (Windows NT 10.0; Win64; x64) AppleWebKit/537.36 (KHTML, like Gecko) Chrome/138.0.0.0 Safari/537.36","WebKit","Chrome","138.0.0.0","Windows","10.0","https://app.prolific.com/","en-US,en;q=0.9","674eae0026291e33be89b46f","683dba9a53627eb9ab41b36a","688a81874f8673f9fb535cab","0","674eae0026291e33be89b46f","0","2025-07-30T20:40:30.878Z","","","","MotivationQ","","","","","","","","","","","50","","","","","","","","","","","","","","","","","","","","","","","","","","",""
"","","","","ctl-task-cpt","23","350386","0.0-7.0-0.2","104","1","2025-07-30 20:33:32","36c45c0696341be0efffe67d72a12abb","216.120.189.168","Mozilla/5.0 (Windows NT 10.0; Win64; x64) AppleWebKit/537.36 (KHTML, like Gecko) Chrome/138.0.0.0 Safari/537.36","WebKit","Chrome","138.0.0.0","Windows","10.0","https://app.prolific.com/","en-US,en;q=0.9","674eae0026291e33be89b46f","683dba9a53627eb9ab41b36a","688a81874f8673f9fb535cab","0","674eae0026291e33be89b46f","0","2025-07-30T20:41:09.623Z","","","","","","","","","","","","","","","","win-only","3","g1:SW,g2:NE","0.8","3","0","317287.3","1159","6160.7","35695.2","1","4","4","6","1","1","1","1","0","0.007575757575757576","1564.2","3000","910","[""down"",""left""]","{""num_key_presses"":6,""num_perfect"":4,""num_errors"":0,""num_randdir"":2,""num_randdir_good_moves"":1,""num_whilered"":0,""num_whileblue"":0,""num_blue"":4,""num_good_moves"":5}","[297.22232142857143,298.12857142857143,0.2,297.22232142857143,298.12857142857143,102.2,297.22232142857143,298.12857142857143,203.2,297.22232142857143,298.12857142857143,306.9,297.22232142857143,298.12857142857143,414.4,297.22232142857143,298.12857142857143,514.5,297.22232142857143,298.12857142857143,617.5,297.22232142857143,298.12857142857143,722.1,284.22232142857143,304.12857142857143,831.6,72.22232142857143,557.1285714285714,931.9,66.22232142857143,568.1285714285714,1036.9,60.222321428571426,577.1285714285714,1142.2,56.222321428571426,581.1285714285714,1249,56.222321428571426,581.1285714285714,1352.1,56.222321428571426,581.1285714285714,1452.5,56.222321428571426,581.1285714285714,1557,56.222321428571426,581.1285714285714,1664.4,56.222321428571426,581.1285714285714,1764.7,56.222321428571426,581.1285714285714,1866.9,56.222321428571426,581.1285714285714,1972.9,56.222321428571426,581.1285714285714,2081.4,56.222321428571426,581.1285714285714,2181.8,56.222321428571426,581.1285714285714,2286.7,56.222321428571426,581.1285714285714,2387,56.222321428571426,581.1285714285714,2487,56.222321428571426,581.1285714285714,2587,56.222321428571426,581.1285714285714,2687.1,56.222321428571426,581.1285714285714,2787.4,56.222321428571426,581.1285714285714,2897.6,56.222321428571426,581.1285714285714,2998.1,56.222321428571426,581.1285714285714,3101.7,56.222321428571426,581.1285714285714,3201.8,56.222321428571426,581.1285714285714,3302,56.222321428571426,581.1285714285714,3402.3,56.222321428571426,581.1285714285714,3506.5,56.222321428571426,581.1285714285714,3614.2,56.222321428571426,581.1285714285714,3716.4,56.222321428571426,581.1285714285714,3816.4,56.222321428571426,581.1285714285714,3922.4,56.222321428571426,581.1285714285714,4022.4,56.222321428571426,581.1285714285714,4130.5,56.222321428571426,581.1285714285714,4231.5,56.222321428571426,581.1285714285714,4336.3,56.222321428571426,581.1285714285714,4437,56.222321428571426,581.1285714285714,4547.5,56.222321428571426,581.1285714285714,4652.3,56.222321428571426,581.1285714285714,4753.2,56.222321428571426,581.1285714285714,4856.5,56.222321428571426,581.1285714285714,4957]","[1362.1,1362.2,1000,0.1,362.1,""oops"",""down"",""down"",""good_move"",6744.3,5381.7,1854.4,4545,344.9,""smooth"",""left"",""left"",""good_move"",16795.9,10051.3,2757.4,13579.4,459.1,""oops"",""down"",""right"",""bad_move"",23859.7,7063.6,2771.8,20665.4,422.6,""smooth"",""down"",""down"",""good_move"",26682.9,2823,2406.9,23860,416,""smooth"",""left"",""left"",""good_move"",29444.1,2761,2390.9,26683.1,370.1,""smooth"",""left"",""left"",""good_move""]"
"3176","","<div style=""width:500px;"">
  <p>What determined the result of this run?</p>
  </div>","35","html-slider-response","24","353562","0.0-7.0-1.2","104","1","2025-07-30 20:33:32","36c45c0696341be0efffe67d72a12abb","216.120.189.168","Mozilla/5.0 (Windows NT 10.0; Win64; x64) AppleWebKit/537.36 (KHTML, like Gecko) Chrome/138.0.0.0 Safari/537.36","WebKit","Chrome","138.0.0.0","Windows","10.0","https://app.prolific.com/","en-US,en;q=0.9","674eae0026291e33be89b46f","683dba9a53627eb9ab41b36a","688a81874f8673f9fb535cab","0","674eae0026291e33be89b46f","0","2025-07-30T20:41:12.799Z","","","","AttribQ","","","","","","","","","","","50","","","","","","","","","","","","","","","","","","","","","","","","","","",""
"2175","","<div style=""width:500px;"">
  <p>How much control did you have over the ball?</p>
  </div>","60","html-slider-response","25","355738","0.0-7.0-2.2","104","1","2025-07-30 20:33:32","36c45c0696341be0efffe67d72a12abb","216.120.189.168","Mozilla/5.0 (Windows NT 10.0; Win64; x64) AppleWebKit/537.36 (KHTML, like Gecko) Chrome/138.0.0.0 Safari/537.36","WebKit","Chrome","138.0.0.0","Windows","10.0","https://app.prolific.com/","en-US,en;q=0.9","674eae0026291e33be89b46f","683dba9a53627eb9ab41b36a","688a81874f8673f9fb535cab","0","674eae0026291e33be89b46f","0","2025-07-30T20:41:14.976Z","","","","ControlQ","","","","","","","","","","","50","","","","","","","","","","","","","","","","","","","","","","","","","","",""
"3569","","<div style=""width:500px;"">
  <p>How would you describe your current emotional state?</p>
  </div>","62","html-slider-response","26","359309","0.0-7.0-3.2","104","1","2025-07-30 20:33:32","36c45c0696341be0efffe67d72a12abb","216.120.189.168","Mozilla/5.0 (Windows NT 10.0; Win64; x64) AppleWebKit/537.36 (KHTML, like Gecko) Chrome/138.0.0.0 Safari/537.36","WebKit","Chrome","138.0.0.0","Windows","10.0","https://app.prolific.com/","en-US,en;q=0.9","674eae0026291e33be89b46f","683dba9a53627eb9ab41b36a","688a81874f8673f9fb535cab","0","674eae0026291e33be89b46f","0","2025-07-30T20:41:18.546Z","","","","StressQ","","","","","","","","","","","50","","","","","","","","","","","","","","","","","","","","","","","","","","",""
"2658","","<div style=""width:500px;"">
  <p>What best describes how you currently feel?</p>
  </div>","60","html-slider-response","27","361968","0.0-7.0-4.2","104","1","2025-07-30 20:33:32","36c45c0696341be0efffe67d72a12abb","216.120.189.168","Mozilla/5.0 (Windows NT 10.0; Win64; x64) AppleWebKit/537.36 (KHTML, like Gecko) Chrome/138.0.0.0 Safari/537.36","WebKit","Chrome","138.0.0.0","Windows","10.0","https://app.prolific.com/","en-US,en;q=0.9","674eae0026291e33be89b46f","683dba9a53627eb9ab41b36a","688a81874f8673f9fb535cab","0","674eae0026291e33be89b46f","0","2025-07-30T20:41:21.205Z","","","","MotivationQ","","","","","","","","","","","50","","","","","","","","","","","","","","","","","","","","","","","","","","",""
"","","","","ctl-task-cpt","28","387184","0.0-7.0-0.3","104","1","2025-07-30 20:33:32","36c45c0696341be0efffe67d72a12abb","216.120.189.168","Mozilla/5.0 (Windows NT 10.0; Win64; x64) AppleWebKit/537.36 (KHTML, like Gecko) Chrome/138.0.0.0 Safari/537.36","WebKit","Chrome","138.0.0.0","Windows","10.0","https://app.prolific.com/","en-US,en;q=0.9","674eae0026291e33be89b46f","683dba9a53627eb9ab41b36a","688a81874f8673f9fb535cab","0","674eae0026291e33be89b46f","0","2025-07-30T20:41:46.421Z","","","","","","","","","","","","","","","","win-only","3","g1:SW,g2:NE","0.7","4","0","367575.9","1320.2","6321.7","22206.3","1","4","8","6","1","1","0","1","1","0.007575757575757576","1462.8","3000","1610","[""down"",""left""]","{""num_key_presses"":5,""num_perfect"":2,""num_errors"":1,""num_randdir"":2,""num_randdir_good_moves"":2,""num_whilered"":0,""num_whileblue"":0,""num_blue"":1,""num_good_moves"":4}","[293.22232142857143,303.12857142857143,0.2,293.22232142857143,303.12857142857143,100.7,293.22232142857143,303.12857142857143,211.8,293.22232142857143,303.12857142857143,313.8,293.22232142857143,303.12857142857143,415.8,293.22232142857143,303.12857142857143,515.9,293.22232142857143,303.12857142857143,620.7,251.22232142857143,338.12857142857143,721.5,163.22232142857143,437.12857142857143,828.2,137.22232142857143,463.12857142857143,931.6,104.22232142857143,488.12857142857143,1035.4,67.22232142857143,539.1285714285714,1145.7,65.22232142857143,542.1285714285714,1251,65.22232142857143,542.1285714285714,1351.6,65.22232142857143,542.1285714285714,1455.5,65.22232142857143,542.1285714285714,1563.1,65.22232142857143,542.1285714285714,1665.6,65.22232142857143,542.1285714285714,1765.8,65.22232142857143,542.1285714285714,1867,65.22232142857143,542.1285714285714,1970.6,65.22232142857143,542.1285714285714,2070.6,65.22232142857143,542.1285714285714,2178.4,65.22232142857143,542.1285714285714,2279.2,65.22232142857143,542.1285714285714,2379.9,65.22232142857143,542.1285714285714,2480.7,65.22232142857143,542.1285714285714,2581.8,65.22232142857143,542.1285714285714,2685.7,65.22232142857143,542.1285714285714,2785.9,65.22232142857143,542.1285714285714,2894.2,65.22232142857143,542.1285714285714,2996,65.22232142857143,542.1285714285714,3100.1,65.22232142857143,542.1285714285714,3200.9,65.22232142857143,542.1285714285714,3301.1,65.22232142857143,542.1285714285714,3411.2,65.22232142857143,542.1285714285714,3515.8,65.22232142857143,542.1285714285714,3615.9,65.22232142857143,542.1285714285714,3720.8,65.22232142857143,542.1285714285714,3820.8,65.22232142857143,542.1285714285714,3927.9,65.22232142857143,542.1285714285714,4028.4,65.22232142857143,542.1285714285714,4131.2,65.22232142857143,542.1285714285714,4231.4,65.22232142857143,542.1285714285714,4336.8,65.22232142857143,542.1285714285714,4444.6,65.22232142857143,542.1285714285714,4545.6,65.22232142857143,542.1285714285714,4646.8,65.22232142857143,542.1285714285714,4750.8,65.22232142857143,542.1285714285714,4850.8,65.22232142857143,542.1285714285714,4950.9]","[1432.8,1432.8,1000,0,432.8,""smooth"",""down"",""down"",""good_move"",4414.3,2981,2582.4,1433.3,398.6,""smooth"",""left"",""left"",""good_move"",4512.3,97.7,2576.3,4414.6,-2478.6,""error"",""-"",""-"",""no_move"",8183.8,3671.3,2307.6,5515.1,361.1,""oops"",""down"",""left"",""good_move"",15791.2,7607.2,3453.6,11958.9,378.7,""oops"",""down"",""down"",""good_move""]"
"2438","","<div style=""width:500px;"">
  <p>What determined the result of this run?</p>
  </div>","42","html-slider-response","29","389623","0.0-7.0-1.3","104","1","2025-07-30 20:33:32","36c45c0696341be0efffe67d72a12abb","216.120.189.168","Mozilla/5.0 (Windows NT 10.0; Win64; x64) AppleWebKit/537.36 (KHTML, like Gecko) Chrome/138.0.0.0 Safari/537.36","WebKit","Chrome","138.0.0.0","Windows","10.0","https://app.prolific.com/","en-US,en;q=0.9","674eae0026291e33be89b46f","683dba9a53627eb9ab41b36a","688a81874f8673f9fb535cab","0","674eae0026291e33be89b46f","0","2025-07-30T20:41:48.860Z","","","","AttribQ","","","","","","","","","","","50","","","","","","","","","","","","","","","","","","","","","","","","","","",""
"2112","","<div style=""width:500px;"">
  <p>How much control did you have over the ball?</p>
  </div>","56","html-slider-response","30","391736","0.0-7.0-2.3","104","1","2025-07-30 20:33:32","36c45c0696341be0efffe67d72a12abb","216.120.189.168","Mozilla/5.0 (Windows NT 10.0; Win64; x64) AppleWebKit/537.36 (KHTML, like Gecko) Chrome/138.0.0.0 Safari/537.36","WebKit","Chrome","138.0.0.0","Windows","10.0","https://app.prolific.com/","en-US,en;q=0.9","674eae0026291e33be89b46f","683dba9a53627eb9ab41b36a","688a81874f8673f9fb535cab","0","674eae0026291e33be89b46f","0","2025-07-30T20:41:50.973Z","","","","ControlQ","","","","","","","","","","","50","","","","","","","","","","","","","","","","","","","","","","","","","","",""
"2896","","<div style=""width:500px;"">
  <p>How would you describe your current emotional state?</p>
  </div>","40","html-slider-response","31","394632","0.0-7.0-3.3","104","1","2025-07-30 20:33:32","36c45c0696341be0efffe67d72a12abb","216.120.189.168","Mozilla/5.0 (Windows NT 10.0; Win64; x64) AppleWebKit/537.36 (KHTML, like Gecko) Chrome/138.0.0.0 Safari/537.36","WebKit","Chrome","138.0.0.0","Windows","10.0","https://app.prolific.com/","en-US,en;q=0.9","674eae0026291e33be89b46f","683dba9a53627eb9ab41b36a","688a81874f8673f9fb535cab","0","674eae0026291e33be89b46f","0","2025-07-30T20:41:53.869Z","","","","StressQ","","","","","","","","","","","50","","","","","","","","","","","","","","","","","","","","","","","","","","",""
"4081","","<div style=""width:500px;"">
  <p>What best describes how you currently feel?</p>
  </div>","36","html-slider-response","32","398714","0.0-7.0-4.3","104","1","2025-07-30 20:33:32","36c45c0696341be0efffe67d72a12abb","216.120.189.168","Mozilla/5.0 (Windows NT 10.0; Win64; x64) AppleWebKit/537.36 (KHTML, like Gecko) Chrome/138.0.0.0 Safari/537.36","WebKit","Chrome","138.0.0.0","Windows","10.0","https://app.prolific.com/","en-US,en;q=0.9","674eae0026291e33be89b46f","683dba9a53627eb9ab41b36a","688a81874f8673f9fb535cab","0","674eae0026291e33be89b46f","0","2025-07-30T20:41:57.951Z","","","","MotivationQ","","","","","","","","","","","50","","","","","","","","","","","","","","","","","","","","","","","","","","",""
"","","","","ctl-task-cpt","33","426528","0.0-7.0-0.4","104","1","2025-07-30 20:33:32","36c45c0696341be0efffe67d72a12abb","216.120.189.168","Mozilla/5.0 (Windows NT 10.0; Win64; x64) AppleWebKit/537.36 (KHTML, like Gecko) Chrome/138.0.0.0 Safari/537.36","WebKit","Chrome","138.0.0.0","Windows","10.0","https://app.prolific.com/","en-US,en;q=0.9","674eae0026291e33be89b46f","683dba9a53627eb9ab41b36a","688a81874f8673f9fb535cab","0","674eae0026291e33be89b46f","0","2025-07-30T20:42:25.765Z","","","","","","","","","","","","","","","","win-only","2","g1:SE,g2:NW","0.6","5","0","404325.8","1492","6497.4","24790.6","1","4","8","6","1","1","1","2","1","0.015151515151515152","1206.9","3000","1270","[""down"",""right""]","{""num_key_presses"":4,""num_perfect"":3,""num_errors"":0,""num_randdir"":1,""num_randdir_good_moves"":1,""num_whilered"":0,""num_whileblue"":0,""num_blue"":2,""num_good_moves"":4}","[293.22232142857143,296.12857142857143,0.4,293.22232142857143,296.12857142857143,104.7,293.22232142857143,296.12857142857143,205.2,293.22232142857143,296.12857142857143,308.3,293.22232142857143,296.12857142857143,408.9,292.22232142857143,296.12857142857143,514.8,230.22232142857143,247.12857142857143,619.5,259.22232142857143,257.12857142857143,723.3,518.2223214285714,531.1285714285714,824.5,535.2223214285714,560.1285714285714,928.6,535.2223214285714,560.1285714285714,1028.9,535.2223214285714,560.1285714285714,1129,535.2223214285714,560.1285714285714,1229.2,535.2223214285714,560.1285714285714,1333.8,535.2223214285714,560.1285714285714,1433.9,535.2223214285714,560.1285714285714,1539.9,535.2223214285714,560.1285714285714,1643.4,535.2223214285714,560.1285714285714,1743.9,535.2223214285714,560.1285714285714,1845,535.2223214285714,560.1285714285714,1948.4,535.2223214285714,560.1285714285714,2050.7,535.2223214285714,560.1285714285714,2154.6,535.2223214285714,560.1285714285714,2258.2,535.2223214285714,560.1285714285714,2359.1,535.2223214285714,560.1285714285714,2463.8,535.2223214285714,560.1285714285714,2564.8,535.2223214285714,560.1285714285714,2670.3,535.2223214285714,560.1285714285714,2775.2,535.2223214285714,560.1285714285714,2879.9,535.2223214285714,560.1285714285714,2983.9,535.2223214285714,560.1285714285714,3083.8,535.2223214285714,560.1285714285714,3183.8,535.2223214285714,560.1285714285714,3284,535.2223214285714,560.1285714285714,3389.7,535.2223214285714,560.1285714285714,3494.6,535.2223214285714,560.1285714285714,3594.7,535.2223214285714,560.1285714285714,3698.6,535.2223214285714,560.1285714285714,3798.7,535.2223214285714,560.1285714285714,3906.8,535.2223214285714,560.1285714285714,4009.2,535.2223214285714,560.1285714285714,4109.7,535.2223214285714,560.1285714285714,4213.3,535.2223214285714,560.1285714285714,4314.8,535.2223214285714,560.1285714285714,4420.1,535.2223214285714,560.1285714285714,4524.6,535.2223214285714,560.1285714285714,4629.5,535.2223214285714,560.1285714285714,4733.5,535.2223214285714,560.1285714285714,4833.5,535.2223214285714,560.1285714285714,4933.5]","[8295,8295,2914.6,4983.7,396.7,""smooth"",""down"",""down"",""good_move"",12166.8,3870.1,3444.2,8296.7,425.9,""smooth"",""right"",""right"",""good_move"",14719.8,2552.7,2116.1,12167.2,436.5,""smooth"",""down"",""down"",""good_move"",18203.8,3483.8,3000.2,14720,483.6,""oops"",""right"",""right"",""good_move""]"
"5385","","<div style=""width:500px;"">
  <p>What determined the result of this run?</p>
  </div>","62","html-slider-response","34","431914","0.0-7.0-1.4","104","1","2025-07-30 20:33:32","36c45c0696341be0efffe67d72a12abb","216.120.189.168","Mozilla/5.0 (Windows NT 10.0; Win64; x64) AppleWebKit/537.36 (KHTML, like Gecko) Chrome/138.0.0.0 Safari/537.36","WebKit","Chrome","138.0.0.0","Windows","10.0","https://app.prolific.com/","en-US,en;q=0.9","674eae0026291e33be89b46f","683dba9a53627eb9ab41b36a","688a81874f8673f9fb535cab","0","674eae0026291e33be89b46f","0","2025-07-30T20:42:31.151Z","","","","AttribQ","","","","","","","","","","","50","","","","","","","","","","","","","","","","","","","","","","","","","","",""
"2519","","<div style=""width:500px;"">
  <p>How much control did you have over the ball?</p>
  </div>","62","html-slider-response","35","434434","0.0-7.0-2.4","104","1","2025-07-30 20:33:32","36c45c0696341be0efffe67d72a12abb","216.120.189.168","Mozilla/5.0 (Windows NT 10.0; Win64; x64) AppleWebKit/537.36 (KHTML, like Gecko) Chrome/138.0.0.0 Safari/537.36","WebKit","Chrome","138.0.0.0","Windows","10.0","https://app.prolific.com/","en-US,en;q=0.9","674eae0026291e33be89b46f","683dba9a53627eb9ab41b36a","688a81874f8673f9fb535cab","0","674eae0026291e33be89b46f","0","2025-07-30T20:42:33.671Z","","","","ControlQ","","","","","","","","","","","50","","","","","","","","","","","","","","","","","","","","","","","","","","",""
"2489","","<div style=""width:500px;"">
  <p>How would you describe your current emotional state?</p>
  </div>","37","html-slider-response","36","436923","0.0-7.0-3.4","104","1","2025-07-30 20:33:32","36c45c0696341be0efffe67d72a12abb","216.120.189.168","Mozilla/5.0 (Windows NT 10.0; Win64; x64) AppleWebKit/537.36 (KHTML, like Gecko) Chrome/138.0.0.0 Safari/537.36","WebKit","Chrome","138.0.0.0","Windows","10.0","https://app.prolific.com/","en-US,en;q=0.9","674eae0026291e33be89b46f","683dba9a53627eb9ab41b36a","688a81874f8673f9fb535cab","0","674eae0026291e33be89b46f","0","2025-07-30T20:42:36.161Z","","","","StressQ","","","","","","","","","","","50","","","","","","","","","","","","","","","","","","","","","","","","","","",""
"3062","","<div style=""width:500px;"">
  <p>What best describes how you currently feel?</p>
  </div>","36","html-slider-response","37","439988","0.0-7.0-4.4","104","1","2025-07-30 20:33:32","36c45c0696341be0efffe67d72a12abb","216.120.189.168","Mozilla/5.0 (Windows NT 10.0; Win64; x64) AppleWebKit/537.36 (KHTML, like Gecko) Chrome/138.0.0.0 Safari/537.36","WebKit","Chrome","138.0.0.0","Windows","10.0","https://app.prolific.com/","en-US,en;q=0.9","674eae0026291e33be89b46f","683dba9a53627eb9ab41b36a","688a81874f8673f9fb535cab","0","674eae0026291e33be89b46f","0","2025-07-30T20:42:39.225Z","","","","MotivationQ","","","","","","","","","","","50","","","","","","","","","","","","","","","","","","","","","","","","","","",""
"","","","","ctl-task-cpt","38","476662","0.0-7.0-0.5","104","1","2025-07-30 20:33:32","36c45c0696341be0efffe67d72a12abb","216.120.189.168","Mozilla/5.0 (Windows NT 10.0; Win64; x64) AppleWebKit/537.36 (KHTML, like Gecko) Chrome/138.0.0.0 Safari/537.36","WebKit","Chrome","138.0.0.0","Windows","10.0","https://app.prolific.com/","en-US,en;q=0.9","674eae0026291e33be89b46f","683dba9a53627eb9ab41b36a","688a81874f8673f9fb535cab","0","674eae0026291e33be89b46f","0","2025-07-30T20:43:15.900Z","","","","","","","","","","","","","","","","win-only","0","g1:NW,g2:SE","0.5","6","0","445596.1","1443.1","6446.5","33656.4","1","4","4","6","1","-1","-1","1","2","0.007575757575757576","2296.1","3000","-2920","[""left"",""up""]","{""num_key_presses"":6,""num_perfect"":3,""num_errors"":0,""num_randdir"":3,""num_randdir_good_moves"":0,""num_whilered"":0,""num_whileblue"":0,""num_blue"":2,""num_good_moves"":3}","[295.22232142857143,302.12857142857143,0.2,295.22232142857143,302.12857142857143,102.2,295.22232142857143,302.12857142857143,202.9,295.22232142857143,302.12857142857143,304.1,295.22232142857143,302.12857142857143,408.3,295.22232142857143,302.12857142857143,517.2,295.22232142857143,302.12857142857143,617.6,300.22232142857143,302.12857142857143,718,386.22232142857143,389.12857142857143,818.6,410.22232142857143,424.12857142857143,923.7,410.22232142857143,424.12857142857143,1029.3,410.22232142857143,424.12857142857143,1131.4,310.22232142857143,311.12857142857143,1232.5,268.22232142857143,228.12857142857143,1337.7,268.22232142857143,228.12857142857143,1437.9,268.22232142857143,228.12857142857143,1547.8,208.22232142857143,185.12857142857143,1649.1,38.222321428571426,65.12857142857143,1754.2,17.222321428571426,47.128571428571426,1865.4,17.222321428571426,41.128571428571426,1965.5,17.222321428571426,40.128571428571426,2067.8,17.222321428571426,40.128571428571426,2167.8,17.222321428571426,40.128571428571426,2268.8,17.222321428571426,40.128571428571426,2372.5,17.222321428571426,40.128571428571426,2473.4,17.222321428571426,40.128571428571426,2577.8,17.222321428571426,40.128571428571426,2681.6,17.222321428571426,40.128571428571426,2783.1,17.222321428571426,40.128571428571426,2883.6,17.222321428571426,40.128571428571426,2987.4,17.222321428571426,40.128571428571426,3087.4,17.222321428571426,40.128571428571426,3187.6,17.222321428571426,40.128571428571426,3297.9,17.222321428571426,40.128571428571426,3398.7,17.222321428571426,40.128571428571426,3503,17.222321428571426,40.128571428571426,3607.5,17.222321428571426,40.128571428571426,3707.8,17.222321428571426,40.128571428571426,3808.5,17.222321428571426,40.128571428571426,3915,17.222321428571426,40.128571428571426,4017.1,17.222321428571426,40.128571428571426,4117.3,17.222321428571426,40.128571428571426,4217.3,17.222321428571426,40.128571428571426,4318.5,17.222321428571426,40.128571428571426,4422.5,17.222321428571426,40.128571428571426,4530.9,17.222321428571426,40.128571428571426,4632.4,17.222321428571426,40.128571428571426,4732.5,17.222321428571426,40.128571428571426,4833.2,17.222321428571426,40.128571428571426,4937.5]","[1392.4,1392.4,1000,0,392.4,""smooth"",""up"",""up"",""good_move"",4259.1,2866.3,2463.3,1392.8,403,""smooth"",""left"",""left"",""good_move"",7079.1,2819.7,2397.6,4259.4,422.1,""oops"",""up"",""right"",""bad_move"",13075.6,5996.2,2053.1,10649.5,373,""smooth"",""left"",""left"",""good_move"",16308.5,3232.8,2828.8,13075.7,404,""oops"",""left"",""right"",""bad_move"",23239.3,6930.6,2679.5,20284.5,275.4,""oops"",""up"",""right"",""bad_move""]"
"4589","","<div style=""width:500px;"">
  <p>What determined the result of this run?</p>
  </div>","34","html-slider-response","39","481254","0.0-7.0-1.5","104","1","2025-07-30 20:33:32","36c45c0696341be0efffe67d72a12abb","216.120.189.168","Mozilla/5.0 (Windows NT 10.0; Win64; x64) AppleWebKit/537.36 (KHTML, like Gecko) Chrome/138.0.0.0 Safari/537.36","WebKit","Chrome","138.0.0.0","Windows","10.0","https://app.prolific.com/","en-US,en;q=0.9","674eae0026291e33be89b46f","683dba9a53627eb9ab41b36a","688a81874f8673f9fb535cab","0","674eae0026291e33be89b46f","0","2025-07-30T20:43:20.491Z","","","","AttribQ","","","","","","","","","","","50","","","","","","","","","","","","","","","","","","","","","","","","","","",""
"2328","","<div style=""width:500px;"">
  <p>How much control did you have over the ball?</p>
  </div>","39","html-slider-response","40","483582","0.0-7.0-2.5","104","1","2025-07-30 20:33:32","36c45c0696341be0efffe67d72a12abb","216.120.189.168","Mozilla/5.0 (Windows NT 10.0; Win64; x64) AppleWebKit/537.36 (KHTML, like Gecko) Chrome/138.0.0.0 Safari/537.36","WebKit","Chrome","138.0.0.0","Windows","10.0","https://app.prolific.com/","en-US,en;q=0.9","674eae0026291e33be89b46f","683dba9a53627eb9ab41b36a","688a81874f8673f9fb535cab","0","674eae0026291e33be89b46f","0","2025-07-30T20:43:22.819Z","","","","ControlQ","","","","","","","","","","","50","","","","","","","","","","","","","","","","","","","","","","","","","","",""
"2066","","<div style=""width:500px;"">
  <p>How would you describe your current emotional state?</p>
  </div>","54","html-slider-response","41","485650","0.0-7.0-3.5","104","1","2025-07-30 20:33:32","36c45c0696341be0efffe67d72a12abb","216.120.189.168","Mozilla/5.0 (Windows NT 10.0; Win64; x64) AppleWebKit/537.36 (KHTML, like Gecko) Chrome/138.0.0.0 Safari/537.36","WebKit","Chrome","138.0.0.0","Windows","10.0","https://app.prolific.com/","en-US,en;q=0.9","674eae0026291e33be89b46f","683dba9a53627eb9ab41b36a","688a81874f8673f9fb535cab","0","674eae0026291e33be89b46f","0","2025-07-30T20:43:24.887Z","","","","StressQ","","","","","","","","","","","50","","","","","","","","","","","","","","","","","","","","","","","","","","",""
"2118","","<div style=""width:500px;"">
  <p>What best describes how you currently feel?</p>
  </div>","40","html-slider-response","42","487769","0.0-7.0-4.5","104","1","2025-07-30 20:33:32","36c45c0696341be0efffe67d72a12abb","216.120.189.168","Mozilla/5.0 (Windows NT 10.0; Win64; x64) AppleWebKit/537.36 (KHTML, like Gecko) Chrome/138.0.0.0 Safari/537.36","WebKit","Chrome","138.0.0.0","Windows","10.0","https://app.prolific.com/","en-US,en;q=0.9","674eae0026291e33be89b46f","683dba9a53627eb9ab41b36a","688a81874f8673f9fb535cab","0","674eae0026291e33be89b46f","0","2025-07-30T20:43:27.006Z","","","","MotivationQ","","","","","","","","","","","50","","","","","","","","","","","","","","","","","","","","","","","","","","",""
"","","","","ctl-task-cpt","43","513089","0.0-7.0-0.6","104","1","2025-07-30 20:33:32","36c45c0696341be0efffe67d72a12abb","216.120.189.168","Mozilla/5.0 (Windows NT 10.0; Win64; x64) AppleWebKit/537.36 (KHTML, like Gecko) Chrome/138.0.0.0 Safari/537.36","WebKit","Chrome","138.0.0.0","Windows","10.0","https://app.prolific.com/","en-US,en;q=0.9","674eae0026291e33be89b46f","683dba9a53627eb9ab41b36a","688a81874f8673f9fb535cab","0","674eae0026291e33be89b46f","0","2025-07-30T20:43:52.326Z","","","","","","","","","","","","","","","","win-only","2","g1:SE,g2:NW","0.4","7","0","493376.7","1390.5","6392.7","22305.1","1","4","8","6","1","-1","-1","0","1","0","1998.4","3000","-2820","[""down"",""right""]","{""num_key_presses"":4,""num_perfect"":2,""num_errors"":0,""num_randdir"":2,""num_randdir_good_moves"":0,""num_whilered"":0,""num_whileblue"":0,""num_blue"":0,""num_good_moves"":2}","[292.22232142857143,289.12857142857143,1.2,292.22232142857143,289.12857142857143,103.2,292.22232142857143,289.12857142857143,205.2,292.22232142857143,289.12857142857143,305.5,292.22232142857143,289.12857142857143,406.5,292.22232142857143,289.12857142857143,517,292.22232142857143,289.12857142857143,619.9,292.22232142857143,289.12857142857143,720,292.22232142857143,289.12857142857143,826,392.22232142857143,402.12857142857143,929.7,406.22232142857143,424.12857142857143,1036.4,402.22232142857143,422.12857142857143,1140.1,402.22232142857143,422.12857142857143,1240.1,402.22232142857143,422.12857142857143,1340.3,512.2223214285714,497.12857142857143,1451.3,544.2223214285714,541.1285714285714,1555.6,548.2223214285714,543.1285714285714,1661.6,549.2223214285714,545.1285714285714,1763,549.2223214285714,545.1285714285714,1866.8,549.2223214285714,545.1285714285714,1967.6,549.2223214285714,545.1285714285714,2069.7,549.2223214285714,545.1285714285714,2170,549.2223214285714,545.1285714285714,2271,549.2223214285714,545.1285714285714,2374.9,549.2223214285714,545.1285714285714,2475.2,549.2223214285714,545.1285714285714,2575.3,549.2223214285714,545.1285714285714,2676.1,549.2223214285714,545.1285714285714,2784.2,549.2223214285714,545.1285714285714,2885.6,549.2223214285714,545.1285714285714,2985.9,549.2223214285714,545.1285714285714,3089.7,549.2223214285714,545.1285714285714,3190,549.2223214285714,545.1285714285714,3298.5,549.2223214285714,545.1285714285714,3400.3,549.2223214285714,545.1285714285714,3501.5,549.2223214285714,545.1285714285714,3602.5,549.2223214285714,545.1285714285714,3704.8,549.2223214285714,545.1285714285714,3806,549.2223214285714,545.1285714285714,3909.9,549.2223214285714,545.1285714285714,4019.9,549.2223214285714,545.1285714285714,4120.2,549.2223214285714,545.1285714285714,4228.7,549.2223214285714,545.1285714285714,4330.5,549.2223214285714,545.1285714285714,4435.2,549.2223214285714,545.1285714285714,4539.8,549.2223214285714,545.1285714285714,4641.3,549.2223214285714,545.1285714285714,4748.4,549.2223214285714,545.1285714285714,4850.3,549.2223214285714,545.1285714285714,4950.3]","[2107.7,2107.8,1000,0,1107.8,""smooth"",""down"",""down"",""good_move"",5695.8,3585.6,3240.5,2110.2,345.1,""oops"",""down"",""left"",""bad_move"",8831.3,3135.1,2788,5696.2,347.1,""smooth"",""down"",""down"",""good_move"",12210.7,3379.3,3030.9,8831.4,348.4,""oops"",""right"",""left"",""bad_move""]"
"16564","","<div style=""width:500px;"">
  <p>What determined the result of this run?</p>
  </div>","62","html-slider-response","44","529657","0.0-7.0-1.6","104","1","2025-07-30 20:33:32","36c45c0696341be0efffe67d72a12abb","216.120.189.168","Mozilla/5.0 (Windows NT 10.0; Win64; x64) AppleWebKit/537.36 (KHTML, like Gecko) Chrome/138.0.0.0 Safari/537.36","WebKit","Chrome","138.0.0.0","Windows","10.0","https://app.prolific.com/","en-US,en;q=0.9","674eae0026291e33be89b46f","683dba9a53627eb9ab41b36a","688a81874f8673f9fb535cab","0","674eae0026291e33be89b46f","0","2025-07-30T20:44:08.894Z","","","","AttribQ","","","","","","","","","","","50","","","","","","","","","","","","","","","","","","","","","","","","","","",""
"2652","","<div style=""width:500px;"">
  <p>How much control did you have over the ball?</p>
  </div>","38","html-slider-response","45","532311","0.0-7.0-2.6","104","1","2025-07-30 20:33:32","36c45c0696341be0efffe67d72a12abb","216.120.189.168","Mozilla/5.0 (Windows NT 10.0; Win64; x64) AppleWebKit/537.36 (KHTML, like Gecko) Chrome/138.0.0.0 Safari/537.36","WebKit","Chrome","138.0.0.0","Windows","10.0","https://app.prolific.com/","en-US,en;q=0.9","674eae0026291e33be89b46f","683dba9a53627eb9ab41b36a","688a81874f8673f9fb535cab","0","674eae0026291e33be89b46f","0","2025-07-30T20:44:11.548Z","","","","ControlQ","","","","","","","","","","","50","","","","","","","","","","","","","","","","","","","","","","","","","","",""
"2496","","<div style=""width:500px;"">
  <p>How would you describe your current emotional state?</p>
  </div>","63","html-slider-response","46","534808","0.0-7.0-3.6","104","1","2025-07-30 20:33:32","36c45c0696341be0efffe67d72a12abb","216.120.189.168","Mozilla/5.0 (Windows NT 10.0; Win64; x64) AppleWebKit/537.36 (KHTML, like Gecko) Chrome/138.0.0.0 Safari/537.36","WebKit","Chrome","138.0.0.0","Windows","10.0","https://app.prolific.com/","en-US,en;q=0.9","674eae0026291e33be89b46f","683dba9a53627eb9ab41b36a","688a81874f8673f9fb535cab","0","674eae0026291e33be89b46f","0","2025-07-30T20:44:14.045Z","","","","StressQ","","","","","","","","","","","50","","","","","","","","","","","","","","","","","","","","","","","","","","",""
"2866","","<div style=""width:500px;"">
  <p>What best describes how you currently feel?</p>
  </div>","61","html-slider-response","47","537675","0.0-7.0-4.6","104","1","2025-07-30 20:33:32","36c45c0696341be0efffe67d72a12abb","216.120.189.168","Mozilla/5.0 (Windows NT 10.0; Win64; x64) AppleWebKit/537.36 (KHTML, like Gecko) Chrome/138.0.0.0 Safari/537.36","WebKit","Chrome","138.0.0.0","Windows","10.0","https://app.prolific.com/","en-US,en;q=0.9","674eae0026291e33be89b46f","683dba9a53627eb9ab41b36a","688a81874f8673f9fb535cab","0","674eae0026291e33be89b46f","0","2025-07-30T20:44:16.912Z","","","","MotivationQ","","","","","","","","","","","50","","","","","","","","","","","","","","","","","","","","","","","","","","",""
"","","","","ctl-task-cpt","48","578227","0.0-7.0-0.7","104","1","2025-07-30 20:33:32","36c45c0696341be0efffe67d72a12abb","216.120.189.168","Mozilla/5.0 (Windows NT 10.0; Win64; x64) AppleWebKit/537.36 (KHTML, like Gecko) Chrome/138.0.0.0 Safari/537.36","WebKit","Chrome","138.0.0.0","Windows","10.0","https://app.prolific.com/","en-US,en;q=0.9","674eae0026291e33be89b46f","683dba9a53627eb9ab41b36a","688a81874f8673f9fb535cab","0","674eae0026291e33be89b46f","0","2025-07-30T20:44:57.464Z","","","","","","","","","","","","","","","","win-only","0","g1:NW,g2:SE","0.3","8","0","543285.6","1164","6166.2","37530.7","1","4","4","6","1","-1","-1","0","0","0","2063.3","3000","-2465","[""left"",""up""]","{""num_key_presses"":7,""num_perfect"":3,""num_errors"":0,""num_randdir"":4,""num_randdir_good_moves"":1,""num_whilered"":0,""num_whileblue"":0,""num_blue"":2,""num_good_moves"":4}","[298.22232142857143,299.12857142857143,0.2,298.22232142857143,299.12857142857143,100.7,298.22232142857143,299.12857142857143,203,298.22232142857143,299.12857142857143,314.6,298.22232142857143,299.12857142857143,415.3,298.22232142857143,299.12857142857143,518.1,317.22232142857143,331.12857142857143,622.1,394.22232142857143,479.12857142857143,731.3,394.22232142857143,482.12857142857143,836.8,394.22232142857143,482.12857142857143,937.1,385.22232142857143,473.12857142857143,1038.5,231.22232142857143,241.12857142857143,1144.5,229.22232142857143,235.12857142857143,1247,229.22232142857143,235.12857142857143,1348.8,161.22232142857143,147.12857142857143,1453.3,115.22232142857143,96.12857142857143,1565,85.22232142857143,75.12857142857143,1668.3,70.22232142857143,67.12857142857143,1772.1,70.22232142857143,67.12857142857143,1877,70.22232142857143,67.12857142857143,1980.9,70.22232142857143,67.12857142857143,2081,70.22232142857143,67.12857142857143,2181.4,70.22232142857143,67.12857142857143,2281.9,70.22232142857143,67.12857142857143,2386.4,70.22232142857143,67.12857142857143,2486.4,70.22232142857143,67.12857142857143,2587.2,70.22232142857143,67.12857142857143,2699.9,70.22232142857143,67.12857142857143,2802.1,70.22232142857143,67.12857142857143,2907.5,70.22232142857143,67.12857142857143,3017.3,70.22232142857143,67.12857142857143,3120.2,70.22232142857143,67.12857142857143,3221.8,70.22232142857143,67.12857142857143,3331.6,70.22232142857143,67.12857142857143,3431.7,70.22232142857143,67.12857142857143,3537.4,70.22232142857143,67.12857142857143,3648.7,70.22232142857143,67.12857142857143,3749,70.22232142857143,67.12857142857143,3849.3,70.22232142857143,67.12857142857143,3951.7,70.22232142857143,67.12857142857143,4051.7,70.22232142857143,67.12857142857143,4152.7,70.22232142857143,67.12857142857143,4256.8,70.22232142857143,67.12857142857143,4364.2,70.22232142857143,67.12857142857143,4467,70.22232142857143,67.12857142857143,4568.1,70.22232142857143,67.12857142857143,4672,70.22232142857143,67.12857142857143,4777.8,70.22232142857143,67.12857142857143,4879,70.22232142857143,67.12857142857143,4982.1]","[1394.3,1394.3,1000,0,394.3,""oops"",""left"",""down"",""bad_move"",4601.6,3207.1,2853.9,1394.6,353.2,""smooth"",""up"",""up"",""good_move"",7098.7,2496.8,2099.7,4601.9,397.1,""oops"",""up"",""down"",""bad_move"",10711.6,3612.6,3227.2,7099,385.4,""smooth"",""up"",""up"",""good_move"",12984,2272.2,1854.1,10711.8,418.1,""smooth"",""up"",""up"",""good_move"",20347.8,7363.6,3432.5,16500.6,414.7,""oops"",""up"",""left"",""good_move"",28030,7682,3140.5,24459.4,430.1,""oops"",""up"",""right"",""bad_move""]"
"2564","","<div style=""width:500px;"">
  <p>What determined the result of this run?</p>
  </div>","42","html-slider-response","49","580792","0.0-7.0-1.7","104","1","2025-07-30 20:33:32","36c45c0696341be0efffe67d72a12abb","216.120.189.168","Mozilla/5.0 (Windows NT 10.0; Win64; x64) AppleWebKit/537.36 (KHTML, like Gecko) Chrome/138.0.0.0 Safari/537.36","WebKit","Chrome","138.0.0.0","Windows","10.0","https://app.prolific.com/","en-US,en;q=0.9","674eae0026291e33be89b46f","683dba9a53627eb9ab41b36a","688a81874f8673f9fb535cab","0","674eae0026291e33be89b46f","0","2025-07-30T20:45:00.029Z","","","","AttribQ","","","","","","","","","","","50","","","","","","","","","","","","","","","","","","","","","","","","","","",""
"2832","","<div style=""width:500px;"">
  <p>How much control did you have over the ball?</p>
  </div>","38","html-slider-response","50","583627","0.0-7.0-2.7","104","1","2025-07-30 20:33:32","36c45c0696341be0efffe67d72a12abb","216.120.189.168","Mozilla/5.0 (Windows NT 10.0; Win64; x64) AppleWebKit/537.36 (KHTML, like Gecko) Chrome/138.0.0.0 Safari/537.36","WebKit","Chrome","138.0.0.0","Windows","10.0","https://app.prolific.com/","en-US,en;q=0.9","674eae0026291e33be89b46f","683dba9a53627eb9ab41b36a","688a81874f8673f9fb535cab","0","674eae0026291e33be89b46f","0","2025-07-30T20:45:02.864Z","","","","ControlQ","","","","","","","","","","","50","","","","","","","","","","","","","","","","","","","","","","","","","","",""
"2412","","<div style=""width:500px;"">
  <p>How would you describe your current emotional state?</p>
  </div>","38","html-slider-response","51","586040","0.0-7.0-3.7","104","1","2025-07-30 20:33:32","36c45c0696341be0efffe67d72a12abb","216.120.189.168","Mozilla/5.0 (Windows NT 10.0; Win64; x64) AppleWebKit/537.36 (KHTML, like Gecko) Chrome/138.0.0.0 Safari/537.36","WebKit","Chrome","138.0.0.0","Windows","10.0","https://app.prolific.com/","en-US,en;q=0.9","674eae0026291e33be89b46f","683dba9a53627eb9ab41b36a","688a81874f8673f9fb535cab","0","674eae0026291e33be89b46f","0","2025-07-30T20:45:05.277Z","","","","StressQ","","","","","","","","","","","50","","","","","","","","","","","","","","","","","","","","","","","","","","",""
"2335","","<div style=""width:500px;"">
  <p>What best describes how you currently feel?</p>
  </div>","34","html-slider-response","52","588375","0.0-7.0-4.7","104","1","2025-07-30 20:33:32","36c45c0696341be0efffe67d72a12abb","216.120.189.168","Mozilla/5.0 (Windows NT 10.0; Win64; x64) AppleWebKit/537.36 (KHTML, like Gecko) Chrome/138.0.0.0 Safari/537.36","WebKit","Chrome","138.0.0.0","Windows","10.0","https://app.prolific.com/","en-US,en;q=0.9","674eae0026291e33be89b46f","683dba9a53627eb9ab41b36a","688a81874f8673f9fb535cab","0","674eae0026291e33be89b46f","0","2025-07-30T20:45:07.612Z","","","","MotivationQ","","","","","","","","","","","50","","","","","","","","","","","","","","","","","","","","","","","","","","",""
"","","","","ctl-task-cpt","53","607358","0.0-7.0-0.8","104","1","2025-07-30 20:33:32","36c45c0696341be0efffe67d72a12abb","216.120.189.168","Mozilla/5.0 (Windows NT 10.0; Win64; x64) AppleWebKit/537.36 (KHTML, like Gecko) Chrome/138.0.0.0 Safari/537.36","WebKit","Chrome","138.0.0.0","Windows","10.0","https://app.prolific.com/","en-US,en;q=0.9","674eae0026291e33be89b46f","683dba9a53627eb9ab41b36a","688a81874f8673f9fb535cab","0","674eae0026291e33be89b46f","0","2025-07-30T20:45:26.595Z","","","","","","","","","","","","","","","","win-only","0","g1:NW,g2:SE","0.4","9","0","593985.3","2208.9","7210.3","15961.4","1","4","4","6","1","1","1","1","0","0.007575757575757576","1565","3000","1755","[""left"",""up""]","{""num_key_presses"":4,""num_perfect"":3,""num_errors"":0,""num_randdir"":1,""num_randdir_good_moves"":1,""num_whilered"":0,""num_whileblue"":0,""num_blue"":0,""num_good_moves"":4}","[297.22232142857143,299.12857142857143,0.3,297.22232142857143,299.12857142857143,102.3,297.22232142857143,299.12857142857143,203.3,297.22232142857143,299.12857142857143,304.3,297.22232142857143,299.12857142857143,406.6,297.22232142857143,299.12857142857143,515.4,272.22232142857143,285.12857142857143,620.7,174.22232142857143,164.12857142857143,723.3,170.22232142857143,159.12857142857143,834.3,170.22232142857143,159.12857142857143,937.8,157.22232142857143,152.12857142857143,1050.9,59.222321428571426,58.128571428571426,1152.2,43.222321428571426,39.128571428571426,1257.2,43.222321428571426,39.128571428571426,1368.1,43.222321428571426,39.128571428571426,1469.6,43.222321428571426,39.128571428571426,1571.7,43.222321428571426,39.128571428571426,1671.7,43.222321428571426,39.128571428571426,1776.3,43.222321428571426,39.128571428571426,1878.4,43.222321428571426,39.128571428571426,1981.4,43.222321428571426,39.128571428571426,2085,43.222321428571426,39.128571428571426,2186.5,43.222321428571426,39.128571428571426,2287.2,49.222321428571426,42.128571428571426,2391.7,149.22232142857143,146.12857142857143,2491.7,177.22232142857143,194.12857142857143,2600.7,177.22232142857143,194.12857142857143,2702.1,177.22232142857143,194.12857142857143,2807.7,177.22232142857143,194.12857142857143,2913.1,177.22232142857143,194.12857142857143,3013.9,177.22232142857143,194.12857142857143,3117.6,177.22232142857143,194.12857142857143,3221.5,177.22232142857143,194.12857142857143,3322.4,177.22232142857143,194.12857142857143,3433.7,181.22232142857143,194.12857142857143,3533.7,264.22232142857143,273.12857142857143,3635.9,318.22232142857143,367.12857142857143,3736.4,312.22232142857143,359.12857142857143,3836.9,244.22232142857143,270.12857142857143,3941.2,226.22232142857143,250.12857142857143,4041.3,226.22232142857143,250.12857142857143,4149.2,226.22232142857143,250.12857142857143,4253.7,226.22232142857143,250.12857142857143,4356.4,226.22232142857143,250.12857142857143,4456.5,226.22232142857143,250.12857142857143,4556.7,226.22232142857143,250.12857142857143,4656.7,226.22232142857143,250.12857142857143,4758.1,226.22232142857143,250.12857142857143,4866.9,226.22232142857143,250.12857142857143,4967.7]","[1380,1380.1,1000,0,380.1,""smooth"",""up"",""up"",""good_move"",3856.7,2476.2,2095.1,1380.5,381.1,""smooth"",""left"",""left"",""good_move"",6206.8,2349.8,1958.7,3857,391.1,""smooth"",""up"",""up"",""good_move"",8646.7,2439.7,2024.2,6207,415.5,""oops"",""left"",""left"",""good_move""]"
"2503","","<div style=""width:500px;"">
  <p>What determined the result of this run?</p>
  </div>","35","html-slider-response","54","609862","0.0-7.0-1.8","104","1","2025-07-30 20:33:32","36c45c0696341be0efffe67d72a12abb","216.120.189.168","Mozilla/5.0 (Windows NT 10.0; Win64; x64) AppleWebKit/537.36 (KHTML, like Gecko) Chrome/138.0.0.0 Safari/537.36","WebKit","Chrome","138.0.0.0","Windows","10.0","https://app.prolific.com/","en-US,en;q=0.9","674eae0026291e33be89b46f","683dba9a53627eb9ab41b36a","688a81874f8673f9fb535cab","0","674eae0026291e33be89b46f","0","2025-07-30T20:45:29.099Z","","","","AttribQ","","","","","","","","","","","50","","","","","","","","","","","","","","","","","","","","","","","","","","",""
"2265","","<div style=""width:500px;"">
  <p>How much control did you have over the ball?</p>
  </div>","36","html-slider-response","55","612128","0.0-7.0-2.8","104","1","2025-07-30 20:33:32","36c45c0696341be0efffe67d72a12abb","216.120.189.168","Mozilla/5.0 (Windows NT 10.0; Win64; x64) AppleWebKit/537.36 (KHTML, like Gecko) Chrome/138.0.0.0 Safari/537.36","WebKit","Chrome","138.0.0.0","Windows","10.0","https://app.prolific.com/","en-US,en;q=0.9","674eae0026291e33be89b46f","683dba9a53627eb9ab41b36a","688a81874f8673f9fb535cab","0","674eae0026291e33be89b46f","0","2025-07-30T20:45:31.365Z","","","","ControlQ","","","","","","","","","","","50","","","","","","","","","","","","","","","","","","","","","","","","","","",""
"2489","","<div style=""width:500px;"">
  <p>How would you describe your current emotional state?</p>
  </div>","40","html-slider-response","56","614617","0.0-7.0-3.8","104","1","2025-07-30 20:33:32","36c45c0696341be0efffe67d72a12abb","216.120.189.168","Mozilla/5.0 (Windows NT 10.0; Win64; x64) AppleWebKit/537.36 (KHTML, like Gecko) Chrome/138.0.0.0 Safari/537.36","WebKit","Chrome","138.0.0.0","Windows","10.0","https://app.prolific.com/","en-US,en;q=0.9","674eae0026291e33be89b46f","683dba9a53627eb9ab41b36a","688a81874f8673f9fb535cab","0","674eae0026291e33be89b46f","0","2025-07-30T20:45:33.855Z","","","","StressQ","","","","","","","","","","","50","","","","","","","","","","","","","","","","","","","","","","","","","","",""
"2356","","<div style=""width:500px;"">
  <p>What best describes how you currently feel?</p>
  </div>","36","html-slider-response","57","616974","0.0-7.0-4.8","104","1","2025-07-30 20:33:32","36c45c0696341be0efffe67d72a12abb","216.120.189.168","Mozilla/5.0 (Windows NT 10.0; Win64; x64) AppleWebKit/537.36 (KHTML, like Gecko) Chrome/138.0.0.0 Safari/537.36","WebKit","Chrome","138.0.0.0","Windows","10.0","https://app.prolific.com/","en-US,en;q=0.9","674eae0026291e33be89b46f","683dba9a53627eb9ab41b36a","688a81874f8673f9fb535cab","0","674eae0026291e33be89b46f","0","2025-07-30T20:45:36.211Z","","","","MotivationQ","","","","","","","","","","","50","","","","","","","","","","","","","","","","","","","","","","","","","","",""
"","","","","ctl-task-cpt","58","641937","0.0-7.0-0.9","104","1","2025-07-30 20:33:32","36c45c0696341be0efffe67d72a12abb","216.120.189.168","Mozilla/5.0 (Windows NT 10.0; Win64; x64) AppleWebKit/537.36 (KHTML, like Gecko) Chrome/138.0.0.0 Safari/537.36","WebKit","Chrome","138.0.0.0","Windows","10.0","https://app.prolific.com/","en-US,en;q=0.9","674eae0026291e33be89b46f","683dba9a53627eb9ab41b36a","688a81874f8673f9fb535cab","0","674eae0026291e33be89b46f","0","2025-07-30T20:46:01.174Z","","","","","","","","","","","","","","","","win-only","3","g1:SW,g2:NE","0.5","10","0","622582.1","1218.4","6226.3","21948.3","1","4","8","6","1","1","1","2","1","0.015151515151515152","1890.7","3000","1260","[""down"",""left""]","{""num_key_presses"":6,""num_perfect"":3,""num_errors"":0,""num_randdir"":3,""num_randdir_good_moves"":2,""num_whilered"":0,""num_whileblue"":0,""num_blue"":0,""num_good_moves"":5}","[295.22232142857143,296.12857142857143,0.2,295.22232142857143,296.12857142857143,105.8,295.22232142857143,296.12857142857143,205.9,295.22232142857143,296.12857142857143,308.6,295.22232142857143,296.12857142857143,414.4,295.22232142857143,296.12857142857143,515.4,298.22232142857143,298.12857142857143,618.3,356.22232142857143,364.12857142857143,725.4,378.22232142857143,406.12857142857143,828.5,195.22232142857143,426.12857142857143,931.3,125.22232142857143,429.12857142857143,1033.5,113.22232142857143,433.12857142857143,1133.5,113.22232142857143,433.12857142857143,1243.8,101.22232142857143,451.12857142857143,1344.9,84.22232142857143,483.12857142857143,1446.2,78.22232142857143,501.12857142857143,1547.7,77.22232142857143,503.12857142857143,1647.7,77.22232142857143,503.12857142857143,1749.3,77.22232142857143,503.12857142857143,1856.3,77.22232142857143,503.12857142857143,1960.2,77.22232142857143,503.12857142857143,2065.8,77.22232142857143,503.12857142857143,2177.8,77.22232142857143,503.12857142857143,2278.3,77.22232142857143,503.12857142857143,2380.1,77.22232142857143,503.12857142857143,2482.1,77.22232142857143,503.12857142857143,2582.6,77.22232142857143,503.12857142857143,2683.3,77.22232142857143,503.12857142857143,2790.6,77.22232142857143,503.12857142857143,2893,77.22232142857143,503.12857142857143,2996.8,77.22232142857143,503.12857142857143,3097.3,77.22232142857143,503.12857142857143,3207.7,77.22232142857143,503.12857142857143,3309.9,77.22232142857143,503.12857142857143,3411.5,77.22232142857143,503.12857142857143,3512.1,77.22232142857143,503.12857142857143,3617,77.22232142857143,503.12857142857143,3717.6,77.22232142857143,503.12857142857143,3831.7,77.22232142857143,503.12857142857143,3931.8,77.22232142857143,503.12857142857143,4036.3,77.22232142857143,503.12857142857143,4141.2,77.22232142857143,503.12857142857143,4244.4,77.22232142857143,503.12857142857143,4345.4,77.22232142857143,503.12857142857143,4447,77.22232142857143,503.12857142857143,4547,77.22232142857143,503.12857142857143,4648.5,77.22232142857143,503.12857142857143,4753.9,77.22232142857143,503.12857142857143,4857.8,77.22232142857143,503.12857142857143,4959.4]","[1438.8,1438.9,1000,0,438.9,""oops"",""down"",""down"",""good_move"",4171.6,2732.4,2314.9,1439.3,417.4,""smooth"",""left"",""left"",""good_move"",6185.7,2013.7,1625.1,4172,388.6,""smooth"",""down"",""down"",""good_move"",9050.4,2864.5,2480.1,6185.9,384.4,""oops"",""left"",""right"",""bad_move"",11908.8,2857.9,2478.7,9051,379.1,""smooth"",""left"",""left"",""good_move"",15615.1,3705.8,3316.1,11909.3,389.7,""oops"",""left"",""left"",""good_move""]"
"2506","","<div style=""width:500px;"">
  <p>What determined the result of this run?</p>
  </div>","37","html-slider-response","59","644445","0.0-7.0-1.9","104","1","2025-07-30 20:33:32","36c45c0696341be0efffe67d72a12abb","216.120.189.168","Mozilla/5.0 (Windows NT 10.0; Win64; x64) AppleWebKit/537.36 (KHTML, like Gecko) Chrome/138.0.0.0 Safari/537.36","WebKit","Chrome","138.0.0.0","Windows","10.0","https://app.prolific.com/","en-US,en;q=0.9","674eae0026291e33be89b46f","683dba9a53627eb9ab41b36a","688a81874f8673f9fb535cab","0","674eae0026291e33be89b46f","0","2025-07-30T20:46:03.683Z","","","","AttribQ","","","","","","","","","","","50","","","","","","","","","","","","","","","","","","","","","","","","","","",""
"3743","","<div style=""width:500px;"">
  <p>How much control did you have over the ball?</p>
  </div>","44","html-slider-response","60","648190","0.0-7.0-2.9","104","1","2025-07-30 20:33:32","36c45c0696341be0efffe67d72a12abb","216.120.189.168","Mozilla/5.0 (Windows NT 10.0; Win64; x64) AppleWebKit/537.36 (KHTML, like Gecko) Chrome/138.0.0.0 Safari/537.36","WebKit","Chrome","138.0.0.0","Windows","10.0","https://app.prolific.com/","en-US,en;q=0.9","674eae0026291e33be89b46f","683dba9a53627eb9ab41b36a","688a81874f8673f9fb535cab","0","674eae0026291e33be89b46f","0","2025-07-30T20:46:07.427Z","","","","ControlQ","","","","","","","","","","","50","","","","","","","","","","","","","","","","","","","","","","","","","","",""
"3157","","<div style=""width:500px;"">
  <p>How would you describe your current emotional state?</p>
  </div>","54","html-slider-response","61","651349","0.0-7.0-3.9","104","1","2025-07-30 20:33:32","36c45c0696341be0efffe67d72a12abb","216.120.189.168","Mozilla/5.0 (Windows NT 10.0; Win64; x64) AppleWebKit/537.36 (KHTML, like Gecko) Chrome/138.0.0.0 Safari/537.36","WebKit","Chrome","138.0.0.0","Windows","10.0","https://app.prolific.com/","en-US,en;q=0.9","674eae0026291e33be89b46f","683dba9a53627eb9ab41b36a","688a81874f8673f9fb535cab","0","674eae0026291e33be89b46f","0","2025-07-30T20:46:10.586Z","","","","StressQ","","","","","","","","","","","50","","","","","","","","","","","","","","","","","","","","","","","","","","",""
"3053","","<div style=""width:500px;"">
  <p>What best describes how you currently feel?</p>
  </div>","41","html-slider-response","62","654403","0.0-7.0-4.9","104","1","2025-07-30 20:33:32","36c45c0696341be0efffe67d72a12abb","216.120.189.168","Mozilla/5.0 (Windows NT 10.0; Win64; x64) AppleWebKit/537.36 (KHTML, like Gecko) Chrome/138.0.0.0 Safari/537.36","WebKit","Chrome","138.0.0.0","Windows","10.0","https://app.prolific.com/","en-US,en;q=0.9","674eae0026291e33be89b46f","683dba9a53627eb9ab41b36a","688a81874f8673f9fb535cab","0","674eae0026291e33be89b46f","0","2025-07-30T20:46:13.640Z","","","","MotivationQ","","","","","","","","","","","50","","","","","","","","","","","","","","","","","","","","","","","","","","",""
"","","","","ctl-task-cpt","63","681002","0.0-7.0-0.10","104","1","2025-07-30 20:33:32","36c45c0696341be0efffe67d72a12abb","216.120.189.168","Mozilla/5.0 (Windows NT 10.0; Win64; x64) AppleWebKit/537.36 (KHTML, like Gecko) Chrome/138.0.0.0 Safari/537.36","WebKit","Chrome","138.0.0.0","Windows","10.0","https://app.prolific.com/","en-US,en;q=0.9","674eae0026291e33be89b46f","683dba9a53627eb9ab41b36a","688a81874f8673f9fb535cab","0","674eae0026291e33be89b46f","0","2025-07-30T20:46:40.239Z","","","","","","","","","","","","","","","","win-only","0","g1:NW,g2:SE","0.6","11","0","660010.7","1205.2","6206.8","23580.8","1","4","8","6","1","1","0","2","2","0.015151515151515152","1643.9","3000","1565","[""left"",""up""]","{""num_key_presses"":6,""num_perfect"":3,""num_errors"":1,""num_randdir"":2,""num_randdir_good_moves"":1,""num_whilered"":0,""num_whileblue"":1,""num_blue"":2,""num_good_moves"":5}","[291.22232142857143,298.12857142857143,0.3,291.22232142857143,298.12857142857143,106.3,291.22232142857143,298.12857142857143,209.6,291.22232142857143,298.12857142857143,311.7,291.22232142857143,298.12857142857143,415.1,291.22232142857143,298.12857142857143,515.4,291.22232142857143,298.12857142857143,622.3,312.22232142857143,355.12857142857143,733.3,170.22232142857143,213.12857142857143,845,108.22232142857143,97.12857142857143,946.9,108.22232142857143,97.12857142857143,1053.5,108.22232142857143,97.12857142857143,1159.1,80.22232142857143,68.12857142857143,1262.6,63.222321428571426,49.128571428571426,1367.8,63.222321428571426,49.128571428571426,1472.8,63.222321428571426,49.128571428571426,1574.3,63.222321428571426,49.128571428571426,1676.2,63.222321428571426,49.128571428571426,1786.8,63.222321428571426,49.128571428571426,1888.1,63.222321428571426,49.128571428571426,1988.5,63.222321428571426,49.128571428571426,2092.9,63.222321428571426,49.128571428571426,2195.1,63.222321428571426,49.128571428571426,2295.6,63.222321428571426,49.128571428571426,2399.5,63.222321428571426,49.128571428571426,2508.1,63.222321428571426,49.128571428571426,2610.6,63.222321428571426,49.128571428571426,2711.3,63.222321428571426,49.128571428571426,2812.3,63.222321428571426,49.128571428571426,2914.6,63.222321428571426,49.128571428571426,3023.4,63.222321428571426,49.128571428571426,3126,63.222321428571426,49.128571428571426,3227.1,63.222321428571426,49.128571428571426,3329.9,63.222321428571426,49.128571428571426,3431.9,63.222321428571426,49.128571428571426,3537.3,63.222321428571426,49.128571428571426,3642.4,63.222321428571426,49.128571428571426,3742.6,63.222321428571426,49.128571428571426,3845.1,63.222321428571426,49.128571428571426,3947.3,63.222321428571426,49.128571428571426,4051.3,63.222321428571426,49.128571428571426,4154.2,63.222321428571426,49.128571428571426,4256.7,63.222321428571426,49.128571428571426,4357.2,63.222321428571426,49.128571428571426,4458,63.222321428571426,49.128571428571426,4559,63.222321428571426,49.128571428571426,4660,63.222321428571426,49.128571428571426,4760.8,63.222321428571426,49.128571428571426,4861.9,63.222321428571426,49.128571428571426,4961.9]","[1414.7,1414.7,1000,0,414.7,""smooth"",""up"",""up"",""good_move"",3692.6,2276.6,1966.8,1416.1,309.8,""smooth"",""left"",""left"",""good_move"",6555.4,2862.4,2563.9,3693,298.5,""while_blue"",""left"",""up"",""good_move"",8629.6,2072.6,1720.3,6557,352.3,""oops"",""left"",""down"",""bad_move"",14500.3,5870.3,2467.1,11721,312.2,""smooth"",""up"",""up"",""good_move"",17264.9,2764.2,2418.2,14500.7,346,""oops"",""left"",""left"",""good_move""]"
"4231","","<div style=""width:500px;"">
  <p>What determined the result of this run?</p>
  </div>","35","html-slider-response","64","685234","0.0-7.0-1.10","104","1","2025-07-30 20:33:32","36c45c0696341be0efffe67d72a12abb","216.120.189.168","Mozilla/5.0 (Windows NT 10.0; Win64; x64) AppleWebKit/537.36 (KHTML, like Gecko) Chrome/138.0.0.0 Safari/537.36","WebKit","Chrome","138.0.0.0","Windows","10.0","https://app.prolific.com/","en-US,en;q=0.9","674eae0026291e33be89b46f","683dba9a53627eb9ab41b36a","688a81874f8673f9fb535cab","0","674eae0026291e33be89b46f","0","2025-07-30T20:46:44.471Z","","","","AttribQ","","","","","","","","","","","50","","","","","","","","","","","","","","","","","","","","","","","","","","",""
"2440","","<div style=""width:500px;"">
  <p>How much control did you have over the ball?</p>
  </div>","39","html-slider-response","65","687677","0.0-7.0-2.10","104","1","2025-07-30 20:33:32","36c45c0696341be0efffe67d72a12abb","216.120.189.168","Mozilla/5.0 (Windows NT 10.0; Win64; x64) AppleWebKit/537.36 (KHTML, like Gecko) Chrome/138.0.0.0 Safari/537.36","WebKit","Chrome","138.0.0.0","Windows","10.0","https://app.prolific.com/","en-US,en;q=0.9","674eae0026291e33be89b46f","683dba9a53627eb9ab41b36a","688a81874f8673f9fb535cab","0","674eae0026291e33be89b46f","0","2025-07-30T20:46:46.914Z","","","","ControlQ","","","","","","","","","","","50","","","","","","","","","","","","","","","","","","","","","","","","","","",""
"3689","","<div style=""width:500px;"">
  <p>How would you describe your current emotional state?</p>
  </div>","39","html-slider-response","66","691370","0.0-7.0-3.10","104","1","2025-07-30 20:33:32","36c45c0696341be0efffe67d72a12abb","216.120.189.168","Mozilla/5.0 (Windows NT 10.0; Win64; x64) AppleWebKit/537.36 (KHTML, like Gecko) Chrome/138.0.0.0 Safari/537.36","WebKit","Chrome","138.0.0.0","Windows","10.0","https://app.prolific.com/","en-US,en;q=0.9","674eae0026291e33be89b46f","683dba9a53627eb9ab41b36a","688a81874f8673f9fb535cab","0","674eae0026291e33be89b46f","0","2025-07-30T20:46:50.607Z","","","","StressQ","","","","","","","","","","","50","","","","","","","","","","","","","","","","","","","","","","","","","","",""
"2395","","<div style=""width:500px;"">
  <p>What best describes how you currently feel?</p>
  </div>","39","html-slider-response","67","693766","0.0-7.0-4.10","104","1","2025-07-30 20:33:32","36c45c0696341be0efffe67d72a12abb","216.120.189.168","Mozilla/5.0 (Windows NT 10.0; Win64; x64) AppleWebKit/537.36 (KHTML, like Gecko) Chrome/138.0.0.0 Safari/537.36","WebKit","Chrome","138.0.0.0","Windows","10.0","https://app.prolific.com/","en-US,en;q=0.9","674eae0026291e33be89b46f","683dba9a53627eb9ab41b36a","688a81874f8673f9fb535cab","0","674eae0026291e33be89b46f","0","2025-07-30T20:46:53.003Z","","","","MotivationQ","","","","","","","","","","","50","","","","","","","","","","","","","","","","","","","","","","","","","","",""
"","","","","ctl-task-cpt","68","714635","0.0-7.0-0.11","104","1","2025-07-30 20:33:32","36c45c0696341be0efffe67d72a12abb","216.120.189.168","Mozilla/5.0 (Windows NT 10.0; Win64; x64) AppleWebKit/537.36 (KHTML, like Gecko) Chrome/138.0.0.0 Safari/537.36","WebKit","Chrome","138.0.0.0","Windows","10.0","https://app.prolific.com/","en-US,en;q=0.9","674eae0026291e33be89b46f","683dba9a53627eb9ab41b36a","688a81874f8673f9fb535cab","0","674eae0026291e33be89b46f","0","2025-07-30T20:47:13.872Z","","","","","","","","","","","","","","","","win-only","0","g1:NW,g2:SE","0.7","12","0","699374.7","1312.1","6314.3","17851.5","1","4","4","6","1","1","1","3","2","0.022727272727272728","1864.7","3000","665","[""left"",""up""]","{""num_key_presses"":4,""num_perfect"":4,""num_errors"":0,""num_randdir"":0,""num_randdir_good_moves"":0,""num_whilered"":0,""num_whileblue"":0,""num_blue"":0,""num_good_moves"":4}","[293.22232142857143,296.12857142857143,0.2,293.22232142857143,296.12857142857143,104.8,293.22232142857143,296.12857142857143,209,293.22232142857143,296.12857142857143,310,293.22232142857143,296.12857142857143,415.9,293.22232142857143,296.12857142857143,518.6,293.22232142857143,296.12857142857143,622,305.22232142857143,314.12857142857143,722.5,344.22232142857143,369.12857142857143,825.6,193.22232142857143,178.12857142857143,932.9,187.22232142857143,171.12857142857143,1036,187.22232142857143,171.12857142857143,1139.7,159.22232142857143,154.12857142857143,1240,56.222321428571426,83.12857142857143,1346,48.222321428571426,50.128571428571426,1456.1,48.222321428571426,36.128571428571426,1559.7,48.222321428571426,36.128571428571426,1660.1,48.222321428571426,36.128571428571426,1769.1,48.222321428571426,36.128571428571426,1876.2,48.222321428571426,36.128571428571426,1976.3,48.222321428571426,36.128571428571426,2085.9,48.222321428571426,36.128571428571426,2188.7,48.222321428571426,36.128571428571426,2289,48.222321428571426,36.128571428571426,2389.6,48.222321428571426,36.128571428571426,2494.2,48.222321428571426,36.128571428571426,2602.5,48.222321428571426,36.128571428571426,2703.7,48.222321428571426,36.128571428571426,2807.5,48.222321428571426,36.128571428571426,2912.2,48.222321428571426,36.128571428571426,3019.1,48.222321428571426,36.128571428571426,3122.3,48.222321428571426,36.128571428571426,3225.4,48.222321428571426,36.128571428571426,3333.6,48.222321428571426,36.128571428571426,3434.2,48.222321428571426,36.128571428571426,3534.7,48.222321428571426,36.128571428571426,3638.6,48.222321428571426,36.128571428571426,3739,48.222321428571426,36.128571428571426,3839.8,48.222321428571426,36.128571428571426,3946,48.222321428571426,36.128571428571426,4048.7,48.222321428571426,36.128571428571426,4149.5,48.222321428571426,36.128571428571426,4250.2,48.222321428571426,36.128571428571426,4351.4,48.222321428571426,36.128571428571426,4455.8,48.222321428571426,36.128571428571426,4559.5,48.222321428571426,36.128571428571426,4667.3,48.222321428571426,36.128571428571426,4768.2,48.222321428571426,36.128571428571426,4871.8,48.222321428571426,36.128571428571426,4974.3]","[2903.1,2903.1,1000,0,1903.1,""smooth"",""up"",""up"",""good_move"",6236.4,3332.7,2886.4,2903.7,446.3,""smooth"",""up"",""up"",""good_move"",8449.7,2213.1,1933,6236.6,280.1,""smooth"",""left"",""left"",""good_move"",11431.4,2980.2,2653.8,8451.2,326.4,""smooth"",""left"",""left"",""good_move""]"
"2393","","<div style=""width:500px;"">
  <p>What determined the result of this run?</p>
  </div>","42","html-slider-response","69","717029","0.0-7.0-1.11","104","1","2025-07-30 20:33:32","36c45c0696341be0efffe67d72a12abb","216.120.189.168","Mozilla/5.0 (Windows NT 10.0; Win64; x64) AppleWebKit/537.36 (KHTML, like Gecko) Chrome/138.0.0.0 Safari/537.36","WebKit","Chrome","138.0.0.0","Windows","10.0","https://app.prolific.com/","en-US,en;q=0.9","674eae0026291e33be89b46f","683dba9a53627eb9ab41b36a","688a81874f8673f9fb535cab","0","674eae0026291e33be89b46f","0","2025-07-30T20:47:16.267Z","","","","AttribQ","","","","","","","","","","","50","","","","","","","","","","","","","","","","","","","","","","","","","","",""
"3537","","<div style=""width:500px;"">
  <p>How much control did you have over the ball?</p>
  </div>","58","html-slider-response","70","720568","0.0-7.0-2.11","104","1","2025-07-30 20:33:32","36c45c0696341be0efffe67d72a12abb","216.120.189.168","Mozilla/5.0 (Windows NT 10.0; Win64; x64) AppleWebKit/537.36 (KHTML, like Gecko) Chrome/138.0.0.0 Safari/537.36","WebKit","Chrome","138.0.0.0","Windows","10.0","https://app.prolific.com/","en-US,en;q=0.9","674eae0026291e33be89b46f","683dba9a53627eb9ab41b36a","688a81874f8673f9fb535cab","0","674eae0026291e33be89b46f","0","2025-07-30T20:47:19.805Z","","","","ControlQ","","","","","","","","","","","50","","","","","","","","","","","","","","","","","","","","","","","","","","",""
"4082","","<div style=""width:500px;"">
  <p>How would you describe your current emotional state?</p>
  </div>","45","html-slider-response","71","724652","0.0-7.0-3.11","104","1","2025-07-30 20:33:32","36c45c0696341be0efffe67d72a12abb","216.120.189.168","Mozilla/5.0 (Windows NT 10.0; Win64; x64) AppleWebKit/537.36 (KHTML, like Gecko) Chrome/138.0.0.0 Safari/537.36","WebKit","Chrome","138.0.0.0","Windows","10.0","https://app.prolific.com/","en-US,en;q=0.9","674eae0026291e33be89b46f","683dba9a53627eb9ab41b36a","688a81874f8673f9fb535cab","0","674eae0026291e33be89b46f","0","2025-07-30T20:47:23.890Z","","","","StressQ","","","","","","","","","","","50","","","","","","","","","","","","","","","","","","","","","","","","","","",""
"2477","","<div style=""width:500px;"">
  <p>What best describes how you currently feel?</p>
  </div>","43","html-slider-response","72","727132","0.0-7.0-4.11","104","1","2025-07-30 20:33:32","36c45c0696341be0efffe67d72a12abb","216.120.189.168","Mozilla/5.0 (Windows NT 10.0; Win64; x64) AppleWebKit/537.36 (KHTML, like Gecko) Chrome/138.0.0.0 Safari/537.36","WebKit","Chrome","138.0.0.0","Windows","10.0","https://app.prolific.com/","en-US,en;q=0.9","674eae0026291e33be89b46f","683dba9a53627eb9ab41b36a","688a81874f8673f9fb535cab","0","674eae0026291e33be89b46f","0","2025-07-30T20:47:26.369Z","","","","MotivationQ","","","","","","","","","","","50","","","","","","","","","","","","","","","","","","","","","","","","","","",""
"","","","","ctl-task-cpt","73","745263","0.0-7.0-0.12","104","1","2025-07-30 20:33:32","36c45c0696341be0efffe67d72a12abb","216.120.189.168","Mozilla/5.0 (Windows NT 10.0; Win64; x64) AppleWebKit/537.36 (KHTML, like Gecko) Chrome/138.0.0.0 Safari/537.36","WebKit","Chrome","138.0.0.0","Windows","10.0","https://app.prolific.com/","en-US,en;q=0.9","674eae0026291e33be89b46f","683dba9a53627eb9ab41b36a","688a81874f8673f9fb535cab","0","674eae0026291e33be89b46f","0","2025-07-30T20:47:44.500Z","","","","","","","","","","","","","","","","win-only","2","g1:SE,g2:NW","0.8","13","0","732740.4","1618.2","6630.2","15108","1","4","4","6","1","1","1","4","3","0.030303030303030304","1923","3000","1870","[""down"",""right""]","{""num_key_presses"":4,""num_perfect"":3,""num_errors"":0,""num_randdir"":1,""num_randdir_good_moves"":1,""num_whilered"":0,""num_whileblue"":0,""num_blue"":0,""num_good_moves"":4}","[297.22232142857143,300.12857142857143,0.2,297.22232142857143,300.12857142857143,102.2,297.22232142857143,300.12857142857143,205.1,297.22232142857143,300.12857142857143,314.6,297.22232142857143,300.12857142857143,419.1,297.22232142857143,300.12857142857143,530.9,317.22232142857143,307.12857142857143,632.9,388.22232142857143,366.12857142857143,733.7,395.22232142857143,375.12857142857143,840.8,384.22232142857143,368.12857142857143,948,386.22232142857143,367.12857142857143,1054.7,493.22232142857143,476.12857142857143,1154.8,520.2223214285714,518.1285714285714,1269,520.2223214285714,518.1285714285714,1377.4,535.2223214285714,524.1285714285714,1481.2,548.2223214285714,538.1285714285714,1582.4,549.2223214285714,539.1285714285714,1683.8,549.2223214285714,539.1285714285714,1788.7,549.2223214285714,539.1285714285714,1896,549.2223214285714,539.1285714285714,1996.5,549.2223214285714,539.1285714285714,2096.9,549.2223214285714,539.1285714285714,2197.4,549.2223214285714,539.1285714285714,2300.7,549.2223214285714,539.1285714285714,2406.3,549.2223214285714,539.1285714285714,2507.4,549.2223214285714,539.1285714285714,2611.2,549.2223214285714,539.1285714285714,2715,549.2223214285714,539.1285714285714,2817,549.2223214285714,539.1285714285714,2917.6,549.2223214285714,539.1285714285714,3023.3,549.2223214285714,539.1285714285714,3127,549.2223214285714,539.1285714285714,3229.2,549.2223214285714,539.1285714285714,3332.2,549.2223214285714,539.1285714285714,3437.6,549.2223214285714,539.1285714285714,3540.8,549.2223214285714,539.1285714285714,3641.4,549.2223214285714,539.1285714285714,3742.2,549.2223214285714,539.1285714285714,3845.6,549.2223214285714,539.1285714285714,3947,549.2223214285714,539.1285714285714,4052.4,549.2223214285714,539.1285714285714,4155.1,549.2223214285714,539.1285714285714,4265.1,549.2223214285714,539.1285714285714,4367.1,549.2223214285714,539.1285714285714,4467.7,549.2223214285714,539.1285714285714,4568.3,549.2223214285714,539.1285714285714,4676.9,549.2223214285714,539.1285714285714,4777.5,549.2223214285714,539.1285714285714,4882.3,549.2223214285714,539.1285714285714,4991.2]","[1413.6,1413.6,1000,0,413.6,""smooth"",""down"",""down"",""good_move"",3201.7,1787.7,1367.6,1414,420.1,""smooth"",""down"",""down"",""good_move"",5204.3,2002.5,1651,3201.8,351.5,""smooth"",""right"",""right"",""good_move"",8365.3,3160.3,2775.7,5205,384.6,""oops"",""right"",""right"",""good_move""]"
"4290","","<div style=""width:500px;"">
  <p>What determined the result of this run?</p>
  </div>","40","html-slider-response","74","749555","0.0-7.0-1.12","104","1","2025-07-30 20:33:32","36c45c0696341be0efffe67d72a12abb","216.120.189.168","Mozilla/5.0 (Windows NT 10.0; Win64; x64) AppleWebKit/537.36 (KHTML, like Gecko) Chrome/138.0.0.0 Safari/537.36","WebKit","Chrome","138.0.0.0","Windows","10.0","https://app.prolific.com/","en-US,en;q=0.9","674eae0026291e33be89b46f","683dba9a53627eb9ab41b36a","688a81874f8673f9fb535cab","0","674eae0026291e33be89b46f","0","2025-07-30T20:47:48.792Z","","","","AttribQ","","","","","","","","","","","50","","","","","","","","","","","","","","","","","","","","","","","","","","",""
"3013","","<div style=""width:500px;"">
  <p>How much control did you have over the ball?</p>
  </div>","62","html-slider-response","75","752571","0.0-7.0-2.12","104","1","2025-07-30 20:33:32","36c45c0696341be0efffe67d72a12abb","216.120.189.168","Mozilla/5.0 (Windows NT 10.0; Win64; x64) AppleWebKit/537.36 (KHTML, like Gecko) Chrome/138.0.0.0 Safari/537.36","WebKit","Chrome","138.0.0.0","Windows","10.0","https://app.prolific.com/","en-US,en;q=0.9","674eae0026291e33be89b46f","683dba9a53627eb9ab41b36a","688a81874f8673f9fb535cab","0","674eae0026291e33be89b46f","0","2025-07-30T20:47:51.808Z","","","","ControlQ","","","","","","","","","","","50","","","","","","","","","","","","","","","","","","","","","","","","","","",""
"2541","","<div style=""width:500px;"">
  <p>How would you describe your current emotional state?</p>
  </div>","41","html-slider-response","76","755113","0.0-7.0-3.12","104","1","2025-07-30 20:33:32","36c45c0696341be0efffe67d72a12abb","216.120.189.168","Mozilla/5.0 (Windows NT 10.0; Win64; x64) AppleWebKit/537.36 (KHTML, like Gecko) Chrome/138.0.0.0 Safari/537.36","WebKit","Chrome","138.0.0.0","Windows","10.0","https://app.prolific.com/","en-US,en;q=0.9","674eae0026291e33be89b46f","683dba9a53627eb9ab41b36a","688a81874f8673f9fb535cab","0","674eae0026291e33be89b46f","0","2025-07-30T20:47:54.350Z","","","","StressQ","","","","","","","","","","","50","","","","","","","","","","","","","","","","","","","","","","","","","","",""
"2546","","<div style=""width:500px;"">
  <p>What best describes how you currently feel?</p>
  </div>","58","html-slider-response","77","757662","0.0-7.0-4.12","104","1","2025-07-30 20:33:32","36c45c0696341be0efffe67d72a12abb","216.120.189.168","Mozilla/5.0 (Windows NT 10.0; Win64; x64) AppleWebKit/537.36 (KHTML, like Gecko) Chrome/138.0.0.0 Safari/537.36","WebKit","Chrome","138.0.0.0","Windows","10.0","https://app.prolific.com/","en-US,en;q=0.9","674eae0026291e33be89b46f","683dba9a53627eb9ab41b36a","688a81874f8673f9fb535cab","0","674eae0026291e33be89b46f","0","2025-07-30T20:47:56.899Z","","","","MotivationQ","","","","","","","","","","","50","","","","","","","","","","","","","","","","","","","","","","","","","","",""
"","","","","ctl-task-cpt","78","781023","0.0-7.0-0.13","104","1","2025-07-30 20:33:32","36c45c0696341be0efffe67d72a12abb","216.120.189.168","Mozilla/5.0 (Windows NT 10.0; Win64; x64) AppleWebKit/537.36 (KHTML, like Gecko) Chrome/138.0.0.0 Safari/537.36","WebKit","Chrome","138.0.0.0","Windows","10.0","https://app.prolific.com/","en-US,en;q=0.9","674eae0026291e33be89b46f","683dba9a53627eb9ab41b36a","688a81874f8673f9fb535cab","0","674eae0026291e33be89b46f","0","2025-07-30T20:48:20.260Z","","","","","","","","","","","","","","","","win-only","1","g1:NE,g2:SW","0.9","14","0","763270.2","1343.4","6349.3","20347.7","1","4","8","6","1","1","1","5","4","0.03787878787878788","2025.5","3000","1915","[""up"",""right""]","{""num_key_presses"":4,""num_perfect"":4,""num_errors"":0,""num_randdir"":0,""num_randdir_good_moves"":0,""num_whilered"":0,""num_whileblue"":0,""num_blue"":1,""num_good_moves"":4}","[300.22232142857143,298.12857142857143,0.2,300.22232142857143,298.12857142857143,102,300.22232142857143,298.12857142857143,206.3,300.22232142857143,298.12857142857143,307.2,300.22232142857143,298.12857142857143,412.2,300.22232142857143,298.12857142857143,528.2,300.22232142857143,298.12857142857143,633.8,287.22232142857143,314.12857142857143,739.6,208.22232142857143,413.12857142857143,841.1,190.22232142857143,425.12857142857143,943.6,255.22232142857143,319.12857142857143,1052.7,324.22232142857143,260.12857142857143,1157.1,324.22232142857143,260.12857142857143,1258.1,344.22232142857143,242.12857142857143,1358.4,497.22232142857143,106.12857142857143,1460.9,514.2223214285714,85.12857142857143,1562.8,516.2223214285714,81.12857142857143,1664,516.2223214285714,81.12857142857143,1767.5,516.2223214285714,81.12857142857143,1875.2,516.2223214285714,81.12857142857143,1978,516.2223214285714,81.12857142857143,2078.5,516.2223214285714,81.12857142857143,2186.7,516.2223214285714,81.12857142857143,2290.5,516.2223214285714,81.12857142857143,2391.3,516.2223214285714,81.12857142857143,2492.6,516.2223214285714,81.12857142857143,2600.3,516.2223214285714,81.12857142857143,2702.4,516.2223214285714,81.12857142857143,2808.3,516.2223214285714,81.12857142857143,2908.4,516.2223214285714,81.12857142857143,3015.5,516.2223214285714,81.12857142857143,3115.5,516.2223214285714,81.12857142857143,3220.1,516.2223214285714,81.12857142857143,3323.1,516.2223214285714,81.12857142857143,3426.9,516.2223214285714,81.12857142857143,3537.9,516.2223214285714,81.12857142857143,3648.9,516.2223214285714,81.12857142857143,3753.6,516.2223214285714,81.12857142857143,3858.4,516.2223214285714,81.12857142857143,3967,516.2223214285714,81.12857142857143,4074.5,516.2223214285714,81.12857142857143,4177,516.2223214285714,81.12857142857143,4277.5,516.2223214285714,81.12857142857143,4380.2,516.2223214285714,81.12857142857143,4490.7,516.2223214285714,81.12857142857143,4591.9,516.2223214285714,81.12857142857143,4700.1,516.2223214285714,81.12857142857143,4804.9,516.2223214285714,81.12857142857143,4917]","[1569,1569,1000,0,569,""smooth"",""up"",""up"",""good_move"",4412.6,2843.2,2482.6,1569.4,360.6,""smooth"",""up"",""up"",""good_move"",6731.7,2318.5,1965.8,4413.2,352.7,""smooth"",""right"",""right"",""good_move"",13855.1,7123,2454.5,10916.5,484.1,""smooth"",""right"",""right"",""good_move""]"
"2829","","<div style=""width:500px;"">
  <p>What determined the result of this run?</p>
