"rt","response_timestamp","stimulus","response","trial_type","trial_index","time_elapsed","internal_node_id","run_id","condition","recorded_at","source_code_version","ip","user_agent","device","browser","browser_version","platform","platform_version","referer","accept_language","PROLIFIC_PID","STUDY_ID","SESSION_ID","BATCH","prolific_id","batch","realtime","success","question_order","question_id","eventType","responses","item_order","radio_event_ids","radio_event_times","key_event_times","mouse_event_times","straightlining","zigzagging","honeypot","view_history","slider_start","which_type","canvas_config","goals_layout","control_level","trial_number","tutorial_trial_number","trial_start_time","phase1_start_time","phase2_start_time","phase3_start_time","goal_1_value","goal_1_distance","goal_2_value","goal_2_distance","goal_selected","outcome","outcome_total","participant_final_score","participant_initial_score","participant_final_score_prop","goal_choice_rt","allocated_time","allocated_time_remaining","goal_direction","counts","mouse_movements","key_presses"
"20863","1753966938745","<p style='font-size:40px;line-height:1.25'><strong>Welcome to the experiment!</strong></p><p style='font-size:1.1em;line-height:1.25'>Thank you for participanting in our experiment again! You will be asked to play the Dysfunctional Ball Game again. We will briefly recap the rules before we start.</p><p style='font-size:1.1em;line-height:1.25'>Press <strong>Next</strong> to continue.</p>","0","custom-html-button-response","0","20864","0.0-0.0","111","1","2025-07-31 13:01:56","36c45c0696341be0efffe67d72a12abb","217.42.208.88","Mozilla/5.0 (Macintosh; Intel Mac OS X 10_15_7) AppleWebKit/537.36 (KHTML, like Gecko) Chrome/137.0.0.0 Safari/537.36","Macintosh","Chrome","137.0.0.0","OS X","10_15_7","https://app.prolific.com/","en-GB,en-US;q=0.9,en;q=0.8","6760580745ecb73102f83f3d","683dba9a53627eb9ab41b36a","688b693890a51d351c1f8c18","0","6760580745ecb73102f83f3d","0","2025-07-31T13:02:18.746Z","","","","","","","","","","","","","","","","","","","","","","","","","","","","","","","","","","","","","","","","","",""
"10274","","","","fullscreen","1","32140","0.0-1.0","111","1","2025-07-31 13:01:56","36c45c0696341be0efffe67d72a12abb","217.42.208.88","Mozilla/5.0 (Macintosh; Intel Mac OS X 10_15_7) AppleWebKit/537.36 (KHTML, like Gecko) Chrome/137.0.0.0 Safari/537.36","Macintosh","Chrome","137.0.0.0","OS X","10_15_7","https://app.prolific.com/","en-GB,en-US;q=0.9,en;q=0.8","6760580745ecb73102f83f3d","683dba9a53627eb9ab41b36a","688b693890a51d351c1f8c18","0","6760580745ecb73102f83f3d","0","","true","","","","","","","","","","","","","","","","","","","","","","","","","","","","","","","","","","","","","","","","",""
"1973","1753966951996"," <p style='font-size:1.1em;line-height:1.25'>Thank you for closing all other tabs.</p><p style='font-size:1.1em;line-height:1.25'>We will now invite you to fill in some questionnaires, before starting the game.<br>This will take about 5 minutes.<br></p><p style='font-size:1.1em;line-height:1.25'>Press the <strong>Next</strong> button to continue.</p>","0","custom-html-button-response","2","34115","0.0-2.0","111","1","2025-07-31 13:01:56","36c45c0696341be0efffe67d72a12abb","217.42.208.88","Mozilla/5.0 (Macintosh; Intel Mac OS X 10_15_7) AppleWebKit/537.36 (KHTML, like Gecko) Chrome/137.0.0.0 Safari/537.36","Macintosh","Chrome","137.0.0.0","OS X","10_15_7","https://app.prolific.com/","en-GB,en-US;q=0.9,en;q=0.8","6760580745ecb73102f83f3d","683dba9a53627eb9ab41b36a","688b693890a51d351c1f8c18","0","6760580745ecb73102f83f3d","0","2025-07-31T13:02:31.997Z","","","","","","","","","","","","","","","","","","","","","","","","","","","","","","","","","","","","","","","","","",""
"2798","","","{""assigned_sex"":""female""}","survey-multi-choice","3","36914","0.0-3.0-0.0","111","1","2025-07-31 13:01:56","36c45c0696341be0efffe67d72a12abb","217.42.208.88","Mozilla/5.0 (Macintosh; Intel Mac OS X 10_15_7) AppleWebKit/537.36 (KHTML, like Gecko) Chrome/137.0.0.0 Safari/537.36","Macintosh","Chrome","137.0.0.0","OS X","10_15_7","https://app.prolific.com/","en-GB,en-US;q=0.9,en;q=0.8","6760580745ecb73102f83f3d","683dba9a53627eb9ab41b36a","688b693890a51d351c1f8c18","0","6760580745ecb73102f83f3d","0","","","[0]","0","demographics","","","","","","","","","","","","","","","","","","","","","","","","","","","","","","","","","","","","","",""
"5234","1753966960030","<p style='font-size:1.1em;line-height:1.25'>In the following, we will perform a baseline assessment. This means that we will ask you a few questions relating to your experiences over the past month.<br></p><p style='font-size:1.1em;line-height:1.25'>Press the <strong>Next</strong> button to continue.</p>","0","custom-html-button-response","4","42149","0.0-4.0-0.0","111","1","2025-07-31 13:01:56","36c45c0696341be0efffe67d72a12abb","217.42.208.88","Mozilla/5.0 (Macintosh; Intel Mac OS X 10_15_7) AppleWebKit/537.36 (KHTML, like Gecko) Chrome/137.0.0.0 Safari/537.36","Macintosh","Chrome","137.0.0.0","OS X","10_15_7","https://app.prolific.com/","en-GB,en-US;q=0.9,en;q=0.8","6760580745ecb73102f83f3d","683dba9a53627eb9ab41b36a","688b693890a51d351c1f8c18","0","6760580745ecb73102f83f3d","0","2025-07-31T13:02:40.031Z","","","","","","","","","","","","","","","","","","","","","","","","","","","","","","","","","","","","","","","","","",""
"27837","","","","survey-template","5","69988","0.0-4.0-1.0","111","1","2025-07-31 13:01:56","36c45c0696341be0efffe67d72a12abb","217.42.208.88","Mozilla/5.0 (Macintosh; Intel Mac OS X 10_15_7) AppleWebKit/537.36 (KHTML, like Gecko) Chrome/137.0.0.0 Safari/537.36","Macintosh","Chrome","137.0.0.0","OS X","10_15_7","https://app.prolific.com/","en-GB,en-US;q=0.9,en;q=0.8","6760580745ecb73102f83f3d","683dba9a53627eb9ab41b36a","688b693890a51d351c1f8c18","0","6760580745ecb73102f83f3d","0","2025-07-31T13:03:07.870Z","","","","pss","{""Q01"":""2"",""Q02"":""2"",""Q03"":""2"",""Q04"":""2"",""Q05"":""2"",""Q06"":""2"",""Q07"":""1"",""Q08"":""2"",""Q09"":""1"",""Q10"":""2""}","[0,1,2,3,4,5,6,7,8,9]","[""Q01"",""Q02"",""Q03"",""Q04"",""Q05"",""Q06"",""Q07"",""Q08"",""Q09"",""Q10"",""Q10""]","[3206.5,5612.200000047684,7679.200000047684,11244.700000047684,13436.399999976158,17458,19711.700000047684,23206.899999976158,24086.200000047684,25570.5,27008.700000047684]","[]","[0.10000002384185791,3206.5,5612.200000047684,7679.200000047684,9462.200000047684,11244.700000047684,12143.700000047684,13436.399999976158,17458,19711.700000047684,21300.300000071526,23206.899999976158,24086.200000047684,25570.5,26416.300000071526,27008.700000047684,27835.5]","0.8","0.4444444444444444","0","","","","","","","","","","","","","","","","","","","","","","","","","","","","",""
"1890","1753966989760","<p style='font-size:1.1em;line-height:1.25'>Thank you for your answers! Now we will ask you a few more questions relating to your feelings in the last 24 hours.<br></p><p style='font-size:1.1em;line-height:1.25'>Press the <strong>Next</strong> button to continue.</p>","0","custom-html-button-response","6","71879","0.0-4.0-2.0","111","1","2025-07-31 13:01:56","36c45c0696341be0efffe67d72a12abb","217.42.208.88","Mozilla/5.0 (Macintosh; Intel Mac OS X 10_15_7) AppleWebKit/537.36 (KHTML, like Gecko) Chrome/137.0.0.0 Safari/537.36","Macintosh","Chrome","137.0.0.0","OS X","10_15_7","https://app.prolific.com/","en-GB,en-US;q=0.9,en;q=0.8","6760580745ecb73102f83f3d","683dba9a53627eb9ab41b36a","688b693890a51d351c1f8c18","0","6760580745ecb73102f83f3d","0","2025-07-31T13:03:09.761Z","","","","","","","","","","","","","","","","","","","","","","","","","","","","","","","","","","","","","","","","","",""
"65525.200000047684","","","","survey-template","7","137407","0.0-4.0-3.0","111","1","2025-07-31 13:01:56","36c45c0696341be0efffe67d72a12abb","217.42.208.88","Mozilla/5.0 (Macintosh; Intel Mac OS X 10_15_7) AppleWebKit/537.36 (KHTML, like Gecko) Chrome/137.0.0.0 Safari/537.36","Macintosh","Chrome","137.0.0.0","OS X","10_15_7","https://app.prolific.com/","en-GB,en-US;q=0.9,en;q=0.8","6760580745ecb73102f83f3d","683dba9a53627eb9ab41b36a","688b693890a51d351c1f8c18","0","6760580745ecb73102f83f3d","0","2025-07-31T13:04:15.289Z","","","","drsp","{""Q01"":""1"",""Q02"":""1"",""Q03"":""0"",""Q04"":""3"",""Q05"":""2"",""Q06"":""2"",""Q07"":""2"",""Q08"":""1"",""Q09"":""1"",""Q10"":""1"",""Q11"":""2"",""Q12"":""1"",""Q13"":""5"",""Q14"":""1"",""Q15"":""2"",""Q16"":""3"",""Q17"":""3"",""Q18"":""2"",""Q19"":""3"",""Q20"":""2"",""Q21"":""3"",""Q22"":""1""}","[0,1,2,3,4,5,6,7,8,9,10,11,12,13,14,15,16,17,18,19,20,21]","[""Q01"",""Q02"",""Q03"",""Q04"",""Q05"",""Q06"",""Q07"",""Q08"",""Q09"",""Q10"",""Q11"",""Q12"",""Q13"",""Q14"",""Q15"",""Q16"",""Q17"",""Q18"",""Q19"",""Q20"",""Q21"",""Q22""]","[1993.7999999523163,3593.7000000476837,5369,6212.299999952316,24257.700000047684,25290.600000023842,26171.100000023842,27518.399999976158,30356.600000023842,31629.200000047684,32544.299999952316,36009.700000047684,37401.60000002384,42576,43626.5,46728.299999952316,47998.299999952316,49614,59102.5,60157,62924.60000002384,64583.89999997616]","[]","[0.20000004768371582,1993.7999999523163,2804.600000023842,3593.7000000476837,4629.5,5369,6212.299999952316,24257.700000047684,25290.600000023842,26171.100000023842,27518.399999976158,30356.600000023842,31629.200000047684,32544.299999952316,33956.89999997616,36009.700000047684,36926.89999997616,37401.60000002384,42576,43626.5,44961.10000002384,45944.39999997616,46728.299999952316,47998.299999952316,49614,59102.5,60157,61504.10000002384,62924.60000002384,63839.200000047684,64583.89999997616,65521.700000047684]","0.36363636363636365","0.5238095238095238","0","","","","","","","","","","","","","","","","","","","","","","","","","","","","",""
"6120.799999952316","","","","survey-template","8","143529","0.0-4.0-4.0","111","1","2025-07-31 13:01:56","36c45c0696341be0efffe67d72a12abb","217.42.208.88","Mozilla/5.0 (Macintosh; Intel Mac OS X 10_15_7) AppleWebKit/537.36 (KHTML, like Gecko) Chrome/137.0.0.0 Safari/537.36","Macintosh","Chrome","137.0.0.0","OS X","10_15_7","https://app.prolific.com/","en-GB,en-US;q=0.9,en;q=0.8","6760580745ecb73102f83f3d","683dba9a53627eb9ab41b36a","688b693890a51d351c1f8c18","0","6760580745ecb73102f83f3d","0","2025-07-31T13:04:21.411Z","","","","stress","{""Q01"":""3"",""Q02"":""3"",""Q03"":""2""}","[0,1,2]","[""Q01"",""Q02"",""Q03""]","[2734.899999976158,4402.299999952316,5082.299999952316]","[]","[1932.2999999523163,2734.899999976158,3687.1999999284744,4402.299999952316,5082.299999952316,6120.199999928474]","0.6666666666666666","0.5","0","","","","","","","","","","","","","","","","","","","","","","","","","","","","",""
"2912","","","","instructions","9","146441","0.0-5.0-0.0","111","1","2025-07-31 13:01:56","36c45c0696341be0efffe67d72a12abb","217.42.208.88","Mozilla/5.0 (Macintosh; Intel Mac OS X 10_15_7) AppleWebKit/537.36 (KHTML, like Gecko) Chrome/137.0.0.0 Safari/537.36","Macintosh","Chrome","137.0.0.0","OS X","10_15_7","https://app.prolific.com/","en-GB,en-US;q=0.9,en;q=0.8","6760580745ecb73102f83f3d","683dba9a53627eb9ab41b36a","688b693890a51d351c1f8c18","0","6760580745ecb73102f83f3d","0","","","","","","","","","","","","","","","[{""page_index"":0,""viewing_time"":2912}]","","","","","","","","","","","","","","","","","","","","","","","","","","","",""
"18958","","<p>Before you start with this game please answer the following three questions yourself. </p>
  <p>Through this game, we measure several aspects of your cognitive performance, such as reaction times, multi-tasking capabilities </p>
  <p>and the ability to assess the situation you are in.</p>
  <p></p>
  <p><b>How good do you usually are in such tasks?</b></p>","68","html-slider-response","10","165401","0.0-6.0-0.0","111","1","2025-07-31 13:01:56","36c45c0696341be0efffe67d72a12abb","217.42.208.88","Mozilla/5.0 (Macintosh; Intel Mac OS X 10_15_7) AppleWebKit/537.36 (KHTML, like Gecko) Chrome/137.0.0.0 Safari/537.36","Macintosh","Chrome","137.0.0.0","OS X","10_15_7","https://app.prolific.com/","en-GB,en-US;q=0.9,en;q=0.8","6760580745ecb73102f83f3d","683dba9a53627eb9ab41b36a","688b693890a51d351c1f8c18","0","6760580745ecb73102f83f3d","0","2025-07-31T13:04:43.283Z","","","","PreSkillQ","","","","","","","","","","","50","","","","","","","","","","","","","","","","","","","","","","","","","","",""
"5566","","<div style=""width:500px;"">
  <p>How well do you think you will perform in this task compared to other participants?</p>
  </div>","58","html-slider-response","11","170968","0.0-6.0-1.0","111","1","2025-07-31 13:01:56","36c45c0696341be0efffe67d72a12abb","217.42.208.88","Mozilla/5.0 (Macintosh; Intel Mac OS X 10_15_7) AppleWebKit/537.36 (KHTML, like Gecko) Chrome/137.0.0.0 Safari/537.36","Macintosh","Chrome","137.0.0.0","OS X","10_15_7","https://app.prolific.com/","en-GB,en-US;q=0.9,en;q=0.8","6760580745ecb73102f83f3d","683dba9a53627eb9ab41b36a","688b693890a51d351c1f8c18","0","6760580745ecb73102f83f3d","0","2025-07-31T13:04:48.850Z","","","","PrePerfQ","","","","","","","","","","","50","","","","","","","","","","","","","","","","","","","","","","","","","","",""
"2817","","<div style=""width:500px;"">
  <p>What best describes how you currently feel?</p>
  </div>","27","html-slider-response","12","173786","0.0-6.0-2.0","111","1","2025-07-31 13:01:56","36c45c0696341be0efffe67d72a12abb","217.42.208.88","Mozilla/5.0 (Macintosh; Intel Mac OS X 10_15_7) AppleWebKit/537.36 (KHTML, like Gecko) Chrome/137.0.0.0 Safari/537.36","Macintosh","Chrome","137.0.0.0","OS X","10_15_7","https://app.prolific.com/","en-GB,en-US;q=0.9,en;q=0.8","6760580745ecb73102f83f3d","683dba9a53627eb9ab41b36a","688b693890a51d351c1f8c18","0","6760580745ecb73102f83f3d","0","2025-07-31T13:04:51.668Z","","","","PreMotivationQ","","","","","","","","","","","50","","","","","","","","","","","","","","","","","","","","","","","","","","",""
"","","","","ctl-task-cpt","13","212549","0.0-7.0-0.0","111","1","2025-07-31 13:01:56","36c45c0696341be0efffe67d72a12abb","217.42.208.88","Mozilla/5.0 (Macintosh; Intel Mac OS X 10_15_7) AppleWebKit/537.36 (KHTML, like Gecko) Chrome/137.0.0.0 Safari/537.36","Macintosh","Chrome","137.0.0.0","OS X","10_15_7","https://app.prolific.com/","en-GB,en-US;q=0.9,en;q=0.8","6760580745ecb73102f83f3d","683dba9a53627eb9ab41b36a","688b693890a51d351c1f8c18","0","6760580745ecb73102f83f3d","0","2025-07-31T13:05:30.431Z","","","","","","","","","","","","","","","","win-only","3","g1:SW,g2:NE","1","1","0","175900.4","1735.2","6736.2","35760.9","1","4","8","6","2","8","8","8","0","0.06060606060606061","1040.1","3000","900","[""up"",""right""]","{""num_key_presses"":6,""num_perfect"":6,""num_errors"":0,""num_randdir"":0,""num_randdir_good_moves"":0,""num_whilered"":0,""num_whileblue"":0,""num_blue"":4,""num_good_moves"":6}","[798,803.796875,0.2,798,803.796875,109.4,798,803.796875,211,798,803.796875,311,798,803.796875,420.5,948,587.796875,521.4,1356,223.796875,621.4,1356,223.796875,721.4,1356,219.796875,825.9,1356,219.796875,927.9,1388,173.796875,1041,1388,173.796875,1145.9,1388,173.796875,1256.1,1830,415.796875,1365.3,1974,473.796875,1475.3,1974,473.796875,1575.5,1974,473.796875,1690.6,1974,473.796875,1791.7,1974,473.796875,1901.2,1974,473.796875,2001.3,1974,473.796875,2112.4,1974,473.796875,2215.8,1974,473.796875,2316,1974,473.796875,2421.9,1974,473.796875,2524.7,1974,473.796875,2625.5,1974,473.796875,2727.4,1974,473.796875,2831.2,1974,473.796875,2935.7,1974,473.796875,3036.1,1974,473.796875,3136.1,1974,473.796875,3236.1,1974,473.796875,3336.1,1974,473.796875,3441.4,1974,473.796875,3542.3,1974,473.796875,3646,1974,473.796875,3746.4,1974,473.796875,3851.1,1974,473.796875,3957.5,1974,473.796875,4060.9,1974,473.796875,4166.2,1974,473.796875,4275.5,1974,473.796875,4381.3,1974,473.796875,4481.5,1974,473.796875,4586.4,1974,473.796875,4686.7,1974,473.796875,4792,1974,473.796875,4892.8,1974,473.796875,4995.9]","[1358.9,1358.8,1000,0.1,358.8,""smooth"",""up"",""up"",""good_move"",3860.7,2501.5,2107.5,1359.2,394,""smooth"",""up"",""up"",""good_move"",6749.8,2889,2533.2,3860.8,355.8,""smooth"",""up"",""up"",""good_move"",15744.4,8994.5,2453.4,12915.1,375.9,""smooth"",""right"",""right"",""good_move"",19149,3404.3,2958.4,15744.7,445.9,""smooth"",""right"",""right"",""good_move"",28896.8,9747.6,2255.9,26226.6,414.3,""smooth"",""right"",""right"",""good_move""]"
"4925","","<div style=""width:500px;"">
  <p>What determined the result of this run?</p>
  </div>","64","html-slider-response","14","217476","0.0-7.0-1.0","111","1","2025-07-31 13:01:56","36c45c0696341be0efffe67d72a12abb","217.42.208.88","Mozilla/5.0 (Macintosh; Intel Mac OS X 10_15_7) AppleWebKit/537.36 (KHTML, like Gecko) Chrome/137.0.0.0 Safari/537.36","Macintosh","Chrome","137.0.0.0","OS X","10_15_7","https://app.prolific.com/","en-GB,en-US;q=0.9,en;q=0.8","6760580745ecb73102f83f3d","683dba9a53627eb9ab41b36a","688b693890a51d351c1f8c18","0","6760580745ecb73102f83f3d","0","2025-07-31T13:05:35.358Z","","","","AttribQ","","","","","","","","","","","50","","","","","","","","","","","","","","","","","","","","","","","","","","",""
"3349","","<div style=""width:500px;"">
  <p>How much control did you have over the ball?</p>
  </div>","86","html-slider-response","15","220825","0.0-7.0-2.0","111","1","2025-07-31 13:01:56","36c45c0696341be0efffe67d72a12abb","217.42.208.88","Mozilla/5.0 (Macintosh; Intel Mac OS X 10_15_7) AppleWebKit/537.36 (KHTML, like Gecko) Chrome/137.0.0.0 Safari/537.36","Macintosh","Chrome","137.0.0.0","OS X","10_15_7","https://app.prolific.com/","en-GB,en-US;q=0.9,en;q=0.8","6760580745ecb73102f83f3d","683dba9a53627eb9ab41b36a","688b693890a51d351c1f8c18","0","6760580745ecb73102f83f3d","0","2025-07-31T13:05:38.708Z","","","","ControlQ","","","","","","","","","","","50","","","","","","","","","","","","","","","","","","","","","","","","","","",""
"2513","","<div style=""width:500px;"">
  <p>How would you describe your current emotional state?</p>
  </div>","40","html-slider-response","16","223340","0.0-7.0-3.0","111","1","2025-07-31 13:01:56","36c45c0696341be0efffe67d72a12abb","217.42.208.88","Mozilla/5.0 (Macintosh; Intel Mac OS X 10_15_7) AppleWebKit/537.36 (KHTML, like Gecko) Chrome/137.0.0.0 Safari/537.36","Macintosh","Chrome","137.0.0.0","OS X","10_15_7","https://app.prolific.com/","en-GB,en-US;q=0.9,en;q=0.8","6760580745ecb73102f83f3d","683dba9a53627eb9ab41b36a","688b693890a51d351c1f8c18","0","6760580745ecb73102f83f3d","0","2025-07-31T13:05:41.222Z","","","","StressQ","","","","","","","","","","","50","","","","","","","","","","","","","","","","","","","","","","","","","","",""
"2998","","<div style=""width:500px;"">
  <p>What best describes how you currently feel?</p>
  </div>","40","html-slider-response","17","226338","0.0-7.0-4.0","111","1","2025-07-31 13:01:56","36c45c0696341be0efffe67d72a12abb","217.42.208.88","Mozilla/5.0 (Macintosh; Intel Mac OS X 10_15_7) AppleWebKit/537.36 (KHTML, like Gecko) Chrome/137.0.0.0 Safari/537.36","Macintosh","Chrome","137.0.0.0","OS X","10_15_7","https://app.prolific.com/","en-GB,en-US;q=0.9,en;q=0.8","6760580745ecb73102f83f3d","683dba9a53627eb9ab41b36a","688b693890a51d351c1f8c18","0","6760580745ecb73102f83f3d","0","2025-07-31T13:05:44.220Z","","","","MotivationQ","","","","","","","","","","","50","","","","","","","","","","","","","","","","","","","","","","","","","","",""
"","","","","ctl-task-cpt","18","253966","0.0-7.0-0.1","111","1","2025-07-31 13:01:56","36c45c0696341be0efffe67d72a12abb","217.42.208.88","Mozilla/5.0 (Macintosh; Intel Mac OS X 10_15_7) AppleWebKit/537.36 (KHTML, like Gecko) Chrome/137.0.0.0 Safari/537.36","Macintosh","Chrome","137.0.0.0","OS X","10_15_7","https://app.prolific.com/","en-GB,en-US;q=0.9,en;q=0.8","6760580745ecb73102f83f3d","683dba9a53627eb9ab41b36a","688b693890a51d351c1f8c18","0","6760580745ecb73102f83f3d","0","2025-07-31T13:06:11.848Z","","","","","","","","","","","","","","","","win-only","0","g1:NW,g2:SE","0.9","2","0","228453.2","1148.5","6151.1","24624.7","1","4","4","6","2","4","4","12","8","0.09090909090909091","1333.9","3000","795","[""down"",""right""]","{""num_key_presses"":6,""num_perfect"":5,""num_errors"":0,""num_randdir"":1,""num_randdir_good_moves"":1,""num_whilered"":0,""num_whileblue"":0,""num_blue"":1,""num_good_moves"":6}","[802,811.796875,0.1,802,811.796875,102.8,802,811.796875,212.3,802,811.796875,312.8,802,811.796875,419,802,811.796875,523.2,820,839.796875,631.5,1126,1193.796875,732.7,1174,1289.796875,839.1,1174,1289.796875,939.2,1258,1307.796875,1039.2,1522,1485.796875,1142.5,1522,1485.796875,1243.1,1522,1485.796875,1347.3,1522,1485.796875,1449.3,1522,1485.796875,1553.3,1560,1369.796875,1654.7,1708,1103.796875,1757.2,1708,1103.796875,1857.9,1708,1103.796875,1958,1708,1103.796875,2059.2,1708,1103.796875,2166,1708,1103.796875,2269.3,1708,1103.796875,2372.6,1708,1103.796875,2473.3,1708,1103.796875,2576.8,1708,1103.796875,2679.3,1708,1103.796875,2788,1708,1103.796875,2888.1,1708,1103.796875,2989,1708,1103.796875,3091.7,1708,1103.796875,3191.8,1708,1103.796875,3291.9,1708,1103.796875,3392.1,1708,1103.796875,3493.6,1708,1103.796875,3594.1,1708,1103.796875,3695.7,1708,1103.796875,3796.9,1708,1103.796875,3897.2,1708,1103.796875,4002.9,1708,1103.796875,4110.6,1708,1103.796875,4214.7,1708,1103.796875,4317.2,1708,1103.796875,4417.8,1708,1103.796875,4518.2,1708,1103.796875,4619.1,1708,1103.796875,4722.4,1708,1103.796875,4828.4,1708,1103.796875,4929.8]","[1445.6,1445.6,1000,0,445.6,""smooth"",""right"",""right"",""good_move"",5026.9,3581.1,3153.3,1445.8,427.8,""smooth"",""right"",""right"",""good_move"",10832.4,5805.3,2139.3,8256.8,436.3,""oops"",""right"",""down"",""good_move"",13431.2,2598.2,2129.8,10833,468.4,""smooth"",""right"",""right"",""good_move"",16109.7,2678.3,2323.8,13431.4,354.5,""smooth"",""down"",""down"",""good_move"",18380,2270,1933.5,16110,336.5,""smooth"",""down"",""down"",""good_move""]"
"2837","","<div style=""width:500px;"">
  <p>What determined the result of this run?</p>
  </div>","71","html-slider-response","19","256805","0.0-7.0-1.1","111","1","2025-07-31 13:01:56","36c45c0696341be0efffe67d72a12abb","217.42.208.88","Mozilla/5.0 (Macintosh; Intel Mac OS X 10_15_7) AppleWebKit/537.36 (KHTML, like Gecko) Chrome/137.0.0.0 Safari/537.36","Macintosh","Chrome","137.0.0.0","OS X","10_15_7","https://app.prolific.com/","en-GB,en-US;q=0.9,en;q=0.8","6760580745ecb73102f83f3d","683dba9a53627eb9ab41b36a","688b693890a51d351c1f8c18","0","6760580745ecb73102f83f3d","0","2025-07-31T13:06:14.687Z","","","","AttribQ","","","","","","","","","","","50","","","","","","","","","","","","","","","","","","","","","","","","","","",""
"2099","","<div style=""width:500px;"">
  <p>How much control did you have over the ball?</p>
  </div>","77","html-slider-response","20","258905","0.0-7.0-2.1","111","1","2025-07-31 13:01:56","36c45c0696341be0efffe67d72a12abb","217.42.208.88","Mozilla/5.0 (Macintosh; Intel Mac OS X 10_15_7) AppleWebKit/537.36 (KHTML, like Gecko) Chrome/137.0.0.0 Safari/537.36","Macintosh","Chrome","137.0.0.0","OS X","10_15_7","https://app.prolific.com/","en-GB,en-US;q=0.9,en;q=0.8","6760580745ecb73102f83f3d","683dba9a53627eb9ab41b36a","688b693890a51d351c1f8c18","0","6760580745ecb73102f83f3d","0","2025-07-31T13:06:16.787Z","","","","ControlQ","","","","","","","","","","","50","","","","","","","","","","","","","","","","","","","","","","","","","","",""
"2030","","<div style=""width:500px;"">
  <p>How would you describe your current emotional state?</p>
  </div>","44","html-slider-response","21","260936","0.0-7.0-3.1","111","1","2025-07-31 13:01:56","36c45c0696341be0efffe67d72a12abb","217.42.208.88","Mozilla/5.0 (Macintosh; Intel Mac OS X 10_15_7) AppleWebKit/537.36 (KHTML, like Gecko) Chrome/137.0.0.0 Safari/537.36","Macintosh","Chrome","137.0.0.0","OS X","10_15_7","https://app.prolific.com/","en-GB,en-US;q=0.9,en;q=0.8","6760580745ecb73102f83f3d","683dba9a53627eb9ab41b36a","688b693890a51d351c1f8c18","0","6760580745ecb73102f83f3d","0","2025-07-31T13:06:18.818Z","","","","StressQ","","","","","","","","","","","50","","","","","","","","","","","","","","","","","","","","","","","","","","",""
"1883","","<div style=""width:500px;"">
  <p>What best describes how you currently feel?</p>
  </div>","36","html-slider-response","22","262819","0.0-7.0-4.1","111","1","2025-07-31 13:01:56","36c45c0696341be0efffe67d72a12abb","217.42.208.88","Mozilla/5.0 (Macintosh; Intel Mac OS X 10_15_7) AppleWebKit/537.36 (KHTML, like Gecko) Chrome/137.0.0.0 Safari/537.36","Macintosh","Chrome","137.0.0.0","OS X","10_15_7","https://app.prolific.com/","en-GB,en-US;q=0.9,en;q=0.8","6760580745ecb73102f83f3d","683dba9a53627eb9ab41b36a","688b693890a51d351c1f8c18","0","6760580745ecb73102f83f3d","0","2025-07-31T13:06:20.701Z","","","","MotivationQ","","","","","","","","","","","50","","","","","","","","","","","","","","","","","","","","","","","","","","",""
"","","","","ctl-task-cpt","23","287712","0.0-7.0-0.2","111","1","2025-07-31 13:01:56","36c45c0696341be0efffe67d72a12abb","217.42.208.88","Mozilla/5.0 (Macintosh; Intel Mac OS X 10_15_7) AppleWebKit/537.36 (KHTML, like Gecko) Chrome/137.0.0.0 Safari/537.36","Macintosh","Chrome","137.0.0.0","OS X","10_15_7","https://app.prolific.com/","en-GB,en-US;q=0.9,en;q=0.8","6760580745ecb73102f83f3d","683dba9a53627eb9ab41b36a","688b693890a51d351c1f8c18","0","6760580745ecb73102f83f3d","0","2025-07-31T13:06:45.594Z","","","","","","","","","","","","","","","","win-only","2","g1:SE,g2:NW","0.8","3","0","264935.7","1158.7","6170","21871.2","1","4","4","6","1","1","1","13","12","0.09848484848484848","1378.8","3000","1545","[""down"",""right""]","{""num_key_presses"":6,""num_perfect"":5,""num_errors"":0,""num_randdir"":1,""num_randdir_good_moves"":0,""num_whilered"":0,""num_whileblue"":0,""num_blue"":0,""num_good_moves"":5}","[810,831.796875,0.3,810,831.796875,108.8,810,831.796875,214.1,810,831.796875,314.5,810,831.796875,422.5,810,831.796875,528.7,916,867.796875,632.1,1116,1111.796875,736.5,1296,1105.796875,845.4,1296,1105.796875,947.6,1332,1133.796875,1049.2,1560,1373.796875,1154.4,1554,1401.796875,1258.3,1554,1401.796875,1359.4,1554,1401.796875,1465.4,1554,1401.796875,1570.8,1598,1335.796875,1678.5,1662,1261.796875,1782.2,1662,1261.796875,1882.7,1662,1261.796875,1992.8,1662,1261.796875,2095.1,1738,1153.796875,2197.8,1824,1085.796875,2306.9,1824,1085.796875,2407.4,1824,1085.796875,2507.8,1824,1085.796875,2612.2,1824,1085.796875,2717.2,1824,1085.796875,2817.5,1824,1085.796875,2917.9,1824,1085.796875,3026.9,1824,1085.796875,3127.3,1824,1085.796875,3227.6,1824,1085.796875,3332.3,1824,1085.796875,3434.9,1824,1085.796875,3541,1824,1085.796875,3644.3,1824,1085.796875,3747.2,1824,1085.796875,3855.7,1824,1085.796875,3963.5,1824,1085.796875,4071.6,1824,1085.796875,4172.2,1824,1085.796875,4272.8,1824,1085.796875,4373.6,1824,1085.796875,4477.9,1824,1085.796875,4583.2,1824,1085.796875,4686.4,1824,1085.796875,4795.6,1824,1085.796875,4897.7]","[1398.5,1398.5,1000,0,398.5,""smooth"",""right"",""right"",""good_move"",4104.7,2705.1,2339.1,1399.6,366,""smooth"",""right"",""right"",""good_move"",6617.8,2512.9,2131.1,4104.9,381.8,""oops"",""down"",""up"",""bad_move"",9508.4,2890.3,2532.8,6618.1,357.5,""smooth"",""down"",""down"",""good_move"",11992.9,2483.5,2132.3,9509.5,351.1,""smooth"",""down"",""down"",""good_move"",15601.2,3608.1,3230.9,11993.2,377.1,""smooth"",""down"",""down"",""good_move""]"
"3325","","<div style=""width:500px;"">
  <p>What determined the result of this run?</p>
  </div>","41","html-slider-response","24","291037","0.0-7.0-1.2","111","1","2025-07-31 13:01:56","36c45c0696341be0efffe67d72a12abb","217.42.208.88","Mozilla/5.0 (Macintosh; Intel Mac OS X 10_15_7) AppleWebKit/537.36 (KHTML, like Gecko) Chrome/137.0.0.0 Safari/537.36","Macintosh","Chrome","137.0.0.0","OS X","10_15_7","https://app.prolific.com/","en-GB,en-US;q=0.9,en;q=0.8","6760580745ecb73102f83f3d","683dba9a53627eb9ab41b36a","688b693890a51d351c1f8c18","0","6760580745ecb73102f83f3d","0","2025-07-31T13:06:48.919Z","","","","AttribQ","","","","","","","","","","","50","","","","","","","","","","","","","","","","","","","","","","","","","","",""
"2401","","<div style=""width:500px;"">
  <p>How much control did you have over the ball?</p>
  </div>","56","html-slider-response","25","293440","0.0-7.0-2.2","111","1","2025-07-31 13:01:56","36c45c0696341be0efffe67d72a12abb","217.42.208.88","Mozilla/5.0 (Macintosh; Intel Mac OS X 10_15_7) AppleWebKit/537.36 (KHTML, like Gecko) Chrome/137.0.0.0 Safari/537.36","Macintosh","Chrome","137.0.0.0","OS X","10_15_7","https://app.prolific.com/","en-GB,en-US;q=0.9,en;q=0.8","6760580745ecb73102f83f3d","683dba9a53627eb9ab41b36a","688b693890a51d351c1f8c18","0","6760580745ecb73102f83f3d","0","2025-07-31T13:06:51.322Z","","","","ControlQ","","","","","","","","","","","50","","","","","","","","","","","","","","","","","","","","","","","","","","",""
"2360","","<div style=""width:500px;"">
  <p>How would you describe your current emotional state?</p>
  </div>","44","html-slider-response","26","295801","0.0-7.0-3.2","111","1","2025-07-31 13:01:56","36c45c0696341be0efffe67d72a12abb","217.42.208.88","Mozilla/5.0 (Macintosh; Intel Mac OS X 10_15_7) AppleWebKit/537.36 (KHTML, like Gecko) Chrome/137.0.0.0 Safari/537.36","Macintosh","Chrome","137.0.0.0","OS X","10_15_7","https://app.prolific.com/","en-GB,en-US;q=0.9,en;q=0.8","6760580745ecb73102f83f3d","683dba9a53627eb9ab41b36a","688b693890a51d351c1f8c18","0","6760580745ecb73102f83f3d","0","2025-07-31T13:06:53.683Z","","","","StressQ","","","","","","","","","","","50","","","","","","","","","","","","","","","","","","","","","","","","","","",""
"1740","","<div style=""width:500px;"">
  <p>What best describes how you currently feel?</p>
  </div>","44","html-slider-response","27","297542","0.0-7.0-4.2","111","1","2025-07-31 13:01:56","36c45c0696341be0efffe67d72a12abb","217.42.208.88","Mozilla/5.0 (Macintosh; Intel Mac OS X 10_15_7) AppleWebKit/537.36 (KHTML, like Gecko) Chrome/137.0.0.0 Safari/537.36","Macintosh","Chrome","137.0.0.0","OS X","10_15_7","https://app.prolific.com/","en-GB,en-US;q=0.9,en;q=0.8","6760580745ecb73102f83f3d","683dba9a53627eb9ab41b36a","688b693890a51d351c1f8c18","0","6760580745ecb73102f83f3d","0","2025-07-31T13:06:55.425Z","","","","MotivationQ","","","","","","","","","","","50","","","","","","","","","","","","","","","","","","","","","","","","","","",""
"","","","","ctl-task-cpt","28","338339","0.0-7.0-0.3","111","1","2025-07-31 13:01:56","36c45c0696341be0efffe67d72a12abb","217.42.208.88","Mozilla/5.0 (Macintosh; Intel Mac OS X 10_15_7) AppleWebKit/537.36 (KHTML, like Gecko) Chrome/137.0.0.0 Safari/537.36","Macintosh","Chrome","137.0.0.0","OS X","10_15_7","https://app.prolific.com/","en-GB,en-US;q=0.9,en;q=0.8","6760580745ecb73102f83f3d","683dba9a53627eb9ab41b36a","688b693890a51d351c1f8c18","0","6760580745ecb73102f83f3d","0","2025-07-31T13:07:36.221Z","","","","","","","","","","","","","","","","win-only","2","g1:SE,g2:NW","0.7","4","0","299663.4","1440.9","6448.4","37777.9","1","4","8","6","2","8","8","21","13","0.1590909090909091","1150.4","3000","720","[""left"",""up""]","{""num_key_presses"":10,""num_perfect"":7,""num_errors"":0,""num_randdir"":3,""num_randdir_good_moves"":1,""num_whilered"":0,""num_whileblue"":0,""num_blue"":1,""num_good_moves"":8}","[800,809.796875,0.3,800,809.796875,100.3,800,809.796875,200.6,800,809.796875,300.6,800,809.796875,404.8,800,809.796875,506.2,370,621.796875,612.4,278,409.796875,717.4,238,401.796875,822.7,140,207.796875,922.9,128,119.796875,1031.2,128,119.796875,1146.1,128,119.796875,1252.2,128,119.796875,1355.2,128,119.796875,1476.8,-150,363.796875,1578.4,-294,515.796875,1686.9,-294,515.796875,1791.6,-294,515.796875,1892.5,-294,515.796875,1996.7,-294,515.796875,2102.5,-294,515.796875,2202.9,-294,515.796875,2304.6,-294,515.796875,2411,-294,515.796875,2524.5,-294,515.796875,2625.7,-294,515.796875,2729.6,-294,515.796875,2830.3,-294,515.796875,2932.4,-294,515.796875,3038.8,-294,515.796875,3144,-294,515.796875,3249.9,-294,515.796875,3352.6,-294,515.796875,3455.3,-294,515.796875,3564.3,-294,515.796875,3670.2,-294,515.796875,3770.9,-294,515.796875,3878.4,-294,515.796875,3983.6,-294,515.796875,4090.8,-294,515.796875,4191.9,-294,515.796875,4295.4,-294,515.796875,4404.8,-294,515.796875,4522.1,-294,515.796875,4637.6,-294,515.796875,4746.3,-294,515.796875,4858.2,-294,515.796875,4958.5]","[1379.2,1379.2,1000,0,379.2,""smooth"",""up"",""up"",""good_move"",4265,2885.5,2369.9,1379.5,515.6,""oops"",""up"",""down"",""bad_move"",10942.6,6677.4,2651.5,7825.7,465.4,""smooth"",""up"",""up"",""good_move"",13803,2860.2,2389.2,10942.8,471,""smooth"",""up"",""up"",""good_move"",16479.3,2676.2,2323,13803.1,353.2,""smooth"",""up"",""up"",""good_move"",19486.8,3007.2,2655.9,16479.6,351.3,""smooth"",""left"",""left"",""good_move"",21905.8,2418.7,2024.3,19487.1,394.4,""oops"",""left"",""down"",""bad_move"",24916.6,3010.6,2648.5,21906,362.1,""oops"",""left"",""up"",""good_move"",28123.4,3206.7,2859.5,24916.7,347.2,""smooth"",""left"",""left"",""good_move"",31137.9,3014.3,2670,28123.6,344.3,""smooth"",""left"",""left"",""good_move""]"
"3862","","<div style=""width:500px;"">
  <p>What determined the result of this run?</p>
  </div>","40","html-slider-response","29","342202","0.0-7.0-1.3","111","1","2025-07-31 13:01:56","36c45c0696341be0efffe67d72a12abb","217.42.208.88","Mozilla/5.0 (Macintosh; Intel Mac OS X 10_15_7) AppleWebKit/537.36 (KHTML, like Gecko) Chrome/137.0.0.0 Safari/537.36","Macintosh","Chrome","137.0.0.0","OS X","10_15_7","https://app.prolific.com/","en-GB,en-US;q=0.9,en;q=0.8","6760580745ecb73102f83f3d","683dba9a53627eb9ab41b36a","688b693890a51d351c1f8c18","0","6760580745ecb73102f83f3d","0","2025-07-31T13:07:40.084Z","","","","AttribQ","","","","","","","","","","","50","","","","","","","","","","","","","","","","","","","","","","","","","","",""
"1566","","<div style=""width:500px;"">
  <p>How much control did you have over the ball?</p>
  </div>","65","html-slider-response","30","343769","0.0-7.0-2.3","111","1","2025-07-31 13:01:56","36c45c0696341be0efffe67d72a12abb","217.42.208.88","Mozilla/5.0 (Macintosh; Intel Mac OS X 10_15_7) AppleWebKit/537.36 (KHTML, like Gecko) Chrome/137.0.0.0 Safari/537.36","Macintosh","Chrome","137.0.0.0","OS X","10_15_7","https://app.prolific.com/","en-GB,en-US;q=0.9,en;q=0.8","6760580745ecb73102f83f3d","683dba9a53627eb9ab41b36a","688b693890a51d351c1f8c18","0","6760580745ecb73102f83f3d","0","2025-07-31T13:07:41.651Z","","","","ControlQ","","","","","","","","","","","50","","","","","","","","","","","","","","","","","","","","","","","","","","",""
"3020","","<div style=""width:500px;"">
  <p>How would you describe your current emotional state?</p>
  </div>","45","html-slider-response","31","346792","0.0-7.0-3.3","111","1","2025-07-31 13:01:56","36c45c0696341be0efffe67d72a12abb","217.42.208.88","Mozilla/5.0 (Macintosh; Intel Mac OS X 10_15_7) AppleWebKit/537.36 (KHTML, like Gecko) Chrome/137.0.0.0 Safari/537.36","Macintosh","Chrome","137.0.0.0","OS X","10_15_7","https://app.prolific.com/","en-GB,en-US;q=0.9,en;q=0.8","6760580745ecb73102f83f3d","683dba9a53627eb9ab41b36a","688b693890a51d351c1f8c18","0","6760580745ecb73102f83f3d","0","2025-07-31T13:07:44.674Z","","","","StressQ","","","","","","","","","","","50","","","","","","","","","","","","","","","","","","","","","","","","","","",""
"1833","","<div style=""width:500px;"">
  <p>What best describes how you currently feel?</p>
  </div>","44","html-slider-response","32","348626","0.0-7.0-4.3","111","1","2025-07-31 13:01:56","36c45c0696341be0efffe67d72a12abb","217.42.208.88","Mozilla/5.0 (Macintosh; Intel Mac OS X 10_15_7) AppleWebKit/537.36 (KHTML, like Gecko) Chrome/137.0.0.0 Safari/537.36","Macintosh","Chrome","137.0.0.0","OS X","10_15_7","https://app.prolific.com/","en-GB,en-US;q=0.9,en;q=0.8","6760580745ecb73102f83f3d","683dba9a53627eb9ab41b36a","688b693890a51d351c1f8c18","0","6760580745ecb73102f83f3d","0","2025-07-31T13:07:46.508Z","","","","MotivationQ","","","","","","","","","","","50","","","","","","","","","","","","","","","","","","","","","","","","","","",""
"","","","","ctl-task-cpt","33","373797","0.0-7.0-0.4","111","1","2025-07-31 13:01:56","36c45c0696341be0efffe67d72a12abb","217.42.208.88","Mozilla/5.0 (Macintosh; Intel Mac OS X 10_15_7) AppleWebKit/537.36 (KHTML, like Gecko) Chrome/137.0.0.0 Safari/537.36","Macintosh","Chrome","137.0.0.0","OS X","10_15_7","https://app.prolific.com/","en-GB,en-US;q=0.9,en;q=0.8","6760580745ecb73102f83f3d","683dba9a53627eb9ab41b36a","688b693890a51d351c1f8c18","0","6760580745ecb73102f83f3d","0","2025-07-31T13:08:11.679Z","","","","","","","","","","","","","","","","win-only","1","g1:NE,g2:SW","0.6","5","0","350745.9","1013.8","6026.4","22149.3","1","4","8","6","1","1","1","22","21","0.16666666666666666","1272.6","3000","1985","[""up"",""right""]","{""num_key_presses"":6,""num_perfect"":4,""num_errors"":0,""num_randdir"":2,""num_randdir_good_moves"":1,""num_whilered"":0,""num_whileblue"":0,""num_blue"":0,""num_good_moves"":5}","[806,799.796875,0.2,806,799.796875,121.6,806,799.796875,223.1,806,799.796875,326.8,806,799.796875,428.7,806,799.796875,532.8,874,735.796875,642,1218,359.796875,747,1218,359.796875,854.2,1274,323.796875,965.5,1402,203.796875,1070,1402,203.796875,1178.5,1402,203.796875,1284.8,1402,203.796875,1401.5,1402,203.796875,1504.2,1616,131.796875,1619.6,1762,131.796875,1721.4,1762,131.796875,1823.8,1762,131.796875,1933.4,1762,131.796875,2042,1762,131.796875,2143.1,1762,131.796875,2245.9,1762,131.796875,2347.7,1762,131.796875,2453.5,1762,131.796875,2557.6,1762,131.796875,2662.9,1762,131.796875,2766.3,1762,131.796875,2878.2,1762,131.796875,2988.2,1762,131.796875,3089.8,1762,131.796875,3192.5,1762,131.796875,3294,1762,131.796875,3397.3,1762,131.796875,3498,1762,131.796875,3615.3,1762,131.796875,3715.6,1762,131.796875,3826.5,1762,131.796875,3933.2,1762,131.796875,4043.6,1762,131.796875,4149.2,1762,131.796875,4256.9,1762,131.796875,4358.5,1762,131.796875,4470.5,1762,131.796875,4577.8,1762,131.796875,4679.5,1762,131.796875,4785.4,1762,131.796875,4896.8]","[1387.4,1387.4,1000,0,387.4,""oops"",""up"",""right"",""good_move"",4522.4,3134.9,2743.3,1387.7,391.5,""smooth"",""up"",""up"",""good_move"",7718.5,3194.8,2817.8,4523.7,377,""smooth"",""up"",""up"",""good_move"",10759.7,3040.9,2689.1,7718.8,351.8,""oops"",""right"",""left"",""bad_move"",13369.7,2609.3,2195,10760.4,414.3,""smooth"",""right"",""right"",""good_move"",15952.1,2582.1,2217.5,13370,364.6,""smooth"",""right"",""right"",""good_move""]"
"2192","","<div style=""width:500px;"">
  <p>What determined the result of this run?</p>
  </div>","42","html-slider-response","34","375991","0.0-7.0-1.4","111","1","2025-07-31 13:01:56","36c45c0696341be0efffe67d72a12abb","217.42.208.88","Mozilla/5.0 (Macintosh; Intel Mac OS X 10_15_7) AppleWebKit/537.36 (KHTML, like Gecko) Chrome/137.0.0.0 Safari/537.36","Macintosh","Chrome","137.0.0.0","OS X","10_15_7","https://app.prolific.com/","en-GB,en-US;q=0.9,en;q=0.8","6760580745ecb73102f83f3d","683dba9a53627eb9ab41b36a","688b693890a51d351c1f8c18","0","6760580745ecb73102f83f3d","0","2025-07-31T13:08:13.873Z","","","","AttribQ","","","","","","","","","","","50","","","","","","","","","","","","","","","","","","","","","","","","","","",""
"2119","","<div style=""width:500px;"">
  <p>How much control did you have over the ball?</p>
  </div>","59","html-slider-response","35","378111","0.0-7.0-2.4","111","1","2025-07-31 13:01:56","36c45c0696341be0efffe67d72a12abb","217.42.208.88","Mozilla/5.0 (Macintosh; Intel Mac OS X 10_15_7) AppleWebKit/537.36 (KHTML, like Gecko) Chrome/137.0.0.0 Safari/537.36","Macintosh","Chrome","137.0.0.0","OS X","10_15_7","https://app.prolific.com/","en-GB,en-US;q=0.9,en;q=0.8","6760580745ecb73102f83f3d","683dba9a53627eb9ab41b36a","688b693890a51d351c1f8c18","0","6760580745ecb73102f83f3d","0","2025-07-31T13:08:15.993Z","","","","ControlQ","","","","","","","","","","","50","","","","","","","","","","","","","","","","","","","","","","","","","","",""
"2195","","<div style=""width:500px;"">
  <p>How would you describe your current emotional state?</p>
  </div>","41","html-slider-response","36","380307","0.0-7.0-3.4","111","1","2025-07-31 13:01:56","36c45c0696341be0efffe67d72a12abb","217.42.208.88","Mozilla/5.0 (Macintosh; Intel Mac OS X 10_15_7) AppleWebKit/537.36 (KHTML, like Gecko) Chrome/137.0.0.0 Safari/537.36","Macintosh","Chrome","137.0.0.0","OS X","10_15_7","https://app.prolific.com/","en-GB,en-US;q=0.9,en;q=0.8","6760580745ecb73102f83f3d","683dba9a53627eb9ab41b36a","688b693890a51d351c1f8c18","0","6760580745ecb73102f83f3d","0","2025-07-31T13:08:18.189Z","","","","StressQ","","","","","","","","","","","50","","","","","","","","","","","","","","","","","","","","","","","","","","",""
"1565","","<div style=""width:500px;"">
  <p>What best describes how you currently feel?</p>
  </div>","44","html-slider-response","37","381872","0.0-7.0-4.4","111","1","2025-07-31 13:01:56","36c45c0696341be0efffe67d72a12abb","217.42.208.88","Mozilla/5.0 (Macintosh; Intel Mac OS X 10_15_7) AppleWebKit/537.36 (KHTML, like Gecko) Chrome/137.0.0.0 Safari/537.36","Macintosh","Chrome","137.0.0.0","OS X","10_15_7","https://app.prolific.com/","en-GB,en-US;q=0.9,en;q=0.8","6760580745ecb73102f83f3d","683dba9a53627eb9ab41b36a","688b693890a51d351c1f8c18","0","6760580745ecb73102f83f3d","0","2025-07-31T13:08:19.754Z","","","","MotivationQ","","","","","","","","","","","50","","","","","","","","","","","","","","","","","","","","","","","","","","",""
"","","","","ctl-task-cpt","38","422085","0.0-7.0-0.5","111","1","2025-07-31 13:01:56","36c45c0696341be0efffe67d72a12abb","217.42.208.88","Mozilla/5.0 (Macintosh; Intel Mac OS X 10_15_7) AppleWebKit/537.36 (KHTML, like Gecko) Chrome/137.0.0.0 Safari/537.36","Macintosh","Chrome","137.0.0.0","OS X","10_15_7","https://app.prolific.com/","en-GB,en-US;q=0.9,en;q=0.8","6760580745ecb73102f83f3d","683dba9a53627eb9ab41b36a","688b693890a51d351c1f8c18","0","6760580745ecb73102f83f3d","0","2025-07-31T13:08:59.967Z","","","","","","","","","","","","","","","","win-only","0","g1:NW,g2:SE","0.5","6","0","383991.7","852","5857.8","37186.2","1","4","4","6","2","4","4","26","22","0.19696969696969696","1398.1","3000","1660","[""down"",""right""]","{""num_key_presses"":8,""num_perfect"":4,""num_errors"":0,""num_randdir"":4,""num_randdir_good_moves"":3,""num_whilered"":0,""num_whileblue"":0,""num_blue"":2,""num_good_moves"":7}","[802,811.796875,0.2,802,811.796875,102.8,802,811.796875,205.9,802,811.796875,312.2,802,811.796875,415.2,802,811.796875,515.8,836,983.796875,624,932,1287.796875,729.4,932,1287.796875,830.8,976,1303.796875,943.6,1406,1429.796875,1051.9,1500,1463.796875,1162.6,1510,1473.796875,1275.8,1510,1473.796875,1380.2,1510,1473.796875,1493.3,1510,1473.796875,1608.4,1592,1431.796875,1710.1,1904,1183.796875,1813.7,1920,1163.796875,1917.9,1920,1163.796875,2024.1,1920,1163.796875,2131.8,1920,1163.796875,2240.8,1920,1163.796875,2348.7,1920,1163.796875,2450.9,1920,1163.796875,2556.4,1920,1163.796875,2660.8,1920,1163.796875,2769.2,1920,1163.796875,2870.8,1920,1163.796875,2980.8,1920,1163.796875,3081,1920,1163.796875,3209.4,1920,1163.796875,3309.8,1920,1163.796875,3422.6,1920,1163.796875,3524.3,1920,1163.796875,3627.4,1920,1163.796875,3734.6,1920,1163.796875,3851.9,1920,1163.796875,3964.5,1920,1163.796875,4069.6,1920,1163.796875,4191.8,1920,1163.796875,4293.9,1920,1163.796875,4406.4,1920,1163.796875,4512.1,1920,1163.796875,4616.6,1920,1163.796875,4725,1920,1163.796875,4830.6,1920,1163.796875,4943.1]","[1381.6,1381.6,1000,0,381.6,""oops"",""right"",""down"",""good_move"",5159.8,3777.3,3357.6,1382.5,419.7,""oops"",""right"",""right"",""good_move"",8803.5,3643.3,3224,5160.2,419.3,""smooth"",""right"",""right"",""good_move"",11367.3,2563.6,2174.1,8803.7,389.5,""oops"",""right"",""down"",""good_move"",14676.3,3308.7,2864.2,11367.7,444.5,""smooth"",""right"",""right"",""good_move"",17571.8,2895,2549.6,14676.8,345.4,""oops"",""down"",""left"",""bad_move"",20899.8,3327.6,2902.5,17572.2,425.1,""smooth"",""right"",""right"",""good_move"",31099.4,10199.4,2559.1,28108,432.3,""smooth"",""down"",""down"",""good_move""]"
"2485","","<div style=""width:500px;"">
  <p>What determined the result of this run?</p>
  </div>","43","html-slider-response","39","424571","0.0-7.0-1.5","111","1","2025-07-31 13:01:56","36c45c0696341be0efffe67d72a12abb","217.42.208.88","Mozilla/5.0 (Macintosh; Intel Mac OS X 10_15_7) AppleWebKit/537.36 (KHTML, like Gecko) Chrome/137.0.0.0 Safari/537.36","Macintosh","Chrome","137.0.0.0","OS X","10_15_7","https://app.prolific.com/","en-GB,en-US;q=0.9,en;q=0.8","6760580745ecb73102f83f3d","683dba9a53627eb9ab41b36a","688b693890a51d351c1f8c18","0","6760580745ecb73102f83f3d","0","2025-07-31T13:09:02.453Z","","","","AttribQ","","","","","","","","","","","50","","","","","","","","","","","","","","","","","","","","","","","","","","",""
"2826","","<div style=""width:500px;"">
  <p>How much control did you have over the ball?</p>
  </div>","44","html-slider-response","40","427398","0.0-7.0-2.5","111","1","2025-07-31 13:01:56","36c45c0696341be0efffe67d72a12abb","217.42.208.88","Mozilla/5.0 (Macintosh; Intel Mac OS X 10_15_7) AppleWebKit/537.36 (KHTML, like Gecko) Chrome/137.0.0.0 Safari/537.36","Macintosh","Chrome","137.0.0.0","OS X","10_15_7","https://app.prolific.com/","en-GB,en-US;q=0.9,en;q=0.8","6760580745ecb73102f83f3d","683dba9a53627eb9ab41b36a","688b693890a51d351c1f8c18","0","6760580745ecb73102f83f3d","0","2025-07-31T13:09:05.280Z","","","","ControlQ","","","","","","","","","","","50","","","","","","","","","","","","","","","","","","","","","","","","","","",""
"2945","","<div style=""width:500px;"">
  <p>How would you describe your current emotional state?</p>
  </div>","43","html-slider-response","41","430345","0.0-7.0-3.5","111","1","2025-07-31 13:01:56","36c45c0696341be0efffe67d72a12abb","217.42.208.88","Mozilla/5.0 (Macintosh; Intel Mac OS X 10_15_7) AppleWebKit/537.36 (KHTML, like Gecko) Chrome/137.0.0.0 Safari/537.36","Macintosh","Chrome","137.0.0.0","OS X","10_15_7","https://app.prolific.com/","en-GB,en-US;q=0.9,en;q=0.8","6760580745ecb73102f83f3d","683dba9a53627eb9ab41b36a","688b693890a51d351c1f8c18","0","6760580745ecb73102f83f3d","0","2025-07-31T13:09:08.227Z","","","","StressQ","","","","","","","","","","","50","","","","","","","","","","","","","","","","","","","","","","","","","","",""
"6579","","<div style=""width:500px;"">
  <p>What best describes how you currently feel?</p>
  </div>","44","html-slider-response","42","436926","0.0-7.0-4.5","111","1","2025-07-31 13:01:56","36c45c0696341be0efffe67d72a12abb","217.42.208.88","Mozilla/5.0 (Macintosh; Intel Mac OS X 10_15_7) AppleWebKit/537.36 (KHTML, like Gecko) Chrome/137.0.0.0 Safari/537.36","Macintosh","Chrome","137.0.0.0","OS X","10_15_7","https://app.prolific.com/","en-GB,en-US;q=0.9,en;q=0.8","6760580745ecb73102f83f3d","683dba9a53627eb9ab41b36a","688b693890a51d351c1f8c18","0","6760580745ecb73102f83f3d","0","2025-07-31T13:09:14.808Z","","","","MotivationQ","","","","","","","","","","","50","","","","","","","","","","","","","","","","","","","","","","","","","","",""
"","","","","ctl-task-cpt","43","507835","0.0-7.0-0.6","111","1","2025-07-31 13:01:56","36c45c0696341be0efffe67d72a12abb","217.42.208.88","Mozilla/5.0 (Macintosh; Intel Mac OS X 10_15_7) AppleWebKit/537.36 (KHTML, like Gecko) Chrome/137.0.0.0 Safari/537.36","Macintosh","Chrome","137.0.0.0","OS X","10_15_7","https://app.prolific.com/","en-GB,en-US;q=0.9,en;q=0.8","6760580745ecb73102f83f3d","683dba9a53627eb9ab41b36a","688b693890a51d351c1f8c18","0","6760580745ecb73102f83f3d","0","2025-07-31T13:10:25.717Z","","","","","","","","","","","","","","","","win-only","3","g1:SW,g2:NE","0.4","7","0","439049.5","1496.5","6498.4","67901.2","1","4","4","6","1","-1","-2","24","26","0.18181818181818182","1568.5","3000","-1095","[""down"",""left""]","{""num_key_presses"":18,""num_perfect"":8,""num_errors"":1,""num_randdir"":9,""num_randdir_good_moves"":2,""num_whilered"":0,""num_whileblue"":1,""num_blue"":3,""num_good_moves"":10}","[816,813.796875,0.1,816,813.796875,110.7,816,813.796875,257,816,813.796875,357.4,816,813.796875,476.4,760,851.796875,587.8,1150,519.796875,693.6,1298,425.796875,793.9,1286,437.796875,900.5,492,1165.796875,1021.5,410,1239.796875,1133.3,348,1319.796875,1243.5,208,1437.796875,1345.9,160,1465.796875,1450.4,160,1465.796875,1555.1,160,1465.796875,1667.7,160,1465.796875,1783.6,48,1443.796875,1897.1,-176,1123.796875,1999.4,-176,1123.796875,2099.8,-176,1123.796875,2215.6,-176,1123.796875,2319.4,-176,1123.796875,2424.9,-176,1123.796875,2530.8,-176,1123.796875,2640.6,-176,1123.796875,2741.5,-176,1123.796875,2849.9,-176,1123.796875,2957.1,-176,1123.796875,3065.1,-176,1123.796875,3173.4,-176,1123.796875,3279.4,-176,1123.796875,3439.5,-176,1123.796875,3554.5,-176,1123.796875,3664.1,-176,1123.796875,3775.8,-176,1123.796875,3884.5,-176,1123.796875,3991.4,-176,1123.796875,4096.5,-176,1123.796875,4204.6,-176,1123.796875,4316.2,-176,1123.796875,4425.1,-176,1123.796875,4526.6,-176,1123.796875,4627,-176,1123.796875,4730.9,-176,1123.796875,4840.9,-176,1123.796875,4942]","[4073.3,4073.3,1634.9,2006.8,431.6,""smooth"",""left"",""left"",""good_move"",6741.2,2667.6,2272.3,4073.6,395.3,""smooth"",""left"",""left"",""good_move"",9405.9,2664.6,1941,6741.4,723.5,""smooth"",""down"",""down"",""good_move"",12272.7,2866.3,2470.3,9406.4,396,""oops"",""down"",""right"",""bad_move"",15306,3033,2614,12273,419,""oops"",""left"",""down"",""good_move"",18200.4,2894.1,2441.6,15306.3,452.5,""oops"",""left"",""right"",""bad_move"",21772.1,3571.5,3156.2,18200.6,415.3,""smooth"",""left"",""left"",""good_move"",24424.8,2652.6,2018.2,21772.2,634.4,""oops"",""left"",""right"",""bad_move"",27692.8,3267.4,2859.8,24425.4,407.6,""oops"",""left"",""right"",""bad_move"",30008.4,2315.4,1852.8,27693,462.6,""oops"",""left"",""up"",""bad_move"",33593,3584.3,3219.1,30008.7,365.2,""while_blue"",""left"",""right"",""bad_move"",36969.3,3376.1,2923.7,33593.2,452.4,""smooth"",""left"",""left"",""good_move"",40707.8,3738.3,3380.9,36969.5,357.4,""smooth"",""left"",""left"",""good_move"",44094.4,3386.4,2964.6,40708,421.8,""smooth"",""left"",""left"",""good_move"",46901.3,2806.8,2385,44094.6,421.8,""oops"",""left"",""down"",""good_move"",49903.3,3001.1,2569.6,46902.2,431.5,""oops"",""left"",""right"",""bad_move"",52075.4,2171.9,1517.9,49903.5,654,""oops"",""left"",""up"",""bad_move"",58841,6765.2,1676.1,56742.6,422.3,""smooth"",""left"",""left"",""good_move""]"
"3282","","<div style=""width:500px;"">
  <p>What determined the result of this run?</p>
  </div>","34","html-slider-response","44","511119","0.0-7.0-1.6","111","1","2025-07-31 13:01:56","36c45c0696341be0efffe67d72a12abb","217.42.208.88","Mozilla/5.0 (Macintosh; Intel Mac OS X 10_15_7) AppleWebKit/537.36 (KHTML, like Gecko) Chrome/137.0.0.0 Safari/537.36","Macintosh","Chrome","137.0.0.0","OS X","10_15_7","https://app.prolific.com/","en-GB,en-US;q=0.9,en;q=0.8","6760580745ecb73102f83f3d","683dba9a53627eb9ab41b36a","688b693890a51d351c1f8c18","0","6760580745ecb73102f83f3d","0","2025-07-31T13:10:29.001Z","","","","AttribQ","","","","","","","","","","","50","","","","","","","","","","","","","","","","","","","","","","","","","","",""
"3454","","<div style=""width:500px;"">
  <p>How much control did you have over the ball?</p>
  </div>","27","html-slider-response","45","514575","0.0-7.0-2.6","111","1","2025-07-31 13:01:56","36c45c0696341be0efffe67d72a12abb","217.42.208.88","Mozilla/5.0 (Macintosh; Intel Mac OS X 10_15_7) AppleWebKit/537.36 (KHTML, like Gecko) Chrome/137.0.0.0 Safari/537.36","Macintosh","Chrome","137.0.0.0","OS X","10_15_7","https://app.prolific.com/","en-GB,en-US;q=0.9,en;q=0.8","6760580745ecb73102f83f3d","683dba9a53627eb9ab41b36a","688b693890a51d351c1f8c18","0","6760580745ecb73102f83f3d","0","2025-07-31T13:10:32.457Z","","","","ControlQ","","","","","","","","","","","50","","","","","","","","","","","","","","","","","","","","","","","","","","",""
"2891","","<div style=""width:500px;"">
  <p>How would you describe your current emotional state?</p>
  </div>","63","html-slider-response","46","517467","0.0-7.0-3.6","111","1","2025-07-31 13:01:56","36c45c0696341be0efffe67d72a12abb","217.42.208.88","Mozilla/5.0 (Macintosh; Intel Mac OS X 10_15_7) AppleWebKit/537.36 (KHTML, like Gecko) Chrome/137.0.0.0 Safari/537.36","Macintosh","Chrome","137.0.0.0","OS X","10_15_7","https://app.prolific.com/","en-GB,en-US;q=0.9,en;q=0.8","6760580745ecb73102f83f3d","683dba9a53627eb9ab41b36a","688b693890a51d351c1f8c18","0","6760580745ecb73102f83f3d","0","2025-07-31T13:10:35.349Z","","","","StressQ","","","","","","","","","","","50","","","","","","","","","","","","","","","","","","","","","","","","","","",""
"1950","","<div style=""width:500px;"">
  <p>What best describes how you currently feel?</p>
  </div>","39","html-slider-response","47","519418","0.0-7.0-4.6","111","1","2025-07-31 13:01:56","36c45c0696341be0efffe67d72a12abb","217.42.208.88","Mozilla/5.0 (Macintosh; Intel Mac OS X 10_15_7) AppleWebKit/537.36 (KHTML, like Gecko) Chrome/137.0.0.0 Safari/537.36","Macintosh","Chrome","137.0.0.0","OS X","10_15_7","https://app.prolific.com/","en-GB,en-US;q=0.9,en;q=0.8","6760580745ecb73102f83f3d","683dba9a53627eb9ab41b36a","688b693890a51d351c1f8c18","0","6760580745ecb73102f83f3d","0","2025-07-31T13:10:37.300Z","","","","MotivationQ","","","","","","","","","","","50","","","","","","","","","","","","","","","","","","","","","","","","","","",""
"","","","","ctl-task-cpt","48","594945","0.0-7.0-0.7","111","1","2025-07-31 13:01:56","36c45c0696341be0efffe67d72a12abb","217.42.208.88","Mozilla/5.0 (Macintosh; Intel Mac OS X 10_15_7) AppleWebKit/537.36 (KHTML, like Gecko) Chrome/137.0.0.0 Safari/537.36","Macintosh","Chrome","137.0.0.0","OS X","10_15_7","https://app.prolific.com/","en-GB,en-US;q=0.9,en;q=0.8","6760580745ecb73102f83f3d","683dba9a53627eb9ab41b36a","688b693890a51d351c1f8c18","0","6760580745ecb73102f83f3d","0","2025-07-31T13:11:52.827Z","","","","","","","","","","","","","","","","win-only","1","g1:NE,g2:SW","0.3","8","0","521540.7","993.2","5997.5","72508.3","1","4","8","6","2","-8","-22","2","24","0.015151515151515152","1259.3","3000","-950","[""down"",""left""]","{""num_key_presses"":36,""num_perfect"":4,""num_errors"":14,""num_randdir"":7,""num_randdir_good_moves"":1,""num_whilered"":11,""num_whileblue"":0,""num_blue"":1,""num_good_moves"":5}","[810,793.796875,0.2,810,793.796875,111.5,810,793.796875,219.4,810,793.796875,326.1,810,793.796875,431.2,802,803.796875,537.1,-142,1723.796875,640.1,-316,1757.796875,752.2,-286,1729.796875,864.6,-14,1541.796875,972.9,24,1533.796875,1084.7,24,1533.796875,1188.4,24,1533.796875,1304.5,24,1533.796875,1417.6,-60,1509.796875,1531.3,-870,1561.796875,1649.4,-870,1561.796875,1757.4,-870,1561.796875,1874.5,-870,1561.796875,1987.8,-870,1561.796875,2103,-870,1561.796875,2205.1,-870,1561.796875,2313.1,-870,1561.796875,2419,-870,1561.796875,2525.7,-870,1561.796875,2635.3,-870,1561.796875,2748,-870,1561.796875,2849,-870,1561.796875,2963.5,-870,1561.796875,3065.5,-870,1561.796875,3171.2,-870,1561.796875,3279.9,-870,1561.796875,3392.3,-870,1561.796875,3494.1,-870,1561.796875,3601.1,-870,1561.796875,3751.9,-870,1561.796875,3874.5,-870,1561.796875,3983,-870,1561.796875,4088.7,-870,1561.796875,4195.6,-870,1561.796875,4298.8,-870,1561.796875,4402.9,-870,1561.796875,4521.2,-870,1561.796875,4626.1,-870,1561.796875,4728.3,-870,1561.796875,4830.8,-870,1561.796875,4936.4]","[1396.4,1396.4,1000,0,396.4,""smooth"",""left"",""left"",""good_move"",4299.6,2903,2317.4,1396.6,585.6,""smooth"",""left"",""left"",""good_move"",7373.1,3073.2,2668,4299.9,405.2,""smooth"",""left"",""left"",""good_move"",10244,2870.5,2308.9,7373.6,561.5,""oops"",""down"",""right"",""bad_move"",12514.9,2270.7,1855.2,10244.3,415.4,""oops"",""down"",""up"",""bad_move"",15423.2,2908,1661,12515.2,1247,""oops"",""down"",""up"",""bad_move"",18584.5,3160.7,2747,15423.8,413.7,""oops"",""down"",""left"",""good_move"",21574.5,2989.8,2637.4,18584.7,352.4,""oops"",""down"",""up"",""bad_move"",28356,6781.3,2563.3,25310.9,481.8,""oops"",""down"",""up"",""bad_move"",31410.2,3053.6,3025.5,28356.6,28.1,""error"",""-"",""-"",""no_move"",31982.9,572.5,3025.5,28356.6,600.8,""while_red"",""-"",""-"",""no_move"",32288,877.6,3025.5,28356.6,905.9,""while_red"",""-"",""-"",""no_move"",32682.5,1272.1,2667.4,32423.9,-2408.8,""error"",""-"",""-"",""no_move"",34252.6,1569.9,2574,33689.6,-2011,""error"",""-"",""-"",""no_move"",34785,532.2,2574,33689.6,-1478.6,""while_red"",""-"",""-"",""no_move"",35139.1,886.3,2574,33689.6,-1124.5,""while_red"",""-"",""-"",""no_move"",35588,1335.2,2725.3,35263.2,-2400.5,""error"",""-"",""-"",""no_move"",35855.3,267.2,2725.3,35263.2,-2133.1,""while_red"",""-"",""-"",""no_move"",37040.6,1452.4,2869.1,36588.8,-2417.3,""error"",""-"",""-"",""no_move"",39294.5,2253.7,2444.7,38057.8,-1208,""error"",""-"",""-"",""no_move"",41965.3,2670.6,2655.4,40301.6,-991.7,""error"",""-"",""-"",""no_move"",44988.6,3022.8,1976.3,42971.2,41.1,""oops"",""down"",""up"",""bad_move"",45673.7,684.9,2585.9,44988.8,-1901,""error"",""-"",""-"",""no_move"",47774.2,2099.9,2450.2,46681.9,-1357.9,""error"",""-"",""-"",""no_move"",52887.8,5113.4,2739.9,48787.4,1360.5,""smooth"",""down"",""down"",""good_move"",53467,578.9,3036,52888.1,-2457.1,""error"",""-"",""-"",""no_move"",53698,230.5,3036,52888.1,-2226.1,""while_red"",""-"",""-"",""no_move"",53886.2,418.7,3036,52888.1,-2037.9,""while_red"",""-"",""-"",""no_move"",54069,601.5,3036,52888.1,-1855.1,""while_red"",""-"",""-"",""no_move"",54322.4,855,3036,52888.1,-1601.6,""while_red"",""-"",""-"",""no_move"",54645.8,1178.3,2671.3,54472.2,-2497.7,""error"",""-"",""-"",""no_move"",54943.4,297.4,2671.3,54472.2,-2200.1,""while_red"",""-"",""-"",""no_move"",55692.7,1046.7,2547.8,55662,-2517.1,""error"",""-"",""-"",""no_move"",57484.7,1791.8,2626.6,56713,-1854.9,""error"",""-"",""-"",""no_move"",58243.9,758.9,2626.6,56713,-1095.7,""while_red"",""-"",""-"",""no_move"",59183,1698,2723.9,58493.8,-2034.7,""error"",""-"",""-"",""no_move""]"
"3603","","<div style=""width:500px;"">
  <p>What determined the result of this run?</p>
  </div>","0","html-slider-response","49","598549","0.0-7.0-1.7","111","1","2025-07-31 13:01:56","36c45c0696341be0efffe67d72a12abb","217.42.208.88","Mozilla/5.0 (Macintosh; Intel Mac OS X 10_15_7) AppleWebKit/537.36 (KHTML, like Gecko) Chrome/137.0.0.0 Safari/537.36","Macintosh","Chrome","137.0.0.0","OS X","10_15_7","https://app.prolific.com/","en-GB,en-US;q=0.9,en;q=0.8","6760580745ecb73102f83f3d","683dba9a53627eb9ab41b36a","688b693890a51d351c1f8c18","0","6760580745ecb73102f83f3d","0","2025-07-31T13:11:56.431Z","","","","AttribQ","","","","","","","","","","","50","","","","","","","","","","","","","","","","","","","","","","","","","","",""
"3161","","<div style=""width:500px;"">
  <p>How much control did you have over the ball?</p>
  </div>","0","html-slider-response","50","601710","0.0-7.0-2.7","111","1","2025-07-31 13:01:56","36c45c0696341be0efffe67d72a12abb","217.42.208.88","Mozilla/5.0 (Macintosh; Intel Mac OS X 10_15_7) AppleWebKit/537.36 (KHTML, like Gecko) Chrome/137.0.0.0 Safari/537.36","Macintosh","Chrome","137.0.0.0","OS X","10_15_7","https://app.prolific.com/","en-GB,en-US;q=0.9,en;q=0.8","6760580745ecb73102f83f3d","683dba9a53627eb9ab41b36a","688b693890a51d351c1f8c18","0","6760580745ecb73102f83f3d","0","2025-07-31T13:11:59.592Z","","","","ControlQ","","","","","","","","","","","50","","","","","","","","","","","","","","","","","","","","","","","","","","",""
"2652","","<div style=""width:500px;"">
  <p>How would you describe your current emotional state?</p>
  </div>","89","html-slider-response","51","604364","0.0-7.0-3.7","111","1","2025-07-31 13:01:56","36c45c0696341be0efffe67d72a12abb","217.42.208.88","Mozilla/5.0 (Macintosh; Intel Mac OS X 10_15_7) AppleWebKit/537.36 (KHTML, like Gecko) Chrome/137.0.0.0 Safari/537.36","Macintosh","Chrome","137.0.0.0","OS X","10_15_7","https://app.prolific.com/","en-GB,en-US;q=0.9,en;q=0.8","6760580745ecb73102f83f3d","683dba9a53627eb9ab41b36a","688b693890a51d351c1f8c18","0","6760580745ecb73102f83f3d","0","2025-07-31T13:12:02.246Z","","","","StressQ","","","","","","","","","","","50","","","","","","","","","","","","","","","","","","","","","","","","","","",""
"2192","","<div style=""width:500px;"">
  <p>What best describes how you currently feel?</p>
  </div>","6","html-slider-response","52","606558","0.0-7.0-4.7","111","1","2025-07-31 13:01:56","36c45c0696341be0efffe67d72a12abb","217.42.208.88","Mozilla/5.0 (Macintosh; Intel Mac OS X 10_15_7) AppleWebKit/537.36 (KHTML, like Gecko) Chrome/137.0.0.0 Safari/537.36","Macintosh","Chrome","137.0.0.0","OS X","10_15_7","https://app.prolific.com/","en-GB,en-US;q=0.9,en;q=0.8","6760580745ecb73102f83f3d","683dba9a53627eb9ab41b36a","688b693890a51d351c1f8c18","0","6760580745ecb73102f83f3d","0","2025-07-31T13:12:04.440Z","","","","MotivationQ","","","","","","","","","","","50","","","","","","","","","","","","","","","","","","","","","","","","","","",""
"","","","","ctl-task-cpt","53","655868","0.0-7.0-0.8","111","1","2025-07-31 13:01:56","36c45c0696341be0efffe67d72a12abb","217.42.208.88","Mozilla/5.0 (Macintosh; Intel Mac OS X 10_15_7) AppleWebKit/537.36 (KHTML, like Gecko) Chrome/137.0.0.0 Safari/537.36","Macintosh","Chrome","137.0.0.0","OS X","10_15_7","https://app.prolific.com/","en-GB,en-US;q=0.9,en;q=0.8","6760580745ecb73102f83f3d","683dba9a53627eb9ab41b36a","688b693890a51d351c1f8c18","0","6760580745ecb73102f83f3d","0","2025-07-31T13:12:53.751Z","","","","","","","","","","","","","","","","win-only","0","g1:NW,g2:SE","0.4","9","0","608685.7","762.4","5778","46273.3","1","4","4","6","1","1","1","3","2","0.022727272727272728","1460.7","3000","1640","[""left"",""up""]","{""num_key_presses"":10,""num_perfect"":4,""num_errors"":0,""num_randdir"":6,""num_randdir_good_moves"":3,""num_whilered"":0,""num_whileblue"":0,""num_blue"":3,""num_good_moves"":7}","[804,807.796875,0.6,804,807.796875,110.8,804,807.796875,215.7,804,807.796875,321,804,807.796875,432.6,804,813.796875,556.5,784,871.796875,660,606,663.796875,785.2,606,663.796875,894.8,564,651.796875,1002.8,258,215.796875,1107.5,254,183.796875,1218.5,182,151.796875,1322.2,130,151.796875,1438,134,153.796875,1548.2,134,153.796875,1648.3,104,173.796875,1757.3,-164,563.796875,1867.7,-164,563.796875,1988.5,-164,563.796875,2091.7,-164,563.796875,2192.5,-164,563.796875,2300.9,-164,563.796875,2407.6,-164,563.796875,2512.7,-164,563.796875,2619.4,-164,563.796875,2722,-164,563.796875,2829.8,-164,563.796875,2930.8,-164,563.796875,3047.3,-164,563.796875,3157.3,-164,563.796875,3277.8,-164,563.796875,3381.7,-164,563.796875,3487.1,-164,563.796875,3587.7,-164,563.796875,3700,-164,563.796875,3809.8,-164,563.796875,3925.8,-164,563.796875,4027.3,-164,563.796875,4170.8,-164,563.796875,4293.4,-164,563.796875,4410,-164,563.796875,4522.8,-164,563.796875,4628.8,-164,563.796875,4737.6,-164,563.796875,4840.7,-164,563.796875,4945.5]","[1549.9,1549.9,1000,0,550,""oops"",""up"",""right"",""bad_move"",5640.1,4089.3,3619.4,1550.8,469.9,""smooth"",""up"",""up"",""good_move"",8942.5,3302.1,2886.6,5640.4,415.6,""oops"",""up"",""down"",""bad_move"",11825.2,2882.3,2438.9,8942.9,443.4,""oops"",""up"",""left"",""good_move"",15017.5,3191.3,2087.8,11826.2,1103.5,""smooth"",""up"",""up"",""good_move"",21385.2,6367.5,2189,18834.8,361.4,""smooth"",""up"",""up"",""good_move"",28442.1,7056.7,2877,25141.7,423.4,""oops"",""left"",""down"",""bad_move"",31485.8,3043.4,2538.1,28442.4,505.3,""oops"",""left"",""up"",""good_move"",34558.2,3072.3,2617.3,31486,455,""oops"",""left"",""left"",""good_move"",40154.4,5595.3,1361,38289.4,504,""smooth"",""left"",""left"",""good_move""]"
"2175","","<div style=""width:500px;"">
  <p>What determined the result of this run?</p>
  </div>","32","html-slider-response","54","658045","0.0-7.0-1.8","111","1","2025-07-31 13:01:56","36c45c0696341be0efffe67d72a12abb","217.42.208.88","Mozilla/5.0 (Macintosh; Intel Mac OS X 10_15_7) AppleWebKit/537.36 (KHTML, like Gecko) Chrome/137.0.0.0 Safari/537.36","Macintosh","Chrome","137.0.0.0","OS X","10_15_7","https://app.prolific.com/","en-GB,en-US;q=0.9,en;q=0.8","6760580745ecb73102f83f3d","683dba9a53627eb9ab41b36a","688b693890a51d351c1f8c18","0","6760580745ecb73102f83f3d","0","2025-07-31T13:12:55.927Z","","","","AttribQ","","","","","","","","","","","50","","","","","","","","","","","","","","","","","","","","","","","","","","",""
"2228","","<div style=""width:500px;"">
  <p>How much control did you have over the ball?</p>
  </div>","33","html-slider-response","55","660274","0.0-7.0-2.8","111","1","2025-07-31 13:01:56","36c45c0696341be0efffe67d72a12abb","217.42.208.88","Mozilla/5.0 (Macintosh; Intel Mac OS X 10_15_7) AppleWebKit/537.36 (KHTML, like Gecko) Chrome/137.0.0.0 Safari/537.36","Macintosh","Chrome","137.0.0.0","OS X","10_15_7","https://app.prolific.com/","en-GB,en-US;q=0.9,en;q=0.8","6760580745ecb73102f83f3d","683dba9a53627eb9ab41b36a","688b693890a51d351c1f8c18","0","6760580745ecb73102f83f3d","0","2025-07-31T13:12:58.156Z","","","","ControlQ","","","","","","","","","","","50","","","","","","","","","","","","","","","","","","","","","","","","","","",""
"1880","","<div style=""width:500px;"">
  <p>How would you describe your current emotional state?</p>
  </div>","64","html-slider-response","56","662154","0.0-7.0-3.8","111","1","2025-07-31 13:01:56","36c45c0696341be0efffe67d72a12abb","217.42.208.88","Mozilla/5.0 (Macintosh; Intel Mac OS X 10_15_7) AppleWebKit/537.36 (KHTML, like Gecko) Chrome/137.0.0.0 Safari/537.36","Macintosh","Chrome","137.0.0.0","OS X","10_15_7","https://app.prolific.com/","en-GB,en-US;q=0.9,en;q=0.8","6760580745ecb73102f83f3d","683dba9a53627eb9ab41b36a","688b693890a51d351c1f8c18","0","6760580745ecb73102f83f3d","0","2025-07-31T13:13:00.036Z","","","","StressQ","","","","","","","","","","","50","","","","","","","","","","","","","","","","","","","","","","","","","","",""
"2820","","<div style=""width:500px;"">
  <p>What best describes how you currently feel?</p>
  </div>","26","html-slider-response","57","664975","0.0-7.0-4.8","111","1","2025-07-31 13:01:56","36c45c0696341be0efffe67d72a12abb","217.42.208.88","Mozilla/5.0 (Macintosh; Intel Mac OS X 10_15_7) AppleWebKit/537.36 (KHTML, like Gecko) Chrome/137.0.0.0 Safari/537.36","Macintosh","Chrome","137.0.0.0","OS X","10_15_7","https://app.prolific.com/","en-GB,en-US;q=0.9,en;q=0.8","6760580745ecb73102f83f3d","683dba9a53627eb9ab41b36a","688b693890a51d351c1f8c18","0","6760580745ecb73102f83f3d","0","2025-07-31T13:13:02.857Z","","","","MotivationQ","","","","","","","","","","","50","","","","","","","","","","","","","","","","","","","","","","","","","","",""
"","","","","ctl-task-cpt","58","751275","0.0-7.0-0.9","111","1","2025-07-31 13:01:56","36c45c0696341be0efffe67d72a12abb","217.42.208.88","Mozilla/5.0 (Macintosh; Intel Mac OS X 10_15_7) AppleWebKit/537.36 (KHTML, like Gecko) Chrome/137.0.0.0 Safari/537.36","Macintosh","Chrome","137.0.0.0","OS X","10_15_7","https://app.prolific.com/","en-GB,en-US;q=0.9,en;q=0.8","6760580745ecb73102f83f3d","683dba9a53627eb9ab41b36a","688b693890a51d351c1f8c18","0","6760580745ecb73102f83f3d","0","2025-07-31T13:14:29.157Z","","","","","","","","","","","","","","","","win-only","2","g1:SE,g2:NW","0.5","10","0","667104.3","1252.6","6262.9","83267.8","1","4","8","6","2","8","7","10","3","0.07575757575757576","1295.5","3000","355","[""left"",""up""]","{""num_key_presses"":22,""num_perfect"":11,""num_errors"":1,""num_randdir"":10,""num_randdir_good_moves"":2,""num_whilered"":0,""num_whileblue"":1,""num_blue"":3,""num_good_moves"":14}","[810,799.796875,0.4,810,799.796875,128.9,810,799.796875,251.6,810,799.796875,361.8,810,799.796875,464.1,816,859.796875,564.2,402,513.796875,693.7,382,363.796875,802.6,372,363.796875,916.4,254,265.796875,1035.3,218,209.796875,1140.4,212,201.796875,1247.9,212,201.796875,1350.5,212,201.796875,1458.4,212,201.796875,1572.7,144,233.796875,1691.8,-72,345.796875,1800.7,-82,345.796875,1915.6,-82,345.796875,2022,-82,345.796875,2142.7,-82,345.796875,2253.2,-82,345.796875,2357.3,-82,345.796875,2461.8,-82,345.796875,2572.2,-82,345.796875,2690.7,-82,345.796875,2816.4,-82,345.796875,2919.2,-82,345.796875,3021.7,-82,345.796875,3127.5,-82,345.796875,3248.5,-82,345.796875,3370.4,-82,345.796875,3472.1,-82,345.796875,3577.9,-82,345.796875,3687.3,-82,345.796875,3797.8,-82,345.796875,3913.9,-82,345.796875,4035.7,-82,345.796875,4140,-82,345.796875,4247.2,-82,345.796875,4356.7,-82,345.796875,4482.3,-82,345.796875,4603.2,-82,345.796875,4705.5,-82,345.796875,4816.2,-82,345.796875,4932.4]","[1373.7,1373.7,1000,0,373.7,""smooth"",""up"",""up"",""good_move"",4698.1,3324.3,2741.5,1373.8,582.8,""oops"",""up"",""right"",""bad_move"",8015.5,3316.5,2911.6,4699,404.9,""oops"",""up"",""down"",""bad_move"",10679.6,2663.8,2158.9,8015.8,504.9,""oops"",""up"",""right"",""bad_move"",13937.9,3258,2894.5,10680,363.5,""smooth"",""up"",""up"",""good_move"",17545.7,3607.4,3166.7,13938.3,440.7,""smooth"",""up"",""up"",""good_move"",20934,3387.4,2998,17546.6,389.4,""while_blue"",""up"",""up"",""good_move"",27693.1,6758.9,2433,24812.8,447.4,""oops"",""left"",""down"",""bad_move"",30620.8,2927.4,2146.7,27693.4,780.7,""oops"",""left"",""up"",""good_move"",34305,3683.7,1910.1,30621.3,1773.6,""smooth"",""left"",""left"",""good_move"",37603.4,3298.1,2472.4,34305.3,825.7,""smooth"",""left"",""left"",""good_move"",40978.5,3374.2,2617.6,37604.4,756.5,""smooth"",""left"",""left"",""good_move"",44726.8,3748.1,3357.1,40978.7,391,""smooth"",""left"",""left"",""good_move"",48151.9,3425,2336.3,44726.9,1088.7,""oops"",""left"",""down"",""bad_move"",50806.4,2653.4,2211.7,48153,441.7,""smooth"",""left"",""left"",""good_move"",54453,3646,2943.3,50807,702.7,""oops"",""up"",""down"",""bad_move"",57520.1,3066.9,2704,54453.2,362.9,""smooth"",""up"",""up"",""good_move"",60839.8,3319.3,2405.4,57520.5,913.9,""oops"",""up"",""right"",""bad_move"",63723.3,2882.8,2503.8,60840.5,379,""oops"",""up"",""down"",""bad_move"",66555.9,2832.4,2360.1,63723.5,472.3,""oops"",""up"",""up"",""good_move"",73082.2,6526.1,2024.9,70529.1,528.2,""smooth"",""up"",""up"",""good_move"",76616.6,3534.3,2606.6,73082.3,927.7,""smooth"",""left"",""left"",""good_move""]"
"8745","","<div style=""width:500px;"">
  <p>What determined the result of this run?</p>
  </div>","26","html-slider-response","59","760023","0.0-7.0-1.9","111","1","2025-07-31 13:01:56","36c45c0696341be0efffe67d72a12abb","217.42.208.88","Mozilla/5.0 (Macintosh; Intel Mac OS X 10_15_7) AppleWebKit/537.36 (KHTML, like Gecko) Chrome/137.0.0.0 Safari/537.36","Macintosh","Chrome","137.0.0.0","OS X","10_15_7","https://app.prolific.com/","en-GB,en-US;q=0.9,en;q=0.8","6760580745ecb73102f83f3d","683dba9a53627eb9ab41b36a","688b693890a51d351c1f8c18","0","6760580745ecb73102f83f3d","0","2025-07-31T13:14:37.905Z","","","","AttribQ","","","","","","","","","","","50","","","","","","","","","","","","","","","","","","","","","","","","","","",""
"3962","","<div style=""width:500px;"">
  <p>How much control did you have over the ball?</p>
  </div>","25","html-slider-response","60","763987","0.0-7.0-2.9","111","1","2025-07-31 13:01:56","36c45c0696341be0efffe67d72a12abb","217.42.208.88","Mozilla/5.0 (Macintosh; Intel Mac OS X 10_15_7) AppleWebKit/537.36 (KHTML, like Gecko) Chrome/137.0.0.0 Safari/537.36","Macintosh","Chrome","137.0.0.0","OS X","10_15_7","https://app.prolific.com/","en-GB,en-US;q=0.9,en;q=0.8","6760580745ecb73102f83f3d","683dba9a53627eb9ab41b36a","688b693890a51d351c1f8c18","0","6760580745ecb73102f83f3d","0","2025-07-31T13:14:41.870Z","","","","ControlQ","","","","","","","","","","","50","","","","","","","","","","","","","","","","","","","","","","","","","","",""
"2522","","<div style=""width:500px;"">
  <p>How would you describe your current emotional state?</p>
  </div>","60","html-slider-response","61","766512","0.0-7.0-3.9","111","1","2025-07-31 13:01:56","36c45c0696341be0efffe67d72a12abb","217.42.208.88","Mozilla/5.0 (Macintosh; Intel Mac OS X 10_15_7) AppleWebKit/537.36 (KHTML, like Gecko) Chrome/137.0.0.0 Safari/537.36","Macintosh","Chrome","137.0.0.0","OS X","10_15_7","https://app.prolific.com/","en-GB,en-US;q=0.9,en;q=0.8","6760580745ecb73102f83f3d","683dba9a53627eb9ab41b36a","688b693890a51d351c1f8c18","0","6760580745ecb73102f83f3d","0","2025-07-31T13:14:44.394Z","","","","StressQ","","","","","","","","","","","50","","","","","","","","","","","","","","","","","","","","","","","","","","",""
"2297","","<div style=""width:500px;"">
  <p>What best describes how you currently feel?</p>
  </div>","31","html-slider-response","62","768811","0.0-7.0-4.9","111","1","2025-07-31 13:01:56","36c45c0696341be0efffe67d72a12abb","217.42.208.88","Mozilla/5.0 (Macintosh; Intel Mac OS X 10_15_7) AppleWebKit/537.36 (KHTML, like Gecko) Chrome/137.0.0.0 Safari/537.36","Macintosh","Chrome","137.0.0.0","OS X","10_15_7","https://app.prolific.com/","en-GB,en-US;q=0.9,en;q=0.8","6760580745ecb73102f83f3d","683dba9a53627eb9ab41b36a","688b693890a51d351c1f8c18","0","6760580745ecb73102f83f3d","0","2025-07-31T13:14:46.693Z","","","","MotivationQ","","","","","","","","","","","50","","","","","","","","","","","","","","","","","","","","","","","","","","",""
"","","","","ctl-task-cpt","63","802088","0.0-7.0-0.10","111","1","2025-07-31 13:01:56","36c45c0696341be0efffe67d72a12abb","217.42.208.88","Mozilla/5.0 (Macintosh; Intel Mac OS X 10_15_7) AppleWebKit/537.36 (KHTML, like Gecko) Chrome/137.0.0.0 Safari/537.36","Macintosh","Chrome","137.0.0.0","OS X","10_15_7","https://app.prolific.com/","en-GB,en-US;q=0.9,en;q=0.8","6760580745ecb73102f83f3d","683dba9a53627eb9ab41b36a","688b693890a51d351c1f8c18","0","6760580745ecb73102f83f3d","0","2025-07-31T13:15:19.970Z","","","","","","","","","","","","","","","","win-only","0","g1:NW,g2:SE","0.6","11","0","770939.8","1035.5","6049.3","30243.8","1","4","4","6","2","4","4","14","10","0.10606060606060606","2123.6","3000","1895","[""down"",""right""]","{""num_key_presses"":8,""num_perfect"":5,""num_errors"":0,""num_randdir"":3,""num_randdir_good_moves"":2,""num_whilered"":0,""num_whileblue"":0,""num_blue"":0,""num_good_moves"":7}","[814,793.796875,0.3,814,793.796875,114.5,814,793.796875,234,814,793.796875,346.3,814,793.796875,451.9,814,793.796875,613.8,788,815.796875,743.4,608,833.796875,865.2,608,833.796875,978.8,614,829.796875,1081.2,814,985.796875,1197.1,814,985.796875,1302.1,840,997.796875,1419.9,1370,1291.796875,1533.2,1370,1291.796875,1645.7,1392,1311.796875,1749.1,1444,1387.796875,1857.8,1444,1387.796875,1979.9,1444,1387.796875,2092.4,1444,1387.796875,2208.6,1444,1387.796875,2314.2,1444,1387.796875,2416,1456,1377.796875,2518.4,2078,693.796875,2647.4,2078,693.796875,2759.5,2078,693.796875,2869,2078,693.796875,2976.5,2078,693.796875,3083.9,2078,693.796875,3198.4,2078,693.796875,3306.8,2078,693.796875,3417.8,2078,693.796875,3529,2078,693.796875,3634.3,2078,693.796875,3750.4,2078,693.796875,3879.5,2078,693.796875,3999.2,2078,693.796875,4103.1,2078,693.796875,4216.3,2078,693.796875,4322.7,2078,693.796875,4424.6,2078,693.796875,4553.2,2078,693.796875,4658,2078,693.796875,4779.8,2078,693.796875,4894.5]","[1592.1,1592.1,1000,0,592.2,""smooth"",""right"",""right"",""good_move"",4414.7,2822.3,2195.3,1592.4,627,""oops"",""right"",""up"",""bad_move"",8516.5,4101.2,2593.1,4415.3,1508.1,""oops"",""right"",""right"",""good_move"",11699.5,3182.9,2478.7,8516.7,704.2,""smooth"",""right"",""right"",""good_move"",14614.3,2914.6,2528.1,11699.7,386.5,""oops"",""down"",""down"",""good_move"",17519.2,2904.6,2269.1,14614.6,635.5,""smooth"",""down"",""down"",""good_move"",20891.3,3371.8,2900.6,17519.5,471.2,""smooth"",""down"",""down"",""good_move"",23784.7,2893.2,2147.6,20891.5,745.6,""smooth"",""down"",""down"",""good_move""]"
"10938","","<div style=""width:500px;"">
  <p>What determined the result of this run?</p>
  </div>","23","html-slider-response","64","813027","0.0-7.0-1.10","111","1","2025-07-31 13:01:56","36c45c0696341be0efffe67d72a12abb","217.42.208.88","Mozilla/5.0 (Macintosh; Intel Mac OS X 10_15_7) AppleWebKit/537.36 (KHTML, like Gecko) Chrome/137.0.0.0 Safari/537.36","Macintosh","Chrome","137.0.0.0","OS X","10_15_7","https://app.prolific.com/","en-GB,en-US;q=0.9,en;q=0.8","6760580745ecb73102f83f3d","683dba9a53627eb9ab41b36a","688b693890a51d351c1f8c18","0","6760580745ecb73102f83f3d","0","2025-07-31T13:15:30.909Z","","","","AttribQ","","","","","","","","","","","50","","","","","","","","","","","","","","","","","","","","","","","","","","",""
"1889","","<div style=""width:500px;"">
  <p>How much control did you have over the ball?</p>
  </div>","37","html-slider-response","65","814918","0.0-7.0-2.10","111","1","2025-07-31 13:01:56","36c45c0696341be0efffe67d72a12abb","217.42.208.88","Mozilla/5.0 (Macintosh; Intel Mac OS X 10_15_7) AppleWebKit/537.36 (KHTML, like Gecko) Chrome/137.0.0.0 Safari/537.36","Macintosh","Chrome","137.0.0.0","OS X","10_15_7","https://app.prolific.com/","en-GB,en-US;q=0.9,en;q=0.8","6760580745ecb73102f83f3d","683dba9a53627eb9ab41b36a","688b693890a51d351c1f8c18","0","6760580745ecb73102f83f3d","0","2025-07-31T13:15:32.801Z","","","","ControlQ","","","","","","","","","","","50","","","","","","","","","","","","","","","","","","","","","","","","","","",""
"2121","","<div style=""width:500px;"">
  <p>How would you describe your current emotional state?</p>
  </div>","62","html-slider-response","66","817042","0.0-7.0-3.10","111","1","2025-07-31 13:01:56","36c45c0696341be0efffe67d72a12abb","217.42.208.88","Mozilla/5.0 (Macintosh; Intel Mac OS X 10_15_7) AppleWebKit/537.36 (KHTML, like Gecko) Chrome/137.0.0.0 Safari/537.36","Macintosh","Chrome","137.0.0.0","OS X","10_15_7","https://app.prolific.com/","en-GB,en-US;q=0.9,en;q=0.8","6760580745ecb73102f83f3d","683dba9a53627eb9ab41b36a","688b693890a51d351c1f8c18","0","6760580745ecb73102f83f3d","0","2025-07-31T13:15:34.924Z","","","","StressQ","","","","","","","","","","","50","","","","","","","","","","","","","","","","","","","","","","","","","","",""
"2271","","<div style=""width:500px;"">
  <p>What best describes how you currently feel?</p>
  </div>","34","html-slider-response","67","819316","0.0-7.0-4.10","111","1","2025-07-31 13:01:56","36c45c0696341be0efffe67d72a12abb","217.42.208.88","Mozilla/5.0 (Macintosh; Intel Mac OS X 10_15_7) AppleWebKit/537.36 (KHTML, like Gecko) Chrome/137.0.0.0 Safari/537.36","Macintosh","Chrome","137.0.0.0","OS X","10_15_7","https://app.prolific.com/","en-GB,en-US;q=0.9,en;q=0.8","6760580745ecb73102f83f3d","683dba9a53627eb9ab41b36a","688b693890a51d351c1f8c18","0","6760580745ecb73102f83f3d","0","2025-07-31T13:15:37.198Z","","","","MotivationQ","","","","","","","","","","","50","","","","","","","","","","","","","","","","","","","","","","","","","","",""
"","","","","ctl-task-cpt","68","866003","0.0-7.0-0.11","111","1","2025-07-31 13:01:56","36c45c0696341be0efffe67d72a12abb","217.42.208.88","Mozilla/5.0 (Macintosh; Intel Mac OS X 10_15_7) AppleWebKit/537.36 (KHTML, like Gecko) Chrome/137.0.0.0 Safari/537.36","Macintosh","Chrome","137.0.0.0","OS X","10_15_7","https://app.prolific.com/","en-GB,en-US;q=0.9,en;q=0.8","6760580745ecb73102f83f3d","683dba9a53627eb9ab41b36a","688b693890a51d351c1f8c18","0","6760580745ecb73102f83f3d","0","2025-07-31T13:16:23.885Z","","","","","","","","","","","","","","","","win-only","0","g1:NW,g2:SE","0.7","12","0","821449","697.5","5698.7","43651.4","1","4","8","6","2","8","8","22","14","0.16666666666666666","1149.8","3000","2220","[""down"",""right""]","{""num_key_presses"":8,""num_perfect"":6,""num_errors"":0,""num_randdir"":2,""num_randdir_good_moves"":1,""num_whilered"":0,""num_whileblue"":0,""num_blue"":4,""num_good_moves"":7}","[806,787.796875,0.5,806,787.796875,119.1,806,787.796875,229.7,806,787.796875,357,876,889.796875,482.4,970,1155.796875,593.6,970,1155.796875,733.9,1198,1287.796875,843.7,1450,1447.796875,950.7,1452,1447.796875,1076.1,1452,1447.796875,1187.5,1452,1447.796875,1290.3,1452,1447.796875,1393.5,1660,1033.796875,1500.6,1680,969.796875,1618,1680,969.796875,1719.3,1680,969.796875,1820.8,1680,969.796875,1932.3,1680,969.796875,2044.7,1680,969.796875,2151.6,1680,969.796875,2272.1,1680,969.796875,2381.3,1904,787.796875,2500.4,2130,737.796875,2603,2130,737.796875,2713.5,2130,737.796875,2839,2130,737.796875,2958.7,2130,737.796875,3059.4,2130,737.796875,3164.1,2130,737.796875,3270.8,2130,737.796875,3374.6,2130,737.796875,3509.7,2130,737.796875,3628.5,2130,737.796875,3731.5,2130,737.796875,3846.8,2130,737.796875,3990.6,2130,737.796875,4118,2130,737.796875,4218.9,2130,737.796875,4332.8,2130,737.796875,4443,2130,737.796875,4549.9,2130,737.796875,4671,2130,737.796875,4801,2130,737.796875,4918.5]","[1447.3,1447.3,1000,0,447.3,""smooth"",""right"",""right"",""good_move"",4214.6,2766.5,2311.9,1448.1,454.6,""smooth"",""right"",""right"",""good_move"",7046.4,2831.6,2223.3,4214.8,608.3,""smooth"",""right"",""right"",""good_move"",10294,3247.4,2837.3,7046.6,410.1,""oops"",""down"",""down"",""good_move"",16792.4,6497.9,2861.3,13443.8,487.3,""oops"",""down"",""up"",""bad_move"",20667.8,3875.3,2239.7,16792.6,1635.6,""smooth"",""down"",""down"",""good_move"",34955.7,14286.8,2473,32087.6,395.1,""smooth"",""down"",""down"",""good_move"",37592.5,2636.6,2164.5,34955.9,472.1,""smooth"",""down"",""down"",""good_move""]"
"2936","","<div style=""width:500px;"">
  <p>What determined the result of this run?</p>
  </div>","40","html-slider-response","69","868941","0.0-7.0-1.11","111","1","2025-07-31 13:01:56","36c45c0696341be0efffe67d72a12abb","217.42.208.88","Mozilla/5.0 (Macintosh; Intel Mac OS X 10_15_7) AppleWebKit/537.36 (KHTML, like Gecko) Chrome/137.0.0.0 Safari/537.36","Macintosh","Chrome","137.0.0.0","OS X","10_15_7","https://app.prolific.com/","en-GB,en-US;q=0.9,en;q=0.8","6760580745ecb73102f83f3d","683dba9a53627eb9ab41b36a","688b693890a51d351c1f8c18","0","6760580745ecb73102f83f3d","0","2025-07-31T13:16:26.823Z","","","","AttribQ","","","","","","","","","","","50","","","","","","","","","","","","","","","","","","","","","","","","","","",""
"2685","","<div style=""width:500px;"">
  <p>How much control did you have over the ball?</p>
  </div>","36","html-slider-response","70","871628","0.0-7.0-2.11","111","1","2025-07-31 13:01:56","36c45c0696341be0efffe67d72a12abb","217.42.208.88","Mozilla/5.0 (Macintosh; Intel Mac OS X 10_15_7) AppleWebKit/537.36 (KHTML, like Gecko) Chrome/137.0.0.0 Safari/537.36","Macintosh","Chrome","137.0.0.0","OS X","10_15_7","https://app.prolific.com/","en-GB,en-US;q=0.9,en;q=0.8","6760580745ecb73102f83f3d","683dba9a53627eb9ab41b36a","688b693890a51d351c1f8c18","0","6760580745ecb73102f83f3d","0","2025-07-31T13:16:29.510Z","","","","ControlQ","","","","","","","","","","","50","","","","","","","","","","","","","","","","","","","","","","","","","","",""
"1930","","<div style=""width:500px;"">
  <p>How would you describe your current emotional state?</p>
  </div>","38","html-slider-response","71","873561","0.0-7.0-3.11","111","1","2025-07-31 13:01:56","36c45c0696341be0efffe67d72a12abb","217.42.208.88","Mozilla/5.0 (Macintosh; Intel Mac OS X 10_15_7) AppleWebKit/537.36 (KHTML, like Gecko) Chrome/137.0.0.0 Safari/537.36","Macintosh","Chrome","137.0.0.0","OS X","10_15_7","https://app.prolific.com/","en-GB,en-US;q=0.9,en;q=0.8","6760580745ecb73102f83f3d","683dba9a53627eb9ab41b36a","688b693890a51d351c1f8c18","0","6760580745ecb73102f83f3d","0","2025-07-31T13:16:31.443Z","","","","StressQ","","","","","","","","","","","50","","","","","","","","","","","","","","","","","","","","","","","","","","",""
"2061","","<div style=""width:500px;"">
  <p>What best describes how you currently feel?</p>
  </div>","41","html-slider-response","72","875624","0.0-7.0-4.11","111","1","2025-07-31 13:01:56","36c45c0696341be0efffe67d72a12abb","217.42.208.88","Mozilla/5.0 (Macintosh; Intel Mac OS X 10_15_7) AppleWebKit/537.36 (KHTML, like Gecko) Chrome/137.0.0.0 Safari/537.36","Macintosh","Chrome","137.0.0.0","OS X","10_15_7","https://app.prolific.com/","en-GB,en-US;q=0.9,en;q=0.8","6760580745ecb73102f83f3d","683dba9a53627eb9ab41b36a","688b693890a51d351c1f8c18","0","6760580745ecb73102f83f3d","0","2025-07-31T13:16:33.506Z","","","","MotivationQ","","","","","","","","","","","50","","","","","","","","","","","","","","","","","","","","","","","","","","",""
"","","","","ctl-task-cpt","73","917019","0.0-7.0-0.12","111","1","2025-07-31 13:01:56","36c45c0696341be0efffe67d72a12abb","217.42.208.88","Mozilla/5.0 (Macintosh; Intel Mac OS X 10_15_7) AppleWebKit/537.36 (KHTML, like Gecko) Chrome/137.0.0.0 Safari/537.36","Macintosh","Chrome","137.0.0.0","OS X","10_15_7","https://app.prolific.com/","en-GB,en-US;q=0.9,en;q=0.8","6760580745ecb73102f83f3d","683dba9a53627eb9ab41b36a","688b693890a51d351c1f8c18","0","6760580745ecb73102f83f3d","0","2025-07-31T13:17:14.901Z","","","","","","","","","","","","","","","","win-only","1","g1:NE,g2:SW","0.8","13","0","877759.1","845.3","5846.6","38023.3","1","4","8","6","2","8","8","30","22","0.22727272727272727","1113","3000","2410","[""down"",""left""]","{""num_key_presses"":6,""num_perfect"":6,""num_errors"":0,""num_randdir"":0,""num_randdir_good_moves"":0,""num_whilered"":0,""num_whileblue"":0,""num_blue"":3,""num_good_moves"":6}","[814,817.796875,0.4,814,817.796875,102.5,814,817.796875,220,814,817.796875,322.3,814,817.796875,423.1,618,993.796875,535.9,556,1083.796875,645.2,554,1083.796875,761.7,236,1383.796875,881.9,184,1461.796875,1017.1,184,1461.796875,1123.9,184,1461.796875,1233,184,1461.796875,1341.6,166,1461.796875,1445.7,-190,1215.796875,1558.1,-190,1173.796875,1661,-190,1173.796875,1794.9,-190,1173.796875,1905.8,-190,1173.796875,2008.1,-190,1173.796875,2110.1,-190,1173.796875,2237.6,-190,1173.796875,2357.5,-190,1173.796875,2457.5,-190,1173.796875,2575.9,-190,1173.796875,2681.7,-190,1173.796875,2796.2,-190,1173.796875,2912.5,-190,1173.796875,3049.8,-190,1173.796875,3150.8,-190,1173.796875,3261.4,-190,1173.796875,3370.5,-190,1173.796875,3504.7,-190,1173.796875,3612.2,-190,1173.796875,3715.8,-190,1173.796875,3816.2,-190,1173.796875,3932,-190,1173.796875,4064.5,-190,1173.796875,4181.9,-190,1173.796875,4284,-190,1173.796875,4392.8,-190,1173.796875,4496.1,-190,1173.796875,4597.9,-190,1173.796875,4700.4,-190,1173.796875,4813.3,-190,1173.796875,4918.4]","[1437.4,1437.4,1000,0,437.4,""smooth"",""left"",""left"",""good_move"",8569.9,7131.8,1852.6,6214.2,503.1,""smooth"",""left"",""left"",""good_move"",17072.1,8502,3084.4,13454.5,533.2,""smooth"",""left"",""left"",""good_move"",21418.9,4346.6,2515.1,17072.3,1831.5,""smooth"",""down"",""down"",""good_move"",24499.3,3079.9,2638,21419.4,441.9,""smooth"",""down"",""down"",""good_move"",31800.8,7301,3109.6,28271.9,419.3,""smooth"",""down"",""down"",""good_move""]"
"7896","","<div style=""width:500px;"">
  <p>What determined the result of this run?</p>
  </div>","41","html-slider-response","74","924916","0.0-7.0-1.12","111","1","2025-07-31 13:01:56","36c45c0696341be0efffe67d72a12abb","217.42.208.88","Mozilla/5.0 (Macintosh; Intel Mac OS X 10_15_7) AppleWebKit/537.36 (KHTML, like Gecko) Chrome/137.0.0.0 Safari/537.36","Macintosh","Chrome","137.0.0.0","OS X","10_15_7","https://app.prolific.com/","en-GB,en-US;q=0.9,en;q=0.8","6760580745ecb73102f83f3d","683dba9a53627eb9ab41b36a","688b693890a51d351c1f8c18","0","6760580745ecb73102f83f3d","0","2025-07-31T13:17:22.798Z","","","","AttribQ","","","","","","","","","","","50","","","","","","","","","","","","","","","","","","","","","","","","","","",""
"1601","","<div style=""width:500px;"">
  <p>How much control did you have over the ball?</p>
  </div>","38","html-slider-response","75","926520","0.0-7.0-2.12","111","1","2025-07-31 13:01:56","36c45c0696341be0efffe67d72a12abb","217.42.208.88","Mozilla/5.0 (Macintosh; Intel Mac OS X 10_15_7) AppleWebKit/537.36 (KHTML, like Gecko) Chrome/137.0.0.0 Safari/537.36","Macintosh","Chrome","137.0.0.0","OS X","10_15_7","https://app.prolific.com/","en-GB,en-US;q=0.9,en;q=0.8","6760580745ecb73102f83f3d","683dba9a53627eb9ab41b36a","688b693890a51d351c1f8c18","0","6760580745ecb73102f83f3d","0","2025-07-31T13:17:24.402Z","","","","ControlQ","","","","","","","","","","","50","","","","","","","","","","","","","","","","","","","","","","","","","","",""
"2345","","<div style=""width:500px;"">
  <p>How would you describe your current emotional state?</p>
  </div>","45","html-slider-response","76","928867","0.0-7.0-3.12","111","1","2025-07-31 13:01:56","36c45c0696341be0efffe67d72a12abb","217.42.208.88","Mozilla/5.0 (Macintosh; Intel Mac OS X 10_15_7) AppleWebKit/537.36 (KHTML, like Gecko) Chrome/137.0.0.0 Safari/537.36","Macintosh","Chrome","137.0.0.0","OS X","10_15_7","https://app.prolific.com/","en-GB,en-US;q=0.9,en;q=0.8","6760580745ecb73102f83f3d","683dba9a53627eb9ab41b36a","688b693890a51d351c1f8c18","0","6760580745ecb73102f83f3d","0","2025-07-31T13:17:26.749Z","","","","StressQ","","","","","","","","","","","50","","","","","","","","","","","","","","","","","","","","","","","","","","",""
"2624","","<div style=""width:500px;"">
  <p>What best describes how you currently feel?</p>
  </div>","40","html-slider-response","77","931495","0.0-7.0-4.12","111","1","2025-07-31 13:01:56","36c45c0696341be0efffe67d72a12abb","217.42.208.88","Mozilla/5.0 (Macintosh; Intel Mac OS X 10_15_7) AppleWebKit/537.36 (KHTML, like Gecko) Chrome/137.0.0.0 Safari/537.36","Macintosh","Chrome","137.0.0.0","OS X","10_15_7","https://app.prolific.com/","en-GB,en-US;q=0.9,en;q=0.8","6760580745ecb73102f83f3d","683dba9a53627eb9ab41b36a","688b693890a51d351c1f8c18","0","6760580745ecb73102f83f3d","0","2025-07-31T13:17:29.377Z","","","","MotivationQ","","","","","","","","","","","50","","","","","","","","","","","","","","","","","","","","","","","","","","",""
"","","","","ctl-task-cpt","78","966392","0.0-7.0-0.13","111","1","2025-07-31 13:01:56","36c45c0696341be0efffe67d72a12abb","217.42.208.88","Mozilla/5.0 (Macintosh; Intel Mac OS X 10_15_7) AppleWebKit/537.36 (KHTML, like Gecko) Chrome/137.0.0.0 Safari/537.36","Macintosh","Chrome","137.0.0.0","OS X","10_15_7","https://app.prolific.com/","en-GB,en-US;q=0.9,en;q=0.8","6760580745ecb73102f83f3d","683dba9a53627eb9ab41b36a","688b693890a51d351c1f8c18","0","6760580745ecb73102f83f3d","0","2025-07-31T13:18:04.274Z","","","","","","","","","","","","","","","","win-only","3","g1:SW,g2:NE","0.9","14","0","933629.2","1241.2","6253.3","31866.3","1","4","4","6","2","4","4","34","30","0.25757575757575757","1201.8","3000","2390","[""up"",""right""]","{""num_key_presses"":6,""num_perfect"":5,""num_errors"":0,""num_randdir"":1,""num_randdir_good_moves"":1,""num_whilered"":0,""num_whileblue"":0,""num_blue"":1,""num_good_moves"":6}","[824,809.796875,0.1,824,809.796875,139.9,824,809.796875,247.3,824,809.796875,359.3,824,809.796875,466.1,920,713.796875,615,1666,103.796875,738.1,1686,89.796875,856,1648,95.796875,958.1,1448,163.796875,1076,1448,163.796875,1208.3,1448,163.796875,1332.2,1448,163.796875,1437.2,1606,421.796875,1538.4,1664,505.796875,1647,1664,507.796875,1770.9,1706,491.796875,1885.3,1706,491.796875,1992.1,1706,491.796875,2108.7,1706,491.796875,2224.6,1706,491.796875,2337.3,1706,491.796875,2471.1,1706,491.796875,2580.2,1706,491.796875,2696.2,1706,491.796875,2799.6,1706,491.796875,2961,1706,491.796875,3089.5,1706,491.796875,3207.2,1706,491.796875,3309.7,1706,491.796875,3415,1706,491.796875,3517.1,1706,491.796875,3636.4,1706,491.796875,3762.3,1706,491.796875,3872.6,1706,491.796875,3989,1706,491.796875,4104.2,1706,491.796875,4207.3,1706,491.796875,4323.6,1706,491.796875,4451.6,1706,491.796875,4559.3,1706,491.796875,4660.7,1706,491.796875,4762.3,1706,491.796875,4879.1]","[1422.7,1422.7,1000,0,422.7,""smooth"",""up"",""up"",""good_move"",6362,4939,2659.4,1423,2279.6,""smooth"",""up"",""up"",""good_move"",11395.4,5033.3,2995,6362.1,2038.3,""oops"",""up"",""right"",""good_move"",13993.6,2597.9,2081.7,11395.7,516.2,""smooth"",""up"",""up"",""good_move"",18804.6,4810.8,2302.7,13993.8,2508.1,""smooth"",""right"",""right"",""good_move"",25166.3,6361.5,2385.3,22289,492,""smooth"",""right"",""right"",""good_move""]"
"13575","","<div style=""width:500px;"">
  <p>What determined the result of this run?</p>
  </div>","35","html-slider-response","79","979969","0.0-7.0-1.13","111","1","2025-07-31 13:01:56","36c45c0696341be0efffe67d72a12abb","217.42.208.88","Mozilla/5.0 (Macintosh; Intel Mac OS X 10_15_7) AppleWebKit/537.36 (KHTML, like Gecko) Chrome/137.0.0.0 Safari/537.36","Macintosh","Chrome","137.0.0.0","OS X","10_15_7","https://app.prolific.com/","en-GB,en-US;q=0.9,en;q=0.8","6760580745ecb73102f83f3d","683dba9a53627eb9ab41b36a","688b693890a51d351c1f8c18","0","6760580745ecb73102f83f3d","0","2025-07-31T13:18:17.852Z","","","","AttribQ","","","","","","","","","","","50","","","","","","","","","","","","","","","","","","","","","","","","","","",""
"2178","","<div style=""width:500px;"">
  <p>How much control did you have over the ball?</p>
  </div>","42","html-slider-response","80","982150","0.0-7.0-2.13","111","1","2025-07-31 13:01:56","36c45c0696341be0efffe67d72a12abb","217.42.208.88","Mozilla/5.0 (Macintosh; Intel Mac OS X 10_15_7) AppleWebKit/537.36 (KHTML, like Gecko) Chrome/137.0.0.0 Safari/537.36","Macintosh","Chrome","137.0.0.0","OS X","10_15_7","https://app.prolific.com/","en-GB,en-US;q=0.9,en;q=0.8","6760580745ecb73102f83f3d","683dba9a53627eb9ab41b36a","688b693890a51d351c1f8c18","0","6760580745ecb73102f83f3d","0","2025-07-31T13:18:20.033Z","","","","ControlQ","","","","","","","","","","","50","","","","","","","","","","","","","","","","","","","","","","","","","","",""
"2411","","<div style=""width:500px;"">
  <p>How would you describe your current emotional state?</p>
  </div>","44","html-slider-response","81","984564","0.0-7.0-3.13","111","1","2025-07-31 13:01:56","36c45c0696341be0efffe67d72a12abb","217.42.208.88","Mozilla/5.0 (Macintosh; Intel Mac OS X 10_15_7) AppleWebKit/537.36 (KHTML, like Gecko) Chrome/137.0.0.0 Safari/537.36","Macintosh","Chrome","137.0.0.0","OS X","10_15_7","https://app.prolific.com/","en-GB,en-US;q=0.9,en;q=0.8","6760580745ecb73102f83f3d","683dba9a53627eb9ab41b36a","688b693890a51d351c1f8c18","0","6760580745ecb73102f83f3d","0","2025-07-31T13:18:22.446Z","","","","StressQ","","","","","","","","","","","50","","","","","","","","","","","","","","","","","","","","","","","","","","",""
"2163","","<div style=""width:500px;"">
  <p>What best describes how you currently feel?</p>
  </div>","43","html-slider-response","82","986729","0.0-7.0-4.13","111","1","2025-07-31 13:01:56","36c45c0696341be0efffe67d72a12abb","217.42.208.88","Mozilla/5.0 (Macintosh; Intel Mac OS X 10_15_7) AppleWebKit/537.36 (KHTML, like Gecko) Chrome/137.0.0.0 Safari/537.36","Macintosh","Chrome","137.0.0.0","OS X","10_15_7","https://app.prolific.com/","en-GB,en-US;q=0.9,en;q=0.8","6760580745ecb73102f83f3d","683dba9a53627eb9ab41b36a","688b693890a51d351c1f8c18","0","6760580745ecb73102f83f3d","0","2025-07-31T13:18:24.611Z","","","","MotivationQ","","","","","","","","","","","50","","","","","","","","","","","","","","","","","","","","","","","","","","",""
"","","","","ctl-task-cpt","83","1023212","0.0-7.0-0.14","111","1","2025-07-31 13:01:56","36c45c0696341be0efffe67d72a12abb","217.42.208.88","Mozilla/5.0 (Macintosh; Intel Mac OS X 10_15_7) AppleWebKit/537.36 (KHTML, like Gecko) Chrome/137.0.0.0 Safari/537.36","Macintosh","Chrome","137.0.0.0","OS X","10_15_7","https://app.prolific.com/","en-GB,en-US;q=0.9,en;q=0.8","6760580745ecb73102f83f3d","683dba9a53627eb9ab41b36a","688b693890a51d351c1f8c18","0","6760580745ecb73102f83f3d","0","2025-07-31T13:19:01.094Z","","","","","","","","","","","","","","","","win-only","1","g1:NE,g2:SW","1","15","0","988863.1","1085.1","6092.4","33439.2","1","4","8","6","2","8","8","42","34","0.3181818181818182","1041.1","3000","2560","[""down"",""left""]","{""num_key_presses"":6,""num_perfect"":6,""num_errors"":0,""num_randdir"":0,""num_randdir_good_moves"":0,""num_whilered"":0,""num_whileblue"":0,""num_blue"":1,""num_good_moves"":6}","[800,799.796875,0.2,800,799.796875,108,800,799.796875,238.9,800,799.796875,362.6,800,799.796875,484.7,434,1277.796875,585.1,308,1501.796875,688.3,308,1501.796875,794,226,1473.796875,919.2,218,1471.796875,1043.4,218,1471.796875,1159.7,218,1471.796875,1278.3,218,1471.796875,1396.1,4,1437.796875,1534.7,-370,1321.796875,1649.3,-370,1321.796875,1756.5,-370,1321.796875,1864.8,-370,1321.796875,1966.6,-370,1321.796875,2084.1,-370,1321.796875,2194,-370,1321.796875,2312,-370,1321.796875,2414.6,-370,1321.796875,2591.1,-370,1321.796875,2699.1,-370,1321.796875,2816.8,-370,1321.796875,2932.5,-370,1321.796875,3046.6,-370,1321.796875,3148.8,-370,1321.796875,3254,-370,1321.796875,3383.2,-370,1321.796875,3501,-370,1321.796875,3604.8,-370,1321.796875,3713.6,-370,1321.796875,3835,-370,1321.796875,3950.5,-370,1321.796875,4054.3,-370,1321.796875,4172.4,-370,1321.796875,4277.2,-370,1321.796875,4379.5,-370,1321.796875,4481.7,-370,1321.796875,4611.2,-370,1321.796875,4733.8,-370,1321.796875,4840.7,-370,1321.796875,4941.8]","[1445.2,1445.2,1000,0,445.2,""smooth"",""left"",""left"",""good_move"",6641.5,5195.9,2236.4,1445.6,2959.5,""smooth"",""left"",""left"",""good_move"",15433.9,8792.3,2401.5,12563.2,469.2,""smooth"",""left"",""left"",""good_move"",21245.2,5811.2,2276.5,15434,3534.7,""smooth"",""down"",""down"",""good_move"",23843.8,2598.4,2126.2,21245.4,472.2,""smooth"",""down"",""down"",""good_move"",26842,2997.9,2591.2,23844.1,406.7,""smooth"",""down"",""down"",""good_move""]"
"3138","","<div style=""width:500px;"">
  <p>What determined the result of this run?</p>
  </div>","64","html-slider-response","84","1026353","0.0-7.0-1.14","111","1","2025-07-31 13:01:56","36c45c0696341be0efffe67d72a12abb","217.42.208.88","Mozilla/5.0 (Macintosh; Intel Mac OS X 10_15_7) AppleWebKit/537.36 (KHTML, like Gecko) Chrome/137.0.0.0 Safari/537.36","Macintosh","Chrome","137.0.0.0","OS X","10_15_7","https://app.prolific.com/","en-GB,en-US;q=0.9,en;q=0.8","6760580745ecb73102f83f3d","683dba9a53627eb9ab41b36a","688b693890a51d351c1f8c18","0","6760580745ecb73102f83f3d","0","2025-07-31T13:19:04.235Z","","","","AttribQ","","","","","","","","","","","50","","","","","","","","","","","","","","","","","","","","","","","","","","",""
"2023","","<div style=""width:500px;"">
  <p>How much control did you have over the ball?</p>
  </div>","61","html-slider-response","85","1028376","0.0-7.0-2.14","111","1","2025-07-31 13:01:56","36c45c0696341be0efffe67d72a12abb","217.42.208.88","Mozilla/5.0 (Macintosh; Intel Mac OS X 10_15_7) AppleWebKit/537.36 (KHTML, like Gecko) Chrome/137.0.0.0 Safari/537.36","Macintosh","Chrome","137.0.0.0","OS X","10_15_7","https://app.prolific.com/","en-GB,en-US;q=0.9,en;q=0.8","6760580745ecb73102f83f3d","683dba9a53627eb9ab41b36a","688b693890a51d351c1f8c18","0","6760580745ecb73102f83f3d","0","2025-07-31T13:19:06.258Z","","","","ControlQ","","","","","","","","","","","50","","","","","","","","","","","","","","","","","","","","","","","","","","",""
"1892","","<div style=""width:500px;"">
  <p>How would you describe your current emotional state?</p>
  </div>","45","html-slider-response","86","1030269","0.0-7.0-3.14","111","1","2025-07-31 13:01:56","36c45c0696341be0efffe67d72a12abb","217.42.208.88","Mozilla/5.0 (Macintosh; Intel Mac OS X 10_15_7) AppleWebKit/537.36 (KHTML, like Gecko) Chrome/137.0.0.0 Safari/537.36","Macintosh","Chrome","137.0.0.0","OS X","10_15_7","https://app.prolific.com/","en-GB,en-US;q=0.9,en;q=0.8","6760580745ecb73102f83f3d","683dba9a53627eb9ab41b36a","688b693890a51d351c1f8c18","0","6760580745ecb73102f83f3d","0","2025-07-31T13:19:08.151Z","","","","StressQ","","","","","","","","","","","50","","","","","","","","","","","","","","","","","","","","","","","","","","",""
"1700","","<div style=""width:500px;"">
  <p>What best describes how you currently feel?</p>
