"rt","response_timestamp","stimulus","response","trial_type","trial_index","time_elapsed","internal_node_id","run_id","condition","recorded_at","source_code_version","ip","user_agent","device","browser","browser_version","platform","platform_version","referer","accept_language","PROLIFIC_PID","STUDY_ID","SESSION_ID","BATCH","prolific_id","batch","realtime","success","question_order","question_id","eventType","responses","item_order","radio_event_ids","radio_event_times","key_event_times","mouse_event_times","straightlining","zigzagging","honeypot","view_history","slider_start","which_type","canvas_config","goals_layout","control_level","trial_number","tutorial_trial_number","trial_start_time","phase1_start_time","phase2_start_time","phase3_start_time","goal_1_value","goal_1_distance","goal_2_value","goal_2_distance","goal_selected","outcome","outcome_total","participant_final_score","participant_initial_score","participant_final_score_prop","goal_choice_rt","allocated_time","allocated_time_remaining","goal_direction","counts","mouse_movements","key_presses"
"2272","1753865166655","<p style='font-size:40px;line-height:1.25'><strong>Welcome to the experiment!</strong></p><p style='font-size:1.1em;line-height:1.25'>Thank you for participanting in our experiment again! You will be asked to play the Dysfunctional Ball Game again. We will briefly recap the rules before we start.</p><p style='font-size:1.1em;line-height:1.25'>Press <strong>Next</strong> to continue.</p>","0","custom-html-button-response","0","2273","0.0-0.0","51","1","2025-07-30 08:46:02","36c45c0696341be0efffe67d72a12abb","82.132.213.170","Mozilla/5.0 (Windows NT 10.0; Win64; x64) AppleWebKit/537.36 (KHTML, like Gecko) Chrome/138.0.0.0 Safari/537.36","WebKit","Chrome","138.0.0.0","Windows","10.0","https://app.prolific.com/","en-GB,en-US;q=0.9,en;q=0.8","676054ef296caad582258e02","683dba9a53627eb9ab41b36a","6889db8ddd28a800005a3625","0","676054ef296caad582258e02","0","2025-07-30T08:46:06.656Z","","","","","","","","","","","","","","","","","","","","","","","","","","","","","","","","","","","","","","","","","",""
"2966","","","","fullscreen","1","6251","0.0-1.0","51","1","2025-07-30 08:46:02","36c45c0696341be0efffe67d72a12abb","82.132.213.170","Mozilla/5.0 (Windows NT 10.0; Win64; x64) AppleWebKit/537.36 (KHTML, like Gecko) Chrome/138.0.0.0 Safari/537.36","WebKit","Chrome","138.0.0.0","Windows","10.0","https://app.prolific.com/","en-GB,en-US;q=0.9,en;q=0.8","676054ef296caad582258e02","683dba9a53627eb9ab41b36a","6889db8ddd28a800005a3625","0","676054ef296caad582258e02","0","","true","","","","","","","","","","","","","","","","","","","","","","","","","","","","","","","","","","","","","","","","",""
"1365","1753865171999"," <p style='font-size:1.1em;line-height:1.25'>Thank you for closing all other tabs.</p><p style='font-size:1.1em;line-height:1.25'>We will now invite you to fill in some questionnaires, before starting the game.<br>This will take about 5 minutes.<br></p><p style='font-size:1.1em;line-height:1.25'>Press the <strong>Next</strong> button to continue.</p>","0","custom-html-button-response","2","7616","0.0-2.0","51","1","2025-07-30 08:46:02","36c45c0696341be0efffe67d72a12abb","82.132.213.170","Mozilla/5.0 (Windows NT 10.0; Win64; x64) AppleWebKit/537.36 (KHTML, like Gecko) Chrome/138.0.0.0 Safari/537.36","WebKit","Chrome","138.0.0.0","Windows","10.0","https://app.prolific.com/","en-GB,en-US;q=0.9,en;q=0.8","676054ef296caad582258e02","683dba9a53627eb9ab41b36a","6889db8ddd28a800005a3625","0","676054ef296caad582258e02","0","2025-07-30T08:46:11.999Z","","","","","","","","","","","","","","","","","","","","","","","","","","","","","","","","","","","","","","","","","",""
"7744","","","{""assigned_sex"":""female""}","survey-multi-choice","3","15361","0.0-3.0-0.0","51","1","2025-07-30 08:46:02","36c45c0696341be0efffe67d72a12abb","82.132.213.170","Mozilla/5.0 (Windows NT 10.0; Win64; x64) AppleWebKit/537.36 (KHTML, like Gecko) Chrome/138.0.0.0 Safari/537.36","WebKit","Chrome","138.0.0.0","Windows","10.0","https://app.prolific.com/","en-GB,en-US;q=0.9,en;q=0.8","676054ef296caad582258e02","683dba9a53627eb9ab41b36a","6889db8ddd28a800005a3625","0","676054ef296caad582258e02","0","","","[0]","0","demographics","","","","","","","","","","","","","","","","","","","","","","","","","","","","","","","","","","","","","",""
"4022","1753865183767","<p style='font-size:1.1em;line-height:1.25'>In the following, we will perform a baseline assessment. This means that we will ask you a few questions relating to your experiences over the past month.<br></p><p style='font-size:1.1em;line-height:1.25'>Press the <strong>Next</strong> button to continue.</p>","0","custom-html-button-response","4","19384","0.0-4.0-0.0","51","1","2025-07-30 08:46:02","36c45c0696341be0efffe67d72a12abb","82.132.213.170","Mozilla/5.0 (Windows NT 10.0; Win64; x64) AppleWebKit/537.36 (KHTML, like Gecko) Chrome/138.0.0.0 Safari/537.36","WebKit","Chrome","138.0.0.0","Windows","10.0","https://app.prolific.com/","en-GB,en-US;q=0.9,en;q=0.8","676054ef296caad582258e02","683dba9a53627eb9ab41b36a","6889db8ddd28a800005a3625","0","676054ef296caad582258e02","0","2025-07-30T08:46:23.767Z","","","","","","","","","","","","","","","","","","","","","","","","","","","","","","","","","","","","","","","","","",""
"60392.5","","","","survey-template","5","79779","0.0-4.0-1.0","51","1","2025-07-30 08:46:02","36c45c0696341be0efffe67d72a12abb","82.132.213.170","Mozilla/5.0 (Windows NT 10.0; Win64; x64) AppleWebKit/537.36 (KHTML, like Gecko) Chrome/138.0.0.0 Safari/537.36","WebKit","Chrome","138.0.0.0","Windows","10.0","https://app.prolific.com/","en-GB,en-US;q=0.9,en;q=0.8","676054ef296caad582258e02","683dba9a53627eb9ab41b36a","6889db8ddd28a800005a3625","0","676054ef296caad582258e02","0","2025-07-30T08:47:24.162Z","","","","pss","{""Q01"":""0"",""Q02"":""2"",""Q03"":""1"",""Q04"":""2"",""Q05"":""2"",""Q06"":""0"",""Q07"":""0"",""Q08"":""2"",""Q09"":""2"",""Q10"":""1""}","[0,1,2,3,4,5,6,7,8,9]","[""Q01"",""Q02"",""Q03"",""Q04"",""Q05"",""Q06"",""Q07"",""Q04"",""Q04"",""Q08"",""Q08"",""Q09"",""Q09"",""Q09"",""Q10"",""Q10""]","[2606.5,8678.5,11566.699999999255,15006.5,17758.5,23902.5,29582.5,35190.699999999255,39104.199999999255,42054.5,43382.300000000745,46350.5,47766.59999999963,55134.5,58062.09999999963,59534.5]","[]","[0.09999999962747097,2606.5,8678.5,11110.5,11566.699999999255,14574.5,15006.5,17758.5,23902.5,28662.5,29582.5,35190.699999999255,39104.199999999255,42054.5,43382.300000000745,45574.5,46350.5,47766.59999999963,53846.5,55134.5,57550.5,58062.09999999963,59534.5,60390.59999999963]","0.5","0.4444444444444444","0","","","","","","","","","","","","","","","","","","","","","","","","","","","","",""
"1261","1753865245423","<p style='font-size:1.1em;line-height:1.25'>Thank you for your answers! Now we will ask you a few more questions relating to your feelings in the last 24 hours.<br></p><p style='font-size:1.1em;line-height:1.25'>Press the <strong>Next</strong> button to continue.</p>","0","custom-html-button-response","6","81040","0.0-4.0-2.0","51","1","2025-07-30 08:46:02","36c45c0696341be0efffe67d72a12abb","82.132.213.170","Mozilla/5.0 (Windows NT 10.0; Win64; x64) AppleWebKit/537.36 (KHTML, like Gecko) Chrome/138.0.0.0 Safari/537.36","WebKit","Chrome","138.0.0.0","Windows","10.0","https://app.prolific.com/","en-GB,en-US;q=0.9,en;q=0.8","676054ef296caad582258e02","683dba9a53627eb9ab41b36a","6889db8ddd28a800005a3625","0","676054ef296caad582258e02","0","2025-07-30T08:47:25.423Z","","","","","","","","","","","","","","","","","","","","","","","","","","","","","","","","","","","","","","","","","",""
"59113.40000000037","","","","survey-template","7","140156","0.0-4.0-3.0","51","1","2025-07-30 08:46:02","36c45c0696341be0efffe67d72a12abb","82.132.213.170","Mozilla/5.0 (Windows NT 10.0; Win64; x64) AppleWebKit/537.36 (KHTML, like Gecko) Chrome/138.0.0.0 Safari/537.36","WebKit","Chrome","138.0.0.0","Windows","10.0","https://app.prolific.com/","en-GB,en-US;q=0.9,en;q=0.8","676054ef296caad582258e02","683dba9a53627eb9ab41b36a","6889db8ddd28a800005a3625","0","676054ef296caad582258e02","0","2025-07-30T08:48:24.539Z","","","","drsp","{""Q01"":""1"",""Q02"":""2"",""Q03"":""0"",""Q04"":""0"",""Q05"":""0"",""Q06"":""0"",""Q07"":""1"",""Q08"":""0"",""Q09"":""0"",""Q10"":""0"",""Q11"":""1"",""Q12"":""0"",""Q13"":""5"",""Q14"":""0"",""Q15"":""1"",""Q16"":""2"",""Q17"":""0"",""Q18"":""0"",""Q19"":""1"",""Q20"":""0"",""Q21"":""0"",""Q22"":""0""}","[0,1,2,3,4,5,6,7,8,9,10,11,12,13,14,15,16,17,18,19,20,21]","[""Q01"",""Q02"",""Q03"",""Q04"",""Q05"",""Q06"",""Q07"",""Q08"",""Q09"",""Q10"",""Q11"",""Q12"",""Q11"",""Q13"",""Q14"",""Q15"",""Q16"",""Q17"",""Q18"",""Q19"",""Q19"",""Q20"",""Q21"",""Q22""]","[1598.4000000003725,3342.4000000003725,5021.9000000003725,5798.4000000003725,6765.700000001118,12366.200000001118,14622.300000000745,15749.800000000745,17334.400000000373,18230.300000000745,22654.200000001118,25078.200000001118,28582.200000001118,30966.200000001118,33822.40000000037,35582.40000000037,38806.40000000037,46254.300000000745,47366.300000000745,49438.40000000037,51950,55862.300000000745,56670.300000000745,57790.300000000745]","[]","[0,1598.4000000003725,3342.4000000003725,5021.9000000003725,5798.4000000003725,6765.700000001118,12366.200000001118,14622.300000000745,15749.800000000745,17334.400000000373,18230.300000000745,22654.200000001118,25078.200000001118,27518.200000001118,28222.400000000373,28582.200000001118,30966.200000001118,32542.700000001118,33822.40000000037,35582.40000000037,38806.40000000037,46254.300000000745,47366.300000000745,49438.40000000037,51950,55862.300000000745,56670.300000000745,57790.300000000745,59110.40000000037]","0.6363636363636364","0.5238095238095238","0","","","","","","","","","","","","","","","","","","","","","","","","","","","","",""
"11891.5","","","","survey-template","8","152049","0.0-4.0-4.0","51","1","2025-07-30 08:46:02","36c45c0696341be0efffe67d72a12abb","82.132.213.170","Mozilla/5.0 (Windows NT 10.0; Win64; x64) AppleWebKit/537.36 (KHTML, like Gecko) Chrome/138.0.0.0 Safari/537.36","WebKit","Chrome","138.0.0.0","Windows","10.0","https://app.prolific.com/","en-GB,en-US;q=0.9,en;q=0.8","676054ef296caad582258e02","683dba9a53627eb9ab41b36a","6889db8ddd28a800005a3625","0","676054ef296caad582258e02","0","2025-07-30T08:48:36.432Z","","","","stress","{""Q01"":""1"",""Q02"":""3"",""Q03"":""0""}","[0,1,2]","[""Q01"",""Q02"",""Q03""]","[3674.9000000003725,6010.9000000003725,9186.900000000373]","[]","[3674.9000000003725,6010.9000000003725,9186.900000000373,11890.900000000373]","0.3333333333333333","0.5","0","","","","","","","","","","","","","","","","","","","","","","","","","","","","",""
"5662","","","","instructions","9","157712","0.0-5.0-0.0","51","1","2025-07-30 08:46:02","36c45c0696341be0efffe67d72a12abb","82.132.213.170","Mozilla/5.0 (Windows NT 10.0; Win64; x64) AppleWebKit/537.36 (KHTML, like Gecko) Chrome/138.0.0.0 Safari/537.36","WebKit","Chrome","138.0.0.0","Windows","10.0","https://app.prolific.com/","en-GB,en-US;q=0.9,en;q=0.8","676054ef296caad582258e02","683dba9a53627eb9ab41b36a","6889db8ddd28a800005a3625","0","676054ef296caad582258e02","0","","","","","","","","","","","","","","","[{""page_index"":0,""viewing_time"":5662}]","","","","","","","","","","","","","","","","","","","","","","","","","","","",""
"2071","","<p>Before you start with this game please answer the following three questions yourself. </p>
  <p>Through this game, we measure several aspects of your cognitive performance, such as reaction times, multi-tasking capabilities </p>
  <p>and the ability to assess the situation you are in.</p>
  <p></p>
  <p><b>How good do you usually are in such tasks?</b></p>","50","html-slider-response","10","159784","0.0-6.0-0.0","51","1","2025-07-30 08:46:02","36c45c0696341be0efffe67d72a12abb","82.132.213.170","Mozilla/5.0 (Windows NT 10.0; Win64; x64) AppleWebKit/537.36 (KHTML, like Gecko) Chrome/138.0.0.0 Safari/537.36","WebKit","Chrome","138.0.0.0","Windows","10.0","https://app.prolific.com/","en-GB,en-US;q=0.9,en;q=0.8","676054ef296caad582258e02","683dba9a53627eb9ab41b36a","6889db8ddd28a800005a3625","0","676054ef296caad582258e02","0","2025-07-30T08:48:44.167Z","","","","PreSkillQ","","","","","","","","","","","50","","","","","","","","","","","","","","","","","","","","","","","","","","",""
"1535","","<div style=""width:500px;"">
  <p>How well do you think you will perform in this task compared to other participants?</p>
  </div>","50","html-slider-response","11","161320","0.0-6.0-1.0","51","1","2025-07-30 08:46:02","36c45c0696341be0efffe67d72a12abb","82.132.213.170","Mozilla/5.0 (Windows NT 10.0; Win64; x64) AppleWebKit/537.36 (KHTML, like Gecko) Chrome/138.0.0.0 Safari/537.36","WebKit","Chrome","138.0.0.0","Windows","10.0","https://app.prolific.com/","en-GB,en-US;q=0.9,en;q=0.8","676054ef296caad582258e02","683dba9a53627eb9ab41b36a","6889db8ddd28a800005a3625","0","676054ef296caad582258e02","0","2025-07-30T08:48:45.703Z","","","","PrePerfQ","","","","","","","","","","","50","","","","","","","","","","","","","","","","","","","","","","","","","","",""
"4759","","<div style=""width:500px;"">
  <p>What best describes how you currently feel?</p>
  </div>","43","html-slider-response","12","166080","0.0-6.0-2.0","51","1","2025-07-30 08:46:02","36c45c0696341be0efffe67d72a12abb","82.132.213.170","Mozilla/5.0 (Windows NT 10.0; Win64; x64) AppleWebKit/537.36 (KHTML, like Gecko) Chrome/138.0.0.0 Safari/537.36","WebKit","Chrome","138.0.0.0","Windows","10.0","https://app.prolific.com/","en-GB,en-US;q=0.9,en;q=0.8","676054ef296caad582258e02","683dba9a53627eb9ab41b36a","6889db8ddd28a800005a3625","0","676054ef296caad582258e02","0","2025-07-30T08:48:50.463Z","","","","PreMotivationQ","","","","","","","","","","","50","","","","","","","","","","","","","","","","","","","","","","","","","","",""
"","","","","ctl-task-cpt","13","215818","0.0-7.0-0.0","51","1","2025-07-30 08:46:02","36c45c0696341be0efffe67d72a12abb","82.132.213.170","Mozilla/5.0 (Windows NT 10.0; Win64; x64) AppleWebKit/537.36 (KHTML, like Gecko) Chrome/138.0.0.0 Safari/537.36","WebKit","Chrome","138.0.0.0","Windows","10.0","https://app.prolific.com/","en-GB,en-US;q=0.9,en;q=0.8","676054ef296caad582258e02","683dba9a53627eb9ab41b36a","6889db8ddd28a800005a3625","0","676054ef296caad582258e02","0","2025-07-30T08:49:40.201Z","","","","","","","","","","","","","","","","win-only","3","g1:SW,g2:NE","1","1","0","168284.4","1310.3","6315.5","46732.5","1","4","8","6","2","8","8","8","0","0.06060606060606061","2247.9","3000","630","[""up"",""right""]","{""num_key_presses"":6,""num_perfect"":6,""num_errors"":0,""num_randdir"":0,""num_randdir_good_moves"":0,""num_whilered"":0,""num_whileblue"":0,""num_blue"":7,""num_good_moves"":6}","[295.22232142857143,289.12857142857143,0.1,295.22232142857143,289.12857142857143,101.2,278.22232142857143,276.12857142857143,205.1,278.22232142857143,276.12857142857143,310.3,274.22232142857143,282.12857142857143,410.3,246.22232142857143,318.12857142857143,510.3,236.22232142857143,338.12857142857143,615.6,283.22232142857143,275.12857142857143,720.4,417.22232142857143,175.12857142857143,820.6,445.22232142857143,150.12857142857143,920.8,460.22232142857143,138.12857142857143,1020.9,496.22232142857143,89.12857142857143,1125.7,508.22232142857143,79.12857142857143,1231.5,530.2223214285714,61.128571428571426,1336.9,531.2223214285714,61.128571428571426,1440.9,531.2223214285714,61.128571428571426,1545.2,531.2223214285714,61.128571428571426,1645.9,531.2223214285714,61.128571428571426,1750.1,531.2223214285714,61.128571428571426,1850.2,531.2223214285714,61.128571428571426,1950.5,531.2223214285714,61.128571428571426,2055.2,531.2223214285714,61.128571428571426,2156.3,531.2223214285714,61.128571428571426,2260.3,531.2223214285714,61.128571428571426,2360.3,529.2223214285714,86.12857142857143,2460.5,337.22232142857143,435.12857142857143,2565.7,279.22232142857143,502.12857142857143,2670.7,249.22232142857143,511.12857142857143,2776.1,249.22232142857143,511.12857142857143,2880.5,249.22232142857143,511.12857142857143,2986,249.22232142857143,511.12857142857143,3090.1,249.22232142857143,511.12857142857143,3195.9,249.22232142857143,511.12857142857143,3296,249.22232142857143,511.12857142857143,3400,249.22232142857143,511.12857142857143,3500.2,249.22232142857143,511.12857142857143,3600.2,249.22232142857143,511.12857142857143,3705.8,249.22232142857143,511.12857142857143,3810.9,249.22232142857143,511.12857142857143,3915.5,249.22232142857143,511.12857142857143,4020.1,249.22232142857143,511.12857142857143,4125.2,249.22232142857143,511.12857142857143,4225.5,249.22232142857143,511.12857142857143,4330.9,249.22232142857143,511.12857142857143,4435.7,249.22232142857143,511.12857142857143,4541.1,249.22232142857143,511.12857142857143,4645.2,249.22232142857143,511.12857142857143,4750.2,249.22232142857143,511.12857142857143,4850.6,249.22232142857143,511.12857142857143,4950.6]","[1322.5,1322.5,1000,0,322.5,""smooth"",""right"",""right"",""good_move"",25506.1,24183.4,2182.4,22860.8,462.9,""smooth"",""right"",""right"",""good_move"",28026,2519.7,2096.3,25506.3,423.4,""smooth"",""right"",""right"",""good_move"",30273.9,2247.8,1869.1,28026.1,378.7,""smooth"",""up"",""up"",""good_move"",37034.1,6759.9,2914,33684.6,435.5,""smooth"",""up"",""up"",""good_move"",40322,3287.9,2896.8,37034.2,391.1,""smooth"",""up"",""up"",""good_move""]"
"6262","","<div style=""width:500px;"">
  <p>What determined the result of this run?</p>
  </div>","80","html-slider-response","14","222080","0.0-7.0-1.0","51","1","2025-07-30 08:46:02","36c45c0696341be0efffe67d72a12abb","82.132.213.170","Mozilla/5.0 (Windows NT 10.0; Win64; x64) AppleWebKit/537.36 (KHTML, like Gecko) Chrome/138.0.0.0 Safari/537.36","WebKit","Chrome","138.0.0.0","Windows","10.0","https://app.prolific.com/","en-GB,en-US;q=0.9,en;q=0.8","676054ef296caad582258e02","683dba9a53627eb9ab41b36a","6889db8ddd28a800005a3625","0","676054ef296caad582258e02","0","2025-07-30T08:49:46.464Z","","","","AttribQ","","","","","","","","","","","50","","","","","","","","","","","","","","","","","","","","","","","","","","",""
"2382","","<div style=""width:500px;"">
  <p>How much control did you have over the ball?</p>
  </div>","100","html-slider-response","15","224463","0.0-7.0-2.0","51","1","2025-07-30 08:46:02","36c45c0696341be0efffe67d72a12abb","82.132.213.170","Mozilla/5.0 (Windows NT 10.0; Win64; x64) AppleWebKit/537.36 (KHTML, like Gecko) Chrome/138.0.0.0 Safari/537.36","WebKit","Chrome","138.0.0.0","Windows","10.0","https://app.prolific.com/","en-GB,en-US;q=0.9,en;q=0.8","676054ef296caad582258e02","683dba9a53627eb9ab41b36a","6889db8ddd28a800005a3625","0","676054ef296caad582258e02","0","2025-07-30T08:49:48.846Z","","","","ControlQ","","","","","","","","","","","50","","","","","","","","","","","","","","","","","","","","","","","","","","",""
"3704","","<div style=""width:500px;"">
  <p>How would you describe your current emotional state?</p>
  </div>","41","html-slider-response","16","228168","0.0-7.0-3.0","51","1","2025-07-30 08:46:02","36c45c0696341be0efffe67d72a12abb","82.132.213.170","Mozilla/5.0 (Windows NT 10.0; Win64; x64) AppleWebKit/537.36 (KHTML, like Gecko) Chrome/138.0.0.0 Safari/537.36","WebKit","Chrome","138.0.0.0","Windows","10.0","https://app.prolific.com/","en-GB,en-US;q=0.9,en;q=0.8","676054ef296caad582258e02","683dba9a53627eb9ab41b36a","6889db8ddd28a800005a3625","0","676054ef296caad582258e02","0","2025-07-30T08:49:52.551Z","","","","StressQ","","","","","","","","","","","50","","","","","","","","","","","","","","","","","","","","","","","","","","",""
"3183","","<div style=""width:500px;"">
  <p>What best describes how you currently feel?</p>
  </div>","52","html-slider-response","17","231352","0.0-7.0-4.0","51","1","2025-07-30 08:46:02","36c45c0696341be0efffe67d72a12abb","82.132.213.170","Mozilla/5.0 (Windows NT 10.0; Win64; x64) AppleWebKit/537.36 (KHTML, like Gecko) Chrome/138.0.0.0 Safari/537.36","WebKit","Chrome","138.0.0.0","Windows","10.0","https://app.prolific.com/","en-GB,en-US;q=0.9,en;q=0.8","676054ef296caad582258e02","683dba9a53627eb9ab41b36a","6889db8ddd28a800005a3625","0","676054ef296caad582258e02","0","2025-07-30T08:49:55.735Z","","","","MotivationQ","","","","","","","","","","","50","","","","","","","","","","","","","","","","","","","","","","","","","","",""
"","","","","ctl-task-cpt","18","265919","0.0-7.0-0.1","51","1","2025-07-30 08:46:02","36c45c0696341be0efffe67d72a12abb","82.132.213.170","Mozilla/5.0 (Windows NT 10.0; Win64; x64) AppleWebKit/537.36 (KHTML, like Gecko) Chrome/138.0.0.0 Safari/537.36","WebKit","Chrome","138.0.0.0","Windows","10.0","https://app.prolific.com/","en-GB,en-US;q=0.9,en;q=0.8","676054ef296caad582258e02","683dba9a53627eb9ab41b36a","6889db8ddd28a800005a3625","0","676054ef296caad582258e02","0","2025-07-30T08:50:30.302Z","","","","","","","","","","","","","","","","win-only","1","g1:NE,g2:SW","0.9","2","0","233555","1168.6","6170.4","31561.6","1","4","4","6","2","4","3","11","8","0.08333333333333333","1167.1","3000","370","[""down"",""left""]","{""num_key_presses"":8,""num_perfect"":6,""num_errors"":1,""num_randdir"":1,""num_randdir_good_moves"":0,""num_whilered"":0,""num_whileblue"":1,""num_blue"":2,""num_good_moves"":7}","[301.22232142857143,296.12857142857143,0.2,301.22232142857143,296.12857142857143,101.6,312.22232142857143,324.12857142857143,203.4,313.22232142857143,328.12857142857143,306.9,256.22232142857143,330.12857142857143,412.9,109.22232142857143,570.1285714285714,517.2,103.22232142857143,585.1285714285714,622.1,103.22232142857143,587.1285714285714,722.2,83.22232142857143,566.1285714285714,822.5,73.22232142857143,556.1285714285714,927.4,65.22232142857143,551.1285714285714,1032.2,62.222321428571426,551.1285714285714,1136.8,62.222321428571426,551.1285714285714,1237.5,64.22232142857143,551.1285714285714,1342.1,424.22232142857143,603.1285714285714,1447.4,499.22232142857143,649.1285714285714,1552.1,494.22232142857143,683.1285714285714,1656.7,467.22232142857143,683.1285714285714,1756.7,470.22232142857143,660.1285714285714,1856.7,495.22232142857143,562.1285714285714,1957.3,484.22232142857143,547.1285714285714,2062.9,484.22232142857143,547.1285714285714,2166.8,484.22232142857143,547.1285714285714,2267,484.22232142857143,547.1285714285714,2372.4,484.22232142857143,547.1285714285714,2476.7,484.22232142857143,547.1285714285714,2576.8,484.22232142857143,547.1285714285714,2677,484.22232142857143,547.1285714285714,2777.4,484.22232142857143,547.1285714285714,2882,484.22232142857143,547.1285714285714,2986.9,484.22232142857143,547.1285714285714,3092.8,484.22232142857143,547.1285714285714,3196.5,484.22232142857143,547.1285714285714,3297.4,484.22232142857143,547.1285714285714,3397.6,484.22232142857143,547.1285714285714,3502.3,484.22232142857143,547.1285714285714,3603.2,484.22232142857143,547.1285714285714,3706.6,484.22232142857143,547.1285714285714,3807.4,484.22232142857143,547.1285714285714,3912.5,484.22232142857143,547.1285714285714,4016.6,484.22232142857143,547.1285714285714,4122.2,484.22232142857143,547.1285714285714,4227.5,484.22232142857143,547.1285714285714,4331.6,484.22232142857143,547.1285714285714,4431.9,484.22232142857143,547.1285714285714,4531.9,484.22232142857143,547.1285714285714,4632.2,484.22232142857143,547.1285714285714,4737.1,484.22232142857143,547.1285714285714,4837.1,484.22232142857143,547.1285714285714,4937.3]","[1412.7,1412.7,1000,0,412.7,""smooth"",""down"",""down"",""good_move"",5148.8,3735.8,3300.3,1413,435.5,""smooth"",""down"",""down"",""good_move"",10356.7,5207.7,1898.7,8105.6,352.4,""oops"",""down"",""right"",""bad_move"",13628.7,3271.9,2929.1,10356.8,342.8,""smooth"",""down"",""down"",""good_move"",16044.7,2415.8,2068,13628.9,347.8,""smooth"",""left"",""left"",""good_move"",19420.5,3375.5,2911.2,16045,464.3,""smooth"",""left"",""left"",""good_move"",22388.5,2967.8,2733.9,19420.7,233.9,""while_blue"",""left"",""left"",""good_move"",25300.6,2911.8,2600.3,22388.8,311.5,""smooth"",""left"",""left"",""good_move""]"
"1544","","<div style=""width:500px;"">
  <p>What determined the result of this run?</p>
  </div>","32","html-slider-response","19","267464","0.0-7.0-1.1","51","1","2025-07-30 08:46:02","36c45c0696341be0efffe67d72a12abb","82.132.213.170","Mozilla/5.0 (Windows NT 10.0; Win64; x64) AppleWebKit/537.36 (KHTML, like Gecko) Chrome/138.0.0.0 Safari/537.36","WebKit","Chrome","138.0.0.0","Windows","10.0","https://app.prolific.com/","en-GB,en-US;q=0.9,en;q=0.8","676054ef296caad582258e02","683dba9a53627eb9ab41b36a","6889db8ddd28a800005a3625","0","676054ef296caad582258e02","0","2025-07-30T08:50:31.847Z","","","","AttribQ","","","","","","","","","","","50","","","","","","","","","","","","","","","","","","","","","","","","","","",""
"3095","","<div style=""width:500px;"">
  <p>How much control did you have over the ball?</p>
  </div>","64","html-slider-response","20","270560","0.0-7.0-2.1","51","1","2025-07-30 08:46:02","36c45c0696341be0efffe67d72a12abb","82.132.213.170","Mozilla/5.0 (Windows NT 10.0; Win64; x64) AppleWebKit/537.36 (KHTML, like Gecko) Chrome/138.0.0.0 Safari/537.36","WebKit","Chrome","138.0.0.0","Windows","10.0","https://app.prolific.com/","en-GB,en-US;q=0.9,en;q=0.8","676054ef296caad582258e02","683dba9a53627eb9ab41b36a","6889db8ddd28a800005a3625","0","676054ef296caad582258e02","0","2025-07-30T08:50:34.943Z","","","","ControlQ","","","","","","","","","","","50","","","","","","","","","","","","","","","","","","","","","","","","","","",""
"1687","","<div style=""width:500px;"">
  <p>How would you describe your current emotional state?</p>
  </div>","50","html-slider-response","21","272248","0.0-7.0-3.1","51","1","2025-07-30 08:46:02","36c45c0696341be0efffe67d72a12abb","82.132.213.170","Mozilla/5.0 (Windows NT 10.0; Win64; x64) AppleWebKit/537.36 (KHTML, like Gecko) Chrome/138.0.0.0 Safari/537.36","WebKit","Chrome","138.0.0.0","Windows","10.0","https://app.prolific.com/","en-GB,en-US;q=0.9,en;q=0.8","676054ef296caad582258e02","683dba9a53627eb9ab41b36a","6889db8ddd28a800005a3625","0","676054ef296caad582258e02","0","2025-07-30T08:50:36.631Z","","","","StressQ","","","","","","","","","","","50","","","","","","","","","","","","","","","","","","","","","","","","","","",""
"2775","","<div style=""width:500px;"">
  <p>What best describes how you currently feel?</p>
  </div>","50","html-slider-response","22","275024","0.0-7.0-4.1","51","1","2025-07-30 08:46:02","36c45c0696341be0efffe67d72a12abb","82.132.213.170","Mozilla/5.0 (Windows NT 10.0; Win64; x64) AppleWebKit/537.36 (KHTML, like Gecko) Chrome/138.0.0.0 Safari/537.36","WebKit","Chrome","138.0.0.0","Windows","10.0","https://app.prolific.com/","en-GB,en-US;q=0.9,en;q=0.8","676054ef296caad582258e02","683dba9a53627eb9ab41b36a","6889db8ddd28a800005a3625","0","676054ef296caad582258e02","0","2025-07-30T08:50:39.407Z","","","","MotivationQ","","","","","","","","","","","50","","","","","","","","","","","","","","","","","","","","","","","","","","",""
"","","","","ctl-task-cpt","23","324496","0.0-7.0-0.2","51","1","2025-07-30 08:46:02","36c45c0696341be0efffe67d72a12abb","82.132.213.170","Mozilla/5.0 (Windows NT 10.0; Win64; x64) AppleWebKit/537.36 (KHTML, like Gecko) Chrome/138.0.0.0 Safari/537.36","WebKit","Chrome","138.0.0.0","Windows","10.0","https://app.prolific.com/","en-GB,en-US;q=0.9,en;q=0.8","676054ef296caad582258e02","683dba9a53627eb9ab41b36a","6889db8ddd28a800005a3625","0","676054ef296caad582258e02","0","2025-07-30T08:51:28.879Z","","","","","","","","","","","","","","","","win-only","1","g1:NE,g2:SW","0.8","3","0","277227.7","1343.5","6346.6","46455.6","1","4","8","6","2","-8","-10","1","11","0.007575757575757576","1263.6","3000","-3010","[""down"",""left""]","{""num_key_presses"":10,""num_perfect"":7,""num_errors"":2,""num_randdir"":1,""num_randdir_good_moves"":0,""num_whilered"":0,""num_whileblue"":2,""num_blue"":5,""num_good_moves"":7}","[303.22232142857143,294.12857142857143,0.2,303.22232142857143,294.12857142857143,103.7,303.22232142857143,294.12857142857143,206.8,323.22232142857143,304.12857142857143,307.2,318.22232142857143,321.12857142857143,407.6,262.22232142857143,422.12857142857143,512.8,229.22232142857143,492.12857142857143,617.2,176.22232142857143,505.12857142857143,717.7,1.2223214285714263,543.1285714285714,822.8,-41.777678571428574,543.1285714285714,926.9,-12.777678571428574,580.1285714285714,1027.4,20.222321428571426,575.1285714285714,1133.5,23.222321428571426,571.1285714285714,1237.4,23.222321428571426,571.1285714285714,1338.4,46.222321428571426,579.1285714285714,1442.2,294.22232142857143,584.1285714285714,1547.5,330.22232142857143,616.1285714285714,1651.8,330.22232142857143,616.1285714285714,1752.2,330.22232142857143,616.1285714285714,1857.4,330.22232142857143,616.1285714285714,1963.4,330.22232142857143,616.1285714285714,2067.7,330.22232142857143,616.1285714285714,2172.5,330.22232142857143,616.1285714285714,2276.7,330.22232142857143,616.1285714285714,2377.6,330.22232142857143,616.1285714285714,2478,330.22232142857143,616.1285714285714,2582.8,330.22232142857143,616.1285714285714,2687.7,330.22232142857143,616.1285714285714,2792.3,330.22232142857143,616.1285714285714,2897.6,330.22232142857143,616.1285714285714,2997.7,330.22232142857143,616.1285714285714,3101.9,330.22232142857143,616.1285714285714,3207.6,330.22232142857143,616.1285714285714,3307.7,330.22232142857143,616.1285714285714,3412.6,330.22232142857143,616.1285714285714,3512.8,330.22232142857143,616.1285714285714,3617.1,330.22232142857143,616.1285714285714,3717.4,330.22232142857143,616.1285714285714,3821.9,330.22232142857143,616.1285714285714,3921.9,330.22232142857143,616.1285714285714,4021.9,330.22232142857143,616.1285714285714,4122.1,330.22232142857143,616.1285714285714,4222.8,330.22232142857143,616.1285714285714,4327.5,330.22232142857143,616.1285714285714,4427.8,330.22232142857143,616.1285714285714,4532.6,330.22232142857143,616.1285714285714,4637.1,330.22232142857143,616.1285714285714,4737.5,330.22232142857143,616.1285714285714,4841.9,330.22232142857143,616.1285714285714,4943.1]","[8867.9,8867.9,2975.1,5574,318.8,""smooth"",""down"",""down"",""good_move"",12291.6,3423.3,3047.9,8868.3,375.4,""smooth"",""down"",""down"",""good_move"",15499.6,3207.8,2886.1,12291.8,321.7,""smooth"",""down"",""down"",""good_move"",18563.6,3063.7,2686,15499.9,377.7,""smooth"",""left"",""left"",""good_move"",21579.8,3015.9,2703.9,18563.9,312,""oops"",""left"",""right"",""bad_move"",26691.7,5111.7,2112.1,24244.6,335,""smooth"",""left"",""left"",""good_move"",29643.5,2951.7,2542,26691.8,409.7,""while_blue"",""left"",""right"",""bad_move"",32827.8,3184.1,2870,29643.7,314.1,""while_blue"",""left"",""up"",""bad_move"",35539.6,2711.6,2224.1,32828.1,487.5,""smooth"",""left"",""left"",""good_move"",37659.6,2119.9,1725.6,35539.8,394.3,""smooth"",""left"",""left"",""good_move""]"
"6799","","<div style=""width:500px;"">
  <p>What determined the result of this run?</p>
  </div>","71","html-slider-response","24","331296","0.0-7.0-1.2","51","1","2025-07-30 08:46:02","36c45c0696341be0efffe67d72a12abb","82.132.213.170","Mozilla/5.0 (Windows NT 10.0; Win64; x64) AppleWebKit/537.36 (KHTML, like Gecko) Chrome/138.0.0.0 Safari/537.36","WebKit","Chrome","138.0.0.0","Windows","10.0","https://app.prolific.com/","en-GB,en-US;q=0.9,en;q=0.8","676054ef296caad582258e02","683dba9a53627eb9ab41b36a","6889db8ddd28a800005a3625","0","676054ef296caad582258e02","0","2025-07-30T08:51:35.679Z","","","","AttribQ","","","","","","","","","","","50","","","","","","","","","","","","","","","","","","","","","","","","","","",""
"1840","","<div style=""width:500px;"">
  <p>How much control did you have over the ball?</p>
  </div>","40","html-slider-response","25","333136","0.0-7.0-2.2","51","1","2025-07-30 08:46:02","36c45c0696341be0efffe67d72a12abb","82.132.213.170","Mozilla/5.0 (Windows NT 10.0; Win64; x64) AppleWebKit/537.36 (KHTML, like Gecko) Chrome/138.0.0.0 Safari/537.36","WebKit","Chrome","138.0.0.0","Windows","10.0","https://app.prolific.com/","en-GB,en-US;q=0.9,en;q=0.8","676054ef296caad582258e02","683dba9a53627eb9ab41b36a","6889db8ddd28a800005a3625","0","676054ef296caad582258e02","0","2025-07-30T08:51:37.520Z","","","","ControlQ","","","","","","","","","","","50","","","","","","","","","","","","","","","","","","","","","","","","","","",""
"2255","","<div style=""width:500px;"">
  <p>How would you describe your current emotional state?</p>
  </div>","50","html-slider-response","26","335392","0.0-7.0-3.2","51","1","2025-07-30 08:46:02","36c45c0696341be0efffe67d72a12abb","82.132.213.170","Mozilla/5.0 (Windows NT 10.0; Win64; x64) AppleWebKit/537.36 (KHTML, like Gecko) Chrome/138.0.0.0 Safari/537.36","WebKit","Chrome","138.0.0.0","Windows","10.0","https://app.prolific.com/","en-GB,en-US;q=0.9,en;q=0.8","676054ef296caad582258e02","683dba9a53627eb9ab41b36a","6889db8ddd28a800005a3625","0","676054ef296caad582258e02","0","2025-07-30T08:51:39.775Z","","","","StressQ","","","","","","","","","","","50","","","","","","","","","","","","","","","","","","","","","","","","","","",""
"1375","","<div style=""width:500px;"">
  <p>What best describes how you currently feel?</p>
  </div>","50","html-slider-response","27","336768","0.0-7.0-4.2","51","1","2025-07-30 08:46:02","36c45c0696341be0efffe67d72a12abb","82.132.213.170","Mozilla/5.0 (Windows NT 10.0; Win64; x64) AppleWebKit/537.36 (KHTML, like Gecko) Chrome/138.0.0.0 Safari/537.36","WebKit","Chrome","138.0.0.0","Windows","10.0","https://app.prolific.com/","en-GB,en-US;q=0.9,en;q=0.8","676054ef296caad582258e02","683dba9a53627eb9ab41b36a","6889db8ddd28a800005a3625","0","676054ef296caad582258e02","0","2025-07-30T08:51:41.151Z","","","","MotivationQ","","","","","","","","","","","50","","","","","","","","","","","","","","","","","","","","","","","","","","",""
"","","","","ctl-task-cpt","28","380191","0.0-7.0-0.3","51","1","2025-07-30 08:46:02","36c45c0696341be0efffe67d72a12abb","82.132.213.170","Mozilla/5.0 (Windows NT 10.0; Win64; x64) AppleWebKit/537.36 (KHTML, like Gecko) Chrome/138.0.0.0 Safari/537.36","WebKit","Chrome","138.0.0.0","Windows","10.0","https://app.prolific.com/","en-GB,en-US;q=0.9,en;q=0.8","676054ef296caad582258e02","683dba9a53627eb9ab41b36a","6889db8ddd28a800005a3625","0","676054ef296caad582258e02","0","2025-07-30T08:52:24.574Z","","","","","","","","","","","","","","","","win-only","2","g1:SE,g2:NW","0.7","4","0","338971.8","807.8","5810.4","40405.8","1","4","4","6","2","-4","-7","0","1","0","791.1","3000","-3005","[""left"",""up""]","{""num_key_presses"":12,""num_perfect"":7,""num_errors"":3,""num_randdir"":2,""num_randdir_good_moves"":1,""num_whilered"":0,""num_whileblue"":3,""num_blue"":3,""num_good_moves"":8}","[292.22232142857143,297.12857142857143,0.1,292.22232142857143,297.12857142857143,102.4,292.22232142857143,297.12857142857143,202.6,328.22232142857143,244.12857142857143,303.9,332.22232142857143,226.12857142857143,408.4,259.22232142857143,222.12857142857143,512.9,93.22232142857143,74.12857142857143,617.6,80.22232142857143,65.12857142857143,717.7,50.222321428571426,59.128571428571426,817.7,103.22232142857143,103.12857142857143,917.7,394.22232142857143,310.12857142857143,1023.5,412.22232142857143,317.12857142857143,1127.9,412.22232142857143,317.12857142857143,1228,412.22232142857143,317.12857142857143,1328.6,412.22232142857143,317.12857142857143,1433.2,412.22232142857143,317.12857142857143,1537.4,412.22232142857143,317.12857142857143,1638.6,412.22232142857143,317.12857142857143,1742.6,412.22232142857143,317.12857142857143,1848.4,412.22232142857143,317.12857142857143,1952.7,412.22232142857143,317.12857142857143,2058.3,412.22232142857143,317.12857142857143,2158.3,412.22232142857143,317.12857142857143,2258.3,412.22232142857143,317.12857142857143,2358.3,412.22232142857143,317.12857142857143,2462.4,412.22232142857143,317.12857142857143,2562.7,412.22232142857143,317.12857142857143,2662.9,412.22232142857143,317.12857142857143,2763.2,412.22232142857143,317.12857142857143,2867.6,412.22232142857143,317.12857142857143,2967.9,412.22232142857143,317.12857142857143,3073.3,412.22232142857143,317.12857142857143,3178,412.22232142857143,317.12857142857143,3278.7,412.22232142857143,317.12857142857143,3382.9,412.22232142857143,317.12857142857143,3489.1,412.22232142857143,317.12857142857143,3592.8,412.22232142857143,317.12857142857143,3692.8,412.22232142857143,317.12857142857143,3793.2,412.22232142857143,317.12857142857143,3897.6,412.22232142857143,317.12857142857143,3998.5,412.22232142857143,317.12857142857143,4099.2,412.22232142857143,317.12857142857143,4202.6,412.22232142857143,317.12857142857143,4302.8,412.22232142857143,317.12857142857143,4408.9,412.22232142857143,317.12857142857143,4512.9,412.22232142857143,317.12857142857143,4613.2,412.22232142857143,317.12857142857143,4713.3,412.22232142857143,317.12857142857143,4819.3,412.22232142857143,317.12857142857143,4923.2]","[1315.8,1315.8,1000,0,315.8,""smooth"",""up"",""up"",""good_move"",3883.9,2567.8,2234.1,1316.1,333.7,""smooth"",""left"",""left"",""good_move"",6571.8,2687.6,2420.6,3884.2,267,""while_blue"",""left"",""down"",""bad_move"",9323.9,2751.7,2443.4,6572.2,308.3,""while_blue"",""up"",""right"",""bad_move"",12427.7,3103.6,2754.5,9324.1,349.1,""smooth"",""up"",""up"",""good_move"",14787.8,2359.9,2077.5,12427.9,282.4,""smooth"",""left"",""left"",""good_move"",17163.8,2375.8,2055.8,14788,320,""smooth"",""left"",""left"",""good_move"",20173.3,3009.3,2707.8,17164,301.5,""oops"",""left"",""right"",""bad_move"",23315.8,3142.3,2891.3,20173.5,251,""while_blue"",""left"",""right"",""bad_move"",26243.7,2927.8,2545.4,23315.9,382.4,""oops"",""left"",""up"",""good_move"",28715.8,2471.9,2128.3,26243.9,343.6,""smooth"",""left"",""left"",""good_move"",31923.9,3208,2926.4,28715.9,281.6,""smooth"",""left"",""left"",""good_move""]"
"3104","","<div style=""width:500px;"">
  <p>What determined the result of this run?</p>
  </div>","68","html-slider-response","29","383296","0.0-7.0-1.3","51","1","2025-07-30 08:46:02","36c45c0696341be0efffe67d72a12abb","82.132.213.170","Mozilla/5.0 (Windows NT 10.0; Win64; x64) AppleWebKit/537.36 (KHTML, like Gecko) Chrome/138.0.0.0 Safari/537.36","WebKit","Chrome","138.0.0.0","Windows","10.0","https://app.prolific.com/","en-GB,en-US;q=0.9,en;q=0.8","676054ef296caad582258e02","683dba9a53627eb9ab41b36a","6889db8ddd28a800005a3625","0","676054ef296caad582258e02","0","2025-07-30T08:52:27.679Z","","","","AttribQ","","","","","","","","","","","50","","","","","","","","","","","","","","","","","","","","","","","","","","",""
"1567","","<div style=""width:500px;"">
  <p>How much control did you have over the ball?</p>
  </div>","38","html-slider-response","30","384864","0.0-7.0-2.3","51","1","2025-07-30 08:46:02","36c45c0696341be0efffe67d72a12abb","82.132.213.170","Mozilla/5.0 (Windows NT 10.0; Win64; x64) AppleWebKit/537.36 (KHTML, like Gecko) Chrome/138.0.0.0 Safari/537.36","WebKit","Chrome","138.0.0.0","Windows","10.0","https://app.prolific.com/","en-GB,en-US;q=0.9,en;q=0.8","676054ef296caad582258e02","683dba9a53627eb9ab41b36a","6889db8ddd28a800005a3625","0","676054ef296caad582258e02","0","2025-07-30T08:52:29.247Z","","","","ControlQ","","","","","","","","","","","50","","","","","","","","","","","","","","","","","","","","","","","","","","",""
"1967","","<div style=""width:500px;"">
  <p>How would you describe your current emotional state?</p>
  </div>","57","html-slider-response","31","386832","0.0-7.0-3.3","51","1","2025-07-30 08:46:02","36c45c0696341be0efffe67d72a12abb","82.132.213.170","Mozilla/5.0 (Windows NT 10.0; Win64; x64) AppleWebKit/537.36 (KHTML, like Gecko) Chrome/138.0.0.0 Safari/537.36","WebKit","Chrome","138.0.0.0","Windows","10.0","https://app.prolific.com/","en-GB,en-US;q=0.9,en;q=0.8","676054ef296caad582258e02","683dba9a53627eb9ab41b36a","6889db8ddd28a800005a3625","0","676054ef296caad582258e02","0","2025-07-30T08:52:31.215Z","","","","StressQ","","","","","","","","","","","50","","","","","","","","","","","","","","","","","","","","","","","","","","",""
"2599","","<div style=""width:500px;"">
  <p>What best describes how you currently feel?</p>
  </div>","50","html-slider-response","32","389432","0.0-7.0-4.3","51","1","2025-07-30 08:46:02","36c45c0696341be0efffe67d72a12abb","82.132.213.170","Mozilla/5.0 (Windows NT 10.0; Win64; x64) AppleWebKit/537.36 (KHTML, like Gecko) Chrome/138.0.0.0 Safari/537.36","WebKit","Chrome","138.0.0.0","Windows","10.0","https://app.prolific.com/","en-GB,en-US;q=0.9,en;q=0.8","676054ef296caad582258e02","683dba9a53627eb9ab41b36a","6889db8ddd28a800005a3625","0","676054ef296caad582258e02","0","2025-07-30T08:52:33.815Z","","","","MotivationQ","","","","","","","","","","","50","","","","","","","","","","","","","","","","","","","","","","","","","","",""
"","","","","ctl-task-cpt","33","426071","0.0-7.0-0.4","51","1","2025-07-30 08:46:02","36c45c0696341be0efffe67d72a12abb","82.132.213.170","Mozilla/5.0 (Windows NT 10.0; Win64; x64) AppleWebKit/537.36 (KHTML, like Gecko) Chrome/138.0.0.0 Safari/537.36","WebKit","Chrome","138.0.0.0","Windows","10.0","https://app.prolific.com/","en-GB,en-US;q=0.9,en;q=0.8","676054ef296caad582258e02","683dba9a53627eb9ab41b36a","6889db8ddd28a800005a3625","0","676054ef296caad582258e02","0","2025-07-30T08:53:10.454Z","","","","","","","","","","","","","","","","win-only","1","g1:NE,g2:SW","0.6","5","0","391635.7","807.1","5812.1","33620.7","1","4","4","6","2","-4","-5","0","0","0","1383.6","3000","-2920","[""down"",""left""]","{""num_key_presses"":9,""num_perfect"":4,""num_errors"":1,""num_randdir"":4,""num_randdir_good_moves"":1,""num_whilered"":0,""num_whileblue"":1,""num_blue"":1,""num_good_moves"":6}","[289.22232142857143,290.12857142857143,0.2,293.22232142857143,288.12857142857143,103.8,295.22232142857143,288.12857142857143,208.6,416.22232142857143,216.12857142857143,309.5,286.22232142857143,310.12857142857143,413.4,123.22232142857143,431.12857142857143,519.8,109.22232142857143,471.12857142857143,623.1,105.22232142857143,492.12857142857143,723.8,76.22232142857143,509.12857142857143,823.8,57.222321428571426,519.1285714285714,923.9,57.222321428571426,519.1285714285714,1028.4,141.22232142857143,427.12857142857143,1128.7,122.22232142857143,453.12857142857143,1234.3,49.222321428571426,529.1285714285714,1339,49.222321428571426,530.1285714285714,1439.6,75.22232142857143,523.1285714285714,1539.8,282.22232142857143,395.12857142857143,1643.2,296.22232142857143,406.12857142857143,1743.3,360.22232142857143,462.12857142857143,1843.8,660.2223214285714,526.1285714285714,1943.9,660.2223214285714,526.1285714285714,2044.6,660.2223214285714,526.1285714285714,2148.4,660.2223214285714,526.1285714285714,2249,660.2223214285714,526.1285714285714,2353.5,660.2223214285714,526.1285714285714,2458.6,660.2223214285714,526.1285714285714,2559,660.2223214285714,527.1285714285714,2659.1,660.2223214285714,527.1285714285714,2759.1,660.2223214285714,527.1285714285714,2863.5,660.2223214285714,527.1285714285714,2964,660.2223214285714,527.1285714285714,3068.5,660.2223214285714,527.1285714285714,3168.7,660.2223214285714,527.1285714285714,3273.5,660.2223214285714,527.1285714285714,3373.7,660.2223214285714,527.1285714285714,3478.1,660.2223214285714,527.1285714285714,3578.2,660.2223214285714,527.1285714285714,3678.7,660.2223214285714,527.1285714285714,3783.3,660.2223214285714,527.1285714285714,3884,660.2223214285714,527.1285714285714,3989.5,660.2223214285714,527.1285714285714,4089.8,660.2223214285714,527.1285714285714,4193.2,660.2223214285714,527.1285714285714,4293.5,660.2223214285714,527.1285714285714,4399,660.2223214285714,527.1285714285714,4499,660.2223214285714,527.1285714285714,4603.2,660.2223214285714,527.1285714285714,4703.3,660.2223214285714,527.1285714285714,4805,660.2223214285714,527.1285714285714,4909.9]","[1396.2,1396.2,1000,0,396.2,""smooth"",""down"",""down"",""good_move"",3660.5,2264,1910.9,1396.5,353.1,""smooth"",""down"",""down"",""good_move"",6354.1,2693.5,2343.5,3660.7,350,""smooth"",""down"",""down"",""good_move"",8930.1,2575.7,2258.2,6354.4,317.5,""oops"",""left"",""up"",""bad_move"",11850.2,2919.9,2641.8,8930.3,278.1,""oops"",""left"",""left"",""good_move"",15386.1,3535.6,3232.7,11850.5,302.9,""while_blue"",""left"",""down"",""good_move"",18836.5,3450.1,3098.2,15386.4,351.9,""smooth"",""left"",""left"",""good_move"",22186.3,3349.7,2977.7,18836.6,372,""oops"",""left"",""up"",""bad_move"",25402.1,3215.5,2928.5,22186.6,287,""oops"",""left"",""right"",""bad_move""]"
"2704","","<div style=""width:500px;"">
  <p>What determined the result of this run?</p>
  </div>","0","html-slider-response","34","428776","0.0-7.0-1.4","51","1","2025-07-30 08:46:02","36c45c0696341be0efffe67d72a12abb","82.132.213.170","Mozilla/5.0 (Windows NT 10.0; Win64; x64) AppleWebKit/537.36 (KHTML, like Gecko) Chrome/138.0.0.0 Safari/537.36","WebKit","Chrome","138.0.0.0","Windows","10.0","https://app.prolific.com/","en-GB,en-US;q=0.9,en;q=0.8","676054ef296caad582258e02","683dba9a53627eb9ab41b36a","6889db8ddd28a800005a3625","0","676054ef296caad582258e02","0","2025-07-30T08:53:13.159Z","","","","AttribQ","","","","","","","","","","","50","","","","","","","","","","","","","","","","","","","","","","","","","","",""
"1983","","<div style=""width:500px;"">
  <p>How much control did you have over the ball?</p>
  </div>","0","html-slider-response","35","430759","0.0-7.0-2.4","51","1","2025-07-30 08:46:02","36c45c0696341be0efffe67d72a12abb","82.132.213.170","Mozilla/5.0 (Windows NT 10.0; Win64; x64) AppleWebKit/537.36 (KHTML, like Gecko) Chrome/138.0.0.0 Safari/537.36","WebKit","Chrome","138.0.0.0","Windows","10.0","https://app.prolific.com/","en-GB,en-US;q=0.9,en;q=0.8","676054ef296caad582258e02","683dba9a53627eb9ab41b36a","6889db8ddd28a800005a3625","0","676054ef296caad582258e02","0","2025-07-30T08:53:15.143Z","","","","ControlQ","","","","","","","","","","","50","","","","","","","","","","","","","","","","","","","","","","","","","","",""
"1591","","<div style=""width:500px;"">
  <p>How would you describe your current emotional state?</p>
  </div>","59","html-slider-response","36","432352","0.0-7.0-3.4","51","1","2025-07-30 08:46:02","36c45c0696341be0efffe67d72a12abb","82.132.213.170","Mozilla/5.0 (Windows NT 10.0; Win64; x64) AppleWebKit/537.36 (KHTML, like Gecko) Chrome/138.0.0.0 Safari/537.36","WebKit","Chrome","138.0.0.0","Windows","10.0","https://app.prolific.com/","en-GB,en-US;q=0.9,en;q=0.8","676054ef296caad582258e02","683dba9a53627eb9ab41b36a","6889db8ddd28a800005a3625","0","676054ef296caad582258e02","0","2025-07-30T08:53:16.735Z","","","","StressQ","","","","","","","","","","","50","","","","","","","","","","","","","","","","","","","","","","","","","","",""
"1607","","<div style=""width:500px;"">
  <p>What best describes how you currently feel?</p>
  </div>","50","html-slider-response","37","433960","0.0-7.0-4.4","51","1","2025-07-30 08:46:02","36c45c0696341be0efffe67d72a12abb","82.132.213.170","Mozilla/5.0 (Windows NT 10.0; Win64; x64) AppleWebKit/537.36 (KHTML, like Gecko) Chrome/138.0.0.0 Safari/537.36","WebKit","Chrome","138.0.0.0","Windows","10.0","https://app.prolific.com/","en-GB,en-US;q=0.9,en;q=0.8","676054ef296caad582258e02","683dba9a53627eb9ab41b36a","6889db8ddd28a800005a3625","0","676054ef296caad582258e02","0","2025-07-30T08:53:18.343Z","","","","MotivationQ","","","","","","","","","","","50","","","","","","","","","","","","","","","","","","","","","","","","","","",""
"","","","","ctl-task-cpt","38","463085","0.0-7.0-0.5","51","1","2025-07-30 08:46:02","36c45c0696341be0efffe67d72a12abb","82.132.213.170","Mozilla/5.0 (Windows NT 10.0; Win64; x64) AppleWebKit/537.36 (KHTML, like Gecko) Chrome/138.0.0.0 Safari/537.36","WebKit","Chrome","138.0.0.0","Windows","10.0","https://app.prolific.com/","en-GB,en-US;q=0.9,en;q=0.8","676054ef296caad582258e02","683dba9a53627eb9ab41b36a","6889db8ddd28a800005a3625","0","676054ef296caad582258e02","0","2025-07-30T08:53:47.468Z","","","","","","","","","","","","","","","","win-only","2","g1:SE,g2:NW","0.5","6","0","436163.8","1030.9","6035.4","26106.5","1","4","8","6","2","8","8","8","0","0.06060606060606061","903.8","3000","990","[""left"",""up""]","{""num_key_presses"":6,""num_perfect"":4,""num_errors"":0,""num_randdir"":2,""num_randdir_good_moves"":2,""num_whilered"":0,""num_whileblue"":0,""num_blue"":1,""num_good_moves"":6}","[297.22232142857143,299.12857142857143,0.2,297.22232142857143,299.12857142857143,103.5,297.22232142857143,299.12857142857143,205.5,336.22232142857143,252.12857142857143,309.3,506.22232142857143,130.12857142857143,410,511.22232142857143,155.12857142857143,510.5,215.22232142857143,139.12857142857143,615.7,131.22232142857143,61.128571428571426,719.3,88.22232142857143,55.128571428571426,819.8,68.22232142857143,58.128571428571426,921.2,80.22232142857143,62.128571428571426,1021.3,555.2223214285714,202.12857142857143,1121.3,520.2223214285714,247.12857142857143,1224.5,520.2223214285714,247.12857142857143,1324.7,520.2223214285714,247.12857142857143,1425.6,520.2223214285714,247.12857142857143,1526,520.2223214285714,247.12857142857143,1629.4,520.2223214285714,247.12857142857143,1729.9,520.2223214285714,247.12857142857143,1830.1,520.2223214285714,247.12857142857143,1934.3,520.2223214285714,247.12857142857143,2040,520.2223214285714,247.12857142857143,2144.9,520.2223214285714,247.12857142857143,2244.9,520.2223214285714,247.12857142857143,2345.8,520.2223214285714,247.12857142857143,2449.9,520.2223214285714,247.12857142857143,2550.9,520.2223214285714,247.12857142857143,2655,520.2223214285714,247.12857142857143,2759.6,520.2223214285714,247.12857142857143,2859.8,520.2223214285714,247.12857142857143,2964.4,520.2223214285714,247.12857142857143,3065.6,520.2223214285714,247.12857142857143,3171.1,520.2223214285714,247.12857142857143,3276.5,520.2223214285714,247.12857142857143,3379.4,520.2223214285714,247.12857142857143,3480,520.2223214285714,247.12857142857143,3586.1,520.2223214285714,247.12857142857143,3690.1,520.2223214285714,247.12857142857143,3795.7,520.2223214285714,247.12857142857143,3896,520.2223214285714,247.12857142857143,4000.2,520.2223214285714,247.12857142857143,4104.5,520.2223214285714,247.12857142857143,4207.4,520.2223214285714,247.12857142857143,4310.1,520.2223214285714,247.12857142857143,4414.7,520.2223214285714,247.12857142857143,4514.8,520.2223214285714,247.12857142857143,4616,520.2223214285714,247.12857142857143,4721.1,520.2223214285714,247.12857142857143,4821.1,520.2223214285714,247.12857142857143,4924.3]","[1308.4,1308.4,1000,0,308.4,""smooth"",""up"",""up"",""good_move"",4138.8,2830.1,2437,1308.7,393.1,""smooth"",""up"",""up"",""good_move"",11202.6,7063.6,2672.8,8175.3,354.5,""smooth"",""up"",""up"",""good_move"",14426.8,3224,2866.5,11202.8,357.5,""oops"",""left"",""left"",""good_move"",17282.7,2855.6,2549.2,14427.2,306.3,""oops"",""left"",""left"",""good_move"",19979,2696.2,2376,17282.8,320.2,""smooth"",""left"",""left"",""good_move""]"
"1818","","<div style=""width:500px;"">
  <p>What determined the result of this run?</p>
  </div>","66","html-slider-response","39","464904","0.0-7.0-1.5","51","1","2025-07-30 08:46:02","36c45c0696341be0efffe67d72a12abb","82.132.213.170","Mozilla/5.0 (Windows NT 10.0; Win64; x64) AppleWebKit/537.36 (KHTML, like Gecko) Chrome/138.0.0.0 Safari/537.36","WebKit","Chrome","138.0.0.0","Windows","10.0","https://app.prolific.com/","en-GB,en-US;q=0.9,en;q=0.8","676054ef296caad582258e02","683dba9a53627eb9ab41b36a","6889db8ddd28a800005a3625","0","676054ef296caad582258e02","0","2025-07-30T08:53:49.287Z","","","","AttribQ","","","","","","","","","","","50","","","","","","","","","","","","","","","","","","","","","","","","","","",""
"2791","","<div style=""width:500px;"">
  <p>How much control did you have over the ball?</p>
  </div>","90","html-slider-response","40","467696","0.0-7.0-2.5","51","1","2025-07-30 08:46:02","36c45c0696341be0efffe67d72a12abb","82.132.213.170","Mozilla/5.0 (Windows NT 10.0; Win64; x64) AppleWebKit/537.36 (KHTML, like Gecko) Chrome/138.0.0.0 Safari/537.36","WebKit","Chrome","138.0.0.0","Windows","10.0","https://app.prolific.com/","en-GB,en-US;q=0.9,en;q=0.8","676054ef296caad582258e02","683dba9a53627eb9ab41b36a","6889db8ddd28a800005a3625","0","676054ef296caad582258e02","0","2025-07-30T08:53:52.079Z","","","","ControlQ","","","","","","","","","","","50","","","","","","","","","","","","","","","","","","","","","","","","","","",""
"2871","","<div style=""width:500px;"">
  <p>How would you describe your current emotional state?</p>
  </div>","49","html-slider-response","41","470568","0.0-7.0-3.5","51","1","2025-07-30 08:46:02","36c45c0696341be0efffe67d72a12abb","82.132.213.170","Mozilla/5.0 (Windows NT 10.0; Win64; x64) AppleWebKit/537.36 (KHTML, like Gecko) Chrome/138.0.0.0 Safari/537.36","WebKit","Chrome","138.0.0.0","Windows","10.0","https://app.prolific.com/","en-GB,en-US;q=0.9,en;q=0.8","676054ef296caad582258e02","683dba9a53627eb9ab41b36a","6889db8ddd28a800005a3625","0","676054ef296caad582258e02","0","2025-07-30T08:53:54.951Z","","","","StressQ","","","","","","","","","","","50","","","","","","","","","","","","","","","","","","","","","","","","","","",""
"1695","","<div style=""width:500px;"">
  <p>What best describes how you currently feel?</p>
  </div>","50","html-slider-response","42","472264","0.0-7.0-4.5","51","1","2025-07-30 08:46:02","36c45c0696341be0efffe67d72a12abb","82.132.213.170","Mozilla/5.0 (Windows NT 10.0; Win64; x64) AppleWebKit/537.36 (KHTML, like Gecko) Chrome/138.0.0.0 Safari/537.36","WebKit","Chrome","138.0.0.0","Windows","10.0","https://app.prolific.com/","en-GB,en-US;q=0.9,en;q=0.8","676054ef296caad582258e02","683dba9a53627eb9ab41b36a","6889db8ddd28a800005a3625","0","676054ef296caad582258e02","0","2025-07-30T08:53:56.647Z","","","","MotivationQ","","","","","","","","","","","50","","","","","","","","","","","","","","","","","","","","","","","","","","",""
"","","","","ctl-task-cpt","43","501943","0.0-7.0-0.6","51","1","2025-07-30 08:46:02","36c45c0696341be0efffe67d72a12abb","82.132.213.170","Mozilla/5.0 (Windows NT 10.0; Win64; x64) AppleWebKit/537.36 (KHTML, like Gecko) Chrome/138.0.0.0 Safari/537.36","WebKit","Chrome","138.0.0.0","Windows","10.0","https://app.prolific.com/","en-GB,en-US;q=0.9,en;q=0.8","676054ef296caad582258e02","683dba9a53627eb9ab41b36a","6889db8ddd28a800005a3625","0","676054ef296caad582258e02","0","2025-07-30T08:54:26.326Z","","","","","","","","","","","","","","","","win-only","3","g1:SW,g2:NE","0.4","7","0","474467.7","622.9","5625.5","26660.3","1","4","4","6","2","4","3","11","8","0.08333333333333333","583.9","3000","520","[""up"",""right""]","{""num_key_presses"":8,""num_perfect"":3,""num_errors"":1,""num_randdir"":4,""num_randdir_good_moves"":3,""num_whilered"":0,""num_whileblue"":1,""num_blue"":1,""num_good_moves"":7}","[299.22232142857143,291.12857142857143,0.1,299.22232142857143,291.12857142857143,102.6,350.22232142857143,235.12857142857143,208.2,417.22232142857143,137.12857142857143,312.3,521.2223214285714,114.12857142857143,412.8,563.2223214285714,73.12857142857143,517.4,563.2223214285714,72.12857142857143,617.4,563.2223214285714,72.12857142857143,717.7,580.2223214285714,66.12857142857143,818.2,580.2223214285714,66.12857142857143,918.3,580.2223214285714,66.12857142857143,1022.9,580.2223214285714,66.12857142857143,1127.8,580.2223214285714,66.12857142857143,1228.8,580.2223214285714,66.12857142857143,1333.1,580.2223214285714,66.12857142857143,1433.6,580.2223214285714,66.12857142857143,1537.2,580.2223214285714,66.12857142857143,1637.3,580.2223214285714,66.12857142857143,1737.4,580.2223214285714,66.12857142857143,1843.4,580.2223214285714,66.12857142857143,1948.4,580.2223214285714,66.12857142857143,2052.2,580.2223214285714,66.12857142857143,2152.4,580.2223214285714,66.12857142857143,2252.5,580.2223214285714,66.12857142857143,2357.4,580.2223214285714,66.12857142857143,2463.3,580.2223214285714,66.12857142857143,2567.4,580.2223214285714,66.12857142857143,2673,580.2223214285714,66.12857142857143,2778.8,580.2223214285714,66.12857142857143,2882.9,580.2223214285714,66.12857142857143,2988,580.2223214285714,66.12857142857143,3088.2,580.2223214285714,66.12857142857143,3192.8,580.2223214285714,66.12857142857143,3293,580.2223214285714,66.12857142857143,3397.6,580.2223214285714,66.12857142857143,3498.2,580.2223214285714,66.12857142857143,3602.7,580.2223214285714,66.12857142857143,3708.2,580.2223214285714,66.12857142857143,3809.1,580.2223214285714,66.12857142857143,3912.7,580.2223214285714,66.12857142857143,4012.9,580.2223214285714,66.12857142857143,4117.9,580.2223214285714,66.12857142857143,4218,580.2223214285714,66.12857142857143,4322.2,580.2223214285714,66.12857142857143,4423,580.2223214285714,66.12857142857143,4528.4,580.2223214285714,66.12857142857143,4632.9,580.2223214285714,66.12857142857143,4738.2,580.2223214285714,66.12857142857143,4843.1,580.2223214285714,66.12857142857143,4947.3]","[1372.9,1372.9,1000,0,372.9,""smooth"",""right"",""right"",""good_move"",3532.6,2159.4,1761.7,1373.2,397.7,""smooth"",""right"",""right"",""good_move"",5916.8,2384,2022.7,3532.8,361.3,""oops"",""right"",""down"",""bad_move"",7996.8,2079.8,1713.6,5917,366.2,""oops"",""right"",""up"",""good_move"",11620.8,3623.7,3260.9,7997.1,362.8,""oops"",""right"",""up"",""good_move"",14868.6,3247.7,2969.5,11620.9,278.2,""while_blue"",""right"",""up"",""good_move"",17524.7,2655.8,2324,14868.9,331.8,""smooth"",""right"",""right"",""good_move"",20932.7,3407.7,3082.1,17525,325.6,""oops"",""up"",""up"",""good_move""]"
"1752","","<div style=""width:500px;"">
  <p>What determined the result of this run?</p>
  </div>","40","html-slider-response","44","503696","0.0-7.0-1.6","51","1","2025-07-30 08:46:02","36c45c0696341be0efffe67d72a12abb","82.132.213.170","Mozilla/5.0 (Windows NT 10.0; Win64; x64) AppleWebKit/537.36 (KHTML, like Gecko) Chrome/138.0.0.0 Safari/537.36","WebKit","Chrome","138.0.0.0","Windows","10.0","https://app.prolific.com/","en-GB,en-US;q=0.9,en;q=0.8","676054ef296caad582258e02","683dba9a53627eb9ab41b36a","6889db8ddd28a800005a3625","0","676054ef296caad582258e02","0","2025-07-30T08:54:28.079Z","","","","AttribQ","","","","","","","","","","","50","","","","","","","","","","","","","","","","","","","","","","","","","","",""
"2999","","<div style=""width:500px;"">
  <p>How much control did you have over the ball?</p>
  </div>","27","html-slider-response","45","506696","0.0-7.0-2.6","51","1","2025-07-30 08:46:02","36c45c0696341be0efffe67d72a12abb","82.132.213.170","Mozilla/5.0 (Windows NT 10.0; Win64; x64) AppleWebKit/537.36 (KHTML, like Gecko) Chrome/138.0.0.0 Safari/537.36","WebKit","Chrome","138.0.0.0","Windows","10.0","https://app.prolific.com/","en-GB,en-US;q=0.9,en;q=0.8","676054ef296caad582258e02","683dba9a53627eb9ab41b36a","6889db8ddd28a800005a3625","0","676054ef296caad582258e02","0","2025-07-30T08:54:31.079Z","","","","ControlQ","","","","","","","","","","","50","","","","","","","","","","","","","","","","","","","","","","","","","","",""
"1391","","<div style=""width:500px;"">
  <p>How would you describe your current emotional state?</p>
  </div>","50","html-slider-response","46","508088","0.0-7.0-3.6","51","1","2025-07-30 08:46:02","36c45c0696341be0efffe67d72a12abb","82.132.213.170","Mozilla/5.0 (Windows NT 10.0; Win64; x64) AppleWebKit/537.36 (KHTML, like Gecko) Chrome/138.0.0.0 Safari/537.36","WebKit","Chrome","138.0.0.0","Windows","10.0","https://app.prolific.com/","en-GB,en-US;q=0.9,en;q=0.8","676054ef296caad582258e02","683dba9a53627eb9ab41b36a","6889db8ddd28a800005a3625","0","676054ef296caad582258e02","0","2025-07-30T08:54:32.471Z","","","","StressQ","","","","","","","","","","","50","","","","","","","","","","","","","","","","","","","","","","","","","","",""
"1632","","<div style=""width:500px;"">
  <p>What best describes how you currently feel?</p>
  </div>","50","html-slider-response","47","509721","0.0-7.0-4.6","51","1","2025-07-30 08:46:02","36c45c0696341be0efffe67d72a12abb","82.132.213.170","Mozilla/5.0 (Windows NT 10.0; Win64; x64) AppleWebKit/537.36 (KHTML, like Gecko) Chrome/138.0.0.0 Safari/537.36","WebKit","Chrome","138.0.0.0","Windows","10.0","https://app.prolific.com/","en-GB,en-US;q=0.9,en;q=0.8","676054ef296caad582258e02","683dba9a53627eb9ab41b36a","6889db8ddd28a800005a3625","0","676054ef296caad582258e02","0","2025-07-30T08:54:34.104Z","","","","MotivationQ","","","","","","","","","","","50","","","","","","","","","","","","","","","","","","","","","","","","","","",""
"","","","","ctl-task-cpt","48","560496","0.0-7.0-0.7","51","1","2025-07-30 08:46:02","36c45c0696341be0efffe67d72a12abb","82.132.213.170","Mozilla/5.0 (Windows NT 10.0; Win64; x64) AppleWebKit/537.36 (KHTML, like Gecko) Chrome/138.0.0.0 Safari/537.36","WebKit","Chrome","138.0.0.0","Windows","10.0","https://app.prolific.com/","en-GB,en-US;q=0.9,en;q=0.8","676054ef296caad582258e02","683dba9a53627eb9ab41b36a","6889db8ddd28a800005a3625","0","676054ef296caad582258e02","0","2025-07-30T08:55:24.879Z","","","","","","","","","","","","","","","","win-only","1","g1:NE,g2:SW","0.3","8","0","511924.8","741.8","5746","47755.4","1","4","8","6","2","-8","-12","0","11","0","704.3","3000","-3015","[""down"",""left""]","{""num_key_presses"":11,""num_perfect"":2,""num_errors"":4,""num_randdir"":5,""num_randdir_good_moves"":2,""num_whilered"":0,""num_whileblue"":2,""num_blue"":5,""num_good_moves"":4}","[292.22232142857143,301.12857142857143,0.2,292.22232142857143,301.12857142857143,100.3,296.22232142857143,292.12857142857143,204.6,436.22232142857143,163.12857142857143,309.3,356.22232142857143,213.12857142857143,414,46.222321428571426,509.12857142857143,514.2,38.222321428571426,527.1285714285714,615.4,36.222321428571426,535.1285714285714,718.7,58.222321428571426,535.1285714285714,820.3,230.22232142857143,565.1285714285714,924.1,245.22232142857143,580.1285714285714,1028.5,245.22232142857143,580.1285714285714,1128.9,245.22232142857143,580.1285714285714,1229.2,245.22232142857143,580.1285714285714,1334,245.22232142857143,580.1285714285714,1440.1,245.22232142857143,580.1285714285714,1543.9,245.22232142857143,580.1285714285714,1645.2,245.22232142857143,580.1285714285714,1748.9,245.22232142857143,580.1285714285714,1853.5,245.22232142857143,580.1285714285714,1953.5,245.22232142857143,580.1285714285714,2053.6,245.22232142857143,580.1285714285714,2158.9,245.22232142857143,580.1285714285714,2260.2,245.22232142857143,580.1285714285714,2363.5,245.22232142857143,580.1285714285714,2463.7,245.22232142857143,580.1285714285714,2569.2,245.22232142857143,580.1285714285714,2669.2,245.22232142857143,580.1285714285714,2769.8,245.22232142857143,580.1285714285714,2873.8,245.22232142857143,580.1285714285714,2974,245.22232142857143,580.1285714285714,3079.1,245.22232142857143,580.1285714285714,3183.6,245.22232142857143,581.1285714285714,3283.6,245.22232142857143,581.1285714285714,3383.8,245.22232142857143,581.1285714285714,3488.5,245.22232142857143,581.1285714285714,3588.7,245.22232142857143,581.1285714285714,3689.4,245.22232142857143,581.1285714285714,3794.1,245.22232142857143,581.1285714285714,3894.3,245.22232142857143,581.1285714285714,3995.3,245.22232142857143,581.1285714285714,4098.8,245.22232142857143,581.1285714285714,4203.8,245.22232142857143,581.1285714285714,4304.3,245.22232142857143,581.1285714285714,4409.4,245.22232142857143,581.1285714285714,4514.2,245.22232142857143,581.1285714285714,4615.3,245.22232142857143,581.1285714285714,4720.1,245.22232142857143,581.1285714285714,4820.1,245.22232142857143,581.1285714285714,4924.1]","[1292.8,1292.8,1000.4,0,292.4,""while_blue"",""down"",""right"",""bad_move"",3595.1,2302,2031.3,1293.1,270.7,""smooth"",""down"",""down"",""good_move"",9515.3,5919.8,2403.9,6790.5,320.9,""oops"",""left"",""up"",""bad_move"",12573.1,3057.7,2659.4,9515.5,398.3,""oops"",""left"",""up"",""bad_move"",15883,3309.7,2855.1,12573.3,454.6,""oops"",""left"",""right"",""bad_move"",19515.2,3631.8,3308.5,15883.4,323.3,""oops"",""down"",""down"",""good_move"",23435.3,3919.8,1822.7,23050.7,-1438.1,""error"",""-"",""-"",""no_move"",24955.3,1519.9,2785,24440.5,-2270.2,""error"",""-"",""-"",""no_move"",29723.4,4767.9,3406.8,25960.1,356.5,""oops"",""down"",""left"",""good_move"",32811.1,3087.5,2722.6,29723.6,364.9,""smooth"",""down"",""down"",""good_move"",39203.3,6392.1,2749.8,36120.8,332.8,""while_blue"",""down"",""up"",""bad_move""]"
"3135","","<div style=""width:500px;"">
  <p>What determined the result of this run?</p>
  </div>","51","html-slider-response","49","563632","0.0-7.0-1.7","51","1","2025-07-30 08:46:02","36c45c0696341be0efffe67d72a12abb","82.132.213.170","Mozilla/5.0 (Windows NT 10.0; Win64; x64) AppleWebKit/537.36 (KHTML, like Gecko) Chrome/138.0.0.0 Safari/537.36","WebKit","Chrome","138.0.0.0","Windows","10.0","https://app.prolific.com/","en-GB,en-US;q=0.9,en;q=0.8","676054ef296caad582258e02","683dba9a53627eb9ab41b36a","6889db8ddd28a800005a3625","0","676054ef296caad582258e02","0","2025-07-30T08:55:28.015Z","","","","AttribQ","","","","","","","","","","","50","","","","","","","","","","","","","","","","","","","","","","","","","","",""
"1711","","<div style=""width:500px;"">
  <p>How much control did you have over the ball?</p>
  </div>","0","html-slider-response","50","565343","0.0-7.0-2.7","51","1","2025-07-30 08:46:02","36c45c0696341be0efffe67d72a12abb","82.132.213.170","Mozilla/5.0 (Windows NT 10.0; Win64; x64) AppleWebKit/537.36 (KHTML, like Gecko) Chrome/138.0.0.0 Safari/537.36","WebKit","Chrome","138.0.0.0","Windows","10.0","https://app.prolific.com/","en-GB,en-US;q=0.9,en;q=0.8","676054ef296caad582258e02","683dba9a53627eb9ab41b36a","6889db8ddd28a800005a3625","0","676054ef296caad582258e02","0","2025-07-30T08:55:29.727Z","","","","ControlQ","","","","","","","","","","","50","","","","","","","","","","","","","","","","","","","","","","","","","","",""
"1951","","<div style=""width:500px;"">
  <p>How would you describe your current emotional state?</p>
  </div>","69","html-slider-response","51","567296","0.0-7.0-3.7","51","1","2025-07-30 08:46:02","36c45c0696341be0efffe67d72a12abb","82.132.213.170","Mozilla/5.0 (Windows NT 10.0; Win64; x64) AppleWebKit/537.36 (KHTML, like Gecko) Chrome/138.0.0.0 Safari/537.36","WebKit","Chrome","138.0.0.0","Windows","10.0","https://app.prolific.com/","en-GB,en-US;q=0.9,en;q=0.8","676054ef296caad582258e02","683dba9a53627eb9ab41b36a","6889db8ddd28a800005a3625","0","676054ef296caad582258e02","0","2025-07-30T08:55:31.679Z","","","","StressQ","","","","","","","","","","","50","","","","","","","","","","","","","","","","","","","","","","","","","","",""
"2023","","<div style=""width:500px;"">
  <p>What best describes how you currently feel?</p>
  </div>","50","html-slider-response","52","569320","0.0-7.0-4.7","51","1","2025-07-30 08:46:02","36c45c0696341be0efffe67d72a12abb","82.132.213.170","Mozilla/5.0 (Windows NT 10.0; Win64; x64) AppleWebKit/537.36 (KHTML, like Gecko) Chrome/138.0.0.0 Safari/537.36","WebKit","Chrome","138.0.0.0","Windows","10.0","https://app.prolific.com/","en-GB,en-US;q=0.9,en;q=0.8","676054ef296caad582258e02","683dba9a53627eb9ab41b36a","6889db8ddd28a800005a3625","0","676054ef296caad582258e02","0","2025-07-30T08:55:33.703Z","","","","MotivationQ","","","","","","","","","","","50","","","","","","","","","","","","","","","","","","","","","","","","","","",""
"","","","","ctl-task-cpt","53","604129","0.0-7.0-0.8","51","1","2025-07-30 08:46:02","36c45c0696341be0efffe67d72a12abb","82.132.213.170","Mozilla/5.0 (Windows NT 10.0; Win64; x64) AppleWebKit/537.36 (KHTML, like Gecko) Chrome/138.0.0.0 Safari/537.36","WebKit","Chrome","138.0.0.0","Windows","10.0","https://app.prolific.com/","en-GB,en-US;q=0.9,en;q=0.8","676054ef296caad582258e02","683dba9a53627eb9ab41b36a","6889db8ddd28a800005a3625","0","676054ef296caad582258e02","0","2025-07-30T08:56:08.512Z","","","","","","","","","","","","","","","","win-only","0","g1:NW,g2:SE","0.4","9","0","571523.7","679.3","5681","31791.5","1","4","8","6","2","-8","-10","0","0","0","914.2","3000","-3015","[""down"",""right""]","{""num_key_presses"":8,""num_perfect"":2,""num_errors"":2,""num_randdir"":4,""num_randdir_good_moves"":3,""num_whilered"":0,""num_whileblue"":2,""num_blue"":2,""num_good_moves"":5}","[291.22232142857143,296.12857142857143,0.2,291.22232142857143,296.12857142857143,101.3,291.22232142857143,295.12857142857143,214.9,377.22232142857143,161.12857142857143,316.1,387.22232142857143,153.12857142857143,416.5,368.22232142857143,264.12857142857143,516.8,452.22232142857143,400.12857142857143,621,490.22232142857143,455.12857142857143,726.9,507.22232142857143,480.12857142857143,830.8,531.2223214285714,525.1285714285714,931,534.2223214285714,525.1285714285714,1037.4,596.2223214285714,498.12857142857143,1147.5,603.2223214285714,496.12857142857143,1251.7,603.2223214285714,496.12857142857143,1356.3,603.2223214285714,496.12857142857143,1457.7,603.2223214285714,496.12857142857143,1565.4,603.2223214285714,496.12857142857143,1666.7,603.2223214285714,496.12857142857143,1770.9,603.2223214285714,496.12857142857143,1871.3,603.2223214285714,496.12857142857143,1980.2,603.2223214285714,496.12857142857143,2080.3,603.2223214285714,496.12857142857143,2180.3,603.2223214285714,496.12857142857143,2281.6,603.2223214285714,496.12857142857143,2386.2,603.2223214285714,496.12857142857143,2491.6,603.2223214285714,496.12857142857143,2596.6,603.2223214285714,496.12857142857143,2703,603.2223214285714,496.12857142857143,2806,603.2223214285714,496.12857142857143,2907.3,603.2223214285714,496.12857142857143,3011.6,603.2223214285714,496.12857142857143,3112.7,603.2223214285714,496.12857142857143,3215.9,603.2223214285714,496.12857142857143,3316.1,603.2223214285714,496.12857142857143,3417.1,603.2223214285714,496.12857142857143,3521,603.2223214285714,496.12857142857143,3621.7,603.2223214285714,496.12857142857143,3722,603.2223214285714,496.12857142857143,3827.6,603.2223214285714,496.12857142857143,3930.9,603.2223214285714,496.12857142857143,4031,603.2223214285714,496.12857142857143,4131.3,603.2223214285714,496.12857142857143,4231.6,603.2223214285714,496.12857142857143,4336.2,603.2223214285714,496.12857142857143,4436.2,603.2223214285714,496.12857142857143,4536.7,603.2223214285714,496.12857142857143,4637.1,603.2223214285714,496.12857142857143,4742.4,603.2223214285714,496.12857142857143,4846.2,603.2223214285714,496.12857142857143,4951.3]","[1397.3,1397.3,1000,0,397.3,""smooth"",""right"",""right"",""good_move"",4109.2,2711.5,2388.2,1397.7,323.3,""smooth"",""down"",""down"",""good_move"",7693.3,3583.8,3220,4109.5,363.8,""oops"",""down"",""up"",""bad_move"",10909.2,3215.6,2867.4,7693.6,348.2,""oops"",""down"",""down"",""good_move"",13789.4,2879.9,2572.2,10909.5,307.7,""oops"",""down"",""down"",""good_move"",16693.2,2903.6,2571.7,13789.6,331.9,""oops"",""down"",""down"",""good_move"",19477.3,2783.9,2520.9,16693.4,263,""while_blue"",""right"",""up"",""bad_move"",22949.3,3471.7,3172.3,19477.6,299.4,""while_blue"",""right"",""left"",""bad_move""]"
"2854","","<div style=""width:500px;"">
  <p>What determined the result of this run?</p>
  </div>","50","html-slider-response","54","606984","0.0-7.0-1.8","51","1","2025-07-30 08:46:02","36c45c0696341be0efffe67d72a12abb","82.132.213.170","Mozilla/5.0 (Windows NT 10.0; Win64; x64) AppleWebKit/537.36 (KHTML, like Gecko) Chrome/138.0.0.0 Safari/537.36","WebKit","Chrome","138.0.0.0","Windows","10.0","https://app.prolific.com/","en-GB,en-US;q=0.9,en;q=0.8","676054ef296caad582258e02","683dba9a53627eb9ab41b36a","6889db8ddd28a800005a3625","0","676054ef296caad582258e02","0","2025-07-30T08:56:11.367Z","","","","AttribQ","","","","","","","","","","","50","","","","","","","","","","","","","","","","","","","","","","","","","","",""
"1759","","<div style=""width:500px;"">
  <p>How much control did you have over the ball?</p>
  </div>","16","html-slider-response","55","608744","0.0-7.0-2.8","51","1","2025-07-30 08:46:02","36c45c0696341be0efffe67d72a12abb","82.132.213.170","Mozilla/5.0 (Windows NT 10.0; Win64; x64) AppleWebKit/537.36 (KHTML, like Gecko) Chrome/138.0.0.0 Safari/537.36","WebKit","Chrome","138.0.0.0","Windows","10.0","https://app.prolific.com/","en-GB,en-US;q=0.9,en;q=0.8","676054ef296caad582258e02","683dba9a53627eb9ab41b36a","6889db8ddd28a800005a3625","0","676054ef296caad582258e02","0","2025-07-30T08:56:13.127Z","","","","ControlQ","","","","","","","","","","","50","","","","","","","","","","","","","","","","","","","","","","","","","","",""
"3383","","<div style=""width:500px;"">
  <p>How would you describe your current emotional state?</p>
  </div>","67","html-slider-response","56","612128","0.0-7.0-3.8","51","1","2025-07-30 08:46:02","36c45c0696341be0efffe67d72a12abb","82.132.213.170","Mozilla/5.0 (Windows NT 10.0; Win64; x64) AppleWebKit/537.36 (KHTML, like Gecko) Chrome/138.0.0.0 Safari/537.36","WebKit","Chrome","138.0.0.0","Windows","10.0","https://app.prolific.com/","en-GB,en-US;q=0.9,en;q=0.8","676054ef296caad582258e02","683dba9a53627eb9ab41b36a","6889db8ddd28a800005a3625","0","676054ef296caad582258e02","0","2025-07-30T08:56:16.511Z","","","","StressQ","","","","","","","","","","","50","","","","","","","","","","","","","","","","","","","","","","","","","","",""
"1287","","<div style=""width:500px;"">
  <p>What best describes how you currently feel?</p>
  </div>","50","html-slider-response","57","613416","0.0-7.0-4.8","51","1","2025-07-30 08:46:02","36c45c0696341be0efffe67d72a12abb","82.132.213.170","Mozilla/5.0 (Windows NT 10.0; Win64; x64) AppleWebKit/537.36 (KHTML, like Gecko) Chrome/138.0.0.0 Safari/537.36","WebKit","Chrome","138.0.0.0","Windows","10.0","https://app.prolific.com/","en-GB,en-US;q=0.9,en;q=0.8","676054ef296caad582258e02","683dba9a53627eb9ab41b36a","6889db8ddd28a800005a3625","0","676054ef296caad582258e02","0","2025-07-30T08:56:17.799Z","","","","MotivationQ","","","","","","","","","","","50","","","","","","","","","","","","","","","","","","","","","","","","","","",""
"","","","","ctl-task-cpt","58","638352","0.0-7.0-0.9","51","1","2025-07-30 08:46:02","36c45c0696341be0efffe67d72a12abb","82.132.213.170","Mozilla/5.0 (Windows NT 10.0; Win64; x64) AppleWebKit/537.36 (KHTML, like Gecko) Chrome/138.0.0.0 Safari/537.36","WebKit","Chrome","138.0.0.0","Windows","10.0","https://app.prolific.com/","en-GB,en-US;q=0.9,en;q=0.8","676054ef296caad582258e02","683dba9a53627eb9ab41b36a","6889db8ddd28a800005a3625","0","676054ef296caad582258e02","0","2025-07-30T08:56:42.735Z","","","","","","","","","","","","","","","","win-only","0","g1:NW,g2:SE","0.5","10","0","615619.9","1296.7","6300.6","21916.9","1","4","4","6","2","4","4","4","0","0.030303030303030304","838","3000","885","[""down"",""right""]","{""num_key_presses"":6,""num_perfect"":5,""num_errors"":0,""num_randdir"":1,""num_randdir_good_moves"":1,""num_whilered"":0,""num_whileblue"":0,""num_blue"":0,""num_good_moves"":6}","[298.22232142857143,287.12857142857143,0.3,298.22232142857143,287.12857142857143,101.3,368.22232142857143,228.12857142857143,204.7,424.22232142857143,172.12857142857143,305.2,381.22232142857143,204.12857142857143,409.2,432.22232142857143,471.12857142857143,509.3,480.22232142857143,521.1285714285714,618.7,493.22232142857143,522.1285714285714,720.3,516.2223214285714,527.1285714285714,825.1,522.2223214285714,529.1285714285714,925.3,524.2223214285714,528.1285714285714,1034.1,524.2223214285714,528.1285714285714,1134.9,524.2223214285714,528.1285714285714,1239.1,524.2223214285714,528.1285714285714,1339.4,524.2223214285714,528.1285714285714,1439.7,524.2223214285714,528.1285714285714,1551.9,524.2223214285714,528.1285714285714,1654.2,524.2223214285714,528.1285714285714,1754.9,524.2223214285714,528.1285714285714,1859.5,524.2223214285714,528.1285714285714,1968.2,524.2223214285714,528.1285714285714,2069.8,524.2223214285714,528.1285714285714,2173.8,524.2223214285714,528.1285714285714,2274.1,524.2223214285714,528.1285714285714,2383.5,524.2223214285714,528.1285714285714,2484.4,524.2223214285714,528.1285714285714,2585.4,524.2223214285714,528.1285714285714,2685.3,524.2223214285714,528.1285714285714,2785.3,524.2223214285714,528.1285714285714,2889.1,524.2223214285714,528.1285714285714,2989.6,524.2223214285714,528.1285714285714,3093.9,524.2223214285714,528.1285714285714,3199.6,524.2223214285714,528.1285714285714,3305.7,524.2223214285714,528.1285714285714,3409.1,524.2223214285714,528.1285714285714,3517.4,524.2223214285714,528.1285714285714,3619.1,524.2223214285714,528.1285714285714,3719.7,524.2223214285714,528.1285714285714,3825.2,524.2223214285714,528.1285714285714,3932.4,524.2223214285714,528.1285714285714,4032.9,524.2223214285714,528.1285714285714,4136,524.2223214285714,528.1285714285714,4239.7,524.2223214285714,528.1285714285714,4343.8,524.2223214285714,528.1285714285714,4445.1,524.2223214285714,528.1285714285714,4548.7,524.2223214285714,528.1285714285714,4649.8,524.2223214285714,528.1285714285714,4755.3,524.2223214285714,528.1285714285714,4860,524.2223214285714,528.1285714285714,4967]","[1377.9,1377.9,1000,0,377.9,""smooth"",""right"",""right"",""good_move"",4393.6,3015.4,2618.4,1378.2,397,""smooth"",""down"",""down"",""good_move"",7281.4,2887.6,2458.7,4393.8,428.9,""smooth"",""down"",""down"",""good_move"",10089.4,2807.9,2471,7281.5,336.9,""oops"",""down"",""right"",""good_move"",12593.7,2504,2172.7,10089.7,331.3,""smooth"",""down"",""down"",""good_move"",15529.6,2935.8,2573,12593.8,362.8,""smooth"",""right"",""right"",""good_move""]"
"7911","","<div style=""width:500px;"">
  <p>What determined the result of this run?</p>
  </div>","50","html-slider-response","59","646264","0.0-7.0-1.9","51","1","2025-07-30 08:46:02","36c45c0696341be0efffe67d72a12abb","82.132.213.170","Mozilla/5.0 (Windows NT 10.0; Win64; x64) AppleWebKit/537.36 (KHTML, like Gecko) Chrome/138.0.0.0 Safari/537.36","WebKit","Chrome","138.0.0.0","Windows","10.0","https://app.prolific.com/","en-GB,en-US;q=0.9,en;q=0.8","676054ef296caad582258e02","683dba9a53627eb9ab41b36a","6889db8ddd28a800005a3625","0","676054ef296caad582258e02","0","2025-07-30T08:56:50.647Z","","","","AttribQ","","","","","","","","","","","50","","","","","","","","","","","","","","","","","","","","","","","","","","",""
"1647","","<div style=""width:500px;"">
  <p>How much control did you have over the ball?</p>
  </div>","100","html-slider-response","60","647912","0.0-7.0-2.9","51","1","2025-07-30 08:46:02","36c45c0696341be0efffe67d72a12abb","82.132.213.170","Mozilla/5.0 (Windows NT 10.0; Win64; x64) AppleWebKit/537.36 (KHTML, like Gecko) Chrome/138.0.0.0 Safari/537.36","WebKit","Chrome","138.0.0.0","Windows","10.0","https://app.prolific.com/","en-GB,en-US;q=0.9,en;q=0.8","676054ef296caad582258e02","683dba9a53627eb9ab41b36a","6889db8ddd28a800005a3625","0","676054ef296caad582258e02","0","2025-07-30T08:56:52.295Z","","","","ControlQ","","","","","","","","","","","50","","","","","","","","","","","","","","","","","","","","","","","","","","",""
"1663","","<div style=""width:500px;"">
  <p>How would you describe your current emotional state?</p>
  </div>","50","html-slider-response","61","649576","0.0-7.0-3.9","51","1","2025-07-30 08:46:02","36c45c0696341be0efffe67d72a12abb","82.132.213.170","Mozilla/5.0 (Windows NT 10.0; Win64; x64) AppleWebKit/537.36 (KHTML, like Gecko) Chrome/138.0.0.0 Safari/537.36","WebKit","Chrome","138.0.0.0","Windows","10.0","https://app.prolific.com/","en-GB,en-US;q=0.9,en;q=0.8","676054ef296caad582258e02","683dba9a53627eb9ab41b36a","6889db8ddd28a800005a3625","0","676054ef296caad582258e02","0","2025-07-30T08:56:53.959Z","","","","StressQ","","","","","","","","","","","50","","","","","","","","","","","","","","","","","","","","","","","","","","",""
"1503","","<div style=""width:500px;"">
  <p>What best describes how you currently feel?</p>
  </div>","50","html-slider-response","62","651080","0.0-7.0-4.9","51","1","2025-07-30 08:46:02","36c45c0696341be0efffe67d72a12abb","82.132.213.170","Mozilla/5.0 (Windows NT 10.0; Win64; x64) AppleWebKit/537.36 (KHTML, like Gecko) Chrome/138.0.0.0 Safari/537.36","WebKit","Chrome","138.0.0.0","Windows","10.0","https://app.prolific.com/","en-GB,en-US;q=0.9,en;q=0.8","676054ef296caad582258e02","683dba9a53627eb9ab41b36a","6889db8ddd28a800005a3625","0","676054ef296caad582258e02","0","2025-07-30T08:56:55.463Z","","","","MotivationQ","","","","","","","","","","","50","","","","","","","","","","","","","","","","","","","","","","","","","","",""
"","","","","ctl-task-cpt","63","685818","0.0-7.0-0.10","51","1","2025-07-30 08:46:02","36c45c0696341be0efffe67d72a12abb","82.132.213.170","Mozilla/5.0 (Windows NT 10.0; Win64; x64) AppleWebKit/537.36 (KHTML, like Gecko) Chrome/138.0.0.0 Safari/537.36","WebKit","Chrome","138.0.0.0","Windows","10.0","https://app.prolific.com/","en-GB,en-US;q=0.9,en;q=0.8","676054ef296caad582258e02","683dba9a53627eb9ab41b36a","6889db8ddd28a800005a3625","0","676054ef296caad582258e02","0","2025-07-30T08:57:30.202Z","","","","","","","","","","","","","","","","win-only","1","g1:NE,g2:SW","0.6","11","0","653283.7","799","5800.5","31720.3","1","4","8","6","2","-8","-8","0","4","0","775.9","3000","-3015","[""down"",""left""]","{""num_key_presses"":9,""num_perfect"":6,""num_errors"":0,""num_randdir"":3,""num_randdir_good_moves"":1,""num_whilered"":0,""num_whileblue"":0,""num_blue"":0,""num_good_moves"":7}","[299.22232142857143,296.12857142857143,0.2,299.22232142857143,296.12857142857143,101.4,299.22232142857143,294.12857142857143,202.2,386.22232142857143,181.12857142857143,302.5,338.22232142857143,258.12857142857143,402.9,178.22232142857143,505.12857142857143,507.3,147.22232142857143,547.1285714285714,611.4,69.22232142857143,539.1285714285714,713.1,27.222321428571426,528.1285714285714,815,39.222321428571426,528.1285714285714,918.2,300.22232142857143,415.12857142857143,1020.4,320.22232142857143,453.12857142857143,1121.8,350.22232142857143,560.1285714285714,1227.2,350.22232142857143,561.1285714285714,1332.9,350.22232142857143,561.1285714285714,1433.2,350.22232142857143,561.1285714285714,1536.4,350.22232142857143,561.1285714285714,1637.7,350.22232142857143,561.1285714285714,1742.3,350.22232142857143,561.1285714285714,1846.8,350.22232142857143,561.1285714285714,1946.9,350.22232142857143,561.1285714285714,2051.7,350.22232142857143,561.1285714285714,2152.1,350.22232142857143,561.1285714285714,2252.4,350.22232142857143,561.1285714285714,2352.9,350.22232142857143,561.1285714285714,2456.5,350.22232142857143,561.1285714285714,2562,350.22232142857143,561.1285714285714,2662.5,350.22232142857143,561.1285714285714,2767.7,350.22232142857143,561.1285714285714,2871.6,350.22232142857143,561.1285714285714,2972.3,350.22232142857143,561.1285714285714,3072.6,350.22232142857143,561.1285714285714,3176.6,350.22232142857143,561.1285714285714,3282.9,350.22232142857143,561.1285714285714,3387.4,350.22232142857143,561.1285714285714,3492.8,350.22232142857143,561.1285714285714,3597.8,350.22232142857143,561.1285714285714,3701.4,350.22232142857143,561.1285714285714,3806.4,350.22232142857143,561.1285714285714,3906.6,350.22232142857143,561.1285714285714,4012.4,350.22232142857143,561.1285714285714,4112.5,350.22232142857143,561.1285714285714,4218,350.22232142857143,561.1285714285714,4322.8,350.22232142857143,561.1285714285714,4426.2,350.22232142857143,561.1285714285714,4526.8,350.22232142857143,561.1285714285714,4626.8,350.22232142857143,561.1285714285714,4728,350.22232142857143,561.1285714285714,4831.9,350.22232142857143,561.1285714285714,4932.7]","[1374,1374,1000,0,374,""oops"",""down"",""right"",""bad_move"",4757.8,3383.6,3019.2,1374.2,364.4,""smooth"",""down"",""down"",""good_move"",7637.7,2879.6,2531.4,4758.1,348.2,""smooth"",""down"",""down"",""good_move"",10317.9,2680.1,2385,7637.8,295.1,""smooth"",""down"",""down"",""good_move"",13125.9,2807.9,2484.7,10318,323.2,""smooth"",""left"",""left"",""good_move"",15925.7,2799.6,2477.3,13126.1,322.3,""smooth"",""left"",""left"",""good_move"",18214,2288.1,1979,15925.9,309.1,""oops"",""left"",""right"",""bad_move"",21157.9,2943.6,2613.9,18214.3,329.7,""smooth"",""left"",""left"",""good_move"",23422,2263.9,1935.8,21158.1,328.1,""oops"",""left"",""left"",""good_move""]"
"2540","","<div style=""width:500px;"">
  <p>What determined the result of this run?</p>
  </div>","50","html-slider-response","64","688360","0.0-7.0-1.10","51","1","2025-07-30 08:46:02","36c45c0696341be0efffe67d72a12abb","82.132.213.170","Mozilla/5.0 (Windows NT 10.0; Win64; x64) AppleWebKit/537.36 (KHTML, like Gecko) Chrome/138.0.0.0 Safari/537.36","WebKit","Chrome","138.0.0.0","Windows","10.0","https://app.prolific.com/","en-GB,en-US;q=0.9,en;q=0.8","676054ef296caad582258e02","683dba9a53627eb9ab41b36a","6889db8ddd28a800005a3625","0","676054ef296caad582258e02","0","2025-07-30T08:57:32.743Z","","","","AttribQ","","","","","","","","","","","50","","","","","","","","","","","","","","","","","","","","","","","","","","",""
"2455","","<div style=""width:500px;"">
  <p>How much control did you have over the ball?</p>
  </div>","31","html-slider-response","65","690816","0.0-7.0-2.10","51","1","2025-07-30 08:46:02","36c45c0696341be0efffe67d72a12abb","82.132.213.170","Mozilla/5.0 (Windows NT 10.0; Win64; x64) AppleWebKit/537.36 (KHTML, like Gecko) Chrome/138.0.0.0 Safari/537.36","WebKit","Chrome","138.0.0.0","Windows","10.0","https://app.prolific.com/","en-GB,en-US;q=0.9,en;q=0.8","676054ef296caad582258e02","683dba9a53627eb9ab41b36a","6889db8ddd28a800005a3625","0","676054ef296caad582258e02","0","2025-07-30T08:57:35.199Z","","","","ControlQ","","","","","","","","","","","50","","","","","","","","","","","","","","","","","","","","","","","","","","",""
"2023","","<div style=""width:500px;"">
  <p>How would you describe your current emotional state?</p>
  </div>","52","html-slider-response","66","692840","0.0-7.0-3.10","51","1","2025-07-30 08:46:02","36c45c0696341be0efffe67d72a12abb","82.132.213.170","Mozilla/5.0 (Windows NT 10.0; Win64; x64) AppleWebKit/537.36 (KHTML, like Gecko) Chrome/138.0.0.0 Safari/537.36","WebKit","Chrome","138.0.0.0","Windows","10.0","https://app.prolific.com/","en-GB,en-US;q=0.9,en;q=0.8","676054ef296caad582258e02","683dba9a53627eb9ab41b36a","6889db8ddd28a800005a3625","0","676054ef296caad582258e02","0","2025-07-30T08:57:37.223Z","","","","StressQ","","","","","","","","","","","50","","","","","","","","","","","","","","","","","","","","","","","","","","",""
"1783","","<div style=""width:500px;"">
  <p>What best describes how you currently feel?</p>
  </div>","50","html-slider-response","67","694624","0.0-7.0-4.10","51","1","2025-07-30 08:46:02","36c45c0696341be0efffe67d72a12abb","82.132.213.170","Mozilla/5.0 (Windows NT 10.0; Win64; x64) AppleWebKit/537.36 (KHTML, like Gecko) Chrome/138.0.0.0 Safari/537.36","WebKit","Chrome","138.0.0.0","Windows","10.0","https://app.prolific.com/","en-GB,en-US;q=0.9,en;q=0.8","676054ef296caad582258e02","683dba9a53627eb9ab41b36a","6889db8ddd28a800005a3625","0","676054ef296caad582258e02","0","2025-07-30T08:57:39.007Z","","","","MotivationQ","","","","","","","","","","","50","","","","","","","","","","","","","","","","","","","","","","","","","","",""
"","","","","ctl-task-cpt","68","725174","0.0-7.0-0.11","51","1","2025-07-30 08:46:02","36c45c0696341be0efffe67d72a12abb","82.132.213.170","Mozilla/5.0 (Windows NT 10.0; Win64; x64) AppleWebKit/537.36 (KHTML, like Gecko) Chrome/138.0.0.0 Safari/537.36","WebKit","Chrome","138.0.0.0","Windows","10.0","https://app.prolific.com/","en-GB,en-US;q=0.9,en;q=0.8","676054ef296caad582258e02","683dba9a53627eb9ab41b36a","6889db8ddd28a800005a3625","0","676054ef296caad582258e02","0","2025-07-30T08:58:09.557Z","","","","","","","","","","","","","","","","win-only","3","g1:SW,g2:NE","0.7","12","0","696827.8","830.7","5839.6","27531.4","1","4","4","6","2","4","4","4","0","0.030303030303030304","1232.3","3000","430","[""up"",""right""]","{""num_key_presses"":8,""num_perfect"":6,""num_errors"":0,""num_randdir"":2,""num_randdir_good_moves"":1,""num_whilered"":0,""num_whileblue"":0,""num_blue"":0,""num_good_moves"":7}","[297.22232142857143,305.12857142857143,0.3,297.22232142857143,305.12857142857143,100.2,304.22232142857143,267.12857142857143,210.3,380.22232142857143,187.12857142857143,314.8,406.22232142857143,180.12857142857143,415.8,406.22232142857143,180.12857142857143,521.1,466.22232142857143,58.128571428571426,629.4,466.22232142857143,57.128571428571426,731,472.22232142857143,58.128571428571426,835.4,486.22232142857143,57.128571428571426,943.7,496.22232142857143,56.128571428571426,1044.8,496.22232142857143,64.12857142857143,1145.4,497.22232142857143,65.12857142857143,1245.8,497.22232142857143,65.12857142857143,1345.8,497.22232142857143,65.12857142857143,1449.6,497.22232142857143,65.12857142857143,1549.6,497.22232142857143,65.12857142857143,1655,497.22232142857143,65.12857142857143,1759.5,497.22232142857143,65.12857142857143,1860,497.22232142857143,65.12857142857143,1966.2,497.22232142857143,65.12857142857143,2069.5,497.22232142857143,65.12857142857143,2170.4,497.22232142857143,65.12857142857143,2277.4,497.22232142857143,65.12857142857143,2377.7,497.22232142857143,65.12857142857143,2479.9,497.22232142857143,65.12857142857143,2580.3,497.22232142857143,65.12857142857143,2684.6,497.22232142857143,65.12857142857143,2785.9,497.22232142857143,65.12857142857143,2893.3,497.22232142857143,65.12857142857143,2993.8,497.22232142857143,65.12857142857143,3095.2,497.22232142857143,65.12857142857143,3195.9,497.22232142857143,65.12857142857143,3299.9,497.22232142857143,65.12857142857143,3409,497.22232142857143,65.12857142857143,3509.3,497.22232142857143,65.12857142857143,3611.3,497.22232142857143,65.12857142857143,3714.5,497.22232142857143,65.12857142857143,3816,497.22232142857143,65.12857142857143,3920.2,497.22232142857143,65.12857142857143,4027.6,497.22232142857143,65.12857142857143,4132.7,497.22232142857143,65.12857142857143,4234.6,497.22232142857143,65.12857142857143,4342.6,497.22232142857143,65.12857142857143,4443.4,497.22232142857143,65.12857142857143,4545,497.22232142857143,65.12857142857143,4645.9,497.22232142857143,65.12857142857143,4746,497.22232142857143,65.12857142857143,4849.6,497.22232142857143,65.12857142857143,4950.4]","[1379.9,1379.9,1000,0,379.9,""smooth"",""right"",""right"",""good_move"",4069.4,2689.2,2278,1380.2,411.2,""smooth"",""right"",""right"",""good_move"",7022.7,2953.1,2607.3,4069.6,345.8,""oops"",""right"",""right"",""good_move"",9854.5,2831.6,2498.8,7022.9,332.8,""smooth"",""up"",""up"",""good_move"",13038.7,3183.9,2872.6,9854.8,311.3,""smooth"",""up"",""up"",""good_move"",15734.5,2695.6,2360.8,13038.9,334.8,""oops"",""up"",""left"",""bad_move"",18798.5,3063.8,2744.1,15734.7,319.7,""smooth"",""up"",""up"",""good_move"",21590.5,2791.8,2450.2,18798.7,341.6,""smooth"",""right"",""right"",""good_move""]"
"2841","","<div style=""width:500px;"">
  <p>What determined the result of this run?</p>
  </div>","50","html-slider-response","69","728016","0.0-7.0-1.11","51","1","2025-07-30 08:46:02","36c45c0696341be0efffe67d72a12abb","82.132.213.170","Mozilla/5.0 (Windows NT 10.0; Win64; x64) AppleWebKit/537.36 (KHTML, like Gecko) Chrome/138.0.0.0 Safari/537.36","WebKit","Chrome","138.0.0.0","Windows","10.0","https://app.prolific.com/","en-GB,en-US;q=0.9,en;q=0.8","676054ef296caad582258e02","683dba9a53627eb9ab41b36a","6889db8ddd28a800005a3625","0","676054ef296caad582258e02","0","2025-07-30T08:58:12.399Z","","","","AttribQ","","","","","","","","","","","50","","","","","","","","","","","","","","","","","","","","","","","","","","",""
"1479","","<div style=""width:500px;"">
  <p>How much control did you have over the ball?</p>
  </div>","32","html-slider-response","70","729496","0.0-7.0-2.11","51","1","2025-07-30 08:46:02","36c45c0696341be0efffe67d72a12abb","82.132.213.170","Mozilla/5.0 (Windows NT 10.0; Win64; x64) AppleWebKit/537.36 (KHTML, like Gecko) Chrome/138.0.0.0 Safari/537.36","WebKit","Chrome","138.0.0.0","Windows","10.0","https://app.prolific.com/","en-GB,en-US;q=0.9,en;q=0.8","676054ef296caad582258e02","683dba9a53627eb9ab41b36a","6889db8ddd28a800005a3625","0","676054ef296caad582258e02","0","2025-07-30T08:58:13.879Z","","","","ControlQ","","","","","","","","","","","50","","","","","","","","","","","","","","","","","","","","","","","","","","",""
"3031","","<div style=""width:500px;"">
  <p>How would you describe your current emotional state?</p>
  </div>","50","html-slider-response","71","732528","0.0-7.0-3.11","51","1","2025-07-30 08:46:02","36c45c0696341be0efffe67d72a12abb","82.132.213.170","Mozilla/5.0 (Windows NT 10.0; Win64; x64) AppleWebKit/537.36 (KHTML, like Gecko) Chrome/138.0.0.0 Safari/537.36","WebKit","Chrome","138.0.0.0","Windows","10.0","https://app.prolific.com/","en-GB,en-US;q=0.9,en;q=0.8","676054ef296caad582258e02","683dba9a53627eb9ab41b36a","6889db8ddd28a800005a3625","0","676054ef296caad582258e02","0","2025-07-30T08:58:16.911Z","","","","StressQ","","","","","","","","","","","50","","","","","","","","","","","","","","","","","","","","","","","","","","",""
"1487","","<div style=""width:500px;"">
  <p>What best describes how you currently feel?</p>
  </div>","50","html-slider-response","72","734016","0.0-7.0-4.11","51","1","2025-07-30 08:46:02","36c45c0696341be0efffe67d72a12abb","82.132.213.170","Mozilla/5.0 (Windows NT 10.0; Win64; x64) AppleWebKit/537.36 (KHTML, like Gecko) Chrome/138.0.0.0 Safari/537.36","WebKit","Chrome","138.0.0.0","Windows","10.0","https://app.prolific.com/","en-GB,en-US;q=0.9,en;q=0.8","676054ef296caad582258e02","683dba9a53627eb9ab41b36a","6889db8ddd28a800005a3625","0","676054ef296caad582258e02","0","2025-07-30T08:58:18.399Z","","","","MotivationQ","","","","","","","","","","","50","","","","","","","","","","","","","","","","","","","","","","","","","","",""
"","","","","ctl-task-cpt","73","758890","0.0-7.0-0.12","51","1","2025-07-30 08:46:02","36c45c0696341be0efffe67d72a12abb","82.132.213.170","Mozilla/5.0 (Windows NT 10.0; Win64; x64) AppleWebKit/537.36 (KHTML, like Gecko) Chrome/138.0.0.0 Safari/537.36","WebKit","Chrome","138.0.0.0","Windows","10.0","https://app.prolific.com/","en-GB,en-US;q=0.9,en;q=0.8","676054ef296caad582258e02","683dba9a53627eb9ab41b36a","6889db8ddd28a800005a3625","0","676054ef296caad582258e02","0","2025-07-30T08:58:43.273Z","","","","","","","","","","","","","","","","win-only","1","g1:NE,g2:SW","0.8","13","0","736219.7","519.1","5520.9","21856.5","1","4","8","6","2","8","8","12","4","0.09090909090909091","792.6","3000","940","[""down"",""left""]","{""num_key_presses"":6,""num_perfect"":5,""num_errors"":0,""num_randdir"":1,""num_randdir_good_moves"":1,""num_whilered"":0,""num_whileblue"":0,""num_blue"":0,""num_good_moves"":6}","[300.22232142857143,294.12857142857143,0.1,300.22232142857143,294.12857142857143,102.1,308.22232142857143,269.12857142857143,206.3,391.22232142857143,149.12857142857143,307.1,431.22232142857143,132.12857142857143,413.1,184.22232142857143,396.12857142857143,516.9,118.22232142857143,511.12857142857143,617.9,68.22232142857143,543.1285714285714,721.4,47.222321428571426,558.1285714285714,826.4,64.22232142857143,539.1285714285714,931.4,60.222321428571426,537.1285714285714,1036.4,60.222321428571426,537.1285714285714,1138.1,60.222321428571426,537.1285714285714,1242.3,60.222321428571426,537.1285714285714,1346.2,60.222321428571426,537.1285714285714,1446.9,60.222321428571426,537.1285714285714,1547.8,60.222321428571426,537.1285714285714,1651,60.222321428571426,537.1285714285714,1753,60.222321428571426,537.1285714285714,1856.8,60.222321428571426,537.1285714285714,1957.1,60.222321428571426,537.1285714285714,2062.4,60.222321428571426,537.1285714285714,2166.4,60.222321428571426,537.1285714285714,2266.5,60.222321428571426,537.1285714285714,2366.6,60.222321428571426,537.1285714285714,2467.2,60.222321428571426,537.1285714285714,2571.4,60.222321428571426,537.1285714285714,2671.4,60.222321428571426,537.1285714285714,2771.5,60.222321428571426,537.1285714285714,2872.8,60.222321428571426,537.1285714285714,2978.6,60.222321428571426,537.1285714285714,3082.3,60.222321428571426,537.1285714285714,3186.4,60.222321428571426,537.1285714285714,3291.6,60.222321428571426,537.1285714285714,3397.8,60.222321428571426,537.1285714285714,3501.8,60.222321428571426,537.1285714285714,3606.7,60.222321428571426,537.1285714285714,3707.6,60.222321428571426,537.1285714285714,3812.2,60.222321428571426,537.1285714285714,3917,60.222321428571426,537.1285714285714,4021.7,60.222321428571426,537.1285714285714,4121.9,60.222321428571426,537.1285714285714,4228.1,60.222321428571426,537.1285714285714,4332.2,60.222321428571426,537.1285714285714,4437.4,60.222321428571426,537.1285714285714,4541.5,60.222321428571426,537.1285714285714,4647.9,60.222321428571426,537.1285714285714,4751.7,60.222321428571426,537.1285714285714,4851.7,60.222321428571426,537.1285714285714,4956]","[1301.3,1301.3,1000,0,301.3,""smooth"",""down"",""down"",""good_move"",3781.5,2479.8,2118.9,1301.7,360.9,""oops"",""down"",""down"",""good_move"",6877.7,3096,2768.6,3781.7,327.4,""smooth"",""down"",""down"",""good_move"",10301.5,3423.6,3091.4,6877.9,332.2,""smooth"",""left"",""left"",""good_move"",12973.6,2671.8,2305.4,10301.8,366.4,""smooth"",""left"",""left"",""good_move"",16245.4,3271.6,2871.8,12973.8,399.8,""smooth"",""left"",""left"",""good_move""]"
"2525","","<div style=""width:500px;"">
  <p>What determined the result of this run?</p>
  </div>","61","html-slider-response","74","761416","0.0-7.0-1.12","51","1","2025-07-30 08:46:02","36c45c0696341be0efffe67d72a12abb","82.132.213.170","Mozilla/5.0 (Windows NT 10.0; Win64; x64) AppleWebKit/537.36 (KHTML, like Gecko) Chrome/138.0.0.0 Safari/537.36","WebKit","Chrome","138.0.0.0","Windows","10.0","https://app.prolific.com/","en-GB,en-US;q=0.9,en;q=0.8","676054ef296caad582258e02","683dba9a53627eb9ab41b36a","6889db8ddd28a800005a3625","0","676054ef296caad582258e02","0","2025-07-30T08:58:45.799Z","","","","AttribQ","","","","","","","","","","","50","","","","","","","","","","","","","","","","","","","","","","","","","","",""
"2751","","<div style=""width:500px;"">
  <p>How much control did you have over the ball?</p>
  </div>","82","html-slider-response","75","764168","0.0-7.0-2.12","51","1","2025-07-30 08:46:02","36c45c0696341be0efffe67d72a12abb","82.132.213.170","Mozilla/5.0 (Windows NT 10.0; Win64; x64) AppleWebKit/537.36 (KHTML, like Gecko) Chrome/138.0.0.0 Safari/537.36","WebKit","Chrome","138.0.0.0","Windows","10.0","https://app.prolific.com/","en-GB,en-US;q=0.9,en;q=0.8","676054ef296caad582258e02","683dba9a53627eb9ab41b36a","6889db8ddd28a800005a3625","0","676054ef296caad582258e02","0","2025-07-30T08:58:48.551Z","","","","ControlQ","","","","","","","","","","","50","","","","","","","","","","","","","","","","","","","","","","","","","","",""
"2607","","<div style=""width:500px;"">
  <p>How would you describe your current emotional state?</p>
  </div>","49","html-slider-response","76","766776","0.0-7.0-3.12","51","1","2025-07-30 08:46:02","36c45c0696341be0efffe67d72a12abb","82.132.213.170","Mozilla/5.0 (Windows NT 10.0; Win64; x64) AppleWebKit/537.36 (KHTML, like Gecko) Chrome/138.0.0.0 Safari/537.36","WebKit","Chrome","138.0.0.0","Windows","10.0","https://app.prolific.com/","en-GB,en-US;q=0.9,en;q=0.8","676054ef296caad582258e02","683dba9a53627eb9ab41b36a","6889db8ddd28a800005a3625","0","676054ef296caad582258e02","0","2025-07-30T08:58:51.159Z","","","","StressQ","","","","","","","","","","","50","","","","","","","","","","","","","","","","","","","","","","","","","","",""
"1032","","<div style=""width:500px;"">
  <p>What best describes how you currently feel?</p>
