"rt","response_timestamp","stimulus","response","trial_type","trial_index","time_elapsed","internal_node_id","run_id","condition","recorded_at","source_code_version","ip","user_agent","device","browser","browser_version","platform","platform_version","referer","accept_language","PROLIFIC_PID","STUDY_ID","SESSION_ID","BATCH","prolific_id","batch","realtime","success","question_order","question_id","eventType","responses","item_order","radio_event_ids","radio_event_times","key_event_times","mouse_event_times","straightlining","zigzagging","honeypot","view_history","slider_start","which_type","canvas_config","goals_layout","control_level","trial_number","tutorial_trial_number","trial_start_time","phase1_start_time","phase2_start_time","phase3_start_time","goal_1_value","goal_1_distance","goal_2_value","goal_2_distance","goal_selected","outcome","outcome_total","participant_final_score","participant_initial_score","participant_final_score_prop","goal_choice_rt","allocated_time","allocated_time_remaining","goal_direction","counts","mouse_movements","key_presses"
"5037","1753865242127","<p style='font-size:40px;line-height:1.25'><strong>Welcome to the experiment!</strong></p><p style='font-size:1.1em;line-height:1.25'>Thank you for participanting in our experiment again! You will be asked to play the Dysfunctional Ball Game again. We will briefly recap the rules before we start.</p><p style='font-size:1.1em;line-height:1.25'>Press <strong>Next</strong> to continue.</p>","0","custom-html-button-response","0","5043","0.0-0.0","52","1","2025-07-30 08:47:14","36c45c0696341be0efffe67d72a12abb","85.255.235.218","Mozilla/5.0 (Windows NT 10.0; Win64; x64) AppleWebKit/537.36 (KHTML, like Gecko) Chrome/138.0.0.0 Safari/537.36","WebKit","Chrome","138.0.0.0","Windows","10.0","https://app.prolific.com/","en-GB,en-US;q=0.9,en;q=0.8","676055e6c41940f91e59028c","687a19d2168e237449fb8af4","6889dbdb4609030fac0ca144","0","676055e6c41940f91e59028c","0","2025-07-30T08:47:22.129Z","","","","","","","","","","","","","","","","","","","","","","","","","","","","","","","","","","","","","","","","","",""
"7693","","","","fullscreen","1","13758","0.0-1.0","52","1","2025-07-30 08:47:14","36c45c0696341be0efffe67d72a12abb","85.255.235.218","Mozilla/5.0 (Windows NT 10.0; Win64; x64) AppleWebKit/537.36 (KHTML, like Gecko) Chrome/138.0.0.0 Safari/537.36","WebKit","Chrome","138.0.0.0","Windows","10.0","https://app.prolific.com/","en-GB,en-US;q=0.9,en;q=0.8","676055e6c41940f91e59028c","687a19d2168e237449fb8af4","6889dbdb4609030fac0ca144","0","676055e6c41940f91e59028c","0","","true","","","","","","","","","","","","","","","","","","","","","","","","","","","","","","","","","","","","","","","","",""
"4591","1753865255436"," <p style='font-size:1.1em;line-height:1.25'>Thank you for closing all other tabs.</p><p style='font-size:1.1em;line-height:1.25'>We will now invite you to fill in some questionnaires, before starting the game.<br>This will take about 5 minutes.<br></p><p style='font-size:1.1em;line-height:1.25'>Press the <strong>Next</strong> button to continue.</p>","0","custom-html-button-response","2","18351","0.0-2.0","52","1","2025-07-30 08:47:14","36c45c0696341be0efffe67d72a12abb","85.255.235.218","Mozilla/5.0 (Windows NT 10.0; Win64; x64) AppleWebKit/537.36 (KHTML, like Gecko) Chrome/138.0.0.0 Safari/537.36","WebKit","Chrome","138.0.0.0","Windows","10.0","https://app.prolific.com/","en-GB,en-US;q=0.9,en;q=0.8","676055e6c41940f91e59028c","687a19d2168e237449fb8af4","6889dbdb4609030fac0ca144","0","676055e6c41940f91e59028c","0","2025-07-30T08:47:35.437Z","","","","","","","","","","","","","","","","","","","","","","","","","","","","","","","","","","","","","","","","","",""
"3476","","","{""assigned_sex"":""male""}","survey-multi-choice","3","21830","0.0-3.0-0.0","52","1","2025-07-30 08:47:14","36c45c0696341be0efffe67d72a12abb","85.255.235.218","Mozilla/5.0 (Windows NT 10.0; Win64; x64) AppleWebKit/537.36 (KHTML, like Gecko) Chrome/138.0.0.0 Safari/537.36","WebKit","Chrome","138.0.0.0","Windows","10.0","https://app.prolific.com/","en-GB,en-US;q=0.9,en;q=0.8","676055e6c41940f91e59028c","687a19d2168e237449fb8af4","6889dbdb4609030fac0ca144","0","676055e6c41940f91e59028c","0","","","[0]","0","demographics","","","","","","","","","","","","","","","","","","","","","","","","","","","","","","","","","","","","","",""
"4400","1753865263317","<p style='font-size:1.1em;line-height:1.25'>In the following, we will perform a baseline assessment. This means that we will ask you a few questions relating to your experiences over the past month.<br></p><p style='font-size:1.1em;line-height:1.25'>Press the <strong>Next</strong> button to continue.</p>","0","custom-html-button-response","4","26232","0.0-4.0-0.0","52","1","2025-07-30 08:47:14","36c45c0696341be0efffe67d72a12abb","85.255.235.218","Mozilla/5.0 (Windows NT 10.0; Win64; x64) AppleWebKit/537.36 (KHTML, like Gecko) Chrome/138.0.0.0 Safari/537.36","WebKit","Chrome","138.0.0.0","Windows","10.0","https://app.prolific.com/","en-GB,en-US;q=0.9,en;q=0.8","676055e6c41940f91e59028c","687a19d2168e237449fb8af4","6889dbdb4609030fac0ca144","0","676055e6c41940f91e59028c","0","2025-07-30T08:47:43.318Z","","","","","","","","","","","","","","","","","","","","","","","","","","","","","","","","","","","","","","","","","",""
"61472.39999985695","","","","survey-template","5","87712","0.0-4.0-1.0","52","1","2025-07-30 08:47:14","36c45c0696341be0efffe67d72a12abb","85.255.235.218","Mozilla/5.0 (Windows NT 10.0; Win64; x64) AppleWebKit/537.36 (KHTML, like Gecko) Chrome/138.0.0.0 Safari/537.36","WebKit","Chrome","138.0.0.0","Windows","10.0","https://app.prolific.com/","en-GB,en-US;q=0.9,en;q=0.8","676055e6c41940f91e59028c","687a19d2168e237449fb8af4","6889dbdb4609030fac0ca144","0","676055e6c41940f91e59028c","0","2025-07-30T08:48:44.798Z","","","","pss","{""Q01"":""2"",""Q02"":""2"",""Q03"":""3"",""Q04"":""2"",""Q05"":""3"",""Q06"":""2"",""Q07"":""3"",""Q08"":""3"",""Q09"":""2"",""Q10"":""3""}","[0,1,2,3,4,5,6,7,8,9]","[""Q01"",""Q03"",""Q02"",""Q05"",""Q04"",""Q06"",""Q07"",""Q09"",""Q10"",""Q08"",""Q09""]","[9791.5,11363.599999904633,15005.299999952316,21702.099999904633,23020.5,29177.099999904633,38593.59999990463,42878.299999952316,50617,56056.39999985695,57588.799999952316]","[]","[0,7106.599999904633,9791.5,11363.599999904633,13168.799999952316,15005.299999952316,20146.099999904633,21702.099999904633,23020.5,29177.099999904633,38593.59999990463,42878.299999952316,47377.5,50617,51917.39999985695,56056.39999985695,57588.799999952316,61464.700000047684]","0.5","0.7777777777777778","0","","","","","","","","","","","","","","","","","","","","","","","","","","","","",""
"2859","1753865327659","<p style='font-size:1.1em;line-height:1.25'>Thank you for your answers! Now we will ask you a few more questions relating to your feelings in the last 24 hours.<br></p><p style='font-size:1.1em;line-height:1.25'>Press the <strong>Next</strong> button to continue.</p>","0","custom-html-button-response","6","90574","0.0-4.0-2.0","52","1","2025-07-30 08:47:14","36c45c0696341be0efffe67d72a12abb","85.255.235.218","Mozilla/5.0 (Windows NT 10.0; Win64; x64) AppleWebKit/537.36 (KHTML, like Gecko) Chrome/138.0.0.0 Safari/537.36","WebKit","Chrome","138.0.0.0","Windows","10.0","https://app.prolific.com/","en-GB,en-US;q=0.9,en;q=0.8","676055e6c41940f91e59028c","687a19d2168e237449fb8af4","6889dbdb4609030fac0ca144","0","676055e6c41940f91e59028c","0","2025-07-30T08:48:47.660Z","","","","","","","","","","","","","","","","","","","","","","","","","","","","","","","","","","","","","","","","","",""
"84019.79999995232","","","","survey-template","7","174601","0.0-4.0-3.0","52","1","2025-07-30 08:47:14","36c45c0696341be0efffe67d72a12abb","85.255.235.218","Mozilla/5.0 (Windows NT 10.0; Win64; x64) AppleWebKit/537.36 (KHTML, like Gecko) Chrome/138.0.0.0 Safari/537.36","WebKit","Chrome","138.0.0.0","Windows","10.0","https://app.prolific.com/","en-GB,en-US;q=0.9,en;q=0.8","676055e6c41940f91e59028c","687a19d2168e237449fb8af4","6889dbdb4609030fac0ca144","0","676055e6c41940f91e59028c","0","2025-07-30T08:50:11.688Z","","","","drsp","{""Q01"":""2"",""Q02"":""3"",""Q03"":""1"",""Q04"":""4"",""Q05"":""2"",""Q06"":""2"",""Q07"":""2"",""Q08"":""0"",""Q09"":""3"",""Q10"":""2"",""Q11"":""3"",""Q12"":""4"",""Q13"":""5"",""Q14"":""3"",""Q15"":""2"",""Q16"":""3"",""Q17"":""2"",""Q18"":""1"",""Q19"":""0"",""Q20"":""3"",""Q21"":""3"",""Q22"":""2""}","[0,1,2,3,4,5,6,7,8,9,10,11,12,13,14,15,16,17,18,19,20,21]","[""Q01"",""Q02"",""Q03"",""Q04"",""Q05"",""Q06"",""Q07"",""Q08"",""Q08"",""Q09"",""Q10"",""Q11"",""Q12"",""Q13"",""Q14"",""Q15"",""Q16"",""Q17"",""Q18"",""Q20"",""Q19"",""Q21"",""Q22""]","[2746.7000000476837,4736.899999856949,7295.799999952316,8645.200000047684,10318,12907.799999952316,14909.899999856949,15944.099999904633,19196.200000047684,21237.89999985695,23457,25805.700000047684,32469.799999952316,33902.89999985695,35824.200000047684,40368.09999990463,46195.89999985695,47947.5,50137.799999952316,58855.39999985695,61812.700000047684,69311.59999990463,73421.5]","[]","[0,2746.7000000476837,4736.899999856949,5938.799999952316,7295.799999952316,8645.200000047684,10318,12907.799999952316,14909.899999856949,15944.099999904633,17492.89999985695,19196.200000047684,21237.89999985695,23457,25805.700000047684,32469.799999952316,33902.89999985695,35824.200000047684,40368.09999990463,46195.89999985695,47947.5,50137.799999952316,58855.39999985695,61812.700000047684,69311.59999990463,73421.5,84007.29999995232]","0.36363636363636365","0.5238095238095238","0","","","","","","","","","","","","","","","","","","","","","","","","","","","","",""
"13688.200000047684","","","","survey-template","8","188293","0.0-4.0-4.0","52","1","2025-07-30 08:47:14","36c45c0696341be0efffe67d72a12abb","85.255.235.218","Mozilla/5.0 (Windows NT 10.0; Win64; x64) AppleWebKit/537.36 (KHTML, like Gecko) Chrome/138.0.0.0 Safari/537.36","WebKit","Chrome","138.0.0.0","Windows","10.0","https://app.prolific.com/","en-GB,en-US;q=0.9,en;q=0.8","676055e6c41940f91e59028c","687a19d2168e237449fb8af4","6889dbdb4609030fac0ca144","0","676055e6c41940f91e59028c","0","2025-07-30T08:50:25.380Z","","","","stress","{""Q01"":""4"",""Q02"":""4"",""Q03"":""3""}","[0,1,2]","[""Q01"",""Q02"",""Q03""]","[4423.5,8006.200000047684,11396.600000143051]","[]","[4423.5,8006.200000047684,11396.600000143051,13685.800000190735]","0.3333333333333333","0","0","","","","","","","","","","","","","","","","","","","","","","","","","","","","",""
"51655","","","","instructions","9","239950","0.0-5.0-0.0","52","1","2025-07-30 08:47:14","36c45c0696341be0efffe67d72a12abb","85.255.235.218","Mozilla/5.0 (Windows NT 10.0; Win64; x64) AppleWebKit/537.36 (KHTML, like Gecko) Chrome/138.0.0.0 Safari/537.36","WebKit","Chrome","138.0.0.0","Windows","10.0","https://app.prolific.com/","en-GB,en-US;q=0.9,en;q=0.8","676055e6c41940f91e59028c","687a19d2168e237449fb8af4","6889dbdb4609030fac0ca144","0","676055e6c41940f91e59028c","0","","","","","","","","","","","","","","","[{""page_index"":0,""viewing_time"":51655}]","","","","","","","","","","","","","","","","","","","","","","","","","","","",""
"7734","","<p>Before you start with this game please answer the following three questions yourself. </p>
  <p>Through this game, we measure several aspects of your cognitive performance, such as reaction times, multi-tasking capabilities </p>
  <p>and the ability to assess the situation you are in.</p>
  <p></p>
  <p><b>How good do you usually are in such tasks?</b></p>","75","html-slider-response","10","247686","0.0-6.0-0.0","52","1","2025-07-30 08:47:14","36c45c0696341be0efffe67d72a12abb","85.255.235.218","Mozilla/5.0 (Windows NT 10.0; Win64; x64) AppleWebKit/537.36 (KHTML, like Gecko) Chrome/138.0.0.0 Safari/537.36","WebKit","Chrome","138.0.0.0","Windows","10.0","https://app.prolific.com/","en-GB,en-US;q=0.9,en;q=0.8","676055e6c41940f91e59028c","687a19d2168e237449fb8af4","6889dbdb4609030fac0ca144","0","676055e6c41940f91e59028c","0","2025-07-30T08:51:24.772Z","","","","PreSkillQ","","","","","","","","","","","50","","","","","","","","","","","","","","","","","","","","","","","","","","",""
"5158","","<div style=""width:500px;"">
  <p>How well do you think you will perform in this task compared to other participants?</p>
  </div>","61","html-slider-response","11","252847","0.0-6.0-1.0","52","1","2025-07-30 08:47:14","36c45c0696341be0efffe67d72a12abb","85.255.235.218","Mozilla/5.0 (Windows NT 10.0; Win64; x64) AppleWebKit/537.36 (KHTML, like Gecko) Chrome/138.0.0.0 Safari/537.36","WebKit","Chrome","138.0.0.0","Windows","10.0","https://app.prolific.com/","en-GB,en-US;q=0.9,en;q=0.8","676055e6c41940f91e59028c","687a19d2168e237449fb8af4","6889dbdb4609030fac0ca144","0","676055e6c41940f91e59028c","0","2025-07-30T08:51:29.933Z","","","","PrePerfQ","","","","","","","","","","","50","","","","","","","","","","","","","","","","","","","","","","","","","","",""
"4107","","<div style=""width:500px;"">
  <p>What best describes how you currently feel?</p>
  </div>","87","html-slider-response","12","256956","0.0-6.0-2.0","52","1","2025-07-30 08:47:14","36c45c0696341be0efffe67d72a12abb","85.255.235.218","Mozilla/5.0 (Windows NT 10.0; Win64; x64) AppleWebKit/537.36 (KHTML, like Gecko) Chrome/138.0.0.0 Safari/537.36","WebKit","Chrome","138.0.0.0","Windows","10.0","https://app.prolific.com/","en-GB,en-US;q=0.9,en;q=0.8","676055e6c41940f91e59028c","687a19d2168e237449fb8af4","6889dbdb4609030fac0ca144","0","676055e6c41940f91e59028c","0","2025-07-30T08:51:34.042Z","","","","PreMotivationQ","","","","","","","","","","","50","","","","","","","","","","","","","","","","","","","","","","","","","","",""
"","","","","ctl-task-cpt","13","282825","0.0-7.0-0.0","52","1","2025-07-30 08:47:14","36c45c0696341be0efffe67d72a12abb","85.255.235.218","Mozilla/5.0 (Windows NT 10.0; Win64; x64) AppleWebKit/537.36 (KHTML, like Gecko) Chrome/138.0.0.0 Safari/537.36","WebKit","Chrome","138.0.0.0","Windows","10.0","https://app.prolific.com/","en-GB,en-US;q=0.9,en;q=0.8","676055e6c41940f91e59028c","687a19d2168e237449fb8af4","6889dbdb4609030fac0ca144","0","676055e6c41940f91e59028c","0","2025-07-30T08:51:59.911Z","","","","","","","","","","","","","","","","win-only","3","g1:SW,g2:NE","1","1","0","259428.1","4965.4","9968","22852.2","1","4","4","6","1","1","1","1","0","0.007575757575757576","2196.1","3000","1685","[""down"",""left""]","{""num_key_presses"":4,""num_perfect"":4,""num_errors"":0,""num_randdir"":0,""num_randdir_good_moves"":0,""num_whilered"":0,""num_whileblue"":0,""num_blue"":1,""num_good_moves"":4}","[417.57142857142856,412.47767857142856,0.1,417.57142857142856,412.47767857142856,101,417.57142857142856,412.47767857142856,205.6,417.57142857142856,412.47767857142856,305.7,417.57142857142856,412.47767857142856,405.8,417.57142857142856,412.47767857142856,510.8,417.57142857142856,412.47767857142856,616.2,417.57142857142856,412.47767857142856,720.7,417.57142857142856,412.47767857142856,825.5,417.57142857142856,412.47767857142856,926.1,417.57142857142856,412.47767857142856,1026.9,412.57142857142856,419.47767857142856,1127.4,410.57142857142856,427.47767857142856,1230.5,409.57142857142856,431.47767857142856,1330.7,393.57142857142856,471.47767857142856,1431.2,353.57142857142856,542.4776785714286,1536.7,165.57142857142856,733.4776785714286,1637.7,126.57142857142857,759.4776785714286,1739.1,93.57142857142857,779.4776785714286,1840.9,91.57142857142857,781.4776785714286,1940.9,91.57142857142857,781.4776785714286,2040.9,91.57142857142857,781.4776785714286,2141.5,91.57142857142857,781.4776785714286,2245.5,91.57142857142857,781.4776785714286,2346.3,91.57142857142857,781.4776785714286,2446.5,91.57142857142857,781.4776785714286,2550.2,91.57142857142857,781.4776785714286,2650.2,91.57142857142857,781.4776785714286,2750.5,91.57142857142857,781.4776785714286,2851.4,91.57142857142857,781.4776785714286,2956.6,91.57142857142857,781.4776785714286,3061.2,91.57142857142857,781.4776785714286,3169.1,91.57142857142857,781.4776785714286,3271.7,91.57142857142857,781.4776785714286,3376.1,91.57142857142857,781.4776785714286,3480.9,91.57142857142857,781.4776785714286,3581.2,91.57142857142857,781.4776785714286,3685.3,91.57142857142857,781.4776785714286,3785.6,91.57142857142857,781.4776785714286,3891.2,91.57142857142857,781.4776785714286,3996.1,91.57142857142857,781.4776785714286,4096.1,91.57142857142857,781.4776785714286,4201.6,91.57142857142857,781.4776785714286,4302.1,91.57142857142857,781.4776785714286,4406.1,91.57142857142857,781.4776785714286,4511,91.57142857142857,781.4776785714286,4617.4,91.57142857142857,781.4776785714286,4722.6,91.57142857142857,781.4776785714286,4822.6,91.57142857142857,781.4776785714286,4923.9]","[1438.3,1438.3,1000,0.1,438.3,""smooth"",""left"",""left"",""good_move"",3922.7,2483.8,2128.9,1439,354.8,""smooth"",""left"",""left"",""good_move"",6871.5,2948.6,2591.6,3923,356.9,""smooth"",""down"",""down"",""good_move"",12781,5909.2,2186.3,10202.7,392,""smooth"",""down"",""down"",""good_move""]"
"9371","","<div style=""width:500px;"">
  <p>What determined the result of this run?</p>
  </div>","66","html-slider-response","14","292198","0.0-7.0-1.0","52","1","2025-07-30 08:47:14","36c45c0696341be0efffe67d72a12abb","85.255.235.218","Mozilla/5.0 (Windows NT 10.0; Win64; x64) AppleWebKit/537.36 (KHTML, like Gecko) Chrome/138.0.0.0 Safari/537.36","WebKit","Chrome","138.0.0.0","Windows","10.0","https://app.prolific.com/","en-GB,en-US;q=0.9,en;q=0.8","676055e6c41940f91e59028c","687a19d2168e237449fb8af4","6889dbdb4609030fac0ca144","0","676055e6c41940f91e59028c","0","2025-07-30T08:52:09.284Z","","","","AttribQ","","","","","","","","","","","50","","","","","","","","","","","","","","","","","","","","","","","","","","",""
"5481","","<div style=""width:500px;"">
  <p>How much control did you have over the ball?</p>
  </div>","97","html-slider-response","15","297681","0.0-7.0-2.0","52","1","2025-07-30 08:47:14","36c45c0696341be0efffe67d72a12abb","85.255.235.218","Mozilla/5.0 (Windows NT 10.0; Win64; x64) AppleWebKit/537.36 (KHTML, like Gecko) Chrome/138.0.0.0 Safari/537.36","WebKit","Chrome","138.0.0.0","Windows","10.0","https://app.prolific.com/","en-GB,en-US;q=0.9,en;q=0.8","676055e6c41940f91e59028c","687a19d2168e237449fb8af4","6889dbdb4609030fac0ca144","0","676055e6c41940f91e59028c","0","2025-07-30T08:52:14.767Z","","","","ControlQ","","","","","","","","","","","50","","","","","","","","","","","","","","","","","","","","","","","","","","",""
"5793","","<div style=""width:500px;"">
  <p>How would you describe your current emotional state?</p>
  </div>","14","html-slider-response","16","303476","0.0-7.0-3.0","52","1","2025-07-30 08:47:14","36c45c0696341be0efffe67d72a12abb","85.255.235.218","Mozilla/5.0 (Windows NT 10.0; Win64; x64) AppleWebKit/537.36 (KHTML, like Gecko) Chrome/138.0.0.0 Safari/537.36","WebKit","Chrome","138.0.0.0","Windows","10.0","https://app.prolific.com/","en-GB,en-US;q=0.9,en;q=0.8","676055e6c41940f91e59028c","687a19d2168e237449fb8af4","6889dbdb4609030fac0ca144","0","676055e6c41940f91e59028c","0","2025-07-30T08:52:20.562Z","","","","StressQ","","","","","","","","","","","50","","","","","","","","","","","","","","","","","","","","","","","","","","",""
"4400","","<div style=""width:500px;"">
  <p>What best describes how you currently feel?</p>
  </div>","95","html-slider-response","17","307879","0.0-7.0-4.0","52","1","2025-07-30 08:47:14","36c45c0696341be0efffe67d72a12abb","85.255.235.218","Mozilla/5.0 (Windows NT 10.0; Win64; x64) AppleWebKit/537.36 (KHTML, like Gecko) Chrome/138.0.0.0 Safari/537.36","WebKit","Chrome","138.0.0.0","Windows","10.0","https://app.prolific.com/","en-GB,en-US;q=0.9,en;q=0.8","676055e6c41940f91e59028c","687a19d2168e237449fb8af4","6889dbdb4609030fac0ca144","0","676055e6c41940f91e59028c","0","2025-07-30T08:52:24.965Z","","","","MotivationQ","","","","","","","","","","","50","","","","","","","","","","","","","","","","","","","","","","","","","","",""
"","","","","ctl-task-cpt","18","342892","0.0-7.0-0.1","52","1","2025-07-30 08:47:14","36c45c0696341be0efffe67d72a12abb","85.255.235.218","Mozilla/5.0 (Windows NT 10.0; Win64; x64) AppleWebKit/537.36 (KHTML, like Gecko) Chrome/138.0.0.0 Safari/537.36","WebKit","Chrome","138.0.0.0","Windows","10.0","https://app.prolific.com/","en-GB,en-US;q=0.9,en;q=0.8","676055e6c41940f91e59028c","687a19d2168e237449fb8af4","6889dbdb4609030fac0ca144","0","676055e6c41940f91e59028c","0","2025-07-30T08:52:59.978Z","","","","","","","","","","","","","","","","win-only","3","g1:SW,g2:NE","0.9","2","0","310348.1","1936.8","6937.3","32001.3","1","4","8","6","2","8","8","9","1","0.06818181818181818","1716.5","3000","380","[""up"",""right""]","{""num_key_presses"":8,""num_perfect"":7,""num_errors"":0,""num_randdir"":1,""num_randdir_good_moves"":0,""num_whilered"":0,""num_whileblue"":0,""num_blue"":1,""num_good_moves"":7}","[421.57142857142856,414.47767857142856,0.3,421.57142857142856,414.47767857142856,101.9,421.57142857142856,414.47767857142856,203.9,421.57142857142856,414.47767857142856,304.7,421.57142857142856,414.47767857142856,411.1,421.57142857142856,414.47767857142856,516.8,421.57142857142856,414.47767857142856,619.4,421.57142857142856,414.47767857142856,724.4,421.57142857142856,414.47767857142856,833.4,421.57142857142856,414.47767857142856,933.9,453.57142857142856,374.47767857142856,1038.9,694.5714285714286,158.47767857142856,1140.8,754.5714285714286,121.47767857142857,1249.8,761.5714285714286,116.47767857142857,1354.9,761.5714285714286,112.47767857142857,1459.5,761.5714285714286,110.47767857142857,1560,761.5714285714286,110.47767857142857,1665.7,761.5714285714286,110.47767857142857,1768.6,761.5714285714286,110.47767857142857,1869,761.5714285714286,110.47767857142857,1970.1,761.5714285714286,110.47767857142857,2071.2,761.5714285714286,110.47767857142857,2175,761.5714285714286,110.47767857142857,2282.9,761.5714285714286,110.47767857142857,2384.3,761.5714285714286,110.47767857142857,2489.7,761.5714285714286,110.47767857142857,2599.9,761.5714285714286,110.47767857142857,2704.2,761.5714285714286,110.47767857142857,2805.7,761.5714285714286,110.47767857142857,2911.9,761.5714285714286,110.47767857142857,3016.4,761.5714285714286,110.47767857142857,3118,761.5714285714286,110.47767857142857,3218.7,761.5714285714286,110.47767857142857,3320.7,761.5714285714286,110.47767857142857,3424.8,761.5714285714286,110.47767857142857,3532.4,761.5714285714286,110.47767857142857,3634.8,761.5714285714286,110.47767857142857,3739.5,761.5714285714286,110.47767857142857,3839.7,761.5714285714286,110.47767857142857,3948.9,761.5714285714286,110.47767857142857,4049,761.5714285714286,110.47767857142857,4154.1,761.5714285714286,110.47767857142857,4261.5,761.5714285714286,110.47767857142857,4364.1,761.5714285714286,110.47767857142857,4465.8,761.5714285714286,110.47767857142857,4569.8,761.5714285714286,110.47767857142857,4670.5,761.5714285714286,110.47767857142857,4779.9,761.5714285714286,110.47767857142857,4883.9,761.5714285714286,110.47767857142857,4984.3]","[1446,1446,1000,0,446,""smooth"",""up"",""up"",""good_move"",8260.8,6814.6,2445.2,5433.8,381.8,""smooth"",""up"",""up"",""good_move"",10443.1,2182.3,1827,8260.9,355.3,""smooth"",""right"",""right"",""good_move"",13609.1,3165.6,2687.8,10443.5,477.8,""smooth"",""right"",""right"",""good_move"",16625.4,3016.1,2682,13609.3,334.1,""oops"",""up"",""left"",""bad_move"",19050.5,2424.5,2108.7,16626,315.8,""smooth"",""up"",""up"",""good_move"",22041.5,2990.7,2650.7,19050.8,340,""smooth"",""right"",""right"",""good_move"",24971.5,2929.8,2580.7,22041.7,349.1,""smooth"",""right"",""right"",""good_move""]"
"3962","","<div style=""width:500px;"">
  <p>What determined the result of this run?</p>
  </div>","80","html-slider-response","19","346855","0.0-7.0-1.1","52","1","2025-07-30 08:47:14","36c45c0696341be0efffe67d72a12abb","85.255.235.218","Mozilla/5.0 (Windows NT 10.0; Win64; x64) AppleWebKit/537.36 (KHTML, like Gecko) Chrome/138.0.0.0 Safari/537.36","WebKit","Chrome","138.0.0.0","Windows","10.0","https://app.prolific.com/","en-GB,en-US;q=0.9,en;q=0.8","676055e6c41940f91e59028c","687a19d2168e237449fb8af4","6889dbdb4609030fac0ca144","0","676055e6c41940f91e59028c","0","2025-07-30T08:53:03.942Z","","","","AttribQ","","","","","","","","","","","50","","","","","","","","","","","","","","","","","","","","","","","","","","",""
"6008","","<div style=""width:500px;"">
  <p>How much control did you have over the ball?</p>
  </div>","85","html-slider-response","20","352866","0.0-7.0-2.1","52","1","2025-07-30 08:47:14","36c45c0696341be0efffe67d72a12abb","85.255.235.218","Mozilla/5.0 (Windows NT 10.0; Win64; x64) AppleWebKit/537.36 (KHTML, like Gecko) Chrome/138.0.0.0 Safari/537.36","WebKit","Chrome","138.0.0.0","Windows","10.0","https://app.prolific.com/","en-GB,en-US;q=0.9,en;q=0.8","676055e6c41940f91e59028c","687a19d2168e237449fb8af4","6889dbdb4609030fac0ca144","0","676055e6c41940f91e59028c","0","2025-07-30T08:53:09.952Z","","","","ControlQ","","","","","","","","","","","50","","","","","","","","","","","","","","","","","","","","","","","","","","",""
"3941","","<div style=""width:500px;"">
  <p>How would you describe your current emotional state?</p>
  </div>","18","html-slider-response","21","356809","0.0-7.0-3.1","52","1","2025-07-30 08:47:14","36c45c0696341be0efffe67d72a12abb","85.255.235.218","Mozilla/5.0 (Windows NT 10.0; Win64; x64) AppleWebKit/537.36 (KHTML, like Gecko) Chrome/138.0.0.0 Safari/537.36","WebKit","Chrome","138.0.0.0","Windows","10.0","https://app.prolific.com/","en-GB,en-US;q=0.9,en;q=0.8","676055e6c41940f91e59028c","687a19d2168e237449fb8af4","6889dbdb4609030fac0ca144","0","676055e6c41940f91e59028c","0","2025-07-30T08:53:13.895Z","","","","StressQ","","","","","","","","","","","50","","","","","","","","","","","","","","","","","","","","","","","","","","",""
"3680","","<div style=""width:500px;"">
  <p>What best describes how you currently feel?</p>
  </div>","95","html-slider-response","22","360491","0.0-7.0-4.1","52","1","2025-07-30 08:47:14","36c45c0696341be0efffe67d72a12abb","85.255.235.218","Mozilla/5.0 (Windows NT 10.0; Win64; x64) AppleWebKit/537.36 (KHTML, like Gecko) Chrome/138.0.0.0 Safari/537.36","WebKit","Chrome","138.0.0.0","Windows","10.0","https://app.prolific.com/","en-GB,en-US;q=0.9,en;q=0.8","676055e6c41940f91e59028c","687a19d2168e237449fb8af4","6889dbdb4609030fac0ca144","0","676055e6c41940f91e59028c","0","2025-07-30T08:53:17.577Z","","","","MotivationQ","","","","","","","","","","","50","","","","","","","","","","","","","","","","","","","","","","","","","","",""
"","","","","ctl-task-cpt","23","385893","0.0-7.0-0.2","52","1","2025-07-30 08:47:14","36c45c0696341be0efffe67d72a12abb","85.255.235.218","Mozilla/5.0 (Windows NT 10.0; Win64; x64) AppleWebKit/537.36 (KHTML, like Gecko) Chrome/138.0.0.0 Safari/537.36","WebKit","Chrome","138.0.0.0","Windows","10.0","https://app.prolific.com/","en-GB,en-US;q=0.9,en;q=0.8","676055e6c41940f91e59028c","687a19d2168e237449fb8af4","6889dbdb4609030fac0ca144","0","676055e6c41940f91e59028c","0","2025-07-30T08:53:42.979Z","","","","","","","","","","","","","","","","win-only","1","g1:NE,g2:SW","0.8","3","0","362964.2","1414","6416.9","22381.5","1","4","8","6","2","8","8","17","9","0.12878787878787878","1591.1","3000","1090","[""down"",""left""]","{""num_key_presses"":6,""num_perfect"":6,""num_errors"":0,""num_randdir"":0,""num_randdir_good_moves"":0,""num_whilered"":0,""num_whileblue"":0,""num_blue"":0,""num_good_moves"":6}","[414.57142857142856,413.47767857142856,0.3,414.57142857142856,413.47767857142856,101.8,414.57142857142856,413.47767857142856,201.8,414.57142857142856,413.47767857142856,307.3,414.57142857142856,413.47767857142856,407.3,414.57142857142856,413.47767857142856,507.4,414.57142857142856,413.47767857142856,611.3,405.57142857142856,419.47767857142856,712.4,107.57142857142857,665.4776785714286,816.5,58.57142857142857,712.4776785714286,917.6,27.57142857142857,754.4776785714286,1021.8,18.57142857142857,764.4776785714286,1126.7,30.57142857142857,759.4776785714286,1227.6,46.57142857142857,754.4776785714286,1328.7,49.57142857142857,754.4776785714286,1432.9,49.57142857142857,754.4776785714286,1537.1,49.57142857142857,754.4776785714286,1638,49.57142857142857,754.4776785714286,1738.2,49.57142857142857,754.4776785714286,1841.7,49.57142857142857,754.4776785714286,1942.2,14.57142857142857,751.4776785714286,2046.8,-90.42857142857143,732.4776785714286,2152,-90.42857142857143,732.4776785714286,2256.5,-90.42857142857143,732.4776785714286,2356.9,-90.42857142857143,732.4776785714286,2462,-90.42857142857143,732.4776785714286,2562.3,-90.42857142857143,732.4776785714286,2667.2,-90.42857142857143,732.4776785714286,2771.7,-90.42857142857143,732.4776785714286,2872.3,-90.42857142857143,732.4776785714286,2976.8,-90.42857142857143,732.4776785714286,3076.9,-90.42857142857143,732.4776785714286,3177.2,-90.42857142857143,732.4776785714286,3282.5,-90.42857142857143,732.4776785714286,3387.4,-90.42857142857143,732.4776785714286,3492,-90.42857142857143,732.4776785714286,3596.6,-90.42857142857143,732.4776785714286,3696.9,-90.42857142857143,732.4776785714286,3797.1,-90.42857142857143,732.4776785714286,3902.4,-90.42857142857143,732.4776785714286,4006.7,-90.42857142857143,732.4776785714286,4106.9,-90.42857142857143,732.4776785714286,4207.4,-90.42857142857143,732.4776785714286,4312.5,-90.42857142857143,732.4776785714286,4416.6,-90.42857142857143,732.4776785714286,4522.1,-90.42857142857143,732.4776785714286,4626.7,-90.42857142857143,732.4776785714286,4731.6,-90.42857142857143,732.4776785714286,4831.9,-90.42857142857143,732.4776785714286,4937.4]","[1429.9,1429.9,1000,0,429.9,""smooth"",""left"",""left"",""good_move"",4021,2590.6,2269.5,1430.4,321.1,""smooth"",""left"",""left"",""good_move"",6681.1,2660,2369.7,4021.1,290.3,""smooth"",""down"",""down"",""good_move"",9321.6,2640.1,2371.6,6681.5,268.5,""smooth"",""down"",""down"",""good_move"",12709.3,3387.6,3101.2,9321.7,286.4,""smooth"",""down"",""down"",""good_move"",15878.6,3169.2,2810,12709.5,359.2,""smooth"",""left"",""left"",""good_move""]"
"3650","","<div style=""width:500px;"">
  <p>What determined the result of this run?</p>
  </div>","87","html-slider-response","24","389544","0.0-7.0-1.2","52","1","2025-07-30 08:47:14","36c45c0696341be0efffe67d72a12abb","85.255.235.218","Mozilla/5.0 (Windows NT 10.0; Win64; x64) AppleWebKit/537.36 (KHTML, like Gecko) Chrome/138.0.0.0 Safari/537.36","WebKit","Chrome","138.0.0.0","Windows","10.0","https://app.prolific.com/","en-GB,en-US;q=0.9,en;q=0.8","676055e6c41940f91e59028c","687a19d2168e237449fb8af4","6889dbdb4609030fac0ca144","0","676055e6c41940f91e59028c","0","2025-07-30T08:53:46.630Z","","","","AttribQ","","","","","","","","","","","50","","","","","","","","","","","","","","","","","","","","","","","","","","",""
"2908","","<div style=""width:500px;"">
  <p>How much control did you have over the ball?</p>
  </div>","96","html-slider-response","25","392454","0.0-7.0-2.2","52","1","2025-07-30 08:47:14","36c45c0696341be0efffe67d72a12abb","85.255.235.218","Mozilla/5.0 (Windows NT 10.0; Win64; x64) AppleWebKit/537.36 (KHTML, like Gecko) Chrome/138.0.0.0 Safari/537.36","WebKit","Chrome","138.0.0.0","Windows","10.0","https://app.prolific.com/","en-GB,en-US;q=0.9,en;q=0.8","676055e6c41940f91e59028c","687a19d2168e237449fb8af4","6889dbdb4609030fac0ca144","0","676055e6c41940f91e59028c","0","2025-07-30T08:53:49.540Z","","","","ControlQ","","","","","","","","","","","50","","","","","","","","","","","","","","","","","","","","","","","","","","",""
"3735","","<div style=""width:500px;"">
  <p>How would you describe your current emotional state?</p>
  </div>","11","html-slider-response","26","396190","0.0-7.0-3.2","52","1","2025-07-30 08:47:14","36c45c0696341be0efffe67d72a12abb","85.255.235.218","Mozilla/5.0 (Windows NT 10.0; Win64; x64) AppleWebKit/537.36 (KHTML, like Gecko) Chrome/138.0.0.0 Safari/537.36","WebKit","Chrome","138.0.0.0","Windows","10.0","https://app.prolific.com/","en-GB,en-US;q=0.9,en;q=0.8","676055e6c41940f91e59028c","687a19d2168e237449fb8af4","6889dbdb4609030fac0ca144","0","676055e6c41940f91e59028c","0","2025-07-30T08:53:53.276Z","","","","StressQ","","","","","","","","","","","50","","","","","","","","","","","","","","","","","","","","","","","","","","",""
"2835","","<div style=""width:500px;"">
  <p>What best describes how you currently feel?</p>
  </div>","97","html-slider-response","27","399026","0.0-7.0-4.2","52","1","2025-07-30 08:47:14","36c45c0696341be0efffe67d72a12abb","85.255.235.218","Mozilla/5.0 (Windows NT 10.0; Win64; x64) AppleWebKit/537.36 (KHTML, like Gecko) Chrome/138.0.0.0 Safari/537.36","WebKit","Chrome","138.0.0.0","Windows","10.0","https://app.prolific.com/","en-GB,en-US;q=0.9,en;q=0.8","676055e6c41940f91e59028c","687a19d2168e237449fb8af4","6889dbdb4609030fac0ca144","0","676055e6c41940f91e59028c","0","2025-07-30T08:53:56.112Z","","","","MotivationQ","","","","","","","","","","","50","","","","","","","","","","","","","","","","","","","","","","","","","","",""
"","","","","ctl-task-cpt","28","431773","0.0-7.0-0.3","52","1","2025-07-30 08:47:14","36c45c0696341be0efffe67d72a12abb","85.255.235.218","Mozilla/5.0 (Windows NT 10.0; Win64; x64) AppleWebKit/537.36 (KHTML, like Gecko) Chrome/138.0.0.0 Safari/537.36","WebKit","Chrome","138.0.0.0","Windows","10.0","https://app.prolific.com/","en-GB,en-US;q=0.9,en;q=0.8","676055e6c41940f91e59028c","687a19d2168e237449fb8af4","6889dbdb4609030fac0ca144","0","676055e6c41940f91e59028c","0","2025-07-30T08:54:28.859Z","","","","","","","","","","","","","","","","win-only","1","g1:NE,g2:SW","0.7","4","0","401496.7","1149.6","6151.2","29727","1","4","4","6","2","4","4","21","17","0.1590909090909091","2189.1","3000","1070","[""down"",""left""]","{""num_key_presses"":6,""num_perfect"":3,""num_errors"":0,""num_randdir"":3,""num_randdir_good_moves"":3,""num_whilered"":0,""num_whileblue"":0,""num_blue"":2,""num_good_moves"":6}","[409.57142857142856,414.47767857142856,0,409.57142857142856,414.47767857142856,101.4,409.57142857142856,414.47767857142856,208.6,409.57142857142856,414.47767857142856,308.8,409.57142857142856,414.47767857142856,411.3,409.57142857142856,414.47767857142856,511.7,409.57142857142856,414.47767857142856,617.9,409.57142857142856,414.47767857142856,720.9,409.57142857142856,414.47767857142856,823.3,409.57142857142856,414.47767857142856,927.7,409.57142857142856,414.47767857142856,1032,409.57142857142856,414.47767857142856,1136.5,409.57142857142856,414.47767857142856,1236.5,409.57142857142856,414.47767857142856,1336.7,409.57142857142856,414.47767857142856,1436.8,409.57142857142856,414.47767857142856,1537.1,409.57142857142856,414.47767857142856,1640.9,221.57142857142856,562.4776785714286,1742.1,66.57142857142857,724.4776785714286,1847.2,49.57142857142857,743.4776785714286,1951.7,50.57142857142857,752.4776785714286,2052.4,50.57142857142857,752.4776785714286,2157.8,50.57142857142857,752.4776785714286,2261.5,50.57142857142857,752.4776785714286,2361.8,50.57142857142857,752.4776785714286,2465.8,50.57142857142857,752.4776785714286,2566.1,50.57142857142857,752.4776785714286,2672.8,50.57142857142857,752.4776785714286,2773.9,50.57142857142857,752.4776785714286,2877.4,50.57142857142857,752.4776785714286,2977.5,50.57142857142857,752.4776785714286,3081.3,50.57142857142857,752.4776785714286,3186,50.57142857142857,752.4776785714286,3291.1,50.57142857142857,752.4776785714286,3396.3,50.57142857142857,752.4776785714286,3496.8,50.57142857142857,752.4776785714286,3604.7,50.57142857142857,752.4776785714286,3707.1,50.57142857142857,752.4776785714286,3811.5,50.57142857142857,752.4776785714286,3916.8,50.57142857142857,752.4776785714286,4017,50.57142857142857,752.4776785714286,4117.3,50.57142857142857,752.4776785714286,4221.5,50.57142857142857,752.4776785714286,4331.6,50.57142857142857,752.4776785714286,4442.7,50.57142857142857,752.4776785714286,4547.4,50.57142857142857,752.4776785714286,4651.3,50.57142857142857,752.4776785714286,4753.2,50.57142857142857,752.4776785714286,4859.6,50.57142857142857,752.4776785714286,4961]","[1384.7,1384.8,1000,0,384.8,""smooth"",""left"",""left"",""good_move"",4964.6,3579.6,3239.7,1385,339.9,""smooth"",""left"",""left"",""good_move"",7693.5,2728.6,2443.1,4964.9,285.5,""oops"",""down"",""down"",""good_move"",17808.3,10114.4,2763.5,14735.8,309,""oops"",""down"",""left"",""good_move"",20405.8,2597.4,2237.7,17808.4,359.7,""oops"",""down"",""down"",""good_move"",23487.2,3081.3,2792.3,20405.9,289,""smooth"",""down"",""down"",""good_move""]"
"6751","","<div style=""width:500px;"">
  <p>What determined the result of this run?</p>
  </div>","63","html-slider-response","29","438526","0.0-7.0-1.3","52","1","2025-07-30 08:47:14","36c45c0696341be0efffe67d72a12abb","85.255.235.218","Mozilla/5.0 (Windows NT 10.0; Win64; x64) AppleWebKit/537.36 (KHTML, like Gecko) Chrome/138.0.0.0 Safari/537.36","WebKit","Chrome","138.0.0.0","Windows","10.0","https://app.prolific.com/","en-GB,en-US;q=0.9,en;q=0.8","676055e6c41940f91e59028c","687a19d2168e237449fb8af4","6889dbdb4609030fac0ca144","0","676055e6c41940f91e59028c","0","2025-07-30T08:54:35.612Z","","","","AttribQ","","","","","","","","","","","50","","","","","","","","","","","","","","","","","","","","","","","","","","",""
"3087","","<div style=""width:500px;"">
  <p>How much control did you have over the ball?</p>
  </div>","80","html-slider-response","30","441614","0.0-7.0-2.3","52","1","2025-07-30 08:47:14","36c45c0696341be0efffe67d72a12abb","85.255.235.218","Mozilla/5.0 (Windows NT 10.0; Win64; x64) AppleWebKit/537.36 (KHTML, like Gecko) Chrome/138.0.0.0 Safari/537.36","WebKit","Chrome","138.0.0.0","Windows","10.0","https://app.prolific.com/","en-GB,en-US;q=0.9,en;q=0.8","676055e6c41940f91e59028c","687a19d2168e237449fb8af4","6889dbdb4609030fac0ca144","0","676055e6c41940f91e59028c","0","2025-07-30T08:54:38.701Z","","","","ControlQ","","","","","","","","","","","50","","","","","","","","","","","","","","","","","","","","","","","","","","",""
"5191","","<div style=""width:500px;"">
  <p>How would you describe your current emotional state?</p>
  </div>","17","html-slider-response","31","446807","0.0-7.0-3.3","52","1","2025-07-30 08:47:14","36c45c0696341be0efffe67d72a12abb","85.255.235.218","Mozilla/5.0 (Windows NT 10.0; Win64; x64) AppleWebKit/537.36 (KHTML, like Gecko) Chrome/138.0.0.0 Safari/537.36","WebKit","Chrome","138.0.0.0","Windows","10.0","https://app.prolific.com/","en-GB,en-US;q=0.9,en;q=0.8","676055e6c41940f91e59028c","687a19d2168e237449fb8af4","6889dbdb4609030fac0ca144","0","676055e6c41940f91e59028c","0","2025-07-30T08:54:43.893Z","","","","StressQ","","","","","","","","","","","50","","","","","","","","","","","","","","","","","","","","","","","","","","",""
"2846","","<div style=""width:500px;"">
  <p>What best describes how you currently feel?</p>
  </div>","94","html-slider-response","32","449654","0.0-7.0-4.3","52","1","2025-07-30 08:47:14","36c45c0696341be0efffe67d72a12abb","85.255.235.218","Mozilla/5.0 (Windows NT 10.0; Win64; x64) AppleWebKit/537.36 (KHTML, like Gecko) Chrome/138.0.0.0 Safari/537.36","WebKit","Chrome","138.0.0.0","Windows","10.0","https://app.prolific.com/","en-GB,en-US;q=0.9,en;q=0.8","676055e6c41940f91e59028c","687a19d2168e237449fb8af4","6889dbdb4609030fac0ca144","0","676055e6c41940f91e59028c","0","2025-07-30T08:54:46.740Z","","","","MotivationQ","","","","","","","","","","","50","","","","","","","","","","","","","","","","","","","","","","","","","","",""
"","","","","ctl-task-cpt","33","499294","0.0-7.0-0.4","52","1","2025-07-30 08:47:14","36c45c0696341be0efffe67d72a12abb","85.255.235.218","Mozilla/5.0 (Windows NT 10.0; Win64; x64) AppleWebKit/537.36 (KHTML, like Gecko) Chrome/138.0.0.0 Safari/537.36","WebKit","Chrome","138.0.0.0","Windows","10.0","https://app.prolific.com/","en-GB,en-US;q=0.9,en;q=0.8","676055e6c41940f91e59028c","687a19d2168e237449fb8af4","6889dbdb4609030fac0ca144","0","676055e6c41940f91e59028c","0","2025-07-30T08:55:36.380Z","","","","","","","","","","","","","","","","win-only","0","g1:NW,g2:SE","0.6","5","0","452122.4","1302.9","6306","46621","1","4","4","6","2","-4","-4","17","21","0.12878787878787878","1502.2","3000","-3000","[""down"",""right""]","{""num_key_presses"":9,""num_perfect"":5,""num_errors"":0,""num_randdir"":4,""num_randdir_good_moves"":1,""num_whilered"":0,""num_whileblue"":0,""num_blue"":4,""num_good_moves"":6}","[411.57142857142856,421.47767857142856,0.3,411.57142857142856,421.47767857142856,103.5,411.57142857142856,421.47767857142856,203.6,411.57142857142856,421.47767857142856,307.9,411.57142857142856,421.47767857142856,407.9,411.57142857142856,421.47767857142856,512.4,411.57142857142856,421.47767857142856,613.6,411.57142857142856,421.47767857142856,718.8,411.57142857142856,421.47767857142856,828.7,606.5714285714286,603.4776785714286,932.4,698.5714285714286,687.4776785714286,1039.1,751.5714285714286,733.4776785714286,1145.1,758.5714285714286,740.4776785714286,1247.9,758.5714285714286,740.4776785714286,1348.5,758.5714285714286,740.4776785714286,1454.1,758.5714285714286,740.4776785714286,1554.3,758.5714285714286,740.4776785714286,1660,758.5714285714286,740.4776785714286,1763.5,758.5714285714286,740.4776785714286,1867.8,758.5714285714286,740.4776785714286,1973.6,758.5714285714286,740.4776785714286,2073.6,758.5714285714286,740.4776785714286,2179.1,758.5714285714286,740.4776785714286,2283.3,758.5714285714286,740.4776785714286,2383.3,758.5714285714286,740.4776785714286,2483.5,758.5714285714286,740.4776785714286,2584.5,758.5714285714286,740.4776785714286,2687.6,758.5714285714286,740.4776785714286,2788.3,758.5714285714286,740.4776785714286,2891.6,758.5714285714286,740.4776785714286,2993.7,758.5714285714286,740.4776785714286,3094.7,758.5714285714286,740.4776785714286,3197.6,758.5714285714286,740.4776785714286,3297.7,758.5714285714286,740.4776785714286,3398,758.5714285714286,740.4776785714286,3502.9,758.5714285714286,740.4776785714286,3607.4,758.5714285714286,740.4776785714286,3713.3,758.5714285714286,740.4776785714286,3818.2,758.5714285714286,740.4776785714286,3923,758.5714285714286,740.4776785714286,4024.2,758.5714285714286,740.4776785714286,4133.5,758.5714285714286,740.4776785714286,4238.2,758.5714285714286,740.4776785714286,4339.7,758.5714285714286,740.4776785714286,4440.7,758.5714285714286,740.4776785714286,4546.4,758.5714285714286,740.4776785714286,4648,758.5714285714286,740.4776785714286,4754.2,758.5714285714286,740.4776785714286,4857.5,758.5714285714286,740.4776785714286,4958.3]","[1392.1,1392.1,1000,0,392.1,""oops"",""down"",""down"",""good_move"",3700.9,2308.5,1998.3,1392.5,310.2,""oops"",""down"",""up"",""bad_move"",16157.7,12456.3,2521,13255,381.7,""smooth"",""right"",""right"",""good_move"",18365.2,2207.2,1872.8,16158,334.4,""oops"",""right"",""left"",""bad_move"",21770.9,3405.3,3083,18365.6,322.3,""smooth"",""down"",""down"",""good_move"",24476.7,2705.6,2389,21771.1,316.6,""oops"",""right"",""up"",""bad_move"",27358.4,2881.4,2577.6,24477,303.8,""smooth"",""down"",""down"",""good_move"",33931,6572.4,2508,31081.9,341.1,""smooth"",""down"",""down"",""good_move"",37560.9,3629.7,3312.6,33931.2,317.1,""smooth"",""right"",""right"",""good_move""]"
"3278","","<div style=""width:500px;"">
  <p>What determined the result of this run?</p>
  </div>","10","html-slider-response","34","502573","0.0-7.0-1.4","52","1","2025-07-30 08:47:14","36c45c0696341be0efffe67d72a12abb","85.255.235.218","Mozilla/5.0 (Windows NT 10.0; Win64; x64) AppleWebKit/537.36 (KHTML, like Gecko) Chrome/138.0.0.0 Safari/537.36","WebKit","Chrome","138.0.0.0","Windows","10.0","https://app.prolific.com/","en-GB,en-US;q=0.9,en;q=0.8","676055e6c41940f91e59028c","687a19d2168e237449fb8af4","6889dbdb4609030fac0ca144","0","676055e6c41940f91e59028c","0","2025-07-30T08:55:39.659Z","","","","AttribQ","","","","","","","","","","","50","","","","","","","","","","","","","","","","","","","","","","","","","","",""
"3353","","<div style=""width:500px;"">
  <p>How much control did you have over the ball?</p>
  </div>","12","html-slider-response","35","505928","0.0-7.0-2.4","52","1","2025-07-30 08:47:14","36c45c0696341be0efffe67d72a12abb","85.255.235.218","Mozilla/5.0 (Windows NT 10.0; Win64; x64) AppleWebKit/537.36 (KHTML, like Gecko) Chrome/138.0.0.0 Safari/537.36","WebKit","Chrome","138.0.0.0","Windows","10.0","https://app.prolific.com/","en-GB,en-US;q=0.9,en;q=0.8","676055e6c41940f91e59028c","687a19d2168e237449fb8af4","6889dbdb4609030fac0ca144","0","676055e6c41940f91e59028c","0","2025-07-30T08:55:43.014Z","","","","ControlQ","","","","","","","","","","","50","","","","","","","","","","","","","","","","","","","","","","","","","","",""
"4343","","<div style=""width:500px;"">
  <p>How would you describe your current emotional state?</p>
  </div>","59","html-slider-response","36","510272","0.0-7.0-3.4","52","1","2025-07-30 08:47:14","36c45c0696341be0efffe67d72a12abb","85.255.235.218","Mozilla/5.0 (Windows NT 10.0; Win64; x64) AppleWebKit/537.36 (KHTML, like Gecko) Chrome/138.0.0.0 Safari/537.36","WebKit","Chrome","138.0.0.0","Windows","10.0","https://app.prolific.com/","en-GB,en-US;q=0.9,en;q=0.8","676055e6c41940f91e59028c","687a19d2168e237449fb8af4","6889dbdb4609030fac0ca144","0","676055e6c41940f91e59028c","0","2025-07-30T08:55:47.358Z","","","","StressQ","","","","","","","","","","","50","","","","","","","","","","","","","","","","","","","","","","","","","","",""
"4434","","<div style=""width:500px;"">
  <p>What best describes how you currently feel?</p>
  </div>","92","html-slider-response","37","514707","0.0-7.0-4.4","52","1","2025-07-30 08:47:14","36c45c0696341be0efffe67d72a12abb","85.255.235.218","Mozilla/5.0 (Windows NT 10.0; Win64; x64) AppleWebKit/537.36 (KHTML, like Gecko) Chrome/138.0.0.0 Safari/537.36","WebKit","Chrome","138.0.0.0","Windows","10.0","https://app.prolific.com/","en-GB,en-US;q=0.9,en;q=0.8","676055e6c41940f91e59028c","687a19d2168e237449fb8af4","6889dbdb4609030fac0ca144","0","676055e6c41940f91e59028c","0","2025-07-30T08:55:51.793Z","","","","MotivationQ","","","","","","","","","","","50","","","","","","","","","","","","","","","","","","","","","","","","","","",""
"","","","","ctl-task-cpt","38","558519","0.0-7.0-0.5","52","1","2025-07-30 08:47:14","36c45c0696341be0efffe67d72a12abb","85.255.235.218","Mozilla/5.0 (Windows NT 10.0; Win64; x64) AppleWebKit/537.36 (KHTML, like Gecko) Chrome/138.0.0.0 Safari/537.36","WebKit","Chrome","138.0.0.0","Windows","10.0","https://app.prolific.com/","en-GB,en-US;q=0.9,en;q=0.8","676055e6c41940f91e59028c","687a19d2168e237449fb8af4","6889dbdb4609030fac0ca144","0","676055e6c41940f91e59028c","0","2025-07-30T08:56:35.605Z","","","","","","","","","","","","","","","","win-only","0","g1:NW,g2:SE","0.5","6","0","517174.9","1226.1","6230.9","40795.3","1","4","8","6","2","-8","-8","9","17","0.06818181818181818","1965.8","3000","-2525","[""down"",""right""]","{""num_key_presses"":9,""num_perfect"":4,""num_errors"":0,""num_randdir"":5,""num_randdir_good_moves"":2,""num_whilered"":0,""num_whileblue"":0,""num_blue"":2,""num_good_moves"":6}","[404.57142857142856,416.47767857142856,0.4,404.57142857142856,416.47767857142856,106,404.57142857142856,416.47767857142856,209.2,404.57142857142856,416.47767857142856,310.2,404.57142857142856,416.47767857142856,410.3,404.57142857142856,416.47767857142856,510.5,404.57142857142856,416.47767857142856,614.5,404.57142857142856,416.47767857142856,715.7,718.5714285714286,715.4776785714286,819.5,781.5714285714286,781.4776785714286,921.2,794.5714285714286,806.4776785714286,1032.3,794.5714285714286,806.4776785714286,1133.6,794.5714285714286,806.4776785714286,1234.4,794.5714285714286,806.4776785714286,1334.7,794.5714285714286,806.4776785714286,1439.5,794.5714285714286,806.4776785714286,1540,780.5714285714286,778.4776785714286,1644.6,778.5714285714286,776.4776785714286,1748.5,778.5714285714286,776.4776785714286,1849,778.5714285714286,776.4776785714286,1949.4,778.5714285714286,776.4776785714286,2054.6,778.5714285714286,776.4776785714286,2164.4,778.5714285714286,776.4776785714286,2264.7,778.5714285714286,776.4776785714286,2365.6,778.5714285714286,776.4776785714286,2469.9,778.5714285714286,776.4776785714286,2574.3,778.5714285714286,776.4776785714286,2674.7,778.5714285714286,776.4776785714286,2775,778.5714285714286,776.4776785714286,2882.1,778.5714285714286,776.4776785714286,2983.1,778.5714285714286,776.4776785714286,3085.1,778.5714285714286,776.4776785714286,3190.2,778.5714285714286,776.4776785714286,3297.1,778.5714285714286,776.4776785714286,3397.4,778.5714285714286,776.4776785714286,3499.5,778.5714285714286,776.4776785714286,3599.9,778.5714285714286,776.4776785714286,3699.9,778.5714285714286,776.4776785714286,3800.1,778.5714285714286,776.4776785714286,3904.7,778.5714285714286,776.4776785714286,4014,778.5714285714286,776.4776785714286,4115.3,778.5714285714286,776.4776785714286,4219.6,778.5714285714286,776.4776785714286,4324.3,778.5714285714286,776.4776785714286,4425,778.5714285714286,776.4776785714286,4531.7,778.5714285714286,776.4776785714286,4635,778.5714285714286,776.4776785714286,4740,778.5714285714286,776.4776785714286,4847.7,778.5714285714286,776.4776785714286,4950]","[1460.1,1460.1,1000,0,460.1,""smooth"",""down"",""down"",""good_move"",4465.4,3005.1,2598,1460.3,407.1,""oops"",""right"",""down"",""good_move"",6880.3,2414.7,2098,4465.6,316.7,""smooth"",""right"",""right"",""good_move"",9539.9,2659.4,2087.5,6880.5,571.9,""smooth"",""right"",""right"",""good_move"",12625.4,3085.2,2753.1,9540.2,332.1,""oops"",""down"",""up"",""bad_move"",15204.2,2578.4,2287.4,12625.8,291,""oops"",""down"",""right"",""good_move"",17903.8,2699.5,2384.5,15204.3,315,""oops"",""down"",""up"",""bad_move"",20741.1,2837.2,2548.7,17903.9,288.5,""smooth"",""down"",""down"",""good_move"",27021.3,6279.9,2761.7,23918.2,341.4,""oops"",""down"",""left"",""bad_move""]"
"4219","","<div style=""width:500px;"">
  <p>What determined the result of this run?</p>
  </div>","4","html-slider-response","39","562739","0.0-7.0-1.5","52","1","2025-07-30 08:47:14","36c45c0696341be0efffe67d72a12abb","85.255.235.218","Mozilla/5.0 (Windows NT 10.0; Win64; x64) AppleWebKit/537.36 (KHTML, like Gecko) Chrome/138.0.0.0 Safari/537.36","WebKit","Chrome","138.0.0.0","Windows","10.0","https://app.prolific.com/","en-GB,en-US;q=0.9,en;q=0.8","676055e6c41940f91e59028c","687a19d2168e237449fb8af4","6889dbdb4609030fac0ca144","0","676055e6c41940f91e59028c","0","2025-07-30T08:56:39.825Z","","","","AttribQ","","","","","","","","","","","50","","","","","","","","","","","","","","","","","","","","","","","","","","",""
"2761","","<div style=""width:500px;"">
  <p>How much control did you have over the ball?</p>
  </div>","9","html-slider-response","40","565500","0.0-7.0-2.5","52","1","2025-07-30 08:47:14","36c45c0696341be0efffe67d72a12abb","85.255.235.218","Mozilla/5.0 (Windows NT 10.0; Win64; x64) AppleWebKit/537.36 (KHTML, like Gecko) Chrome/138.0.0.0 Safari/537.36","WebKit","Chrome","138.0.0.0","Windows","10.0","https://app.prolific.com/","en-GB,en-US;q=0.9,en;q=0.8","676055e6c41940f91e59028c","687a19d2168e237449fb8af4","6889dbdb4609030fac0ca144","0","676055e6c41940f91e59028c","0","2025-07-30T08:56:42.586Z","","","","ControlQ","","","","","","","","","","","50","","","","","","","","","","","","","","","","","","","","","","","","","","",""
"3390","","<div style=""width:500px;"">
  <p>How would you describe your current emotional state?</p>
  </div>","76","html-slider-response","41","568891","0.0-7.0-3.5","52","1","2025-07-30 08:47:14","36c45c0696341be0efffe67d72a12abb","85.255.235.218","Mozilla/5.0 (Windows NT 10.0; Win64; x64) AppleWebKit/537.36 (KHTML, like Gecko) Chrome/138.0.0.0 Safari/537.36","WebKit","Chrome","138.0.0.0","Windows","10.0","https://app.prolific.com/","en-GB,en-US;q=0.9,en;q=0.8","676055e6c41940f91e59028c","687a19d2168e237449fb8af4","6889dbdb4609030fac0ca144","0","676055e6c41940f91e59028c","0","2025-07-30T08:56:45.977Z","","","","StressQ","","","","","","","","","","","50","","","","","","","","","","","","","","","","","","","","","","","","","","",""
"3666","","<div style=""width:500px;"">
  <p>What best describes how you currently feel?</p>
  </div>","85","html-slider-response","42","572557","0.0-7.0-4.5","52","1","2025-07-30 08:47:14","36c45c0696341be0efffe67d72a12abb","85.255.235.218","Mozilla/5.0 (Windows NT 10.0; Win64; x64) AppleWebKit/537.36 (KHTML, like Gecko) Chrome/138.0.0.0 Safari/537.36","WebKit","Chrome","138.0.0.0","Windows","10.0","https://app.prolific.com/","en-GB,en-US;q=0.9,en;q=0.8","676055e6c41940f91e59028c","687a19d2168e237449fb8af4","6889dbdb4609030fac0ca144","0","676055e6c41940f91e59028c","0","2025-07-30T08:56:49.643Z","","","","MotivationQ","","","","","","","","","","","50","","","","","","","","","","","","","","","","","","","","","","","","","","",""
"","","","","ctl-task-cpt","43","621613","0.0-7.0-0.6","52","1","2025-07-30 08:47:14","36c45c0696341be0efffe67d72a12abb","85.255.235.218","Mozilla/5.0 (Windows NT 10.0; Win64; x64) AppleWebKit/537.36 (KHTML, like Gecko) Chrome/138.0.0.0 Safari/537.36","WebKit","Chrome","138.0.0.0","Windows","10.0","https://app.prolific.com/","en-GB,en-US;q=0.9,en;q=0.8","676055e6c41940f91e59028c","687a19d2168e237449fb8af4","6889dbdb4609030fac0ca144","0","676055e6c41940f91e59028c","0","2025-07-30T08:57:38.699Z","","","","","","","","","","","","","","","","win-only","2","g1:SE,g2:NW","0.4","7","0","575026.1","1432.3","6436.1","46035.6","1","4","8","6","2","-8","-8","1","9","0.007575757575757576","2651.8","3000","-2845","[""left"",""up""]","{""num_key_presses"":9,""num_perfect"":3,""num_errors"":0,""num_randdir"":6,""num_randdir_good_moves"":3,""num_whilered"":0,""num_whileblue"":0,""num_blue"":3,""num_good_moves"":6}","[419.57142857142856,416.47767857142856,0.2,419.57142857142856,416.47767857142856,109.2,419.57142857142856,416.47767857142856,213.2,419.57142857142856,416.47767857142856,313.7,419.57142857142856,416.47767857142856,418.9,419.57142857142856,416.47767857142856,524,419.57142857142856,416.47767857142856,628.4,419.57142857142856,416.47767857142856,728.6,419.57142857142856,416.47767857142856,833.1,419.57142857142856,416.47767857142856,938.4,142.57142857142856,157.47767857142856,1044.4,120.57142857142857,116.47767857142857,1153.1,88.57142857142857,79.47767857142857,1254.9,74.57142857142857,55.47767857142857,1358.4,74.57142857142857,60.47767857142857,1463.1,75.57142857142857,69.47767857142857,1563.1,149.57142857142856,139.47767857142856,1666.8,465.57142857142856,380.47767857142856,1769.5,471.57142857142856,388.47767857142856,1873.8,421.57142857142856,356.47767857142856,1979.7,104.57142857142857,198.47767857142856,2083.8,69.57142857142857,154.47767857142856,2186.5,74.57142857142857,141.47767857142856,2289.3,83.57142857142857,113.47767857142857,2393.4,78.57142857142857,103.47767857142857,2498.7,78.57142857142857,103.47767857142857,2600.9,78.57142857142857,103.47767857142857,2704.4,78.57142857142857,103.47767857142857,2808.4,78.57142857142857,103.47767857142857,2908.7,78.57142857142857,103.47767857142857,3015.5,78.57142857142857,103.47767857142857,3119.5,78.57142857142857,103.47767857142857,3223.9,78.57142857142857,103.47767857142857,3328.9,78.57142857142857,103.47767857142857,3434.4,78.57142857142857,103.47767857142857,3538.5,78.57142857142857,103.47767857142857,3639.9,78.57142857142857,103.47767857142857,3739.9,78.57142857142857,103.47767857142857,3840.4,78.57142857142857,103.47767857142857,3940.8,78.57142857142857,103.47767857142857,4042.9,78.57142857142857,103.47767857142857,4143.2,78.57142857142857,103.47767857142857,4243.4,78.57142857142857,103.47767857142857,4347.9,78.57142857142857,103.47767857142857,4451.4,78.57142857142857,103.47767857142857,4553.2,78.57142857142857,103.47767857142857,4653.2,78.57142857142857,103.47767857142857,4753.6,78.57142857142857,103.47767857142857,4853.6,78.57142857142857,103.47767857142857,4953.8]","[1342.7,1342.7,1000,0,342.7,""oops"",""left"",""down"",""bad_move"",11099.5,9756.4,2325.7,8450.6,323.2,""smooth"",""left"",""left"",""good_move"",13872.5,2772.7,2442.6,11099.8,330.1,""oops"",""left"",""down"",""bad_move"",17349,3476.1,3080.4,13872.9,395.7,""oops"",""left"",""up"",""good_move"",20885,3535.7,3142.2,17349.3,393.5,""smooth"",""left"",""left"",""good_move"",24272.4,3387,3086.6,20885.4,300.4,""smooth"",""up"",""up"",""good_move"",27344.3,3071.7,2735.8,24272.6,335.9,""oops"",""up"",""up"",""good_move"",30818.5,3474,3126.6,27344.5,347.4,""oops"",""up"",""right"",""bad_move"",33491.5,2671.8,2392.3,30819.7,279.5,""oops"",""up"",""up"",""good_move""]"
"3088","","<div style=""width:500px;"">
  <p>What determined the result of this run?</p>
  </div>","1","html-slider-response","44","624702","0.0-7.0-1.6","52","1","2025-07-30 08:47:14","36c45c0696341be0efffe67d72a12abb","85.255.235.218","Mozilla/5.0 (Windows NT 10.0; Win64; x64) AppleWebKit/537.36 (KHTML, like Gecko) Chrome/138.0.0.0 Safari/537.36","WebKit","Chrome","138.0.0.0","Windows","10.0","https://app.prolific.com/","en-GB,en-US;q=0.9,en;q=0.8","676055e6c41940f91e59028c","687a19d2168e237449fb8af4","6889dbdb4609030fac0ca144","0","676055e6c41940f91e59028c","0","2025-07-30T08:57:41.788Z","","","","AttribQ","","","","","","","","","","","50","","","","","","","","","","","","","","","","","","","","","","","","","","",""
"2309","","<div style=""width:500px;"">
  <p>How much control did you have over the ball?</p>
  </div>","7","html-slider-response","45","627012","0.0-7.0-2.6","52","1","2025-07-30 08:47:14","36c45c0696341be0efffe67d72a12abb","85.255.235.218","Mozilla/5.0 (Windows NT 10.0; Win64; x64) AppleWebKit/537.36 (KHTML, like Gecko) Chrome/138.0.0.0 Safari/537.36","WebKit","Chrome","138.0.0.0","Windows","10.0","https://app.prolific.com/","en-GB,en-US;q=0.9,en;q=0.8","676055e6c41940f91e59028c","687a19d2168e237449fb8af4","6889dbdb4609030fac0ca144","0","676055e6c41940f91e59028c","0","2025-07-30T08:57:44.098Z","","","","ControlQ","","","","","","","","","","","50","","","","","","","","","","","","","","","","","","","","","","","","","","",""
"2435","","<div style=""width:500px;"">
  <p>How would you describe your current emotional state?</p>
  </div>","95","html-slider-response","46","629447","0.0-7.0-3.6","52","1","2025-07-30 08:47:14","36c45c0696341be0efffe67d72a12abb","85.255.235.218","Mozilla/5.0 (Windows NT 10.0; Win64; x64) AppleWebKit/537.36 (KHTML, like Gecko) Chrome/138.0.0.0 Safari/537.36","WebKit","Chrome","138.0.0.0","Windows","10.0","https://app.prolific.com/","en-GB,en-US;q=0.9,en;q=0.8","676055e6c41940f91e59028c","687a19d2168e237449fb8af4","6889dbdb4609030fac0ca144","0","676055e6c41940f91e59028c","0","2025-07-30T08:57:46.533Z","","","","StressQ","","","","","","","","","","","50","","","","","","","","","","","","","","","","","","","","","","","","","","",""
"4029","","<div style=""width:500px;"">
  <p>What best describes how you currently feel?</p>
  </div>","74","html-slider-response","47","633477","0.0-7.0-4.6","52","1","2025-07-30 08:47:14","36c45c0696341be0efffe67d72a12abb","85.255.235.218","Mozilla/5.0 (Windows NT 10.0; Win64; x64) AppleWebKit/537.36 (KHTML, like Gecko) Chrome/138.0.0.0 Safari/537.36","WebKit","Chrome","138.0.0.0","Windows","10.0","https://app.prolific.com/","en-GB,en-US;q=0.9,en;q=0.8","676055e6c41940f91e59028c","687a19d2168e237449fb8af4","6889dbdb4609030fac0ca144","0","676055e6c41940f91e59028c","0","2025-07-30T08:57:50.563Z","","","","MotivationQ","","","","","","","","","","","50","","","","","","","","","","","","","","","","","","","","","","","","","","",""
"","","","","ctl-task-cpt","48","677366","0.0-7.0-0.7","52","1","2025-07-30 08:47:14","36c45c0696341be0efffe67d72a12abb","85.255.235.218","Mozilla/5.0 (Windows NT 10.0; Win64; x64) AppleWebKit/537.36 (KHTML, like Gecko) Chrome/138.0.0.0 Safari/537.36","WebKit","Chrome","138.0.0.0","Windows","10.0","https://app.prolific.com/","en-GB,en-US;q=0.9,en;q=0.8","676055e6c41940f91e59028c","687a19d2168e237449fb8af4","6889dbdb4609030fac0ca144","0","676055e6c41940f91e59028c","0","2025-07-30T08:58:34.452Z","","","","","","","","","","","","","","","","win-only","1","g1:NE,g2:SW","0.3","8","0","635945.4","1327.2","6333.2","40870.8","1","4","4","6","1","1","1","2","1","0.015151515151515152","1504.6","3000","70","[""up"",""right""]","{""num_key_presses"":10,""num_perfect"":3,""num_errors"":0,""num_randdir"":7,""num_randdir_good_moves"":4,""num_whilered"":0,""num_whileblue"":0,""num_blue"":3,""num_good_moves"":7}","[417.57142857142856,415.47767857142856,0.1,417.57142857142856,415.47767857142856,106.2,417.57142857142856,415.47767857142856,208,417.57142857142856,415.47767857142856,309.4,417.57142857142856,415.47767857142856,422.2,417.57142857142856,415.47767857142856,524.5,417.57142857142856,415.47767857142856,628.9,430.57142857142856,401.47767857142856,738.2,588.5714285714286,270.47767857142856,838.3,617.5714285714286,254.47767857142856,938.8,617.5714285714286,254.47767857142856,1044.8,627.5714285714286,243.47767857142856,1149.6,749.5714285714286,105.47767857142857,1256.9,751.5714285714286,103.47767857142857,1359,751.5714285714286,103.47767857142857,1472.5,751.5714285714286,103.47767857142857,1572.9,751.5714285714286,103.47767857142857,1673.7,751.5714285714286,103.47767857142857,1774.3,751.5714285714286,103.47767857142857,1874.4,751.5714285714286,103.47767857142857,1974.5,751.5714285714286,103.47767857142857,2078.3,751.5714285714286,103.47767857142857,2179.1,751.5714285714286,103.47767857142857,2284.7,751.5714285714286,103.47767857142857,2388.3,751.5714285714286,103.47767857142857,2489,751.5714285714286,103.47767857142857,2593,751.5714285714286,103.47767857142857,2694.3,751.5714285714286,103.47767857142857,2805.4,751.5714285714286,103.47767857142857,2908.8,751.5714285714286,103.47767857142857,3009,751.5714285714286,103.47767857142857,3121.4,751.5714285714286,103.47767857142857,3221.7,751.5714285714286,103.47767857142857,3323.1,751.5714285714286,103.47767857142857,3437.5,751.5714285714286,103.47767857142857,3538.9,751.5714285714286,103.47767857142857,3639,751.5714285714286,103.47767857142857,3740.2,751.5714285714286,103.47767857142857,3843.9,751.5714285714286,103.47767857142857,3952.9,751.5714285714286,103.47767857142857,4054.4,751.5714285714286,103.47767857142857,4158.7,751.5714285714286,103.47767857142857,4258.9,751.5714285714286,103.47767857142857,4359.9,751.5714285714286,103.47767857142857,4460.4,751.5714285714286,103.47767857142857,4564.8,751.5714285714286,103.47767857142857,4669.4,751.5714285714286,103.47767857142857,4770.5,751.5714285714286,103.47767857142857,4870.5,751.5714285714286,103.47767857142857,4974.1]","[1430.4,1430.4,1000,0,430.4,""oops"",""up"",""left"",""bad_move"",4403.7,2973,2651.7,1430.7,321.3,""smooth"",""up"",""up"",""good_move"",6645.9,2241.8,1738.6,4404.1,503.2,""oops"",""up"",""right"",""good_move"",12818.7,6172.4,2248.4,10194.7,375.6,""oops"",""up"",""right"",""good_move"",15196.7,2377.8,1932.9,12818.9,444.9,""oops"",""up"",""left"",""bad_move"",17612.6,2415.7,2086.4,15196.9,329.3,""smooth"",""up"",""up"",""good_move"",20892.1,3279.3,2961.7,17612.8,317.6,""oops"",""right"",""right"",""good_move"",23655.8,2763.3,2420.2,20892.5,343.1,""oops"",""right"",""left"",""bad_move"",26137.3,2481.2,2071.5,23656.1,409.7,""oops"",""right"",""right"",""good_move"",34419.5,8281.7,1921.9,32187,310.6,""smooth"",""right"",""right"",""good_move""]"
"2605","","<div style=""width:500px;"">
  <p>What determined the result of this run?</p>
  </div>","24","html-slider-response","49","679972","0.0-7.0-1.7","52","1","2025-07-30 08:47:14","36c45c0696341be0efffe67d72a12abb","85.255.235.218","Mozilla/5.0 (Windows NT 10.0; Win64; x64) AppleWebKit/537.36 (KHTML, like Gecko) Chrome/138.0.0.0 Safari/537.36","WebKit","Chrome","138.0.0.0","Windows","10.0","https://app.prolific.com/","en-GB,en-US;q=0.9,en;q=0.8","676055e6c41940f91e59028c","687a19d2168e237449fb8af4","6889dbdb4609030fac0ca144","0","676055e6c41940f91e59028c","0","2025-07-30T08:58:37.058Z","","","","AttribQ","","","","","","","","","","","50","","","","","","","","","","","","","","","","","","","","","","","","","","",""
"3053","","<div style=""width:500px;"">
  <p>How much control did you have over the ball?</p>
  </div>","27","html-slider-response","50","683026","0.0-7.0-2.7","52","1","2025-07-30 08:47:14","36c45c0696341be0efffe67d72a12abb","85.255.235.218","Mozilla/5.0 (Windows NT 10.0; Win64; x64) AppleWebKit/537.36 (KHTML, like Gecko) Chrome/138.0.0.0 Safari/537.36","WebKit","Chrome","138.0.0.0","Windows","10.0","https://app.prolific.com/","en-GB,en-US;q=0.9,en;q=0.8","676055e6c41940f91e59028c","687a19d2168e237449fb8af4","6889dbdb4609030fac0ca144","0","676055e6c41940f91e59028c","0","2025-07-30T08:58:40.112Z","","","","ControlQ","","","","","","","","","","","50","","","","","","","","","","","","","","","","","","","","","","","","","","",""
"4296","","<div style=""width:500px;"">
  <p>How would you describe your current emotional state?</p>
  </div>","72","html-slider-response","51","687323","0.0-7.0-3.7","52","1","2025-07-30 08:47:14","36c45c0696341be0efffe67d72a12abb","85.255.235.218","Mozilla/5.0 (Windows NT 10.0; Win64; x64) AppleWebKit/537.36 (KHTML, like Gecko) Chrome/138.0.0.0 Safari/537.36","WebKit","Chrome","138.0.0.0","Windows","10.0","https://app.prolific.com/","en-GB,en-US;q=0.9,en;q=0.8","676055e6c41940f91e59028c","687a19d2168e237449fb8af4","6889dbdb4609030fac0ca144","0","676055e6c41940f91e59028c","0","2025-07-30T08:58:44.409Z","","","","StressQ","","","","","","","","","","","50","","","","","","","","","","","","","","","","","","","","","","","","","","",""
"2234","","<div style=""width:500px;"">
  <p>What best describes how you currently feel?</p>
  </div>","77","html-slider-response","52","689559","0.0-7.0-4.7","52","1","2025-07-30 08:47:14","36c45c0696341be0efffe67d72a12abb","85.255.235.218","Mozilla/5.0 (Windows NT 10.0; Win64; x64) AppleWebKit/537.36 (KHTML, like Gecko) Chrome/138.0.0.0 Safari/537.36","WebKit","Chrome","138.0.0.0","Windows","10.0","https://app.prolific.com/","en-GB,en-US;q=0.9,en;q=0.8","676055e6c41940f91e59028c","687a19d2168e237449fb8af4","6889dbdb4609030fac0ca144","0","676055e6c41940f91e59028c","0","2025-07-30T08:58:46.645Z","","","","MotivationQ","","","","","","","","","","","50","","","","","","","","","","","","","","","","","","","","","","","","","","",""
"","","","","ctl-task-cpt","53","742624","0.0-7.0-0.8","52","1","2025-07-30 08:47:14","36c45c0696341be0efffe67d72a12abb","85.255.235.218","Mozilla/5.0 (Windows NT 10.0; Win64; x64) AppleWebKit/537.36 (KHTML, like Gecko) Chrome/138.0.0.0 Safari/537.36","WebKit","Chrome","138.0.0.0","Windows","10.0","https://app.prolific.com/","en-GB,en-US;q=0.9,en;q=0.8","676055e6c41940f91e59028c","687a19d2168e237449fb8af4","6889dbdb4609030fac0ca144","0","676055e6c41940f91e59028c","0","2025-07-30T08:59:39.710Z","","","","","","","","","","","","","","","","win-only","3","g1:SW,g2:NE","0.4","9","0","692026.9","1190.5","6199.8","50035.6","1","4","8","6","1","-1","-1","1","2","0.007575757575757576","1922.7","3000","-2400","[""down"",""left""]","{""num_key_presses"":10,""num_perfect"":4,""num_errors"":0,""num_randdir"":6,""num_randdir_good_moves"":2,""num_whilered"":0,""num_whileblue"":0,""num_blue"":4,""num_good_moves"":6}","[419.57142857142856,423.47767857142856,0.3,419.57142857142856,423.47767857142856,100.5,419.57142857142856,423.47767857142856,201.3,419.57142857142856,423.47767857142856,301.3,419.57142857142856,423.47767857142856,409.9,419.57142857142856,423.47767857142856,514.9,419.57142857142856,423.47767857142856,615.7,419.57142857142856,423.47767857142856,721.6,419.57142857142856,423.47767857142856,825.8,419.57142857142856,423.47767857142856,930.7,419.57142857142856,423.47767857142856,1043.9,419.57142857142856,423.47767857142856,1145.4,419.57142857142856,423.47767857142856,1249.8,419.57142857142856,423.47767857142856,1359.5,247.57142857142856,602.4776785714286,1461.1,123.57142857142857,733.4776785714286,1575.2,94.57142857142857,748.4776785714286,1676.9,79.57142857142857,756.4776785714286,1780.7,79.57142857142857,756.4776785714286,1880.8,79.57142857142857,756.4776785714286,1987.9,79.57142857142857,756.4776785714286,2091.4,79.57142857142857,756.4776785714286,2191.5,79.57142857142857,756.4776785714286,2291.6,79.57142857142857,756.4776785714286,2392.1,79.57142857142857,756.4776785714286,2495.8,79.57142857142857,756.4776785714286,2608.7,79.57142857142857,756.4776785714286,2710.6,79.57142857142857,756.4776785714286,2815.6,79.57142857142857,756.4776785714286,2924.8,79.57142857142857,756.4776785714286,3025.9,79.57142857142857,756.4776785714286,3126.3,79.57142857142857,756.4776785714286,3230.9,79.57142857142857,756.4776785714286,3331.3,79.57142857142857,756.4776785714286,3431.6,79.57142857142857,756.4776785714286,3540.7,79.57142857142857,756.4776785714286,3641.2,79.57142857142857,756.4776785714286,3744.4,79.57142857142857,756.4776785714286,3846.1,79.57142857142857,756.4776785714286,3958.1,79.57142857142857,756.4776785714286,4059.2,79.57142857142857,756.4776785714286,4159.4,79.57142857142857,756.4776785714286,4260.3,79.57142857142857,756.4776785714286,4361.5,79.57142857142857,756.4776785714286,4465,79.57142857142857,756.4776785714286,4565.3,79.57142857142857,756.4776785714286,4675.5,79.57142857142857,756.4776785714286,4775.7,79.57142857142857,756.4776785714286,4879.8,79.57142857142857,756.4776785714286,4980.5]","[1411.8,1411.8,1000,0,411.8,""oops"",""down"",""up"",""bad_move"",12117.6,10705,3996.5,7729.9,391.2,""smooth"",""down"",""down"",""good_move"",15063,2945.2,2588.5,12117.8,356.7,""oops"",""down"",""right"",""bad_move"",16858.7,1795.4,1432,15063.3,363.4,""smooth"",""down"",""down"",""good_move"",23210.1,6351.1,2333.2,20487.3,389.6,""oops"",""left"",""right"",""bad_move"",25455.1,2244.7,1735.1,23210.4,509.6,""smooth"",""left"",""left"",""good_move"",27538.6,2082.9,1708,25455.7,374.9,""oops"",""left"",""left"",""good_move"",29721,2182.1,1837.8,27538.9,344.3,""oops"",""left"",""up"",""bad_move"",33520.1,3798.8,3451.4,29721.3,347.4,""smooth"",""left"",""left"",""good_move"",40601.4,7081.2,2712.2,37570.9,318.3,""oops"",""down"",""down"",""good_move""]"
"4388","","<div style=""width:500px;"">
  <p>What determined the result of this run?</p>
  </div>","2","html-slider-response","54","747014","0.0-7.0-1.8","52","1","2025-07-30 08:47:14","36c45c0696341be0efffe67d72a12abb","85.255.235.218","Mozilla/5.0 (Windows NT 10.0; Win64; x64) AppleWebKit/537.36 (KHTML, like Gecko) Chrome/138.0.0.0 Safari/537.36","WebKit","Chrome","138.0.0.0","Windows","10.0","https://app.prolific.com/","en-GB,en-US;q=0.9,en;q=0.8","676055e6c41940f91e59028c","687a19d2168e237449fb8af4","6889dbdb4609030fac0ca144","0","676055e6c41940f91e59028c","0","2025-07-30T08:59:44.100Z","","","","AttribQ","","","","","","","","","","","50","","","","","","","","","","","","","","","","","","","","","","","","","","",""
"4230","","<div style=""width:500px;"">
  <p>How much control did you have over the ball?</p>
  </div>","5","html-slider-response","55","751246","0.0-7.0-2.8","52","1","2025-07-30 08:47:14","36c45c0696341be0efffe67d72a12abb","85.255.235.218","Mozilla/5.0 (Windows NT 10.0; Win64; x64) AppleWebKit/537.36 (KHTML, like Gecko) Chrome/138.0.0.0 Safari/537.36","WebKit","Chrome","138.0.0.0","Windows","10.0","https://app.prolific.com/","en-GB,en-US;q=0.9,en;q=0.8","676055e6c41940f91e59028c","687a19d2168e237449fb8af4","6889dbdb4609030fac0ca144","0","676055e6c41940f91e59028c","0","2025-07-30T08:59:48.333Z","","","","ControlQ","","","","","","","","","","","50","","","","","","","","","","","","","","","","","","","","","","","","","","",""
"3717","","<div style=""width:500px;"">
  <p>How would you describe your current emotional state?</p>
  </div>","90","html-slider-response","56","754965","0.0-7.0-3.8","52","1","2025-07-30 08:47:14","36c45c0696341be0efffe67d72a12abb","85.255.235.218","Mozilla/5.0 (Windows NT 10.0; Win64; x64) AppleWebKit/537.36 (KHTML, like Gecko) Chrome/138.0.0.0 Safari/537.36","WebKit","Chrome","138.0.0.0","Windows","10.0","https://app.prolific.com/","en-GB,en-US;q=0.9,en;q=0.8","676055e6c41940f91e59028c","687a19d2168e237449fb8af4","6889dbdb4609030fac0ca144","0","676055e6c41940f91e59028c","0","2025-07-30T08:59:52.051Z","","","","StressQ","","","","","","","","","","","50","","","","","","","","","","","","","","","","","","","","","","","","","","",""
"8820","","<div style=""width:500px;"">
  <p>What best describes how you currently feel?</p>
  </div>","70","html-slider-response","57","763788","0.0-7.0-4.8","52","1","2025-07-30 08:47:14","36c45c0696341be0efffe67d72a12abb","85.255.235.218","Mozilla/5.0 (Windows NT 10.0; Win64; x64) AppleWebKit/537.36 (KHTML, like Gecko) Chrome/138.0.0.0 Safari/537.36","WebKit","Chrome","138.0.0.0","Windows","10.0","https://app.prolific.com/","en-GB,en-US;q=0.9,en;q=0.8","676055e6c41940f91e59028c","687a19d2168e237449fb8af4","6889dbdb4609030fac0ca144","0","676055e6c41940f91e59028c","0","2025-07-30T09:00:00.874Z","","","","MotivationQ","","","","","","","","","","","50","","","","","","","","","","","","","","","","","","","","","","","","","","",""
"","","","","ctl-task-cpt","58","803625","0.0-7.0-0.9","52","1","2025-07-30 08:47:14","36c45c0696341be0efffe67d72a12abb","85.255.235.218","Mozilla/5.0 (Windows NT 10.0; Win64; x64) AppleWebKit/537.36 (KHTML, like Gecko) Chrome/138.0.0.0 Safari/537.36","WebKit","Chrome","138.0.0.0","Windows","10.0","https://app.prolific.com/","en-GB,en-US;q=0.9,en;q=0.8","676055e6c41940f91e59028c","687a19d2168e237449fb8af4","6889dbdb4609030fac0ca144","0","676055e6c41940f91e59028c","0","2025-07-30T09:00:40.711Z","","","","","","","","","","","","","","","","win-only","0","g1:NW,g2:SE","0.5","10","0","766256.8","1859.6","6862.2","36816","1","4","4","6","2","4","4","5","1","0.03787878787878788","2734.7","3000","920","[""down"",""right""]","{""num_key_presses"":8,""num_perfect"":3,""num_errors"":0,""num_randdir"":5,""num_randdir_good_moves"":4,""num_whilered"":0,""num_whileblue"":0,""num_blue"":2,""num_good_moves"":7}","[414.57142857142856,425.47767857142856,0.4,414.57142857142856,425.47767857142856,101.2,414.57142857142856,425.47767857142856,202.5,414.57142857142856,425.47767857142856,306.4,414.57142857142856,425.47767857142856,406.7,414.57142857142856,425.47767857142856,519.6,414.57142857142856,425.47767857142856,619.8,414.57142857142856,425.47767857142856,720.7,414.57142857142856,425.47767857142856,821.1,414.57142857142856,425.47767857142856,934.5,414.57142857142856,425.47767857142856,1034.8,414.57142857142856,425.47767857142856,1135.9,414.57142857142856,425.47767857142856,1236.5,414.57142857142856,425.47767857142856,1340.7,601.5714285714286,531.4776785714286,1452.7,605.5714285714286,536.4776785714286,1555.9,605.5714285714286,536.4776785714286,1656.6,605.5714285714286,536.4776785714286,1771.2,761.5714285714286,685.4776785714286,1878.6,780.5714285714286,712.4776785714286,1979.4,794.5714285714286,737.4776785714286,2079.7,795.5714285714286,741.4776785714286,2180.9,795.5714285714286,741.4776785714286,2283.2,795.5714285714286,741.4776785714286,2387.3,795.5714285714286,741.4776785714286,2491.2,795.5714285714286,741.4776785714286,2597,795.5714285714286,741.4776785714286,2701,795.5714285714286,741.4776785714286,2802.1,795.5714285714286,741.4776785714286,2905.8,795.5714285714286,741.4776785714286,3006.8,795.5714285714286,741.4776785714286,3118.5,795.5714285714286,741.4776785714286,3219.5,795.5714285714286,741.4776785714286,3321.6,795.5714285714286,741.4776785714286,3434.7,795.5714285714286,741.4776785714286,3535.2,795.5714285714286,741.4776785714286,3635.6,795.5714285714286,741.4776785714286,3736.1,795.5714285714286,741.4776785714286,3837.1,795.5714285714286,741.4776785714286,3951.3,795.5714285714286,741.4776785714286,4052.5,795.5714285714286,741.4776785714286,4156.3,795.5714285714286,741.4776785714286,4256.6,795.5714285714286,741.4776785714286,4363.5,795.5714285714286,741.4776785714286,4466.4,795.5714285714286,741.4776785714286,4567,795.5714285714286,741.4776785714286,4671.4,795.5714285714286,741.4776785714286,4772,795.5714285714286,741.4776785714286,4884.3,795.5714285714286,741.4776785714286,4986.2]","[1412.5,1412.5,1000,0,412.5,""smooth"",""right"",""right"",""good_move"",7854.4,6441.7,2093.8,5428.5,332.1,""smooth"",""down"",""down"",""good_move"",11393.2,3538.5,3199.2,7854.7,339.3,""smooth"",""down"",""down"",""good_move"",14479.5,3085.9,2765,11393.6,320.9,""oops"",""right"",""right"",""good_move"",17357.9,2878.2,2516.3,14479.7,361.9,""oops"",""down"",""right"",""good_move"",20132.6,2774.5,2395.2,17358.1,379.3,""oops"",""down"",""left"",""bad_move"",25707.9,5574.5,2514.5,22859.2,334.2,""oops"",""down"",""down"",""good_move"",29826.5,4118.2,3763.3,25708.3,354.9,""oops"",""right"",""right"",""good_move""]"
"5097","","<div style=""width:500px;"">
  <p>What determined the result of this run?</p>
  </div>","27","html-slider-response","59","808722","0.0-7.0-1.9","52","1","2025-07-30 08:47:14","36c45c0696341be0efffe67d72a12abb","85.255.235.218","Mozilla/5.0 (Windows NT 10.0; Win64; x64) AppleWebKit/537.36 (KHTML, like Gecko) Chrome/138.0.0.0 Safari/537.36","WebKit","Chrome","138.0.0.0","Windows","10.0","https://app.prolific.com/","en-GB,en-US;q=0.9,en;q=0.8","676055e6c41940f91e59028c","687a19d2168e237449fb8af4","6889dbdb4609030fac0ca144","0","676055e6c41940f91e59028c","0","2025-07-30T09:00:45.808Z","","","","AttribQ","","","","","","","","","","","50","","","","","","","","","","","","","","","","","","","","","","","","","","",""
"4755","","<div style=""width:500px;"">
  <p>How much control did you have over the ball?</p>
  </div>","56","html-slider-response","60","813478","0.0-7.0-2.9","52","1","2025-07-30 08:47:14","36c45c0696341be0efffe67d72a12abb","85.255.235.218","Mozilla/5.0 (Windows NT 10.0; Win64; x64) AppleWebKit/537.36 (KHTML, like Gecko) Chrome/138.0.0.0 Safari/537.36","WebKit","Chrome","138.0.0.0","Windows","10.0","https://app.prolific.com/","en-GB,en-US;q=0.9,en;q=0.8","676055e6c41940f91e59028c","687a19d2168e237449fb8af4","6889dbdb4609030fac0ca144","0","676055e6c41940f91e59028c","0","2025-07-30T09:00:50.564Z","","","","ControlQ","","","","","","","","","","","50","","","","","","","","","","","","","","","","","","","","","","","","","","",""
"2211","","<div style=""width:500px;"">
  <p>How would you describe your current emotional state?</p>
  </div>","70","html-slider-response","61","815690","0.0-7.0-3.9","52","1","2025-07-30 08:47:14","36c45c0696341be0efffe67d72a12abb","85.255.235.218","Mozilla/5.0 (Windows NT 10.0; Win64; x64) AppleWebKit/537.36 (KHTML, like Gecko) Chrome/138.0.0.0 Safari/537.36","WebKit","Chrome","138.0.0.0","Windows","10.0","https://app.prolific.com/","en-GB,en-US;q=0.9,en;q=0.8","676055e6c41940f91e59028c","687a19d2168e237449fb8af4","6889dbdb4609030fac0ca144","0","676055e6c41940f91e59028c","0","2025-07-30T09:00:52.776Z","","","","StressQ","","","","","","","","","","","50","","","","","","","","","","","","","","","","","","","","","","","","","","",""
"2188","","<div style=""width:500px;"">
  <p>What best describes how you currently feel?</p>
  </div>","85","html-slider-response","62","817879","0.0-7.0-4.9","52","1","2025-07-30 08:47:14","36c45c0696341be0efffe67d72a12abb","85.255.235.218","Mozilla/5.0 (Windows NT 10.0; Win64; x64) AppleWebKit/537.36 (KHTML, like Gecko) Chrome/138.0.0.0 Safari/537.36","WebKit","Chrome","138.0.0.0","Windows","10.0","https://app.prolific.com/","en-GB,en-US;q=0.9,en;q=0.8","676055e6c41940f91e59028c","687a19d2168e237449fb8af4","6889dbdb4609030fac0ca144","0","676055e6c41940f91e59028c","0","2025-07-30T09:00:54.965Z","","","","MotivationQ","","","","","","","","","","","50","","","","","","","","","","","","","","","","","","","","","","","","","","",""
"","","","","ctl-task-cpt","63","871538","0.0-7.0-0.10","52","1","2025-07-30 08:47:14","36c45c0696341be0efffe67d72a12abb","85.255.235.218","Mozilla/5.0 (Windows NT 10.0; Win64; x64) AppleWebKit/537.36 (KHTML, like Gecko) Chrome/138.0.0.0 Safari/537.36","WebKit","Chrome","138.0.0.0","Windows","10.0","https://app.prolific.com/","en-GB,en-US;q=0.9,en;q=0.8","676055e6c41940f91e59028c","687a19d2168e237449fb8af4","6889dbdb4609030fac0ca144","0","676055e6c41940f91e59028c","0","2025-07-30T09:01:48.624Z","","","","","","","","","","","","","","","","win-only","2","g1:SE,g2:NW","0.6","11","0","820347.7","1003.5","6003.9","50636.8","1","4","4","6","2","-4","-5","0","5","0","1714.6","3000","-2510","[""left"",""up""]","{""num_key_presses"":11,""num_perfect"":6,""num_errors"":1,""num_randdir"":4,""num_randdir_good_moves"":0,""num_whilered"":0,""num_whileblue"":1,""num_blue"":4,""num_good_moves"":6}","[413.57142857142856,418.47767857142856,0.4,413.57142857142856,418.47767857142856,102.2,413.57142857142856,418.47767857142856,202.7,413.57142857142856,418.47767857142856,308,413.57142857142856,418.47767857142856,410.3,413.57142857142856,418.47767857142856,511.3,413.57142857142856,418.47767857142856,616.9,413.57142857142856,418.47767857142856,719.3,413.57142857142856,418.47767857142856,819.4,413.57142857142856,418.47767857142856,922.1,413.57142857142856,418.47767857142856,1022.7,250.57142857142856,295.47767857142856,1141.9,97.57142857142857,132.47767857142856,1253,93.57142857142857,126.47767857142857,1364.7,93.57142857142857,126.47767857142857,1465.7,93.57142857142857,126.47767857142857,1566.8,93.57142857142857,126.47767857142857,1667,93.57142857142857,126.47767857142857,1768.3,93.57142857142857,126.47767857142857,1882.2,93.57142857142857,126.47767857142857,1983.6,93.57142857142857,126.47767857142857,2087.3,93.57142857142857,126.47767857142857,2187.5,93.57142857142857,126.47767857142857,2294.4,93.57142857142857,126.47767857142857,2395.2,93.57142857142857,126.47767857142857,2499.8,93.57142857142857,126.47767857142857,2601.9,93.57142857142857,126.47767857142857,2702.7,93.57142857142857,126.47767857142857,2812.7,93.57142857142857,126.47767857142857,2917.7,93.57142857142857,126.47767857142857,3018.8,93.57142857142857,126.47767857142857,3123.4,93.57142857142857,126.47767857142857,3232.1,93.57142857142857,126.47767857142857,3332.5,93.57142857142857,126.47767857142857,3432.6,93.57142857142857,126.47767857142857,3533.5,93.57142857142857,126.47767857142857,3647.2,93.57142857142857,126.47767857142857,3748.6,93.57142857142857,126.47767857142857,3852.6,93.57142857142857,126.47767857142857,3952.9,93.57142857142857,126.47767857142857,4061.2,93.57142857142857,126.47767857142857,4166.6,93.57142857142857,126.47767857142857,4267.9,93.57142857142857,126.47767857142857,4382.5,93.57142857142857,126.47767857142857,4485.2,93.57142857142857,126.47767857142857,4589.2,93.57142857142857,126.47767857142857,4689.8,93.57142857142857,126.47767857142857,4795.5,93.57142857142857,126.47767857142857,4895.5]","[1329,1329,1000,0,329,""smooth"",""up"",""up"",""good_move"",5351,4021.3,3697.7,1329.8,323.5,""smooth"",""up"",""up"",""good_move"",7883.9,2532.7,2185.5,5351.2,347.2,""smooth"",""up"",""up"",""good_move"",10588.4,2704.2,2423.1,7884.2,281.1,""oops"",""left"",""right"",""bad_move"",13378.4,2788.5,2477.9,10589.9,310.6,""smooth"",""left"",""left"",""good_move"",16760.3,3381.6,3018,13378.7,363.6,""oops"",""left"",""down"",""bad_move"",24036.9,7276.2,2764.1,21003,269.8,""while_blue"",""left"",""down"",""bad_move"",27024.2,2986.8,2593.7,24037.5,393.1,""oops"",""left"",""right"",""bad_move"",33383.2,6358.7,2418.7,30601.6,362.9,""oops"",""left"",""down"",""bad_move"",35934.7,2551.2,2150.4,33383.5,400.8,""smooth"",""left"",""left"",""good_move"",38563.1,2627.9,2278.7,35935.4,349.1,""smooth"",""left"",""left"",""good_move""]"
"3394","","<div style=""width:500px;"">
  <p>What determined the result of this run?</p>
  </div>","2","html-slider-response","64","874933","0.0-7.0-1.10","52","1","2025-07-30 08:47:14","36c45c0696341be0efffe67d72a12abb","85.255.235.218","Mozilla/5.0 (Windows NT 10.0; Win64; x64) AppleWebKit/537.36 (KHTML, like Gecko) Chrome/138.0.0.0 Safari/537.36","WebKit","Chrome","138.0.0.0","Windows","10.0","https://app.prolific.com/","en-GB,en-US;q=0.9,en;q=0.8","676055e6c41940f91e59028c","687a19d2168e237449fb8af4","6889dbdb4609030fac0ca144","0","676055e6c41940f91e59028c","0","2025-07-30T09:01:52.020Z","","","","AttribQ","","","","","","","","","","","50","","","","","","","","","","","","","","","","","","","","","","","","","","",""
"3116","","<div style=""width:500px;"">
  <p>How much control did you have over the ball?</p>
  </div>","2","html-slider-response","65","878050","0.0-7.0-2.10","52","1","2025-07-30 08:47:14","36c45c0696341be0efffe67d72a12abb","85.255.235.218","Mozilla/5.0 (Windows NT 10.0; Win64; x64) AppleWebKit/537.36 (KHTML, like Gecko) Chrome/138.0.0.0 Safari/537.36","WebKit","Chrome","138.0.0.0","Windows","10.0","https://app.prolific.com/","en-GB,en-US;q=0.9,en;q=0.8","676055e6c41940f91e59028c","687a19d2168e237449fb8af4","6889dbdb4609030fac0ca144","0","676055e6c41940f91e59028c","0","2025-07-30T09:01:55.136Z","","","","ControlQ","","","","","","","","","","","50","","","","","","","","","","","","","","","","","","","","","","","","","","",""
"2608","","<div style=""width:500px;"">
  <p>How would you describe your current emotional state?</p>
  </div>","91","html-slider-response","66","880659","0.0-7.0-3.10","52","1","2025-07-30 08:47:14","36c45c0696341be0efffe67d72a12abb","85.255.235.218","Mozilla/5.0 (Windows NT 10.0; Win64; x64) AppleWebKit/537.36 (KHTML, like Gecko) Chrome/138.0.0.0 Safari/537.36","WebKit","Chrome","138.0.0.0","Windows","10.0","https://app.prolific.com/","en-GB,en-US;q=0.9,en;q=0.8","676055e6c41940f91e59028c","687a19d2168e237449fb8af4","6889dbdb4609030fac0ca144","0","676055e6c41940f91e59028c","0","2025-07-30T09:01:57.745Z","","","","StressQ","","","","","","","","","","","50","","","","","","","","","","","","","","","","","","","","","","","","","","",""
"2614","","<div style=""width:500px;"">
  <p>What best describes how you currently feel?</p>
  </div>","68","html-slider-response","67","883274","0.0-7.0-4.10","52","1","2025-07-30 08:47:14","36c45c0696341be0efffe67d72a12abb","85.255.235.218","Mozilla/5.0 (Windows NT 10.0; Win64; x64) AppleWebKit/537.36 (KHTML, like Gecko) Chrome/138.0.0.0 Safari/537.36","WebKit","Chrome","138.0.0.0","Windows","10.0","https://app.prolific.com/","en-GB,en-US;q=0.9,en;q=0.8","676055e6c41940f91e59028c","687a19d2168e237449fb8af4","6889dbdb4609030fac0ca144","0","676055e6c41940f91e59028c","0","2025-07-30T09:02:00.360Z","","","","MotivationQ","","","","","","","","","","","50","","","","","","","","","","","","","","","","","","","","","","","","","","",""
"","","","","ctl-task-cpt","68","936710","0.0-7.0-0.11","52","1","2025-07-30 08:47:14","36c45c0696341be0efffe67d72a12abb","85.255.235.218","Mozilla/5.0 (Windows NT 10.0; Win64; x64) AppleWebKit/537.36 (KHTML, like Gecko) Chrome/138.0.0.0 Safari/537.36","WebKit","Chrome","138.0.0.0","Windows","10.0","https://app.prolific.com/","en-GB,en-US;q=0.9,en;q=0.8","676055e6c41940f91e59028c","687a19d2168e237449fb8af4","6889dbdb4609030fac0ca144","0","676055e6c41940f91e59028c","0","2025-07-30T09:02:53.796Z","","","","","","","","","","","","","","","","win-only","0","g1:NW,g2:SE","0.7","12","0","885742.6","1322.8","6337.9","50404.8","1","4","8","6","2","8","8","8","0","0.06060606060606061","1309.9","3000","5","[""down"",""right""]","{""num_key_presses"":12,""num_perfect"":9,""num_errors"":0,""num_randdir"":3,""num_randdir_good_moves"":0,""num_whilered"":0,""num_whileblue"":0,""num_blue"":3,""num_good_moves"":9}","[417.57142857142856,414.47767857142856,0.3,417.57142857142856,414.47767857142856,102.8,417.57142857142856,414.47767857142856,203.1,417.57142857142856,414.47767857142856,303.1,417.57142857142856,414.47767857142856,413.7,417.57142857142856,414.47767857142856,514.2,417.57142857142856,414.47767857142856,614.7,417.57142857142856,414.47767857142856,718.2,589.5714285714286,609.4776785714286,818.2,703.5714285714286,722.4776785714286,927.3,707.5714285714286,731.4776785714286,1032.1,707.5714285714286,731.4776785714286,1132.5,707.5714285714286,731.4776785714286,1233.1,707.5714285714286,731.4776785714286,1333.5,707.5714285714286,731.4776785714286,1441.4,707.5714285714286,731.4776785714286,1545.9,707.5714285714286,731.4776785714286,1648.2,707.5714285714286,731.4776785714286,1764,707.5714285714286,731.4776785714286,1865.5,707.5714285714286,731.4776785714286,1967.4,941.5714285714286,691.4776785714286,2078,946.5714285714286,691.4776785714286,2183.4,946.5714285714286,691.4776785714286,2299.8,946.5714285714286,691.4776785714286,2403.7,946.5714285714286,691.4776785714286,2514,946.5714285714286,691.4776785714286,2618.1,946.5714285714286,691.4776785714286,2731.5,946.5714285714286,691.4776785714286,2833,946.5714285714286,691.4776785714286,2946.4,946.5714285714286,691.4776785714286,3047.8,946.5714285714286,691.4776785714286,3148,946.5714285714286,691.4776785714286,3248.7,946.5714285714286,691.4776785714286,3363.2,946.5714285714286,691.4776785714286,3464.2,946.5714285714286,691.4776785714286,3565.9,946.5714285714286,691.4776785714286,3679.3,946.5714285714286,691.4776785714286,3780.4,946.5714285714286,691.4776785714286,3883.6,946.5714285714286,691.4776785714286,3992.2,946.5714285714286,691.4776785714286,4092.6,946.5714285714286,691.4776785714286,4198.2,946.5714285714286,691.4776785714286,4306.1,946.5714285714286,691.4776785714286,4406.7,946.5714285714286,691.4776785714286,4514.5,946.5714285714286,691.4776785714286,4615,946.5714285714286,691.4776785714286,4718.1,946.5714285714286,691.4776785714286,4828.4,946.5714285714286,691.4776785714286,4930.6]","[1395.5,1395.5,1000,0,395.5,""oops"",""down"",""left"",""bad_move"",3771.9,2375.8,2034.4,1396.1,341.4,""smooth"",""down"",""down"",""good_move"",7043.1,3270.8,2883.8,3772.3,387,""smooth"",""down"",""down"",""good_move"",10304.4,3261.1,2875.5,7043.3,385.6,""smooth"",""right"",""right"",""good_move"",19438.1,9132.9,2330.8,16758.2,349.1,""smooth"",""down"",""down"",""good_move"",22456.1,3017.7,2686.4,19438.4,331.3,""smooth"",""right"",""right"",""good_move"",29422.7,6966.1,2306.9,26723.7,392.1,""oops"",""right"",""up"",""bad_move"",32188.9,2765.9,2287.3,29423,478.6,""smooth"",""right"",""right"",""good_move"",34871.1,2681.8,2307,32189.3,374.8,""oops"",""right"",""left"",""bad_move"",38235.8,3364.2,3002.9,34871.7,361.2,""smooth"",""right"",""right"",""good_move"",41203,2966.8,2665.5,38236.2,301.3,""smooth"",""right"",""right"",""good_move"",43932.4,2729.1,2401.2,41203.3,327.9,""smooth"",""down"",""down"",""good_move""]"
"5166","","<div style=""width:500px;"">
  <p>What determined the result of this run?</p>
  </div>","35","html-slider-response","69","941877","0.0-7.0-1.11","52","1","2025-07-30 08:47:14","36c45c0696341be0efffe67d72a12abb","85.255.235.218","Mozilla/5.0 (Windows NT 10.0; Win64; x64) AppleWebKit/537.36 (KHTML, like Gecko) Chrome/138.0.0.0 Safari/537.36","WebKit","Chrome","138.0.0.0","Windows","10.0","https://app.prolific.com/","en-GB,en-US;q=0.9,en;q=0.8","676055e6c41940f91e59028c","687a19d2168e237449fb8af4","6889dbdb4609030fac0ca144","0","676055e6c41940f91e59028c","0","2025-07-30T09:02:58.963Z","","","","AttribQ","","","","","","","","","","","50","","","","","","","","","","","","","","","","","","","","","","","","","","",""
"4215","","<div style=""width:500px;"">
  <p>How much control did you have over the ball?</p>
  </div>","55","html-slider-response","70","946093","0.0-7.0-2.11","52","1","2025-07-30 08:47:14","36c45c0696341be0efffe67d72a12abb","85.255.235.218","Mozilla/5.0 (Windows NT 10.0; Win64; x64) AppleWebKit/537.36 (KHTML, like Gecko) Chrome/138.0.0.0 Safari/537.36","WebKit","Chrome","138.0.0.0","Windows","10.0","https://app.prolific.com/","en-GB,en-US;q=0.9,en;q=0.8","676055e6c41940f91e59028c","687a19d2168e237449fb8af4","6889dbdb4609030fac0ca144","0","676055e6c41940f91e59028c","0","2025-07-30T09:03:03.179Z","","","","ControlQ","","","","","","","","","","","50","","","","","","","","","","","","","","","","","","","","","","","","","","",""
"2799","","<div style=""width:500px;"">
  <p>How would you describe your current emotional state?</p>
  </div>","88","html-slider-response","71","948894","0.0-7.0-3.11","52","1","2025-07-30 08:47:14","36c45c0696341be0efffe67d72a12abb","85.255.235.218","Mozilla/5.0 (Windows NT 10.0; Win64; x64) AppleWebKit/537.36 (KHTML, like Gecko) Chrome/138.0.0.0 Safari/537.36","WebKit","Chrome","138.0.0.0","Windows","10.0","https://app.prolific.com/","en-GB,en-US;q=0.9,en;q=0.8","676055e6c41940f91e59028c","687a19d2168e237449fb8af4","6889dbdb4609030fac0ca144","0","676055e6c41940f91e59028c","0","2025-07-30T09:03:05.981Z","","","","StressQ","","","","","","","","","","","50","","","","","","","","","","","","","","","","","","","","","","","","","","",""
"3368","","<div style=""width:500px;"">
  <p>What best describes how you currently feel?</p>
  </div>","79","html-slider-response","72","952264","0.0-7.0-4.11","52","1","2025-07-30 08:47:14","36c45c0696341be0efffe67d72a12abb","85.255.235.218","Mozilla/5.0 (Windows NT 10.0; Win64; x64) AppleWebKit/537.36 (KHTML, like Gecko) Chrome/138.0.0.0 Safari/537.36","WebKit","Chrome","138.0.0.0","Windows","10.0","https://app.prolific.com/","en-GB,en-US;q=0.9,en;q=0.8","676055e6c41940f91e59028c","687a19d2168e237449fb8af4","6889dbdb4609030fac0ca144","0","676055e6c41940f91e59028c","0","2025-07-30T09:03:09.350Z","","","","MotivationQ","","","","","","","","","","","50","","","","","","","","","","","","","","","","","","","","","","","","","","",""
"","","","","ctl-task-cpt","73","997739","0.0-7.0-0.12","52","1","2025-07-30 08:47:14","36c45c0696341be0efffe67d72a12abb","85.255.235.218","Mozilla/5.0 (Windows NT 10.0; Win64; x64) AppleWebKit/537.36 (KHTML, like Gecko) Chrome/138.0.0.0 Safari/537.36","WebKit","Chrome","138.0.0.0","Windows","10.0","https://app.prolific.com/","en-GB,en-US;q=0.9,en;q=0.8","676055e6c41940f91e59028c","687a19d2168e237449fb8af4","6889dbdb4609030fac0ca144","0","676055e6c41940f91e59028c","0","2025-07-30T09:03:54.825Z","","","","","","","","","","","","","","","","win-only","3","g1:SW,g2:NE","0.8","13","0","954734.8","2917.7","7919.8","42461.6","1","4","8","6","2","8","8","16","8","0.12121212121212122","1255.8","3000","545","[""up"",""right""]","{""num_key_presses"":10,""num_perfect"":8,""num_errors"":0,""num_randdir"":2,""num_randdir_good_moves"":0,""num_whilered"":0,""num_whileblue"":0,""num_blue"":2,""num_good_moves"":8}","[413.57142857142856,420.47767857142856,0.3,413.57142857142856,420.47767857142856,100.2,413.57142857142856,420.47767857142856,202.4,413.57142857142856,420.47767857142856,303.2,413.57142857142856,420.47767857142856,404.4,413.57142857142856,420.47767857142856,504.6,413.57142857142856,420.47767857142856,608.8,631.5714285714286,192.47767857142856,709.1,675.5714285714286,148.47767857142856,821.1,712.5714285714286,100.47767857142857,922.7,742.5714285714286,66.47767857142857,1023.5,744.5714285714286,66.47767857142857,1124.2,744.5714285714286,66.47767857142857,1232.1,744.5714285714286,66.47767857142857,1335.8,744.5714285714286,66.47767857142857,1437.3,744.5714285714286,66.47767857142857,1538,744.5714285714286,66.47767857142857,1640,744.5714285714286,66.47767857142857,1751.9,744.5714285714286,66.47767857142857,1852.1,744.5714285714286,66.47767857142857,1952.6,744.5714285714286,66.47767857142857,2054.4,744.5714285714286,66.47767857142857,2166.2,744.5714285714286,66.47767857142857,2267.7,744.5714285714286,66.47767857142857,2374.4,744.5714285714286,66.47767857142857,2478.6,744.5714285714286,66.47767857142857,2582.3,744.5714285714286,66.47767857142857,2685,744.5714285714286,66.47767857142857,2788.8,744.5714285714286,66.47767857142857,2889.8,744.5714285714286,66.47767857142857,3000.1,744.5714285714286,66.47767857142857,3103.7,744.5714285714286,66.47767857142857,3205.8,744.5714285714286,66.47767857142857,3309.7,744.5714285714286,66.47767857142857,3420.2,744.5714285714286,66.47767857142857,3524.4,744.5714285714286,66.47767857142857,3631.3,744.5714285714286,66.47767857142857,3734.1,744.5714285714286,66.47767857142857,3835.8,744.5714285714286,66.47767857142857,3938.5,744.5714285714286,66.47767857142857,4042.7,744.5714285714286,66.47767857142857,4151.6,744.5714285714286,66.47767857142857,4253,744.5714285714286,66.47767857142857,4360,744.5714285714286,66.47767857142857,4467,744.5714285714286,66.47767857142857,4567,744.5714285714286,66.47767857142857,4670,744.5714285714286,66.47767857142857,4775.1,744.5714285714286,66.47767857142857,4885.8,744.5714285714286,66.47767857142857,4987.1]","[1382.2,1382.2,1000,0,382.2,""smooth"",""up"",""up"",""good_move"",4668.1,3285.6,2944.8,1382.5,340.8,""oops"",""right"",""left"",""bad_move"",10695.9,6027.6,2561.2,7737.4,397.4,""smooth"",""up"",""up"",""good_move"",13881.2,3185,2860.3,10696.2,324.7,""smooth"",""right"",""right"",""good_move"",16376.3,2494.8,2181,13881.5,313.8,""smooth"",""right"",""right"",""good_move"",19065.3,2688.8,2285.4,16376.5,403.4,""smooth"",""right"",""right"",""good_move"",25538,6472.2,2356.6,22793.1,388.3,""smooth"",""right"",""right"",""good_move"",28806.6,3268.3,2908.5,25538.3,359.8,""oops"",""up"",""left"",""bad_move"",31300.7,2493.6,2099.6,28807.1,394,""smooth"",""up"",""up"",""good_move"",34401.4,3099.5,2785,31301.9,314.5,""smooth"",""right"",""right"",""good_move""]"
"4810","","<div style=""width:500px;"">
  <p>What determined the result of this run?</p>
  </div>","28","html-slider-response","74","1002550","0.0-7.0-1.12","52","1","2025-07-30 08:47:14","36c45c0696341be0efffe67d72a12abb","85.255.235.218","Mozilla/5.0 (Windows NT 10.0; Win64; x64) AppleWebKit/537.36 (KHTML, like Gecko) Chrome/138.0.0.0 Safari/537.36","WebKit","Chrome","138.0.0.0","Windows","10.0","https://app.prolific.com/","en-GB,en-US;q=0.9,en;q=0.8","676055e6c41940f91e59028c","687a19d2168e237449fb8af4","6889dbdb4609030fac0ca144","0","676055e6c41940f91e59028c","0","2025-07-30T09:03:59.637Z","","","","AttribQ","","","","","","","","","","","50","","","","","","","","","","","","","","","","","","","","","","","","","","",""
"3113","","<div style=""width:500px;"">
  <p>How much control did you have over the ball?</p>
  </div>","58","html-slider-response","75","1005666","0.0-7.0-2.12","52","1","2025-07-30 08:47:14","36c45c0696341be0efffe67d72a12abb","85.255.235.218","Mozilla/5.0 (Windows NT 10.0; Win64; x64) AppleWebKit/537.36 (KHTML, like Gecko) Chrome/138.0.0.0 Safari/537.36","WebKit","Chrome","138.0.0.0","Windows","10.0","https://app.prolific.com/","en-GB,en-US;q=0.9,en;q=0.8","676055e6c41940f91e59028c","687a19d2168e237449fb8af4","6889dbdb4609030fac0ca144","0","676055e6c41940f91e59028c","0","2025-07-30T09:04:02.753Z","","","","ControlQ","","","","","","","","","","","50","","","","","","","","","","","","","","","","","","","","","","","","","","",""
"2748","","<div style=""width:500px;"">
  <p>How would you describe your current emotional state?</p>
  </div>","87","html-slider-response","76","1008416","0.0-7.0-3.12","52","1","2025-07-30 08:47:14","36c45c0696341be0efffe67d72a12abb","85.255.235.218","Mozilla/5.0 (Windows NT 10.0; Win64; x64) AppleWebKit/537.36 (KHTML, like Gecko) Chrome/138.0.0.0 Safari/537.36","WebKit","Chrome","138.0.0.0","Windows","10.0","https://app.prolific.com/","en-GB,en-US;q=0.9,en;q=0.8","676055e6c41940f91e59028c","687a19d2168e237449fb8af4","6889dbdb4609030fac0ca144","0","676055e6c41940f91e59028c","0","2025-07-30T09:04:05.503Z","","","","StressQ","","","","","","","","","","","50","","","","","","","","","","","","","","","","","","","","","","","","","","",""
"3659","","<div style=""width:500px;"">
  <p>What best describes how you currently feel?</p>
