"rt","response_timestamp","stimulus","response","trial_type","trial_index","time_elapsed","internal_node_id","run_id","condition","recorded_at","source_code_version","ip","user_agent","device","browser","browser_version","platform","platform_version","referer","accept_language","PROLIFIC_PID","STUDY_ID","SESSION_ID","BATCH","prolific_id","batch","realtime","success","question_order","question_id","eventType","responses","item_order","radio_event_ids","radio_event_times","key_event_times","mouse_event_times","straightlining","zigzagging","honeypot","view_history","slider_start","which_type","canvas_config","goals_layout","control_level","trial_number","tutorial_trial_number","trial_start_time","phase1_start_time","phase2_start_time","phase3_start_time","goal_1_value","goal_1_distance","goal_2_value","goal_2_distance","goal_selected","outcome","outcome_total","participant_final_score","participant_initial_score","participant_final_score_prop","goal_choice_rt","allocated_time","allocated_time_remaining","goal_direction","counts","mouse_movements","key_presses"
"3609","1754508615091","<p style='font-size:40px;line-height:1.25'><strong>Welcome to the experiment!</strong></p><p style='font-size:1.1em;line-height:1.25'>Thank you for participanting in our experiment again! You will be asked to play the Dysfunctional Ball Game again. We will briefly recap the rules before we start.</p><p style='font-size:1.1em;line-height:1.25'>Press <strong>Next</strong> to continue.</p>","0","custom-html-button-response","0","3613","0.0-0.0","217","1","2025-08-06 19:30:09","36c45c0696341be0efffe67d72a12abb","148.252.144.214","Mozilla/5.0 (Windows NT 10.0; Win64; x64) AppleWebKit/537.36 (KHTML, like Gecko) Chrome/138.0.0.0 Safari/537.36 Edg/138.0.0.0","WebKit","Edge","138.0.0.0","Windows","10.0","https://app.prolific.com/","en-US,en;q=0.9,en-GB;q=0.8,ar;q=0.7,sq;q=0.6","676578b520552faa04a8ef83","6877649eabb845cf142cd221","6893ad33c30ddf83cc021201","1","676578b520552faa04a8ef83","1","2025-08-06T19:30:15.093Z","","","","","","","","","","","","","","","","","","","","","","","","","","","","","","","","","","","","","","","","","",""
"1538","","","","fullscreen","1","6164","0.0-1.0","217","1","2025-08-06 19:30:09","36c45c0696341be0efffe67d72a12abb","148.252.144.214","Mozilla/5.0 (Windows NT 10.0; Win64; x64) AppleWebKit/537.36 (KHTML, like Gecko) Chrome/138.0.0.0 Safari/537.36 Edg/138.0.0.0","WebKit","Edge","138.0.0.0","Windows","10.0","https://app.prolific.com/","en-US,en;q=0.9,en-GB;q=0.8,ar;q=0.7,sq;q=0.6","676578b520552faa04a8ef83","6877649eabb845cf142cd221","6893ad33c30ddf83cc021201","1","676578b520552faa04a8ef83","1","","true","","","","","","","","","","","","","","","","","","","","","","","","","","","","","","","","","","","","","","","","",""
"1418","1754508619064"," <p style='font-size:1.1em;line-height:1.25'>Thank you for closing all other tabs.</p><p style='font-size:1.1em;line-height:1.25'>We will now invite you to fill in some questionnaires, before starting the game.<br>This will take about 5 minutes.<br></p><p style='font-size:1.1em;line-height:1.25'>Press the <strong>Next</strong> button to continue.</p>","0","custom-html-button-response","2","7585","0.0-2.0","217","1","2025-08-06 19:30:09","36c45c0696341be0efffe67d72a12abb","148.252.144.214","Mozilla/5.0 (Windows NT 10.0; Win64; x64) AppleWebKit/537.36 (KHTML, like Gecko) Chrome/138.0.0.0 Safari/537.36 Edg/138.0.0.0","WebKit","Edge","138.0.0.0","Windows","10.0","https://app.prolific.com/","en-US,en;q=0.9,en-GB;q=0.8,ar;q=0.7,sq;q=0.6","676578b520552faa04a8ef83","6877649eabb845cf142cd221","6893ad33c30ddf83cc021201","1","676578b520552faa04a8ef83","1","2025-08-06T19:30:19.065Z","","","","","","","","","","","","","","","","","","","","","","","","","","","","","","","","","","","","","","","","","",""
"3003","","","{""assigned_sex"":""female""}","survey-multi-choice","3","10592","0.0-3.0-0.0","217","1","2025-08-06 19:30:09","36c45c0696341be0efffe67d72a12abb","148.252.144.214","Mozilla/5.0 (Windows NT 10.0; Win64; x64) AppleWebKit/537.36 (KHTML, like Gecko) Chrome/138.0.0.0 Safari/537.36 Edg/138.0.0.0","WebKit","Edge","138.0.0.0","Windows","10.0","https://app.prolific.com/","en-US,en;q=0.9,en-GB;q=0.8,ar;q=0.7,sq;q=0.6","676578b520552faa04a8ef83","6877649eabb845cf142cd221","6893ad33c30ddf83cc021201","1","676578b520552faa04a8ef83","1","","","[0]","0","demographics","","","","","","","","","","","","","","","","","","","","","","","","","","","","","","","","","","","","","",""
"2459","1754508624533","<p style='font-size:1.1em;line-height:1.25'>In the following, we will perform a baseline assessment. This means that we will ask you a few questions relating to your experiences over the past month.<br></p><p style='font-size:1.1em;line-height:1.25'>Press the <strong>Next</strong> button to continue.</p>","0","custom-html-button-response","4","13054","0.0-4.0-0.0","217","1","2025-08-06 19:30:09","36c45c0696341be0efffe67d72a12abb","148.252.144.214","Mozilla/5.0 (Windows NT 10.0; Win64; x64) AppleWebKit/537.36 (KHTML, like Gecko) Chrome/138.0.0.0 Safari/537.36 Edg/138.0.0.0","WebKit","Edge","138.0.0.0","Windows","10.0","https://app.prolific.com/","en-US,en;q=0.9,en-GB;q=0.8,ar;q=0.7,sq;q=0.6","676578b520552faa04a8ef83","6877649eabb845cf142cd221","6893ad33c30ddf83cc021201","1","676578b520552faa04a8ef83","1","2025-08-06T19:30:24.534Z","","","","","","","","","","","","","","","","","","","","","","","","","","","","","","","","","","","","","","","","","",""
"72368.30000001192","","","","survey-template","5","85428","0.0-4.0-1.0","217","1","2025-08-06 19:30:09","36c45c0696341be0efffe67d72a12abb","148.252.144.214","Mozilla/5.0 (Windows NT 10.0; Win64; x64) AppleWebKit/537.36 (KHTML, like Gecko) Chrome/138.0.0.0 Safari/537.36 Edg/138.0.0.0","WebKit","Edge","138.0.0.0","Windows","10.0","https://app.prolific.com/","en-US,en;q=0.9,en-GB;q=0.8,ar;q=0.7,sq;q=0.6","676578b520552faa04a8ef83","6877649eabb845cf142cd221","6893ad33c30ddf83cc021201","1","676578b520552faa04a8ef83","1","2025-08-06T19:31:36.909Z","","","","pss","{""Q01"":""2"",""Q02"":""2"",""Q03"":""4"",""Q04"":""1"",""Q05"":""2"",""Q06"":""2"",""Q07"":""2"",""Q08"":""1"",""Q09"":""4"",""Q10"":""2""}","[0,1,2,3,4,5,6,7,8,9]","[""Q01"",""Q02"",""Q03"",""Q04"",""Q05"",""Q06"",""Q07"",""Q08"",""Q09"",""Q10"",""Q10""]","[7360.800000011921,13840.200000017881,18558.90000000596,23739.5,30356.30000001192,36288.20000001788,40803.90000000596,46370.30000001192,64850.90000000596,69948.10000002384,71234.20000001788]","[]","[0.20000001788139343,7360.800000011921,13840.200000017881,18558.90000000596,23739.5,29449,30356.30000001192,36288.20000001788,40803.90000000596,46370.30000001192,64850.90000000596,69948.10000002384,71234.20000001788,72366.10000002384]","0.6","0.4444444444444444","0","","","","","","","","","","","","","","","","","","","","","","","","","","","","",""
"2228","1754508699138","<p style='font-size:1.1em;line-height:1.25'>Thank you for your answers! Now we will ask you a few more questions relating to your feelings in the last 24 hours.<br></p><p style='font-size:1.1em;line-height:1.25'>Press the <strong>Next</strong> button to continue.</p>","0","custom-html-button-response","6","87660","0.0-4.0-2.0","217","1","2025-08-06 19:30:09","36c45c0696341be0efffe67d72a12abb","148.252.144.214","Mozilla/5.0 (Windows NT 10.0; Win64; x64) AppleWebKit/537.36 (KHTML, like Gecko) Chrome/138.0.0.0 Safari/537.36 Edg/138.0.0.0","WebKit","Edge","138.0.0.0","Windows","10.0","https://app.prolific.com/","en-US,en;q=0.9,en-GB;q=0.8,ar;q=0.7,sq;q=0.6","676578b520552faa04a8ef83","6877649eabb845cf142cd221","6893ad33c30ddf83cc021201","1","676578b520552faa04a8ef83","1","2025-08-06T19:31:39.140Z","","","","","","","","","","","","","","","","","","","","","","","","","","","","","","","","","","","","","","","","","",""
"97851.10000002384","","","","survey-template","7","185519","0.0-4.0-3.0","217","1","2025-08-06 19:30:09","36c45c0696341be0efffe67d72a12abb","148.252.144.214","Mozilla/5.0 (Windows NT 10.0; Win64; x64) AppleWebKit/537.36 (KHTML, like Gecko) Chrome/138.0.0.0 Safari/537.36 Edg/138.0.0.0","WebKit","Edge","138.0.0.0","Windows","10.0","https://app.prolific.com/","en-US,en;q=0.9,en-GB;q=0.8,ar;q=0.7,sq;q=0.6","676578b520552faa04a8ef83","6877649eabb845cf142cd221","6893ad33c30ddf83cc021201","1","676578b520552faa04a8ef83","1","2025-08-06T19:33:17.000Z","","","","drsp","{""Q01"":""5"",""Q02"":""5"",""Q03"":""5"",""Q04"":""4"",""Q05"":""5"",""Q06"":""5"",""Q07"":""5"",""Q08"":""3"",""Q09"":""5"",""Q10"":""3"",""Q11"":""5"",""Q12"":""0"",""Q13"":""5"",""Q14"":""0"",""Q15"":""5"",""Q16"":""5"",""Q17"":""5"",""Q18"":""3"",""Q19"":""1"",""Q20"":""3"",""Q21"":""4"",""Q22"":""3""}","[0,1,2,3,4,5,6,7,8,9,10,11,12,13,14,15,16,17,18,19,20,21]","[""Q01"",""Q02"",""Q03"",""Q04"",""Q04"",""Q05"",""Q06"",""Q07"",""Q08"",""Q08"",""Q09"",""Q10"",""Q11"",""Q12"",""Q13"",""Q14"",""Q15"",""Q16"",""Q17"",""Q18"",""Q19"",""Q20"",""Q21"",""Q22""]","[4225.700000017881,5526.700000017881,6834.4000000059605,10795.100000023842,12485.90000000596,14507.600000023842,18748.600000023842,20428.100000023842,24007.600000023842,27471.80000001192,30574,32820.10000002384,34723,50866.5,53284.5,56295.20000001788,61333.80000001192,63051.10000002384,71278.5,74116.30000001192,78836.30000001192,87522.60000002384,92876.5,96728.40000000596]","[]","[0.20000001788139343,4225.700000017881,5526.700000017881,6834.4000000059605,10795.100000023842,12485.90000000596,14507.600000023842,18748.600000023842,20428.100000023842,24007.600000023842,27471.80000001192,30574,32820.10000002384,34723,49950.90000000596,50866.5,53284.5,56295.20000001788,58368.20000001788,61333.80000001192,63051.10000002384,71278.5,74116.30000001192,78836.30000001192,87522.60000002384,91765.40000000596,92876.5,96728.40000000596,97846.60000002384]","0.5454545454545454","0.38095238095238093","0","","","","","","","","","","","","","","","","","","","","","","","","","","","","",""
"33850.39999997616","","","","survey-template","8","219374","0.0-4.0-4.0","217","1","2025-08-06 19:30:09","36c45c0696341be0efffe67d72a12abb","148.252.144.214","Mozilla/5.0 (Windows NT 10.0; Win64; x64) AppleWebKit/537.36 (KHTML, like Gecko) Chrome/138.0.0.0 Safari/537.36 Edg/138.0.0.0","WebKit","Edge","138.0.0.0","Windows","10.0","https://app.prolific.com/","en-US,en;q=0.9,en-GB;q=0.8,ar;q=0.7,sq;q=0.6","676578b520552faa04a8ef83","6877649eabb845cf142cd221","6893ad33c30ddf83cc021201","1","676578b520552faa04a8ef83","1","2025-08-06T19:33:50.854Z","","","","stress","{""Q01"":""5"",""Q02"":""5"",""Q03"":""3""}","[0,1,2]","[""Q01"",""Q02"",""Q03""]","[9223.299999982119,29668.399999976158,32866.39999997616]","[]","[9223.299999982119,27845.29999998212,29668.399999976158,32866.39999997616,33849.39999997616]","0.3333333333333333","0.5","0","","","","","","","","","","","","","","","","","","","","","","","","","","","","",""
"2997","","","","instructions","9","222374","0.0-5.0-0.0","217","1","2025-08-06 19:30:09","36c45c0696341be0efffe67d72a12abb","148.252.144.214","Mozilla/5.0 (Windows NT 10.0; Win64; x64) AppleWebKit/537.36 (KHTML, like Gecko) Chrome/138.0.0.0 Safari/537.36 Edg/138.0.0.0","WebKit","Edge","138.0.0.0","Windows","10.0","https://app.prolific.com/","en-US,en;q=0.9,en-GB;q=0.8,ar;q=0.7,sq;q=0.6","676578b520552faa04a8ef83","6877649eabb845cf142cd221","6893ad33c30ddf83cc021201","1","676578b520552faa04a8ef83","1","","","","","","","","","","","","","","","[{""page_index"":0,""viewing_time"":2997}]","","","","","","","","","","","","","","","","","","","","","","","","","","","",""
"4711","","<p>Before you start with this game please answer the following three questions yourself. </p>
  <p>Through this game, we measure several aspects of your cognitive performance, such as reaction times, multi-tasking capabilities </p>
  <p>and the ability to assess the situation you are in.</p>
  <p></p>
  <p><b>How good do you usually are in such tasks?</b></p>","15","html-slider-response","10","227087","0.0-6.0-0.0","217","1","2025-08-06 19:30:09","36c45c0696341be0efffe67d72a12abb","148.252.144.214","Mozilla/5.0 (Windows NT 10.0; Win64; x64) AppleWebKit/537.36 (KHTML, like Gecko) Chrome/138.0.0.0 Safari/537.36 Edg/138.0.0.0","WebKit","Edge","138.0.0.0","Windows","10.0","https://app.prolific.com/","en-US,en;q=0.9,en-GB;q=0.8,ar;q=0.7,sq;q=0.6","676578b520552faa04a8ef83","6877649eabb845cf142cd221","6893ad33c30ddf83cc021201","1","676578b520552faa04a8ef83","1","2025-08-06T19:33:58.567Z","","","","PreSkillQ","","","","","","","","","","","50","","","","","","","","","","","","","","","","","","","","","","","","","","",""
"3134","","<div style=""width:500px;"">
  <p>How well do you think you will perform in this task compared to other participants?</p>
  </div>","4","html-slider-response","11","230223","0.0-6.0-1.0","217","1","2025-08-06 19:30:09","36c45c0696341be0efffe67d72a12abb","148.252.144.214","Mozilla/5.0 (Windows NT 10.0; Win64; x64) AppleWebKit/537.36 (KHTML, like Gecko) Chrome/138.0.0.0 Safari/537.36 Edg/138.0.0.0","WebKit","Edge","138.0.0.0","Windows","10.0","https://app.prolific.com/","en-US,en;q=0.9,en-GB;q=0.8,ar;q=0.7,sq;q=0.6","676578b520552faa04a8ef83","6877649eabb845cf142cd221","6893ad33c30ddf83cc021201","1","676578b520552faa04a8ef83","1","2025-08-06T19:34:01.704Z","","","","PrePerfQ","","","","","","","","","","","50","","","","","","","","","","","","","","","","","","","","","","","","","","",""
"4110","","<div style=""width:500px;"">
  <p>What best describes how you currently feel?</p>
  </div>","0","html-slider-response","12","234336","0.0-6.0-2.0","217","1","2025-08-06 19:30:09","36c45c0696341be0efffe67d72a12abb","148.252.144.214","Mozilla/5.0 (Windows NT 10.0; Win64; x64) AppleWebKit/537.36 (KHTML, like Gecko) Chrome/138.0.0.0 Safari/537.36 Edg/138.0.0.0","WebKit","Edge","138.0.0.0","Windows","10.0","https://app.prolific.com/","en-US,en;q=0.9,en-GB;q=0.8,ar;q=0.7,sq;q=0.6","676578b520552faa04a8ef83","6877649eabb845cf142cd221","6893ad33c30ddf83cc021201","1","676578b520552faa04a8ef83","1","2025-08-06T19:34:05.816Z","","","","PreMotivationQ","","","","","","","","","","","50","","","","","","","","","","","","","","","","","","","","","","","","","","",""
"","","","","ctl-task-cpt","13","257142","0.0-7.0-0.0","217","1","2025-08-06 19:30:09","36c45c0696341be0efffe67d72a12abb","148.252.144.214","Mozilla/5.0 (Windows NT 10.0; Win64; x64) AppleWebKit/537.36 (KHTML, like Gecko) Chrome/138.0.0.0 Safari/537.36 Edg/138.0.0.0","WebKit","Edge","138.0.0.0","Windows","10.0","https://app.prolific.com/","en-US,en;q=0.9,en-GB;q=0.8,ar;q=0.7,sq;q=0.6","676578b520552faa04a8ef83","6877649eabb845cf142cd221","6893ad33c30ddf83cc021201","1","676578b520552faa04a8ef83","1","2025-08-06T19:34:28.622Z","","","","","","","","","","","","","","","","win-only","2","g1:SE,g2:NW","1","1","0","241181.1","1250.2","6254.1","19789.6","1","4","8","6","1","1","0","0","0","0","1833.3","3000","1995","[""down"",""right""]","{""num_key_presses"":4,""num_perfect"":3,""num_errors"":1,""num_randdir"":0,""num_randdir_good_moves"":0,""num_whilered"":0,""num_whileblue"":1,""num_blue"":2,""num_good_moves"":4}","[409.07142857142856,414.6808016640799,0.3,409.07142857142856,414.6808016640799,100.5,409.07142857142856,414.6808016640799,201.3,409.07142857142856,414.6808016640799,301.8,409.07142857142856,414.6808016640799,409.4,409.07142857142856,414.6808016640799,517.4,409.07142857142856,414.6808016640799,618,409.07142857142856,414.6808016640799,725.8,409.07142857142856,414.6808016640799,827.4,409.07142857142856,414.6808016640799,936.2,409.07142857142856,414.6808016640799,1041.3,538.0714285714286,530.1808016640799,1143.6,614.5714285714286,593.1808016640799,1248.8,691.0714285714286,653.1808016640799,1350.7,734.5714285714286,693.6808016640799,1459,761.5714285714286,731.1808016640799,1567.8,761.5714285714286,731.1808016640799,1668.6,761.5714285714286,731.1808016640799,1771,761.5714285714286,731.1808016640799,1871,761.5714285714286,731.1808016640799,1975,761.5714285714286,731.1808016640799,2077.9,761.5714285714286,731.1808016640799,2186.1,761.5714285714286,731.1808016640799,2289.3,761.5714285714286,731.1808016640799,2396.6,761.5714285714286,731.1808016640799,2496.6,761.5714285714286,731.1808016640799,2603.4,761.5714285714286,731.1808016640799,2704.2,761.5714285714286,731.1808016640799,2810.2,761.5714285714286,731.1808016640799,2938.9,761.5714285714286,731.1808016640799,3045.3,761.5714285714286,731.1808016640799,3145.9,653.5714285714286,824.1808016640799,3246.7,655.0714285714286,786.6808016640799,3353.6,722.5714285714286,747.6808016640799,3453.9,724.0714285714286,747.6808016640799,3555.3,724.0714285714286,747.6808016640799,3658.2,724.0714285714286,747.6808016640799,3763.1,724.0714285714286,747.6808016640799,3863.2,724.0714285714286,747.6808016640799,3969.2,724.0714285714286,747.6808016640799,4070.6,724.0714285714286,747.6808016640799,4170.6,724.0714285714286,747.6808016640799,4275,724.0714285714286,747.6808016640799,4380.6,724.0714285714286,747.6808016640799,4489.3,724.0714285714286,747.6808016640799,4589.6,724.0714285714286,747.6808016640799,4696,724.0714285714286,747.6808016640799,4796.5,724.0714285714286,747.6808016640799,4900.8]","[4135.3,4135.2,1679.1,2005.4,450.8,""smooth"",""down"",""down"",""good_move"",7213.6,3077.5,2592.8,4136.1,484.7,""smooth"",""down"",""down"",""good_move"",10315.9,3102,2670.2,7213.9,431.8,""smooth"",""right"",""right"",""good_move"",13395.7,3079.1,2652.8,10316.6,426.3,""while_blue"",""right"",""right"",""good_move""]"
"4495","","<div style=""width:500px;"">
  <p>What determined the result of this run?</p>
  </div>","26","html-slider-response","14","261640","0.0-7.0-1.0","217","1","2025-08-06 19:30:09","36c45c0696341be0efffe67d72a12abb","148.252.144.214","Mozilla/5.0 (Windows NT 10.0; Win64; x64) AppleWebKit/537.36 (KHTML, like Gecko) Chrome/138.0.0.0 Safari/537.36 Edg/138.0.0.0","WebKit","Edge","138.0.0.0","Windows","10.0","https://app.prolific.com/","en-US,en;q=0.9,en-GB;q=0.8,ar;q=0.7,sq;q=0.6","676578b520552faa04a8ef83","6877649eabb845cf142cd221","6893ad33c30ddf83cc021201","1","676578b520552faa04a8ef83","1","2025-08-06T19:34:33.120Z","","","","AttribQ","","","","","","","","","","","50","","","","","","","","","","","","","","","","","","","","","","","","","","",""
"3812","","<div style=""width:500px;"">
  <p>How much control did you have over the ball?</p>
  </div>","72","html-slider-response","15","265455","0.0-7.0-2.0","217","1","2025-08-06 19:30:09","36c45c0696341be0efffe67d72a12abb","148.252.144.214","Mozilla/5.0 (Windows NT 10.0; Win64; x64) AppleWebKit/537.36 (KHTML, like Gecko) Chrome/138.0.0.0 Safari/537.36 Edg/138.0.0.0","WebKit","Edge","138.0.0.0","Windows","10.0","https://app.prolific.com/","en-US,en;q=0.9,en-GB;q=0.8,ar;q=0.7,sq;q=0.6","676578b520552faa04a8ef83","6877649eabb845cf142cd221","6893ad33c30ddf83cc021201","1","676578b520552faa04a8ef83","1","2025-08-06T19:34:36.935Z","","","","ControlQ","","","","","","","","","","","50","","","","","","","","","","","","","","","","","","","","","","","","","","",""
"4859","","<div style=""width:500px;"">
  <p>How would you describe your current emotional state?</p>
  </div>","100","html-slider-response","16","270317","0.0-7.0-3.0","217","1","2025-08-06 19:30:09","36c45c0696341be0efffe67d72a12abb","148.252.144.214","Mozilla/5.0 (Windows NT 10.0; Win64; x64) AppleWebKit/537.36 (KHTML, like Gecko) Chrome/138.0.0.0 Safari/537.36 Edg/138.0.0.0","WebKit","Edge","138.0.0.0","Windows","10.0","https://app.prolific.com/","en-US,en;q=0.9,en-GB;q=0.8,ar;q=0.7,sq;q=0.6","676578b520552faa04a8ef83","6877649eabb845cf142cd221","6893ad33c30ddf83cc021201","1","676578b520552faa04a8ef83","1","2025-08-06T19:34:41.797Z","","","","StressQ","","","","","","","","","","","50","","","","","","","","","","","","","","","","","","","","","","","","","","",""
"2926","","<div style=""width:500px;"">
  <p>What best describes how you currently feel?</p>
  </div>","0","html-slider-response","17","273245","0.0-7.0-4.0","217","1","2025-08-06 19:30:09","36c45c0696341be0efffe67d72a12abb","148.252.144.214","Mozilla/5.0 (Windows NT 10.0; Win64; x64) AppleWebKit/537.36 (KHTML, like Gecko) Chrome/138.0.0.0 Safari/537.36 Edg/138.0.0.0","WebKit","Edge","138.0.0.0","Windows","10.0","https://app.prolific.com/","en-US,en;q=0.9,en-GB;q=0.8,ar;q=0.7,sq;q=0.6","676578b520552faa04a8ef83","6877649eabb845cf142cd221","6893ad33c30ddf83cc021201","1","676578b520552faa04a8ef83","1","2025-08-06T19:34:44.725Z","","","","MotivationQ","","","","","","","","","","","50","","","","","","","","","","","","","","","","","","","","","","","","","","",""
"","","","","ctl-task-cpt","18","298989","0.0-7.0-0.1","217","1","2025-08-06 19:30:09","36c45c0696341be0efffe67d72a12abb","148.252.144.214","Mozilla/5.0 (Windows NT 10.0; Win64; x64) AppleWebKit/537.36 (KHTML, like Gecko) Chrome/138.0.0.0 Safari/537.36 Edg/138.0.0.0","WebKit","Edge","138.0.0.0","Windows","10.0","https://app.prolific.com/","en-US,en;q=0.9,en-GB;q=0.8,ar;q=0.7,sq;q=0.6","676578b520552faa04a8ef83","6877649eabb845cf142cd221","6893ad33c30ddf83cc021201","1","676578b520552faa04a8ef83","1","2025-08-06T19:35:10.469Z","","","","","","","","","","","","","","","","win-only","3","g1:SW,g2:NE","0.9","2","0","280086.2","1354.1","6358.1","22734.1","1","4","4","6","1","1","1","1","0","0.007575757575757576","1546.1","3000","1615","[""down"",""left""]","{""num_key_presses"":4,""num_perfect"":3,""num_errors"":0,""num_randdir"":1,""num_randdir_good_moves"":1,""num_whilered"":0,""num_whileblue"":0,""num_blue"":2,""num_good_moves"":4}","[416.57142857142856,404.1808016640799,0.1,416.57142857142856,404.1808016640799,101.7,416.57142857142856,404.1808016640799,201.7,416.57142857142856,404.1808016640799,304.6,416.57142857142856,404.1808016640799,406.3,416.57142857142856,404.1808016640799,506.4,416.57142857142856,404.1808016640799,606.5,416.57142857142856,404.1808016640799,720,416.57142857142856,404.1808016640799,827.9,416.57142857142856,404.1808016640799,936.1,275.57142857142856,557.1808016640799,1043.5,109.07142857142857,728.1808016640799,1148.1,83.57142857142857,746.1808016640799,1251.9,77.57142857142857,752.1808016640799,1362.6,76.07142857142857,755.1808016640799,1463.3,76.07142857142857,755.1808016640799,1573.2,76.07142857142857,755.1808016640799,1678,76.07142857142857,755.1808016640799,1806.4,76.07142857142857,755.1808016640799,1906.4,76.07142857142857,755.1808016640799,2011.7,76.07142857142857,755.1808016640799,2120.5,76.07142857142857,755.1808016640799,2224.5,76.07142857142857,755.1808016640799,2328,76.07142857142857,755.1808016640799,2428.8,76.07142857142857,755.1808016640799,2536,76.07142857142857,755.1808016640799,2636.9,76.07142857142857,755.1808016640799,2738.1,76.07142857142857,755.1808016640799,2846.3,76.07142857142857,755.1808016640799,2954.5,76.07142857142857,755.1808016640799,3062.3,76.07142857142857,755.1808016640799,3163.2,76.07142857142857,755.1808016640799,3263.5,76.07142857142857,755.1808016640799,3368.3,76.07142857142857,755.1808016640799,3469.5,76.07142857142857,755.1808016640799,3570.3,76.07142857142857,755.1808016640799,3671.3,76.07142857142857,755.1808016640799,3771.4,76.07142857142857,755.1808016640799,3871.7,76.07142857142857,755.1808016640799,3979.6,76.07142857142857,755.1808016640799,4087.8,76.07142857142857,755.1808016640799,4191.8,76.07142857142857,755.1808016640799,4291.9,76.07142857142857,755.1808016640799,4396.5,76.07142857142857,755.1808016640799,4496.6,76.07142857142857,755.1808016640799,4605,76.07142857142857,755.1808016640799,4706.9,76.07142857142857,755.1808016640799,4812.8,76.07142857142857,755.1808016640799,4912.9]","[4212.6,4212.5,1789.5,2008.9,414.2,""smooth"",""down"",""down"",""good_move"",7220.1,3007.1,2493.6,4213,513.5,""oops"",""down"",""left"",""good_move"",12928,5707.3,2215.5,10252.4,460.1,""smooth"",""down"",""down"",""good_move"",16243.3,3315,2851.1,12928.3,463.9,""smooth"",""left"",""left"",""good_move""]"
"3648","","<div style=""width:500px;"">
  <p>What determined the result of this run?</p>
  </div>","19","html-slider-response","19","302639","0.0-7.0-1.1","217","1","2025-08-06 19:30:09","36c45c0696341be0efffe67d72a12abb","148.252.144.214","Mozilla/5.0 (Windows NT 10.0; Win64; x64) AppleWebKit/537.36 (KHTML, like Gecko) Chrome/138.0.0.0 Safari/537.36 Edg/138.0.0.0","WebKit","Edge","138.0.0.0","Windows","10.0","https://app.prolific.com/","en-US,en;q=0.9,en-GB;q=0.8,ar;q=0.7,sq;q=0.6","676578b520552faa04a8ef83","6877649eabb845cf142cd221","6893ad33c30ddf83cc021201","1","676578b520552faa04a8ef83","1","2025-08-06T19:35:14.119Z","","","","AttribQ","","","","","","","","","","","50","","","","","","","","","","","","","","","","","","","","","","","","","","",""
"3870","","<div style=""width:500px;"">
  <p>How much control did you have over the ball?</p>
  </div>","60","html-slider-response","20","306511","0.0-7.0-2.1","217","1","2025-08-06 19:30:09","36c45c0696341be0efffe67d72a12abb","148.252.144.214","Mozilla/5.0 (Windows NT 10.0; Win64; x64) AppleWebKit/537.36 (KHTML, like Gecko) Chrome/138.0.0.0 Safari/537.36 Edg/138.0.0.0","WebKit","Edge","138.0.0.0","Windows","10.0","https://app.prolific.com/","en-US,en;q=0.9,en-GB;q=0.8,ar;q=0.7,sq;q=0.6","676578b520552faa04a8ef83","6877649eabb845cf142cd221","6893ad33c30ddf83cc021201","1","676578b520552faa04a8ef83","1","2025-08-06T19:35:17.992Z","","","","ControlQ","","","","","","","","","","","50","","","","","","","","","","","","","","","","","","","","","","","","","","",""
"3527","","<div style=""width:500px;"">
  <p>How would you describe your current emotional state?</p>
  </div>","100","html-slider-response","21","310041","0.0-7.0-3.1","217","1","2025-08-06 19:30:09","36c45c0696341be0efffe67d72a12abb","148.252.144.214","Mozilla/5.0 (Windows NT 10.0; Win64; x64) AppleWebKit/537.36 (KHTML, like Gecko) Chrome/138.0.0.0 Safari/537.36 Edg/138.0.0.0","WebKit","Edge","138.0.0.0","Windows","10.0","https://app.prolific.com/","en-US,en;q=0.9,en-GB;q=0.8,ar;q=0.7,sq;q=0.6","676578b520552faa04a8ef83","6877649eabb845cf142cd221","6893ad33c30ddf83cc021201","1","676578b520552faa04a8ef83","1","2025-08-06T19:35:21.521Z","","","","StressQ","","","","","","","","","","","50","","","","","","","","","","","","","","","","","","","","","","","","","","",""
"3082","","<div style=""width:500px;"">
  <p>What best describes how you currently feel?</p>
  </div>","0","html-slider-response","22","313125","0.0-7.0-4.1","217","1","2025-08-06 19:30:09","36c45c0696341be0efffe67d72a12abb","148.252.144.214","Mozilla/5.0 (Windows NT 10.0; Win64; x64) AppleWebKit/537.36 (KHTML, like Gecko) Chrome/138.0.0.0 Safari/537.36 Edg/138.0.0.0","WebKit","Edge","138.0.0.0","Windows","10.0","https://app.prolific.com/","en-US,en;q=0.9,en-GB;q=0.8,ar;q=0.7,sq;q=0.6","676578b520552faa04a8ef83","6877649eabb845cf142cd221","6893ad33c30ddf83cc021201","1","676578b520552faa04a8ef83","1","2025-08-06T19:35:24.605Z","","","","MotivationQ","","","","","","","","","","","50","","","","","","","","","","","","","","","","","","","","","","","","","","",""
"","","","","ctl-task-cpt","23","348965","0.0-7.0-0.2","217","1","2025-08-06 19:30:09","36c45c0696341be0efffe67d72a12abb","148.252.144.214","Mozilla/5.0 (Windows NT 10.0; Win64; x64) AppleWebKit/537.36 (KHTML, like Gecko) Chrome/138.0.0.0 Safari/537.36 Edg/138.0.0.0","WebKit","Edge","138.0.0.0","Windows","10.0","https://app.prolific.com/","en-US,en;q=0.9,en-GB;q=0.8,ar;q=0.7,sq;q=0.6","676578b520552faa04a8ef83","6877649eabb845cf142cd221","6893ad33c30ddf83cc021201","1","676578b520552faa04a8ef83","1","2025-08-06T19:36:00.445Z","","","","","","","","","","","","","","","","win-only","1","g1:NE,g2:SW","0.8","3","0","319969","1806.2","6810.6","32825.5","1","4","8","6","1","1","1","2","1","0.015151515151515152","1400.5","3000","1480","[""up"",""right""]","{""num_key_presses"":4,""num_perfect"":4,""num_errors"":0,""num_randdir"":0,""num_randdir_good_moves"":0,""num_whilered"":0,""num_whileblue"":0,""num_blue"":4,""num_good_moves"":4}","[416.57142857142856,422.1808016640799,0.4,416.57142857142856,422.1808016640799,105.3,416.57142857142856,422.1808016640799,205.3,416.57142857142856,422.1808016640799,310.2,416.57142857142856,422.1808016640799,415.8,416.57142857142856,422.1808016640799,522.4,416.57142857142856,422.1808016640799,630.6,416.57142857142856,422.1808016640799,731,416.57142857142856,422.1808016640799,833,475.07142857142856,333.6808016640799,936.5,626.5714285714286,119.18080166407994,1045.6,701.5714285714286,74.18080166407994,1149,728.5714285714286,59.18080166407994,1249.8,728.5714285714286,59.18080166407994,1349.9,728.5714285714286,59.18080166407994,1450.5,728.5714285714286,59.18080166407994,1550.5,728.5714285714286,59.18080166407994,1651.1,728.5714285714286,59.18080166407994,1759.3,728.5714285714286,59.18080166407994,1865.5,728.5714285714286,59.18080166407994,1970.7,728.5714285714286,59.18080166407994,2074.1,728.5714285714286,59.18080166407994,2181.3,728.5714285714286,59.18080166407994,2289.2,728.5714285714286,59.18080166407994,2389.4,728.5714285714286,59.18080166407994,2495.5,728.5714285714286,59.18080166407994,2604,728.5714285714286,59.18080166407994,2710.9,728.5714285714286,59.18080166407994,2814.4,728.5714285714286,-98.31919833592006,2915,728.5714285714286,-98.31919833592006,3015.7,728.5714285714286,-98.31919833592006,3116.2,728.5714285714286,-98.31919833592006,3224.2,728.5714285714286,-98.31919833592006,3330.3,728.5714285714286,-98.31919833592006,3435.3,728.5714285714286,-98.31919833592006,3535.5,728.5714285714286,-98.31919833592006,3644,728.5714285714286,-98.31919833592006,3745.3,728.5714285714286,-98.31919833592006,3852.1,728.5714285714286,-98.31919833592006,3954.3,728.5714285714286,-98.31919833592006,4055,746.0714133126395,-63.42857142857143,4161.5,746.0714133126395,-63.42857142857143,4268.2,746.0714133126395,-63.42857142857143,4369.5,746.0714133126395,-63.42857142857143,4473.7,746.0714133126395,-63.42857142857143,4575,746.0714133126395,-63.42857142857143,4679.7,746.0714133126395,-63.42857142857143,4781.6,1001.0714133126395,122.57142857142857,4884.6,924.5714133126395,266.57142857142856,4988.2]","[8703,8703.1,2811.5,5391.7,499.9,""smooth"",""up"",""up"",""good_move"",12181.3,3477.7,2990,8703.6,487.7,""smooth"",""up"",""up"",""good_move"",22335.3,10153.2,2664.2,19275,396.1,""smooth"",""right"",""right"",""good_move"",25885.6,3549.7,2937.3,22335.9,612.4,""smooth"",""right"",""right"",""good_move""]"
"3016","","<div style=""width:500px;"">
  <p>What determined the result of this run?</p>
  </div>","27","html-slider-response","24","351983","0.0-7.0-1.2","217","1","2025-08-06 19:30:09","36c45c0696341be0efffe67d72a12abb","148.252.144.214","Mozilla/5.0 (Windows NT 10.0; Win64; x64) AppleWebKit/537.36 (KHTML, like Gecko) Chrome/138.0.0.0 Safari/537.36 Edg/138.0.0.0","WebKit","Edge","138.0.0.0","Windows","10.0","https://app.prolific.com/","en-US,en;q=0.9,en-GB;q=0.8,ar;q=0.7,sq;q=0.6","676578b520552faa04a8ef83","6877649eabb845cf142cd221","6893ad33c30ddf83cc021201","1","676578b520552faa04a8ef83","1","2025-08-06T19:36:03.464Z","","","","AttribQ","","","","","","","","","","","50","","","","","","","","","","","","","","","","","","","","","","","","","","",""
"3872","","<div style=""width:500px;"">
  <p>How much control did you have over the ball?</p>
  </div>","87","html-slider-response","25","355858","0.0-7.0-2.2","217","1","2025-08-06 19:30:09","36c45c0696341be0efffe67d72a12abb","148.252.144.214","Mozilla/5.0 (Windows NT 10.0; Win64; x64) AppleWebKit/537.36 (KHTML, like Gecko) Chrome/138.0.0.0 Safari/537.36 Edg/138.0.0.0","WebKit","Edge","138.0.0.0","Windows","10.0","https://app.prolific.com/","en-US,en;q=0.9,en-GB;q=0.8,ar;q=0.7,sq;q=0.6","676578b520552faa04a8ef83","6877649eabb845cf142cd221","6893ad33c30ddf83cc021201","1","676578b520552faa04a8ef83","1","2025-08-06T19:36:07.338Z","","","","ControlQ","","","","","","","","","","","50","","","","","","","","","","","","","","","","","","","","","","","","","","",""
"3053","","<div style=""width:500px;"">
  <p>How would you describe your current emotional state?</p>
  </div>","100","html-slider-response","26","358913","0.0-7.0-3.2","217","1","2025-08-06 19:30:09","36c45c0696341be0efffe67d72a12abb","148.252.144.214","Mozilla/5.0 (Windows NT 10.0; Win64; x64) AppleWebKit/537.36 (KHTML, like Gecko) Chrome/138.0.0.0 Safari/537.36 Edg/138.0.0.0","WebKit","Edge","138.0.0.0","Windows","10.0","https://app.prolific.com/","en-US,en;q=0.9,en-GB;q=0.8,ar;q=0.7,sq;q=0.6","676578b520552faa04a8ef83","6877649eabb845cf142cd221","6893ad33c30ddf83cc021201","1","676578b520552faa04a8ef83","1","2025-08-06T19:36:10.394Z","","","","StressQ","","","","","","","","","","","50","","","","","","","","","","","","","","","","","","","","","","","","","","",""
"2982","","<div style=""width:500px;"">
  <p>What best describes how you currently feel?</p>
  </div>","0","html-slider-response","27","361898","0.0-7.0-4.2","217","1","2025-08-06 19:30:09","36c45c0696341be0efffe67d72a12abb","148.252.144.214","Mozilla/5.0 (Windows NT 10.0; Win64; x64) AppleWebKit/537.36 (KHTML, like Gecko) Chrome/138.0.0.0 Safari/537.36 Edg/138.0.0.0","WebKit","Edge","138.0.0.0","Windows","10.0","https://app.prolific.com/","en-US,en;q=0.9,en-GB;q=0.8,ar;q=0.7,sq;q=0.6","676578b520552faa04a8ef83","6877649eabb845cf142cd221","6893ad33c30ddf83cc021201","1","676578b520552faa04a8ef83","1","2025-08-06T19:36:13.378Z","","","","MotivationQ","","","","","","","","","","","50","","","","","","","","","","","","","","","","","","","","","","","","","","",""
"","","","","ctl-task-cpt","28","381431","0.0-7.0-0.3","217","1","2025-08-06 19:30:09","36c45c0696341be0efffe67d72a12abb","148.252.144.214","Mozilla/5.0 (Windows NT 10.0; Win64; x64) AppleWebKit/537.36 (KHTML, like Gecko) Chrome/138.0.0.0 Safari/537.36 Edg/138.0.0.0","WebKit","Edge","138.0.0.0","Windows","10.0","https://app.prolific.com/","en-US,en;q=0.9,en-GB;q=0.8,ar;q=0.7,sq;q=0.6","676578b520552faa04a8ef83","6877649eabb845cf142cd221","6893ad33c30ddf83cc021201","1","676578b520552faa04a8ef83","1","2025-08-06T19:36:32.911Z","","","","","","","","","","","","","","","","win-only","1","g1:NE,g2:SW","0.7","4","0","368741.9","1395.9","6397","16514.2","1","4","4","6","1","1","1","3","2","0.022727272727272728","1357.6","3000","1720","[""up"",""right""]","{""num_key_presses"":4,""num_perfect"":4,""num_errors"":0,""num_randdir"":0,""num_randdir_good_moves"":0,""num_whilered"":0,""num_whileblue"":0,""num_blue"":0,""num_good_moves"":4}","[324,326.60937309265137,0.6,324,326.60937309265137,101,324,326.60937309265137,201.9,324,326.60937309265137,302.1,324,326.60937309265137,402.7,324,326.60937309265137,507.3,324,326.60937309265137,613.2,324,326.60937309265137,720,363,265.10937309265137,820.2,463.5,173.60937309265137,927.7,549,122.60937309265137,1029.5,598.5,77.60937309265137,1136,603,71.60937309265137,1238.2,603,71.60937309265137,1339.8,603,71.60937309265137,1443.1,603,71.60937309265137,1550.6,603,71.60937309265137,1654.2,603,71.60937309265137,1762.8,603,71.60937309265137,1873.5,603,71.60937309265137,1977.9,603,71.60937309265137,2087.4,603,71.60937309265137,2193.9,603,71.60937309265137,2299.6,603,71.60937309265137,2400.7,603,71.60937309265137,2508.1,603,71.60937309265137,2614.3,603,71.60937309265137,2718.4,603,71.60937309265137,2819.7,603,71.60937309265137,2920.2,603,71.60937309265137,3025.8,603,71.60937309265137,3127.1,603,71.60937309265137,3228.6,603,71.60937309265137,3330.3,603,71.60937309265137,3430.3,603,71.60937309265137,3538.5,603,71.60937309265137,3644.6,603,71.60937309265137,3745.7,603,71.60937309265137,3847.1,603,71.60937309265137,3954.4,603,71.60937309265137,4058.2,603,71.60937309265137,4160.8,603,71.60937309265137,4261.4,603,71.60937309265137,4361.4,603,71.60937309265137,4465.1,603,71.60937309265137,4569.6,603,71.60937309265137,4670.8,603,71.60937309265137,4778,603,71.60937309265137,4878.4,603,71.60937309265137,4987]","[1567.8,1567.8,1000,0,567.8,""smooth"",""up"",""up"",""good_move"",4063.3,2494.8,2099.3,1568.6,395.5,""smooth"",""up"",""up"",""good_move"",7422.1,3358.4,2944.9,4063.7,413.5,""smooth"",""right"",""right"",""good_move"",9975.7,2553.1,2153.1,7422.6,400,""smooth"",""right"",""right"",""good_move""]"
"6139","","<div style=""width:500px;"">
  <p>What determined the result of this run?</p>
  </div>","22","html-slider-response","29","387573","0.0-7.0-1.3","217","1","2025-08-06 19:30:09","36c45c0696341be0efffe67d72a12abb","148.252.144.214","Mozilla/5.0 (Windows NT 10.0; Win64; x64) AppleWebKit/537.36 (KHTML, like Gecko) Chrome/138.0.0.0 Safari/537.36 Edg/138.0.0.0","WebKit","Edge","138.0.0.0","Windows","10.0","https://app.prolific.com/","en-US,en;q=0.9,en-GB;q=0.8,ar;q=0.7,sq;q=0.6","676578b520552faa04a8ef83","6877649eabb845cf142cd221","6893ad33c30ddf83cc021201","1","676578b520552faa04a8ef83","1","2025-08-06T19:36:39.053Z","","","","AttribQ","","","","","","","","","","","50","","","","","","","","","","","","","","","","","","","","","","","","","","",""
"4082","","<div style=""width:500px;"">
  <p>How much control did you have over the ball?</p>
  </div>","75","html-slider-response","30","391656","0.0-7.0-2.3","217","1","2025-08-06 19:30:09","36c45c0696341be0efffe67d72a12abb","148.252.144.214","Mozilla/5.0 (Windows NT 10.0; Win64; x64) AppleWebKit/537.36 (KHTML, like Gecko) Chrome/138.0.0.0 Safari/537.36 Edg/138.0.0.0","WebKit","Edge","138.0.0.0","Windows","10.0","https://app.prolific.com/","en-US,en;q=0.9,en-GB;q=0.8,ar;q=0.7,sq;q=0.6","676578b520552faa04a8ef83","6877649eabb845cf142cd221","6893ad33c30ddf83cc021201","1","676578b520552faa04a8ef83","1","2025-08-06T19:36:43.136Z","","","","ControlQ","","","","","","","","","","","50","","","","","","","","","","","","","","","","","","","","","","","","","","",""
"3216","","<div style=""width:500px;"">
  <p>How would you describe your current emotional state?</p>
  </div>","97","html-slider-response","31","394874","0.0-7.0-3.3","217","1","2025-08-06 19:30:09","36c45c0696341be0efffe67d72a12abb","148.252.144.214","Mozilla/5.0 (Windows NT 10.0; Win64; x64) AppleWebKit/537.36 (KHTML, like Gecko) Chrome/138.0.0.0 Safari/537.36 Edg/138.0.0.0","WebKit","Edge","138.0.0.0","Windows","10.0","https://app.prolific.com/","en-US,en;q=0.9,en-GB;q=0.8,ar;q=0.7,sq;q=0.6","676578b520552faa04a8ef83","6877649eabb845cf142cd221","6893ad33c30ddf83cc021201","1","676578b520552faa04a8ef83","1","2025-08-06T19:36:46.354Z","","","","StressQ","","","","","","","","","","","50","","","","","","","","","","","","","","","","","","","","","","","","","","",""
"3781","","<div style=""width:500px;"">
  <p>What best describes how you currently feel?</p>
  </div>","5","html-slider-response","32","398658","0.0-7.0-4.3","217","1","2025-08-06 19:30:09","36c45c0696341be0efffe67d72a12abb","148.252.144.214","Mozilla/5.0 (Windows NT 10.0; Win64; x64) AppleWebKit/537.36 (KHTML, like Gecko) Chrome/138.0.0.0 Safari/537.36 Edg/138.0.0.0","WebKit","Edge","138.0.0.0","Windows","10.0","https://app.prolific.com/","en-US,en;q=0.9,en-GB;q=0.8,ar;q=0.7,sq;q=0.6","676578b520552faa04a8ef83","6877649eabb845cf142cd221","6893ad33c30ddf83cc021201","1","676578b520552faa04a8ef83","1","2025-08-06T19:36:50.138Z","","","","MotivationQ","","","","","","","","","","","50","","","","","","","","","","","","","","","","","","","","","","","","","","",""
"","","","","ctl-task-cpt","33","419979","0.0-7.0-0.4","217","1","2025-08-06 19:30:09","36c45c0696341be0efffe67d72a12abb","148.252.144.214","Mozilla/5.0 (Windows NT 10.0; Win64; x64) AppleWebKit/537.36 (KHTML, like Gecko) Chrome/138.0.0.0 Safari/537.36 Edg/138.0.0.0","WebKit","Edge","138.0.0.0","Windows","10.0","https://app.prolific.com/","en-US,en;q=0.9,en-GB;q=0.8,ar;q=0.7,sq;q=0.6","676578b520552faa04a8ef83","6877649eabb845cf142cd221","6893ad33c30ddf83cc021201","1","676578b520552faa04a8ef83","1","2025-08-06T19:37:11.459Z","","","","","","","","","","","","","","","","win-only","0","g1:NW,g2:SE","0.6","5","0","405500.9","2366.8","7376.3","18305.4","1","4","4","6","1","1","1","4","3","0.030303030303030304","1266.2","3000","1645","[""left"",""up""]","{""num_key_presses"":4,""num_perfect"":3,""num_errors"":0,""num_randdir"":1,""num_randdir_good_moves"":1,""num_whilered"":0,""num_whileblue"":0,""num_blue"":0,""num_good_moves"":4}","[330,332.60937309265137,0.4,330,332.60937309265137,100.2,330,332.60937309265137,202.3,330,332.60937309265137,308.6,330,332.60937309265137,413.5,330,332.60937309265137,516.8,330,332.60937309265137,625.6,162,269.60937309265137,732.2,28.5,113.60937309265137,839.7,21,89.60937309265137,940.3,48,79.10937309265137,1044.7,54,77.60937309265137,1147.6,54,77.60937309265137,1252.6,54,77.60937309265137,1357.4,54,77.60937309265137,1460.6,54,77.60937309265137,1568,54,77.60937309265137,1673.4,54,77.60937309265137,1777.1,54,77.60937309265137,1878,54,77.60937309265137,1985.8,54,77.60937309265137,2092.8,54,77.60937309265137,2201.3,54,77.60937309265137,2307,54,77.60937309265137,2408.4,54,77.60937309265137,2509.4,54,77.60937309265137,2610.3,54,77.60937309265137,2716.8,54,77.60937309265137,2817.8,54,77.60937309265137,2919.3,54,77.60937309265137,3029.6,54,77.60937309265137,3132.9,54,77.60937309265137,3233.8,54,77.60937309265137,3334.6,54,77.60937309265137,3442.4,54,77.60937309265137,3543.6,54,77.60937309265137,3644.4,54,77.60937309265137,3750.1,54,77.60937309265137,3860.1,54,77.60937309265137,3962.5,54,77.60937309265137,4063.8,54,77.60937309265137,4167.5,54,77.60937309265137,4275.3,54,77.60937309265137,4375.7,54,77.60937309265137,4476.6,54,77.60937309265137,4576.9,54,77.60937309265137,4684.2,54,77.60937309265137,4784.4,54,77.60937309265137,4884.4,54,77.60937309265137,4992.4]","[1529.3,1529.3,1000,0,529.3,""oops"",""left"",""up"",""good_move"",4944.8,3415.1,3024.6,1529.7,390.5,""smooth"",""left"",""left"",""good_move"",7691,2745.8,2374.4,4945.2,371.4,""smooth"",""left"",""left"",""good_move"",10814.3,3122.9,2720.2,7691.4,402.7,""smooth"",""up"",""up"",""good_move""]"
"3718","","<div style=""width:500px;"">
  <p>What determined the result of this run?</p>
  </div>","19","html-slider-response","34","423700","0.0-7.0-1.4","217","1","2025-08-06 19:30:09","36c45c0696341be0efffe67d72a12abb","148.252.144.214","Mozilla/5.0 (Windows NT 10.0; Win64; x64) AppleWebKit/537.36 (KHTML, like Gecko) Chrome/138.0.0.0 Safari/537.36 Edg/138.0.0.0","WebKit","Edge","138.0.0.0","Windows","10.0","https://app.prolific.com/","en-US,en;q=0.9,en-GB;q=0.8,ar;q=0.7,sq;q=0.6","676578b520552faa04a8ef83","6877649eabb845cf142cd221","6893ad33c30ddf83cc021201","1","676578b520552faa04a8ef83","1","2025-08-06T19:37:15.180Z","","","","AttribQ","","","","","","","","","","","50","","","","","","","","","","","","","","","","","","","","","","","","","","",""
"4501","","<div style=""width:500px;"">
  <p>How much control did you have over the ball?</p>
  </div>","73","html-slider-response","35","428203","0.0-7.0-2.4","217","1","2025-08-06 19:30:09","36c45c0696341be0efffe67d72a12abb","148.252.144.214","Mozilla/5.0 (Windows NT 10.0; Win64; x64) AppleWebKit/537.36 (KHTML, like Gecko) Chrome/138.0.0.0 Safari/537.36 Edg/138.0.0.0","WebKit","Edge","138.0.0.0","Windows","10.0","https://app.prolific.com/","en-US,en;q=0.9,en-GB;q=0.8,ar;q=0.7,sq;q=0.6","676578b520552faa04a8ef83","6877649eabb845cf142cd221","6893ad33c30ddf83cc021201","1","676578b520552faa04a8ef83","1","2025-08-06T19:37:19.684Z","","","","ControlQ","","","","","","","","","","","50","","","","","","","","","","","","","","","","","","","","","","","","","","",""
"3824","","<div style=""width:500px;"">
  <p>How would you describe your current emotional state?</p>
  </div>","99","html-slider-response","36","432030","0.0-7.0-3.4","217","1","2025-08-06 19:30:09","36c45c0696341be0efffe67d72a12abb","148.252.144.214","Mozilla/5.0 (Windows NT 10.0; Win64; x64) AppleWebKit/537.36 (KHTML, like Gecko) Chrome/138.0.0.0 Safari/537.36 Edg/138.0.0.0","WebKit","Edge","138.0.0.0","Windows","10.0","https://app.prolific.com/","en-US,en;q=0.9,en-GB;q=0.8,ar;q=0.7,sq;q=0.6","676578b520552faa04a8ef83","6877649eabb845cf142cd221","6893ad33c30ddf83cc021201","1","676578b520552faa04a8ef83","1","2025-08-06T19:37:23.510Z","","","","StressQ","","","","","","","","","","","50","","","","","","","","","","","","","","","","","","","","","","","","","","",""
"3001","","<div style=""width:500px;"">
  <p>What best describes how you currently feel?</p>
  </div>","0","html-slider-response","37","435033","0.0-7.0-4.4","217","1","2025-08-06 19:30:09","36c45c0696341be0efffe67d72a12abb","148.252.144.214","Mozilla/5.0 (Windows NT 10.0; Win64; x64) AppleWebKit/537.36 (KHTML, like Gecko) Chrome/138.0.0.0 Safari/537.36 Edg/138.0.0.0","WebKit","Edge","138.0.0.0","Windows","10.0","https://app.prolific.com/","en-US,en;q=0.9,en-GB;q=0.8,ar;q=0.7,sq;q=0.6","676578b520552faa04a8ef83","6877649eabb845cf142cd221","6893ad33c30ddf83cc021201","1","676578b520552faa04a8ef83","1","2025-08-06T19:37:26.513Z","","","","MotivationQ","","","","","","","","","","","50","","","","","","","","","","","","","","","","","","","","","","","","","","",""
"","","","","ctl-task-cpt","38","470174","0.0-7.0-0.5","217","1","2025-08-06 19:30:09","36c45c0696341be0efffe67d72a12abb","148.252.144.214","Mozilla/5.0 (Windows NT 10.0; Win64; x64) AppleWebKit/537.36 (KHTML, like Gecko) Chrome/138.0.0.0 Safari/537.36 Edg/138.0.0.0","WebKit","Edge","138.0.0.0","Windows","10.0","https://app.prolific.com/","en-US,en;q=0.9,en-GB;q=0.8,ar;q=0.7,sq;q=0.6","676578b520552faa04a8ef83","6877649eabb845cf142cd221","6893ad33c30ddf83cc021201","1","676578b520552faa04a8ef83","1","2025-08-06T19:38:01.655Z","","","","","","","","","","","","","","","","win-only","3","g1:SW,g2:NE","0.5","6","0","441876.4","2669.5","7679.4","32124.4","1","4","8","6","1","-1","-2","2","4","0.015151515151515152","1360.8","3000","-1950","[""down"",""left""]","{""num_key_presses"":8,""num_perfect"":3,""num_errors"":1,""num_randdir"":4,""num_randdir_good_moves"":1,""num_whilered"":0,""num_whileblue"":1,""num_blue"":1,""num_good_moves"":4}","[327,316.10937309265137,0.6,327,316.10937309265137,101,327,316.10937309265137,205.2,327,316.10937309265137,307.8,327,316.10937309265137,411.1,327,316.10937309265137,511.8,327,316.10937309265137,620.5,327,316.10937309265137,731.5,142.5,449.60937309265137,835.6,81,487.10937309265137,941.6,69,515.6093730926514,1044.1,54,572.6093730926514,1151.7,54,581.6093730926514,1263.7,54,581.6093730926514,1369,54,581.6093730926514,1474.3,54,581.6093730926514,1593.2,54,581.6093730926514,1693.9,54,581.6093730926514,1797.4,54,581.6093730926514,1901.7,54,581.6093730926514,2006.4,198,557.6093730926514,2109.4,399,500.60937309265137,2217.8,444,491.60937309265137,2318.5,444,491.60937309265137,2419.7,444,491.60937309265137,2531.2,444,491.60937309265137,2636.7,444,491.60937309265137,2737.8,444,491.60937309265137,2844.1,444,491.60937309265137,2948.8,444,491.60937309265137,3057.5,444,491.60937309265137,3161.7,444,491.60937309265137,3270.7,444,491.60937309265137,3371.1,444,491.60937309265137,3471.2,444,491.60937309265137,3576.8,444,491.60937309265137,3676.8,444,491.60937309265137,3784.4,444,491.60937309265137,3889.9,444,491.60937309265137,3995.2,444,491.60937309265137,4100.1,444,491.60937309265137,4206.5,444,491.60937309265137,4309.1,444,491.60937309265137,4411.2,444,491.60937309265137,4513.3,444,491.60937309265137,4613.3,444,491.60937309265137,4718.1,444,491.60937309265137,4819.6,444,491.60937309265137,4921.4]","[1506.7,1506.7,1000,0,506.7,""smooth"",""down"",""down"",""good_move"",4091.6,2584.3,2171.4,1507.3,412.9,""smooth"",""down"",""down"",""good_move"",6874.5,2782.4,2411.9,4092.1,370.5,""oops"",""left"",""right"",""bad_move"",8775.3,1900.5,1436.6,6874.8,463.9,""smooth"",""left"",""left"",""good_move"",12284.7,3509,3128,8775.7,381,""oops"",""left"",""up"",""bad_move"",14646.2,2360.3,2013.7,12286,346.5,""while_blue"",""left"",""right"",""bad_move"",17644,2996.9,2601.9,14647.2,394.9,""oops"",""left"",""right"",""bad_move"",20415.4,2771.2,2373.5,17644.2,397.7,""oops"",""left"",""left"",""good_move""]"
"4246","","<div style=""width:500px;"">
  <p>What determined the result of this run?</p>
  </div>","6","html-slider-response","39","474422","0.0-7.0-1.5","217","1","2025-08-06 19:30:09","36c45c0696341be0efffe67d72a12abb","148.252.144.214","Mozilla/5.0 (Windows NT 10.0; Win64; x64) AppleWebKit/537.36 (KHTML, like Gecko) Chrome/138.0.0.0 Safari/537.36 Edg/138.0.0.0","WebKit","Edge","138.0.0.0","Windows","10.0","https://app.prolific.com/","en-US,en;q=0.9,en-GB;q=0.8,ar;q=0.7,sq;q=0.6","676578b520552faa04a8ef83","6877649eabb845cf142cd221","6893ad33c30ddf83cc021201","1","676578b520552faa04a8ef83","1","2025-08-06T19:38:05.903Z","","","","AttribQ","","","","","","","","","","","50","","","","","","","","","","","","","","","","","","","","","","","","","","",""
"5352","","<div style=""width:500px;"">
  <p>How much control did you have over the ball?</p>
  </div>","22","html-slider-response","40","479778","0.0-7.0-2.5","217","1","2025-08-06 19:30:09","36c45c0696341be0efffe67d72a12abb","148.252.144.214","Mozilla/5.0 (Windows NT 10.0; Win64; x64) AppleWebKit/537.36 (KHTML, like Gecko) Chrome/138.0.0.0 Safari/537.36 Edg/138.0.0.0","WebKit","Edge","138.0.0.0","Windows","10.0","https://app.prolific.com/","en-US,en;q=0.9,en-GB;q=0.8,ar;q=0.7,sq;q=0.6","676578b520552faa04a8ef83","6877649eabb845cf142cd221","6893ad33c30ddf83cc021201","1","676578b520552faa04a8ef83","1","2025-08-06T19:38:11.258Z","","","","ControlQ","","","","","","","","","","","50","","","","","","","","","","","","","","","","","","","","","","","","","","",""
"2970","","<div style=""width:500px;"">
  <p>How would you describe your current emotional state?</p>
  </div>","96","html-slider-response","41","482750","0.0-7.0-3.5","217","1","2025-08-06 19:30:09","36c45c0696341be0efffe67d72a12abb","148.252.144.214","Mozilla/5.0 (Windows NT 10.0; Win64; x64) AppleWebKit/537.36 (KHTML, like Gecko) Chrome/138.0.0.0 Safari/537.36 Edg/138.0.0.0","WebKit","Edge","138.0.0.0","Windows","10.0","https://app.prolific.com/","en-US,en;q=0.9,en-GB;q=0.8,ar;q=0.7,sq;q=0.6","676578b520552faa04a8ef83","6877649eabb845cf142cd221","6893ad33c30ddf83cc021201","1","676578b520552faa04a8ef83","1","2025-08-06T19:38:14.230Z","","","","StressQ","","","","","","","","","","","50","","","","","","","","","","","","","","","","","","","","","","","","","","",""
"2362","","<div style=""width:500px;"">
  <p>What best describes how you currently feel?</p>
  </div>","3","html-slider-response","42","485115","0.0-7.0-4.5","217","1","2025-08-06 19:30:09","36c45c0696341be0efffe67d72a12abb","148.252.144.214","Mozilla/5.0 (Windows NT 10.0; Win64; x64) AppleWebKit/537.36 (KHTML, like Gecko) Chrome/138.0.0.0 Safari/537.36 Edg/138.0.0.0","WebKit","Edge","138.0.0.0","Windows","10.0","https://app.prolific.com/","en-US,en;q=0.9,en-GB;q=0.8,ar;q=0.7,sq;q=0.6","676578b520552faa04a8ef83","6877649eabb845cf142cd221","6893ad33c30ddf83cc021201","1","676578b520552faa04a8ef83","1","2025-08-06T19:38:16.595Z","","","","MotivationQ","","","","","","","","","","","50","","","","","","","","","","","","","","","","","","","","","","","","","","",""
"","","","","ctl-task-cpt","43","517507","0.0-7.0-0.6","217","1","2025-08-06 19:30:09","36c45c0696341be0efffe67d72a12abb","148.252.144.214","Mozilla/5.0 (Windows NT 10.0; Win64; x64) AppleWebKit/537.36 (KHTML, like Gecko) Chrome/138.0.0.0 Safari/537.36 Edg/138.0.0.0","WebKit","Edge","138.0.0.0","Windows","10.0","https://app.prolific.com/","en-US,en;q=0.9,en-GB;q=0.8,ar;q=0.7,sq;q=0.6","676578b520552faa04a8ef83","6877649eabb845cf142cd221","6893ad33c30ddf83cc021201","1","676578b520552faa04a8ef83","1","2025-08-06T19:38:48.988Z","","","","","","","","","","","","","","","","win-only","1","g1:NE,g2:SW","0.4","7","0","491957.9","2017","7027.8","29380.7","1","4","4","6","1","1","1","3","2","0.022727272727272728","1231.1","3000","595","[""up"",""right""]","{""num_key_presses"":8,""num_perfect"":2,""num_errors"":0,""num_randdir"":6,""num_randdir_good_moves"":4,""num_whilered"":0,""num_whileblue"":0,""num_blue"":0,""num_good_moves"":6}","[324,326.60937309265137,0.3,324,326.60937309265137,104.6,324,326.60937309265137,207.5,324,326.60937309265137,309.9,324,326.60937309265137,413.6,324,326.60937309265137,514,324,326.60937309265137,619.4,324,326.60937309265137,719.8,474,173.60937309265137,825.1,540,112.10937309265137,930.1,579,80.60937309265137,1031.5,597,71.60937309265137,1140.7,597,71.60937309265137,1243.4,597,71.60937309265137,1344,597,71.60937309265137,1448.1,597,71.60937309265137,1551.9,597,71.60937309265137,1654.6,597,71.60937309265137,1764.5,597,71.60937309265137,1873.8,597,71.60937309265137,1979.2,597,71.60937309265137,2083.4,597,71.60937309265137,2192,597,71.60937309265137,2300.4,597,71.60937309265137,2410.2,597,71.60937309265137,2516,597,71.60937309265137,2629.4,597,71.60937309265137,2731.6,597,71.60937309265137,2839.8,597,71.60937309265137,2948.6,597,71.60937309265137,3053.1,597,71.60937309265137,3158.9,597,71.60937309265137,3267.3,597,71.60937309265137,3373.5,597,71.60937309265137,3475.5,597,71.60937309265137,3580.3,597,71.60937309265137,3683.6,597,71.60937309265137,3791,597,71.60937309265137,3893.4,597,71.60937309265137,3997.8,597,71.60937309265137,4099.9,597,71.60937309265137,4203.2,597,71.60937309265137,4304.9,597,71.60937309265137,4409.7,597,71.60937309265137,4517.5,597,71.60937309265137,4622.9,597,71.60937309265137,4725.3,597,71.60937309265137,4825.7,597,71.60937309265137,4932.1]","[1498,1498,1000,0,498,""oops"",""up"",""left"",""bad_move"",4411.9,2913.2,2541.6,1498.7,371.6,""oops"",""up"",""right"",""good_move"",8223.5,3811,3376.1,4412.5,434.9,""oops"",""up"",""up"",""good_move"",10501.9,2277.9,1748.4,8224,529.5,""oops"",""up"",""right"",""good_move"",13231.4,2729.2,2367.3,10502.2,361.9,""oops"",""up"",""down"",""bad_move"",16568.8,3336.5,2978,13232.3,358.5,""smooth"",""up"",""up"",""good_move"",18977.4,2408.3,1887.6,16569.1,520.7,""smooth"",""up"",""up"",""good_move"",22208.3,3230.5,2833.9,18977.8,396.6,""oops"",""right"",""right"",""good_move""]"
"3189","","<div style=""width:500px;"">
  <p>What determined the result of this run?</p>
  </div>","26","html-slider-response","44","520699","0.0-7.0-1.6","217","1","2025-08-06 19:30:09","36c45c0696341be0efffe67d72a12abb","148.252.144.214","Mozilla/5.0 (Windows NT 10.0; Win64; x64) AppleWebKit/537.36 (KHTML, like Gecko) Chrome/138.0.0.0 Safari/537.36 Edg/138.0.0.0","WebKit","Edge","138.0.0.0","Windows","10.0","https://app.prolific.com/","en-US,en;q=0.9,en-GB;q=0.8,ar;q=0.7,sq;q=0.6","676578b520552faa04a8ef83","6877649eabb845cf142cd221","6893ad33c30ddf83cc021201","1","676578b520552faa04a8ef83","1","2025-08-06T19:38:52.179Z","","","","AttribQ","","","","","","","","","","","50","","","","","","","","","","","","","","","","","","","","","","","","","","",""
"7803","","<div style=""width:500px;"">
  <p>How much control did you have over the ball?</p>
  </div>","16","html-slider-response","45","528505","0.0-7.0-2.6","217","1","2025-08-06 19:30:09","36c45c0696341be0efffe67d72a12abb","148.252.144.214","Mozilla/5.0 (Windows NT 10.0; Win64; x64) AppleWebKit/537.36 (KHTML, like Gecko) Chrome/138.0.0.0 Safari/537.36 Edg/138.0.0.0","WebKit","Edge","138.0.0.0","Windows","10.0","https://app.prolific.com/","en-US,en;q=0.9,en-GB;q=0.8,ar;q=0.7,sq;q=0.6","676578b520552faa04a8ef83","6877649eabb845cf142cd221","6893ad33c30ddf83cc021201","1","676578b520552faa04a8ef83","1","2025-08-06T19:38:59.986Z","","","","ControlQ","","","","","","","","","","","50","","","","","","","","","","","","","","","","","","","","","","","","","","",""
"3385","","<div style=""width:500px;"">
  <p>How would you describe your current emotional state?</p>
  </div>","96","html-slider-response","46","531895","0.0-7.0-3.6","217","1","2025-08-06 19:30:09","36c45c0696341be0efffe67d72a12abb","148.252.144.214","Mozilla/5.0 (Windows NT 10.0; Win64; x64) AppleWebKit/537.36 (KHTML, like Gecko) Chrome/138.0.0.0 Safari/537.36 Edg/138.0.0.0","WebKit","Edge","138.0.0.0","Windows","10.0","https://app.prolific.com/","en-US,en;q=0.9,en-GB;q=0.8,ar;q=0.7,sq;q=0.6","676578b520552faa04a8ef83","6877649eabb845cf142cd221","6893ad33c30ddf83cc021201","1","676578b520552faa04a8ef83","1","2025-08-06T19:39:03.375Z","","","","StressQ","","","","","","","","","","","50","","","","","","","","","","","","","","","","","","","","","","","","","","",""
"3094","","<div style=""width:500px;"">
  <p>What best describes how you currently feel?</p>
  </div>","7","html-slider-response","47","534993","0.0-7.0-4.6","217","1","2025-08-06 19:30:09","36c45c0696341be0efffe67d72a12abb","148.252.144.214","Mozilla/5.0 (Windows NT 10.0; Win64; x64) AppleWebKit/537.36 (KHTML, like Gecko) Chrome/138.0.0.0 Safari/537.36 Edg/138.0.0.0","WebKit","Edge","138.0.0.0","Windows","10.0","https://app.prolific.com/","en-US,en;q=0.9,en-GB;q=0.8,ar;q=0.7,sq;q=0.6","676578b520552faa04a8ef83","6877649eabb845cf142cd221","6893ad33c30ddf83cc021201","1","676578b520552faa04a8ef83","1","2025-08-06T19:39:06.474Z","","","","MotivationQ","","","","","","","","","","","50","","","","","","","","","","","","","","","","","","","","","","","","","","",""
"","","","","ctl-task-cpt","48","576199","0.0-7.0-0.7","217","1","2025-08-06 19:30:09","36c45c0696341be0efffe67d72a12abb","148.252.144.214","Mozilla/5.0 (Windows NT 10.0; Win64; x64) AppleWebKit/537.36 (KHTML, like Gecko) Chrome/138.0.0.0 Safari/537.36 Edg/138.0.0.0","WebKit","Edge","138.0.0.0","Windows","10.0","https://app.prolific.com/","en-US,en;q=0.9,en-GB;q=0.8,ar;q=0.7,sq;q=0.6","676578b520552faa04a8ef83","6877649eabb845cf142cd221","6893ad33c30ddf83cc021201","1","676578b520552faa04a8ef83","1","2025-08-06T19:39:47.679Z","","","","","","","","","","","","","","","","win-only","3","g1:SW,g2:NE","0.3","8","0","541841.5","1409.2","6417.5","38179.5","1","4","8","6","1","1","-1","2","3","0.015151515151515152","1118.2","3000","660","[""down"",""left""]","{""num_key_presses"":10,""num_perfect"":2,""num_errors"":2,""num_randdir"":6,""num_randdir_good_moves"":3,""num_whilered"":0,""num_whileblue"":2,""num_blue"":3,""num_good_moves"":7}","[330,320.60937309265137,0.6,330,320.60937309265137,106.7,330,320.60937309265137,208.2,330,320.60937309265137,319.2,330,320.60937309265137,424.3,330,320.60937309265137,530.3,330,320.60937309265137,632.2,174,448.10937309265137,733.5,49.5,626.6093730926514,835.3,48,626.6093730926514,945.3,48,626.6093730926514,1050.3,48,626.6093730926514,1160.5,48,626.6093730926514,1264.5,48,626.6093730926514,1371.8,48,626.6093730926514,1472.3,48,626.6093730926514,1575.4,48,626.6093730926514,1677.6,48,626.6093730926514,1785.7,48,626.6093730926514,1886.8,48,626.6093730926514,1989.9,48,626.6093730926514,2091.3,48,626.6093730926514,2197,48,626.6093730926514,2301.6,48,626.6093730926514,2412.6,48,626.6093730926514,2518.1,48,626.6093730926514,2624,48,626.6093730926514,2727.4,48,626.6093730926514,2830.4,48,626.6093730926514,2931.8,48,626.6093730926514,3038.5,48,626.6093730926514,3140,48,626.6093730926514,3242,48,626.6093730926514,3343.7,48,626.6093730926514,3448.4,48,626.6093730926514,3551.3,48,626.6093730926514,3658.6,48,626.6093730926514,3760.6,48,626.6093730926514,3866.3,48,626.6093730926514,3968.8,48,626.6093730926514,4075.8,48,626.6093730926514,4176.5,48,626.6093730926514,4281.4,48,626.6093730926514,4384.8,48,626.6093730926514,4491.4,48,626.6093730926514,4591.6,48,626.6093730926514,4699.7,48,626.6093730926514,4799.8,48,626.6093730926514,4903.1]","[1441,1441,1000,0,441,""oops"",""down"",""right"",""bad_move"",4033.7,2591.9,2174.7,1441.8,417.2,""oops"",""down"",""down"",""good_move"",10034.8,6000.7,2890.2,6789.3,355.3,""smooth"",""down"",""down"",""good_move"",12775,2739.8,2367.1,10035.2,372.7,""smooth"",""left"",""left"",""good_move"",16073.4,3297.9,2860.1,12775.6,437.7,""oops"",""left"",""right"",""bad_move"",19572.4,3498.3,3096.3,16074.1,402,""oops"",""left"",""up"",""bad_move"",22625.5,3052.6,2723.3,19572.9,329.3,""while_blue"",""left"",""left"",""good_move"",26254.3,3627.6,2776.6,22626.7,851,""oops"",""left"",""left"",""good_move"",28562.9,2308.4,1911.5,26254.5,396.9,""oops"",""left"",""down"",""good_move"",31628.9,3065.5,2741.1,28563.4,324.4,""while_blue"",""left"",""left"",""good_move""]"
"4555","","<div style=""width:500px;"">
  <p>What determined the result of this run?</p>
  </div>","24","html-slider-response","49","580756","0.0-7.0-1.7","217","1","2025-08-06 19:30:09","36c45c0696341be0efffe67d72a12abb","148.252.144.214","Mozilla/5.0 (Windows NT 10.0; Win64; x64) AppleWebKit/537.36 (KHTML, like Gecko) Chrome/138.0.0.0 Safari/537.36 Edg/138.0.0.0","WebKit","Edge","138.0.0.0","Windows","10.0","https://app.prolific.com/","en-US,en;q=0.9,en-GB;q=0.8,ar;q=0.7,sq;q=0.6","676578b520552faa04a8ef83","6877649eabb845cf142cd221","6893ad33c30ddf83cc021201","1","676578b520552faa04a8ef83","1","2025-08-06T19:39:52.236Z","","","","AttribQ","","","","","","","","","","","50","","","","","","","","","","","","","","","","","","","","","","","","","","",""
"2921","","<div style=""width:500px;"">
  <p>How much control did you have over the ball?</p>
  </div>","34","html-slider-response","50","583680","0.0-7.0-2.7","217","1","2025-08-06 19:30:09","36c45c0696341be0efffe67d72a12abb","148.252.144.214","Mozilla/5.0 (Windows NT 10.0; Win64; x64) AppleWebKit/537.36 (KHTML, like Gecko) Chrome/138.0.0.0 Safari/537.36 Edg/138.0.0.0","WebKit","Edge","138.0.0.0","Windows","10.0","https://app.prolific.com/","en-US,en;q=0.9,en-GB;q=0.8,ar;q=0.7,sq;q=0.6","676578b520552faa04a8ef83","6877649eabb845cf142cd221","6893ad33c30ddf83cc021201","1","676578b520552faa04a8ef83","1","2025-08-06T19:39:55.160Z","","","","ControlQ","","","","","","","","","","","50","","","","","","","","","","","","","","","","","","","","","","","","","","",""
"2890","","<div style=""width:500px;"">
  <p>How would you describe your current emotional state?</p>
  </div>","100","html-slider-response","51","586572","0.0-7.0-3.7","217","1","2025-08-06 19:30:09","36c45c0696341be0efffe67d72a12abb","148.252.144.214","Mozilla/5.0 (Windows NT 10.0; Win64; x64) AppleWebKit/537.36 (KHTML, like Gecko) Chrome/138.0.0.0 Safari/537.36 Edg/138.0.0.0","WebKit","Edge","138.0.0.0","Windows","10.0","https://app.prolific.com/","en-US,en;q=0.9,en-GB;q=0.8,ar;q=0.7,sq;q=0.6","676578b520552faa04a8ef83","6877649eabb845cf142cd221","6893ad33c30ddf83cc021201","1","676578b520552faa04a8ef83","1","2025-08-06T19:39:58.052Z","","","","StressQ","","","","","","","","","","","50","","","","","","","","","","","","","","","","","","","","","","","","","","",""
"2980","","<div style=""width:500px;"">
  <p>What best describes how you currently feel?</p>
  </div>","0","html-slider-response","52","589554","0.0-7.0-4.7","217","1","2025-08-06 19:30:09","36c45c0696341be0efffe67d72a12abb","148.252.144.214","Mozilla/5.0 (Windows NT 10.0; Win64; x64) AppleWebKit/537.36 (KHTML, like Gecko) Chrome/138.0.0.0 Safari/537.36 Edg/138.0.0.0","WebKit","Edge","138.0.0.0","Windows","10.0","https://app.prolific.com/","en-US,en;q=0.9,en-GB;q=0.8,ar;q=0.7,sq;q=0.6","676578b520552faa04a8ef83","6877649eabb845cf142cd221","6893ad33c30ddf83cc021201","1","676578b520552faa04a8ef83","1","2025-08-06T19:40:01.035Z","","","","MotivationQ","","","","","","","","","","","50","","","","","","","","","","","","","","","","","","","","","","","","","","",""
"","","","","ctl-task-cpt","53","629222","0.0-7.0-0.8","217","1","2025-08-06 19:30:09","36c45c0696341be0efffe67d72a12abb","148.252.144.214","Mozilla/5.0 (Windows NT 10.0; Win64; x64) AppleWebKit/537.36 (KHTML, like Gecko) Chrome/138.0.0.0 Safari/537.36 Edg/138.0.0.0","WebKit","Edge","138.0.0.0","Windows","10.0","https://app.prolific.com/","en-US,en;q=0.9,en-GB;q=0.8,ar;q=0.7,sq;q=0.6","676578b520552faa04a8ef83","6877649eabb845cf142cd221","6893ad33c30ddf83cc021201","1","676578b520552faa04a8ef83","1","2025-08-06T19:40:40.702Z","","","","","","","","","","","","","","","","win-only","3","g1:SW,g2:NE","0.4","9","0","596397.7","1895.5","6898.6","36659.2","1","4","8","6","1","-1","-1","1","2","0.007575757575757576","1259.1","3000","-2100","[""down"",""left""]","{""num_key_presses"":6,""num_perfect"":2,""num_errors"":0,""num_randdir"":4,""num_randdir_good_moves"":1,""num_whilered"":0,""num_whileblue"":0,""num_blue"":2,""num_good_moves"":3}","[321,317.60937309265137,0.3,321,317.60937309265137,102.1,321,317.60937309265137,213.4,321,317.60937309265137,315.4,321,317.60937309265137,420.8,321,317.60937309265137,521.7,321,317.60937309265137,626.4,202.5,410.60937309265137,728.7,109.5,491.60937309265137,831.2,85.5,527.6093730926514,935.7,81,557.6093730926514,1039.8,75,581.6093730926514,1140.8,75,581.6093730926514,1244.8,75,581.6093730926514,1344.9,75,581.6093730926514,1448.8,75,581.6093730926514,1551.4,75,581.6093730926514,1657,75,581.6093730926514,1767,75,581.6093730926514,1875.6,75,581.6093730926514,1981.7,75,581.6093730926514,2088.2,75,581.6093730926514,2192.7,75,581.6093730926514,2299.7,75,581.6093730926514,2400.5,75,581.6093730926514,2501.2,75,581.6093730926514,2608.5,75,581.6093730926514,2717.4,75,581.6093730926514,2829.7,75,581.6093730926514,2937.9,75,581.6093730926514,3040,75,581.6093730926514,3143.8,75,581.6093730926514,3244.8,75,581.6093730926514,3345.9,75,581.6093730926514,3447.3,75,581.6093730926514,3549.5,75,581.6093730926514,3656.1,75,581.6093730926514,3762.9,75,581.6093730926514,3866.4,75,581.6093730926514,3974.8,75,581.6093730926514,4075.2,75,581.6093730926514,4188.3,75,581.6093730926514,4296.8,75,581.6093730926514,4399.1,75,581.6093730926514,4499.2,75,581.6093730926514,4603.2,75,581.6093730926514,4711.2,75,581.6093730926514,4816.1,75,581.6093730926514,4920.2]","[4906.6,4906.7,2473.4,2021.7,411.6,""smooth"",""down"",""down"",""good_move"",8786.7,3879.5,3463.2,4907.2,416.3,""oops"",""down"",""right"",""bad_move"",12552.8,3765.5,3386.8,8787.3,378.7,""smooth"",""left"",""left"",""good_move"",18388.8,5835.6,2508.5,15482.5,397.9,""oops"",""left"",""left"",""good_move"",21564.6,3175,2743.4,18389.6,431.7,""oops"",""left"",""up"",""bad_move"",25057.5,3492.1,3117.3,21565.4,374.8,""oops"",""left"",""right"",""bad_move""]"
"3481","","<div style=""width:500px;"">
  <p>What determined the result of this run?</p>
  </div>","16","html-slider-response","54","632705","0.0-7.0-1.8","217","1","2025-08-06 19:30:09","36c45c0696341be0efffe67d72a12abb","148.252.144.214","Mozilla/5.0 (Windows NT 10.0; Win64; x64) AppleWebKit/537.36 (KHTML, like Gecko) Chrome/138.0.0.0 Safari/537.36 Edg/138.0.0.0","WebKit","Edge","138.0.0.0","Windows","10.0","https://app.prolific.com/","en-US,en;q=0.9,en-GB;q=0.8,ar;q=0.7,sq;q=0.6","676578b520552faa04a8ef83","6877649eabb845cf142cd221","6893ad33c30ddf83cc021201","1","676578b520552faa04a8ef83","1","2025-08-06T19:40:44.186Z","","","","AttribQ","","","","","","","","","","","50","","","","","","","","","","","","","","","","","","","","","","","","","","",""
"4404","","<div style=""width:500px;"">
  <p>How much control did you have over the ball?</p>
  </div>","26","html-slider-response","55","637113","0.0-7.0-2.8","217","1","2025-08-06 19:30:09","36c45c0696341be0efffe67d72a12abb","148.252.144.214","Mozilla/5.0 (Windows NT 10.0; Win64; x64) AppleWebKit/537.36 (KHTML, like Gecko) Chrome/138.0.0.0 Safari/537.36 Edg/138.0.0.0","WebKit","Edge","138.0.0.0","Windows","10.0","https://app.prolific.com/","en-US,en;q=0.9,en-GB;q=0.8,ar;q=0.7,sq;q=0.6","676578b520552faa04a8ef83","6877649eabb845cf142cd221","6893ad33c30ddf83cc021201","1","676578b520552faa04a8ef83","1","2025-08-06T19:40:48.594Z","","","","ControlQ","","","","","","","","","","","50","","","","","","","","","","","","","","","","","","","","","","","","","","",""
"4315","","<div style=""width:500px;"">
  <p>How would you describe your current emotional state?</p>
  </div>","100","html-slider-response","56","641430","0.0-7.0-3.8","217","1","2025-08-06 19:30:09","36c45c0696341be0efffe67d72a12abb","148.252.144.214","Mozilla/5.0 (Windows NT 10.0; Win64; x64) AppleWebKit/537.36 (KHTML, like Gecko) Chrome/138.0.0.0 Safari/537.36 Edg/138.0.0.0","WebKit","Edge","138.0.0.0","Windows","10.0","https://app.prolific.com/","en-US,en;q=0.9,en-GB;q=0.8,ar;q=0.7,sq;q=0.6","676578b520552faa04a8ef83","6877649eabb845cf142cd221","6893ad33c30ddf83cc021201","1","676578b520552faa04a8ef83","1","2025-08-06T19:40:52.911Z","","","","StressQ","","","","","","","","","","","50","","","","","","","","","","","","","","","","","","","","","","","","","","",""
"2889","","<div style=""width:500px;"">
  <p>What best describes how you currently feel?</p>
  </div>","0","html-slider-response","57","644323","0.0-7.0-4.8","217","1","2025-08-06 19:30:09","36c45c0696341be0efffe67d72a12abb","148.252.144.214","Mozilla/5.0 (Windows NT 10.0; Win64; x64) AppleWebKit/537.36 (KHTML, like Gecko) Chrome/138.0.0.0 Safari/537.36 Edg/138.0.0.0","WebKit","Edge","138.0.0.0","Windows","10.0","https://app.prolific.com/","en-US,en;q=0.9,en-GB;q=0.8,ar;q=0.7,sq;q=0.6","676578b520552faa04a8ef83","6877649eabb845cf142cd221","6893ad33c30ddf83cc021201","1","676578b520552faa04a8ef83","1","2025-08-06T19:40:55.804Z","","","","MotivationQ","","","","","","","","","","","50","","","","","","","","","","","","","","","","","","","","","","","","","","",""
"","","","","ctl-task-cpt","58","680149","0.0-7.0-0.9","217","1","2025-08-06 19:30:09","36c45c0696341be0efffe67d72a12abb","148.252.144.214","Mozilla/5.0 (Windows NT 10.0; Win64; x64) AppleWebKit/537.36 (KHTML, like Gecko) Chrome/138.0.0.0 Safari/537.36 Edg/138.0.0.0","WebKit","Edge","138.0.0.0","Windows","10.0","https://app.prolific.com/","en-US,en;q=0.9,en-GB;q=0.8,ar;q=0.7,sq;q=0.6","676578b520552faa04a8ef83","6877649eabb845cf142cd221","6893ad33c30ddf83cc021201","1","676578b520552faa04a8ef83","1","2025-08-06T19:41:31.629Z","","","","","","","","","","","","","","","","win-only","1","g1:NE,g2:SW","0.5","10","0","651173.2","1525.2","6529.3","32798.7","1","4","4","6","1","1","1","2","1","0.015151515151515152","1450.3","3000","845","[""up"",""right""]","{""num_key_presses"":8,""num_perfect"":5,""num_errors"":0,""num_randdir"":3,""num_randdir_good_moves"":1,""num_whilered"":0,""num_whileblue"":0,""num_blue"":1,""num_good_moves"":6}","[319.5,325.10937309265137,0.9,319.5,325.10937309265137,103.6,319.5,325.10937309265137,208.7,319.5,325.10937309265137,314.3,319.5,325.10937309265137,420.1,319.5,325.10937309265137,526.3,319.5,325.10937309265137,628.3,319.5,325.10937309265137,732.1,298.5,338.60937309265137,832.3,231,358.10937309265137,935.5,409.5,164.60937309265137,1037.5,591,22.109373092651367,1141.6,615,7.109373092651367,1243.8,615,7.109373092651367,1352.4,615,7.109373092651367,1464,615,7.109373092651367,1570.6,615,7.109373092651367,1671.6,615,7.109373092651367,1777.6,615,7.109373092651367,1882.4,615,7.109373092651367,1987.8,615,7.109373092651367,2090,615,7.109373092651367,2196.9,615,7.109373092651367,2297.8,615,7.109373092651367,2404.2,615,7.109373092651367,2508.1,615,7.109373092651367,2617.3,615,7.109373092651367,2720.6,615,7.109373092651367,2821.4,615,7.109373092651367,2923.8,615,7.109373092651367,3026.8,615,7.109373092651367,3128.4,615,7.109373092651367,3238.3,615,7.109373092651367,3346.5,615,7.109373092651367,3447,615,7.109373092651367,3552.1,615,7.109373092651367,3661.1,615,7.109373092651367,3762.7,615,7.109373092651367,3863.7,615,7.109373092651367,3971.1,615,7.109373092651367,4071.9,615,7.109373092651367,4172.8,615,7.109373092651367,4281.7,615,7.109373092651367,4383.3,615,7.109373092651367,4493.5,615,7.109373092651367,4597.3,615,7.109373092651367,4704.2,615,7.109373092651367,4814.3,615,7.109373092651367,4917]","[1441.1,1441.1,1000,0,441.1,""smooth"",""up"",""up"",""good_move"",3728.5,2286.5,1850.2,1442,436.3,""smooth"",""up"",""up"",""good_move"",7099,3370.1,2963.4,3729,406.6,""oops"",""right"",""right"",""good_move"",10985.6,3886,3473.6,7099.6,412.4,""oops"",""right"",""left"",""bad_move"",17787.1,6800.9,2804.2,14424.6,558.3,""smooth"",""right"",""right"",""good_move"",20530.9,2743.3,2317.8,17787.6,425.5,""oops"",""right"",""left"",""bad_move"",23405.3,2873.6,2465.7,20531.7,407.9,""smooth"",""right"",""right"",""good_move"",26147.9,2742.3,2416.2,23405.7,326,""smooth"",""right"",""right"",""good_move""]"
"2771","","<div style=""width:500px;"">
  <p>What determined the result of this run?</p>
  </div>","21","html-slider-response","59","682923","0.0-7.0-1.9","217","1","2025-08-06 19:30:09","36c45c0696341be0efffe67d72a12abb","148.252.144.214","Mozilla/5.0 (Windows NT 10.0; Win64; x64) AppleWebKit/537.36 (KHTML, like Gecko) Chrome/138.0.0.0 Safari/537.36 Edg/138.0.0.0","WebKit","Edge","138.0.0.0","Windows","10.0","https://app.prolific.com/","en-US,en;q=0.9,en-GB;q=0.8,ar;q=0.7,sq;q=0.6","676578b520552faa04a8ef83","6877649eabb845cf142cd221","6893ad33c30ddf83cc021201","1","676578b520552faa04a8ef83","1","2025-08-06T19:41:34.403Z","","","","AttribQ","","","","","","","","","","","50","","","","","","","","","","","","","","","","","","","","","","","","","","",""
"3493","","<div style=""width:500px;"">
  <p>How much control did you have over the ball?</p>
  </div>","28","html-slider-response","60","686420","0.0-7.0-2.9","217","1","2025-08-06 19:30:09","36c45c0696341be0efffe67d72a12abb","148.252.144.214","Mozilla/5.0 (Windows NT 10.0; Win64; x64) AppleWebKit/537.36 (KHTML, like Gecko) Chrome/138.0.0.0 Safari/537.36 Edg/138.0.0.0","WebKit","Edge","138.0.0.0","Windows","10.0","https://app.prolific.com/","en-US,en;q=0.9,en-GB;q=0.8,ar;q=0.7,sq;q=0.6","676578b520552faa04a8ef83","6877649eabb845cf142cd221","6893ad33c30ddf83cc021201","1","676578b520552faa04a8ef83","1","2025-08-06T19:41:37.901Z","","","","ControlQ","","","","","","","","","","","50","","","","","","","","","","","","","","","","","","","","","","","","","","",""
"2902","","<div style=""width:500px;"">
  <p>How would you describe your current emotional state?</p>
  </div>","100","html-slider-response","61","689324","0.0-7.0-3.9","217","1","2025-08-06 19:30:09","36c45c0696341be0efffe67d72a12abb","148.252.144.214","Mozilla/5.0 (Windows NT 10.0; Win64; x64) AppleWebKit/537.36 (KHTML, like Gecko) Chrome/138.0.0.0 Safari/537.36 Edg/138.0.0.0","WebKit","Edge","138.0.0.0","Windows","10.0","https://app.prolific.com/","en-US,en;q=0.9,en-GB;q=0.8,ar;q=0.7,sq;q=0.6","676578b520552faa04a8ef83","6877649eabb845cf142cd221","6893ad33c30ddf83cc021201","1","676578b520552faa04a8ef83","1","2025-08-06T19:41:40.804Z","","","","StressQ","","","","","","","","","","","50","","","","","","","","","","","","","","","","","","","","","","","","","","",""
"2958","","<div style=""width:500px;"">
  <p>What best describes how you currently feel?</p>
  </div>","9","html-slider-response","62","692284","0.0-7.0-4.9","217","1","2025-08-06 19:30:09","36c45c0696341be0efffe67d72a12abb","148.252.144.214","Mozilla/5.0 (Windows NT 10.0; Win64; x64) AppleWebKit/537.36 (KHTML, like Gecko) Chrome/138.0.0.0 Safari/537.36 Edg/138.0.0.0","WebKit","Edge","138.0.0.0","Windows","10.0","https://app.prolific.com/","en-US,en;q=0.9,en-GB;q=0.8,ar;q=0.7,sq;q=0.6","676578b520552faa04a8ef83","6877649eabb845cf142cd221","6893ad33c30ddf83cc021201","1","676578b520552faa04a8ef83","1","2025-08-06T19:41:43.764Z","","","","MotivationQ","","","","","","","","","","","50","","","","","","","","","","","","","","","","","","","","","","","","","","",""
"","","","","ctl-task-cpt","63","711820","0.0-7.0-0.10","217","1","2025-08-06 19:30:09","36c45c0696341be0efffe67d72a12abb","148.252.144.214","Mozilla/5.0 (Windows NT 10.0; Win64; x64) AppleWebKit/537.36 (KHTML, like Gecko) Chrome/138.0.0.0 Safari/537.36 Edg/138.0.0.0","WebKit","Edge","138.0.0.0","Windows","10.0","https://app.prolific.com/","en-US,en;q=0.9,en-GB;q=0.8,ar;q=0.7,sq;q=0.6","676578b520552faa04a8ef83","6877649eabb845cf142cd221","6893ad33c30ddf83cc021201","1","676578b520552faa04a8ef83","1","2025-08-06T19:42:03.300Z","","","","","","","","","","","","","","","","win-only","0","g1:NW,g2:SE","0.6","11","0","699127.6","1554.8","6556","16515.8","1","4","4","6","1","1","1","3","2","0.022727272727272728","1057.3","3000","1805","[""left"",""up""]","{""num_key_presses"":4,""num_perfect"":4,""num_errors"":0,""num_randdir"":0,""num_randdir_good_moves"":0,""num_whilered"":0,""num_whileblue"":0,""num_blue"":0,""num_good_moves"":4}","[328.5,329.60937309265137,0.6,328.5,329.60937309265137,104.9,328.5,329.60937309265137,207.1,328.5,329.60937309265137,316.5,328.5,329.60937309265137,420.9,328.5,329.60937309265137,525.9,328.5,329.60937309265137,639.3,132,155.60937309265137,747.3,90,109.10937309265137,853,88.5,106.10937309265137,962.2,88.5,106.10937309265137,1075.3,88.5,106.10937309265137,1178.9,88.5,106.10937309265137,1280.4,88.5,106.10937309265137,1382.5,88.5,106.10937309265137,1483.6,88.5,106.10937309265137,1590.8,88.5,106.10937309265137,1691.6,88.5,106.10937309265137,1796.8,88.5,106.10937309265137,1900.1,88.5,106.10937309265137,2015,88.5,106.10937309265137,2120.3,88.5,106.10937309265137,2227.7,88.5,106.10937309265137,2339.3,88.5,106.10937309265137,2446.2,88.5,106.10937309265137,2549.3,88.5,106.10937309265137,2651.7,88.5,106.10937309265137,2754.5,88.5,106.10937309265137,2860.7,88.5,106.10937309265137,2960.8,88.5,106.10937309265137,3076.3,88.5,106.10937309265137,3179.8,88.5,106.10937309265137,3284.7,88.5,106.10937309265137,3388.7,88.5,106.10937309265137,3491.2,88.5,106.10937309265137,3595.9,88.5,106.10937309265137,3696.5,88.5,106.10937309265137,3806.6,88.5,106.10937309265137,3912.3,88.5,106.10937309265137,4025.9,88.5,106.10937309265137,4127.5,88.5,106.10937309265137,4236.5,88.5,106.10937309265137,4341.6,88.5,106.10937309265137,4442,88.5,106.10937309265137,4542.8,88.5,106.10937309265137,4642.8,88.5,106.10937309265137,4745.9,88.5,106.10937309265137,4848.2,88.5,106.10937309265137,4959.4]","[1604,1604,1000,0,604,""smooth"",""up"",""up"",""good_move"",4492.6,2888,2548.8,1604.6,339.2,""smooth"",""up"",""up"",""good_move"",6930.4,2437.5,2025.2,4492.9,412.3,""smooth"",""left"",""left"",""good_move"",9826,2894.6,2460.2,6931.4,434.4,""smooth"",""left"",""left"",""good_move""]"
"2677","","<div style=""width:500px;"">
  <p>What determined the result of this run?</p>
  </div>","29","html-slider-response","64","714501","0.0-7.0-1.10","217","1","2025-08-06 19:30:09","36c45c0696341be0efffe67d72a12abb","148.252.144.214","Mozilla/5.0 (Windows NT 10.0; Win64; x64) AppleWebKit/537.36 (KHTML, like Gecko) Chrome/138.0.0.0 Safari/537.36 Edg/138.0.0.0","WebKit","Edge","138.0.0.0","Windows","10.0","https://app.prolific.com/","en-US,en;q=0.9,en-GB;q=0.8,ar;q=0.7,sq;q=0.6","676578b520552faa04a8ef83","6877649eabb845cf142cd221","6893ad33c30ddf83cc021201","1","676578b520552faa04a8ef83","1","2025-08-06T19:42:05.982Z","","","","AttribQ","","","","","","","","","","","50","","","","","","","","","","","","","","","","","","","","","","","","","","",""
"4086","","<div style=""width:500px;"">
  <p>How much control did you have over the ball?</p>
  </div>","75","html-slider-response","65","718592","0.0-7.0-2.10","217","1","2025-08-06 19:30:09","36c45c0696341be0efffe67d72a12abb","148.252.144.214","Mozilla/5.0 (Windows NT 10.0; Win64; x64) AppleWebKit/537.36 (KHTML, like Gecko) Chrome/138.0.0.0 Safari/537.36 Edg/138.0.0.0","WebKit","Edge","138.0.0.0","Windows","10.0","https://app.prolific.com/","en-US,en;q=0.9,en-GB;q=0.8,ar;q=0.7,sq;q=0.6","676578b520552faa04a8ef83","6877649eabb845cf142cd221","6893ad33c30ddf83cc021201","1","676578b520552faa04a8ef83","1","2025-08-06T19:42:10.072Z","","","","ControlQ","","","","","","","","","","","50","","","","","","","","","","","","","","","","","","","","","","","","","","",""
"3421","","<div style=""width:500px;"">
  <p>How would you describe your current emotional state?</p>
  </div>","98","html-slider-response","66","722014","0.0-7.0-3.10","217","1","2025-08-06 19:30:09","36c45c0696341be0efffe67d72a12abb","148.252.144.214","Mozilla/5.0 (Windows NT 10.0; Win64; x64) AppleWebKit/537.36 (KHTML, like Gecko) Chrome/138.0.0.0 Safari/537.36 Edg/138.0.0.0","WebKit","Edge","138.0.0.0","Windows","10.0","https://app.prolific.com/","en-US,en;q=0.9,en-GB;q=0.8,ar;q=0.7,sq;q=0.6","676578b520552faa04a8ef83","6877649eabb845cf142cd221","6893ad33c30ddf83cc021201","1","676578b520552faa04a8ef83","1","2025-08-06T19:42:13.495Z","","","","StressQ","","","","","","","","","","","50","","","","","","","","","","","","","","","","","","","","","","","","","","",""
"2731","","<div style=""width:500px;"">
  <p>What best describes how you currently feel?</p>
  </div>","4","html-slider-response","67","724747","0.0-7.0-4.10","217","1","2025-08-06 19:30:09","36c45c0696341be0efffe67d72a12abb","148.252.144.214","Mozilla/5.0 (Windows NT 10.0; Win64; x64) AppleWebKit/537.36 (KHTML, like Gecko) Chrome/138.0.0.0 Safari/537.36 Edg/138.0.0.0","WebKit","Edge","138.0.0.0","Windows","10.0","https://app.prolific.com/","en-US,en;q=0.9,en-GB;q=0.8,ar;q=0.7,sq;q=0.6","676578b520552faa04a8ef83","6877649eabb845cf142cd221","6893ad33c30ddf83cc021201","1","676578b520552faa04a8ef83","1","2025-08-06T19:42:16.227Z","","","","MotivationQ","","","","","","","","","","","50","","","","","","","","","","","","","","","","","","","","","","","","","","",""
"","","","","ctl-task-cpt","68","748277","0.0-7.0-0.11","217","1","2025-08-06 19:30:09","36c45c0696341be0efffe67d72a12abb","148.252.144.214","Mozilla/5.0 (Windows NT 10.0; Win64; x64) AppleWebKit/537.36 (KHTML, like Gecko) Chrome/138.0.0.0 Safari/537.36 Edg/138.0.0.0","WebKit","Edge","138.0.0.0","Windows","10.0","https://app.prolific.com/","en-US,en;q=0.9,en-GB;q=0.8,ar;q=0.7,sq;q=0.6","676578b520552faa04a8ef83","6877649eabb845cf142cd221","6893ad33c30ddf83cc021201","1","676578b520552faa04a8ef83","1","2025-08-06T19:42:39.757Z","","","","","","","","","","","","","","","","win-only","3","g1:SW,g2:NE","0.7","12","0","731590.2","1233.4","6241.9","20508.8","1","4","8","6","1","1","1","4","3","0.030303030303030304","1217.6","3000","1945","[""down"",""left""]","{""num_key_presses"":4,""num_perfect"":3,""num_errors"":0,""num_randdir"":1,""num_randdir_good_moves"":1,""num_whilered"":0,""num_whileblue"":0,""num_blue"":1,""num_good_moves"":4}","[324,323.60937309265137,0.3,324,323.60937309265137,109.2,324,323.60937309265137,225.7,324,323.60937309265137,328.2,324,323.60937309265137,429,324,323.60937309265137,535.6,324,323.60937309265137,638.8,324,323.60937309265137,748.6,168,452.60937309265137,849.2,72,587.6093730926514,956.9,72,587.6093730926514,1065.7,72,587.6093730926514,1169.5,72,587.6093730926514,1274,72,587.6093730926514,1375.5,72,587.6093730926514,1478.9,72,587.6093730926514,1588,72,587.6093730926514,1691.9,72,587.6093730926514,1795.5,72,587.6093730926514,1902.7,72,587.6093730926514,2005.1,72,587.6093730926514,2107.4,72,587.6093730926514,2210.1,72,587.6093730926514,2312,72,587.6093730926514,2420.3,72,587.6093730926514,2524,72,587.6093730926514,2628.5,72,587.6093730926514,2738.9,72,587.6093730926514,2849.7,72,587.6093730926514,2952.1,72,587.6093730926514,3056.5,72,587.6093730926514,3164.5,72,587.6093730926514,3269.3,72,587.6093730926514,3382.7,72,587.6093730926514,3497.2,72,587.6093730926514,3597.4,72,587.6093730926514,3703.5,72,587.6093730926514,3806.2,72,587.6093730926514,3914.9,72,587.6093730926514,4015.6,72,587.6093730926514,4128.1,72,587.6093730926514,4228.7,72,587.6093730926514,4334.7,72,587.6093730926514,4440.2,72,587.6093730926514,4540.5,72,587.6093730926514,4651.2,72,587.6093730926514,4751.2,72,587.6093730926514,4853.2,72,587.6093730926514,4954.3]","[1475.7,1475.7,1000,0,475.7,""smooth"",""down"",""down"",""good_move"",4391.6,2915.4,2496,1476.2,419.4,""smooth"",""down"",""down"",""good_move"",7488.7,3096.8,2767.3,4391.9,329.5,""smooth"",""left"",""left"",""good_move"",14146.1,6657.1,2755.6,11013.1,377.4,""oops"",""left"",""left"",""good_move""]"
"6612","","<div style=""width:500px;"">
  <p>What determined the result of this run?</p>
  </div>","19","html-slider-response","69","754891","0.0-7.0-1.11","217","1","2025-08-06 19:30:09","36c45c0696341be0efffe67d72a12abb","148.252.144.214","Mozilla/5.0 (Windows NT 10.0; Win64; x64) AppleWebKit/537.36 (KHTML, like Gecko) Chrome/138.0.0.0 Safari/537.36 Edg/138.0.0.0","WebKit","Edge","138.0.0.0","Windows","10.0","https://app.prolific.com/","en-US,en;q=0.9,en-GB;q=0.8,ar;q=0.7,sq;q=0.6","676578b520552faa04a8ef83","6877649eabb845cf142cd221","6893ad33c30ddf83cc021201","1","676578b520552faa04a8ef83","1","2025-08-06T19:42:46.372Z","","","","AttribQ","","","","","","","","","","","50","","","","","","","","","","","","","","","","","","","","","","","","","","",""
"7384","","<div style=""width:500px;"">
  <p>How much control did you have over the ball?</p>
  </div>","33","html-slider-response","70","762277","0.0-7.0-2.11","217","1","2025-08-06 19:30:09","36c45c0696341be0efffe67d72a12abb","148.252.144.214","Mozilla/5.0 (Windows NT 10.0; Win64; x64) AppleWebKit/537.36 (KHTML, like Gecko) Chrome/138.0.0.0 Safari/537.36 Edg/138.0.0.0","WebKit","Edge","138.0.0.0","Windows","10.0","https://app.prolific.com/","en-US,en;q=0.9,en-GB;q=0.8,ar;q=0.7,sq;q=0.6","676578b520552faa04a8ef83","6877649eabb845cf142cd221","6893ad33c30ddf83cc021201","1","676578b520552faa04a8ef83","1","2025-08-06T19:42:53.757Z","","","","ControlQ","","","","","","","","","","","50","","","","","","","","","","","","","","","","","","","","","","","","","","",""
"3200","","<div style=""width:500px;"">
  <p>How would you describe your current emotional state?</p>
  </div>","98","html-slider-response","71","765482","0.0-7.0-3.11","217","1","2025-08-06 19:30:09","36c45c0696341be0efffe67d72a12abb","148.252.144.214","Mozilla/5.0 (Windows NT 10.0; Win64; x64) AppleWebKit/537.36 (KHTML, like Gecko) Chrome/138.0.0.0 Safari/537.36 Edg/138.0.0.0","WebKit","Edge","138.0.0.0","Windows","10.0","https://app.prolific.com/","en-US,en;q=0.9,en-GB;q=0.8,ar;q=0.7,sq;q=0.6","676578b520552faa04a8ef83","6877649eabb845cf142cd221","6893ad33c30ddf83cc021201","1","676578b520552faa04a8ef83","1","2025-08-06T19:42:56.962Z","","","","StressQ","","","","","","","","","","","50","","","","","","","","","","","","","","","","","","","","","","","","","","",""
"2405","","<div style=""width:500px;"">
  <p>What best describes how you currently feel?</p>
  </div>","0","html-slider-response","72","767890","0.0-7.0-4.11","217","1","2025-08-06 19:30:09","36c45c0696341be0efffe67d72a12abb","148.252.144.214","Mozilla/5.0 (Windows NT 10.0; Win64; x64) AppleWebKit/537.36 (KHTML, like Gecko) Chrome/138.0.0.0 Safari/537.36 Edg/138.0.0.0","WebKit","Edge","138.0.0.0","Windows","10.0","https://app.prolific.com/","en-US,en;q=0.9,en-GB;q=0.8,ar;q=0.7,sq;q=0.6","676578b520552faa04a8ef83","6877649eabb845cf142cd221","6893ad33c30ddf83cc021201","1","676578b520552faa04a8ef83","1","2025-08-06T19:42:59.371Z","","","","MotivationQ","","","","","","","","","","","50","","","","","","","","","","","","","","","","","","","","","","","","","","",""
"","","","","ctl-task-cpt","73","791591","0.0-7.0-0.12","217","1","2025-08-06 19:30:09","36c45c0696341be0efffe67d72a12abb","148.252.144.214","Mozilla/5.0 (Windows NT 10.0; Win64; x64) AppleWebKit/537.36 (KHTML, like Gecko) Chrome/138.0.0.0 Safari/537.36 Edg/138.0.0.0","WebKit","Edge","138.0.0.0","Windows","10.0","https://app.prolific.com/","en-US,en;q=0.9,en-GB;q=0.8,ar;q=0.7,sq;q=0.6","676578b520552faa04a8ef83","6877649eabb845cf142cd221","6893ad33c30ddf83cc021201","1","676578b520552faa04a8ef83","1","2025-08-06T19:43:23.071Z","","","","","","","","","","","","","","","","win-only","1","g1:NE,g2:SW","0.8","13","0","774736.4","1404","6409.8","20689","1","4","8","6","1","1","1","5","4","0.03787878787878788","1160","3000","1740","[""up"",""right""]","{""num_key_presses"":4,""num_perfect"":3,""num_errors"":0,""num_randdir"":1,""num_randdir_good_moves"":1,""num_whilered"":0,""num_whileblue"":0,""num_blue"":1,""num_good_moves"":4}","[321,320.60937309265137,0.4,321,320.60937309265137,103.3,321,320.60937309265137,212.5,321,320.60937309265137,318.4,321,320.60937309265137,418.5,321,320.60937309265137,520.1,321,320.60937309265137,620.6,321,320.60937309265137,722.2,469.5,145.10937309265137,824.6,540,92.60937309265137,927.5,547.5,86.60937309265137,1028.6,547.5,86.60937309265137,1132.2,547.5,86.60937309265137,1241.7,547.5,86.60937309265137,1342.3,547.5,86.60937309265137,1442.8,547.5,86.60937309265137,1549.4,547.5,86.60937309265137,1652.6,547.5,86.60937309265137,1756,547.5,86.60937309265137,1856.8,547.5,86.60937309265137,1960.4,547.5,86.60937309265137,2068.3,547.5,86.60937309265137,2175,547.5,86.60937309265137,2286.4,547.5,86.60937309265137,2388.4,547.5,86.60937309265137,2491.2,547.5,86.60937309265137,2592,547.5,86.60937309265137,2695.2,547.5,86.60937309265137,2799.3,547.5,86.60937309265137,2910.6,547.5,86.60937309265137,3014.7,547.5,86.60937309265137,3119.9,547.5,86.60937309265137,3223.1,547.5,86.60937309265137,3335.4,547.5,86.60937309265137,3435.5,547.5,86.60937309265137,3542.1,547.5,86.60937309265137,3643,547.5,86.60937309265137,3755.3,547.5,86.60937309265137,3858.6,547.5,86.60937309265137,3960.9,547.5,86.60937309265137,4062.8,547.5,86.60937309265137,4170.9,547.5,86.60937309265137,4272.9,547.5,86.60937309265137,4378.7,547.5,86.60937309265137,4479.4,547.5,86.60937309265137,4586.8,547.5,86.60937309265137,4694.5,547.5,86.60937309265137,4797.8,547.5,86.60937309265137,4900.2]","[4101.4,4101.4,1447.2,2007.6,646.6,""oops"",""up"",""up"",""good_move"",7810.1,3708.2,3303.8,4101.9,404.4,""smooth"",""up"",""up"",""good_move"",10458,2647.6,2187.3,7810.4,460.3,""smooth"",""right"",""right"",""good_move"",14125.1,3666.8,3202.7,10458.3,464.2,""smooth"",""right"",""right"",""good_move""]"
"3634","","<div style=""width:500px;"">
  <p>What determined the result of this run?</p>
  </div>","21","html-slider-response","74","795231","0.0-7.0-1.12","217","1","2025-08-06 19:30:09","36c45c0696341be0efffe67d72a12abb","148.252.144.214","Mozilla/5.0 (Windows NT 10.0; Win64; x64) AppleWebKit/537.36 (KHTML, like Gecko) Chrome/138.0.0.0 Safari/537.36 Edg/138.0.0.0","WebKit","Edge","138.0.0.0","Windows","10.0","https://app.prolific.com/","en-US,en;q=0.9,en-GB;q=0.8,ar;q=0.7,sq;q=0.6","676578b520552faa04a8ef83","6877649eabb845cf142cd221","6893ad33c30ddf83cc021201","1","676578b520552faa04a8ef83","1","2025-08-06T19:43:26.711Z","","","","AttribQ","","","","","","","","","","","50","","","","","","","","","","","","","","","","","","","","","","","","","","",""
"6504","","<div style=""width:500px;"">
  <p>How much control did you have over the ball?</p>
  </div>","73","html-slider-response","75","801740","0.0-7.0-2.12","217","1","2025-08-06 19:30:09","36c45c0696341be0efffe67d72a12abb","148.252.144.214","Mozilla/5.0 (Windows NT 10.0; Win64; x64) AppleWebKit/537.36 (KHTML, like Gecko) Chrome/138.0.0.0 Safari/537.36 Edg/138.0.0.0","WebKit","Edge","138.0.0.0","Windows","10.0","https://app.prolific.com/","en-US,en;q=0.9,en-GB;q=0.8,ar;q=0.7,sq;q=0.6","676578b520552faa04a8ef83","6877649eabb845cf142cd221","6893ad33c30ddf83cc021201","1","676578b520552faa04a8ef83","1","2025-08-06T19:43:33.220Z","","","","ControlQ","","","","","","","","","","","50","","","","","","","","","","","","","","","","","","","","","","","","","","",""
"3302","","<div style=""width:500px;"">
  <p>How would you describe your current emotional state?</p>
  </div>","99","html-slider-response","76","805044","0.0-7.0-3.12","217","1","2025-08-06 19:30:09","36c45c0696341be0efffe67d72a12abb","148.252.144.214","Mozilla/5.0 (Windows NT 10.0; Win64; x64) AppleWebKit/537.36 (KHTML, like Gecko) Chrome/138.0.0.0 Safari/537.36 Edg/138.0.0.0","WebKit","Edge","138.0.0.0","Windows","10.0","https://app.prolific.com/","en-US,en;q=0.9,en-GB;q=0.8,ar;q=0.7,sq;q=0.6","676578b520552faa04a8ef83","6877649eabb845cf142cd221","6893ad33c30ddf83cc021201","1","676578b520552faa04a8ef83","1","2025-08-06T19:43:36.524Z","","","","StressQ","","","","","","","","","","","50","","","","","","","","","","","","","","","","","","","","","","","","","","",""
"2766","","<div style=""width:500px;"">
  <p>What best describes how you currently feel?</p>
  </div>","0","html-slider-response","77","807811","0.0-7.0-4.12","217","1","2025-08-06 19:30:09","36c45c0696341be0efffe67d72a12abb","148.252.144.214","Mozilla/5.0 (Windows NT 10.0; Win64; x64) AppleWebKit/537.36 (KHTML, like Gecko) Chrome/138.0.0.0 Safari/537.36 Edg/138.0.0.0","WebKit","Edge","138.0.0.0","Windows","10.0","https://app.prolific.com/","en-US,en;q=0.9,en-GB;q=0.8,ar;q=0.7,sq;q=0.6","676578b520552faa04a8ef83","6877649eabb845cf142cd221","6893ad33c30ddf83cc021201","1","676578b520552faa04a8ef83","1","2025-08-06T19:43:39.291Z","","","","MotivationQ","","","","","","","","","","","50","","","","","","","","","","","","","","","","","","","","","","","","","","",""
"","","","","ctl-task-cpt","78","847432","0.0-7.0-0.13","217","1","2025-08-06 19:30:09","36c45c0696341be0efffe67d72a12abb","148.252.144.214","Mozilla/5.0 (Windows NT 10.0; Win64; x64) AppleWebKit/537.36 (KHTML, like Gecko) Chrome/138.0.0.0 Safari/537.36 Edg/138.0.0.0","WebKit","Edge","138.0.0.0","Windows","10.0","https://app.prolific.com/","en-US,en;q=0.9,en-GB;q=0.8,ar;q=0.7,sq;q=0.6","676578b520552faa04a8ef83","6877649eabb845cf142cd221","6893ad33c30ddf83cc021201","1","676578b520552faa04a8ef83","1","2025-08-06T19:44:18.912Z","","","","","","","","","","","","","","","","win-only","3","g1:SW,g2:NE","0.9","14","0","814653.4","3020","8029","36602.3","1","4","4","6","1","1","1","6","5","0.045454545454545456","1371.9","3000","1905","[""down"",""left""]","{""num_key_presses"":4,""num_perfect"":4,""num_errors"":0,""num_randdir"":0,""num_randdir_good_moves"":0,""num_whilered"":0,""num_whileblue"":0,""num_blue"":5,""num_good_moves"":4}","[318,323.60937309265137,0.4,318,323.60937309265137,100.8,318,323.60937309265137,206.2,318,323.60937309265137,307,318,323.60937309265137,413.3,318,323.60937309265137,516.7,318,323.60937309265137,619.4,318,323.60937309265137,719.4,213,403.10937309265137,830.9,79.5,530.6093730926514,931,43.5,557.6093730926514,1039.7,45,569.6093730926514,1142.8,57,581.6093730926514,1247.1,57,581.6093730926514,1356.6,57,581.6093730926514,1460.4,57,581.6093730926514,1566.1,57,581.6093730926514,1675.6,57,581.6093730926514,1776.4,57,581.6093730926514,1884.9,57,581.6093730926514,1988.8,57,581.6093730926514,2091.5,57,581.6093730926514,2191.8,57,581.6093730926514,2296,57,581.6093730926514,2402.1,57,581.6093730926514,2505.2,57,581.6093730926514,2607.2,57,581.6093730926514,2713.5,57,581.6093730926514,2817.3,57,581.6093730926514,2924.7,57,581.6093730926514,3029.4,57,581.6093730926514,3135.1,57,581.6093730926514,3235.9,57,581.6093730926514,3338.6,57,581.6093730926514,3439.6,57,581.6093730926514,3545,57,581.6093730926514,3647,57,581.6093730926514,3760.6,57,581.6093730926514,3860.9,57,581.6093730926514,3971.4,57,581.6093730926514,4076.9,57,581.6093730926514,4186.5,57,581.6093730926514,4288.6,57,581.6093730926514,4391.6,57,581.6093730926514,4493.1,57,581.6093730926514,4595.3,57,581.6093730926514,4698.2,57,581.6093730926514,4805.8,57,581.6093730926514,4908.8]","[4111.6,4111.6,1600.5,2018.7,492.4,""smooth"",""down"",""down"",""good_move"",10778.9,6666.9,2328.5,8075.9,374.5,""smooth"",""down"",""down"",""good_move"",21152.4,10372.6,2455.9,18205,491.5,""smooth"",""left"",""left"",""good_move"",28453.2,7300.4,3045.8,24975.5,431.9,""smooth"",""left"",""left"",""good_move""]"
"5928","","<div style=""width:500px;"">
  <p>What determined the result of this run?</p>
  </div>","33","html-slider-response","79","853363","0.0-7.0-1.13","217","1","2025-08-06 19:30:09","36c45c0696341be0efffe67d72a12abb","148.252.144.214","Mozilla/5.0 (Windows NT 10.0; Win64; x64) AppleWebKit/537.36 (KHTML, like Gecko) Chrome/138.0.0.0 Safari/537.36 Edg/138.0.0.0","WebKit","Edge","138.0.0.0","Windows","10.0","https://app.prolific.com/","en-US,en;q=0.9,en-GB;q=0.8,ar;q=0.7,sq;q=0.6","676578b520552faa04a8ef83","6877649eabb845cf142cd221","6893ad33c30ddf83cc021201","1","676578b520552faa04a8ef83","1","2025-08-06T19:44:24.844Z","","","","AttribQ","","","","","","","","","","","50","","","","","","","","","","","","","","","","","","","","","","","","","","",""
"3346","","<div style=""width:500px;"">
  <p>How much control did you have over the ball?</p>
  </div>","76","html-slider-response","80","856714","0.0-7.0-2.13","217","1","2025-08-06 19:30:09","36c45c0696341be0efffe67d72a12abb","148.252.144.214","Mozilla/5.0 (Windows NT 10.0; Win64; x64) AppleWebKit/537.36 (KHTML, like Gecko) Chrome/138.0.0.0 Safari/537.36 Edg/138.0.0.0","WebKit","Edge","138.0.0.0","Windows","10.0","https://app.prolific.com/","en-US,en;q=0.9,en-GB;q=0.8,ar;q=0.7,sq;q=0.6","676578b520552faa04a8ef83","6877649eabb845cf142cd221","6893ad33c30ddf83cc021201","1","676578b520552faa04a8ef83","1","2025-08-06T19:44:28.194Z","","","","ControlQ","","","","","","","","","","","50","","","","","","","","","","","","","","","","","","","","","","","","","","",""
"2833","","<div style=""width:500px;"">
  <p>How would you describe your current emotional state?</p>
  </div>","99","html-slider-response","81","859550","0.0-7.0-3.13","217","1","2025-08-06 19:30:09","36c45c0696341be0efffe67d72a12abb","148.252.144.214","Mozilla/5.0 (Windows NT 10.0; Win64; x64) AppleWebKit/537.36 (KHTML, like Gecko) Chrome/138.0.0.0 Safari/537.36 Edg/138.0.0.0","WebKit","Edge","138.0.0.0","Windows","10.0","https://app.prolific.com/","en-US,en;q=0.9,en-GB;q=0.8,ar;q=0.7,sq;q=0.6","676578b520552faa04a8ef83","6877649eabb845cf142cd221","6893ad33c30ddf83cc021201","1","676578b520552faa04a8ef83","1","2025-08-06T19:44:31.031Z","","","","StressQ","","","","","","","","","","","50","","","","","","","","","","","","","","","","","","","","","","","","","","",""
"2839","","<div style=""width:500px;"">
  <p>What best describes how you currently feel?</p>
  </div>","2","html-slider-response","82","862394","0.0-7.0-4.13","217","1","2025-08-06 19:30:09","36c45c0696341be0efffe67d72a12abb","148.252.144.214","Mozilla/5.0 (Windows NT 10.0; Win64; x64) AppleWebKit/537.36 (KHTML, like Gecko) Chrome/138.0.0.0 Safari/537.36 Edg/138.0.0.0","WebKit","Edge","138.0.0.0","Windows","10.0","https://app.prolific.com/","en-US,en;q=0.9,en-GB;q=0.8,ar;q=0.7,sq;q=0.6","676578b520552faa04a8ef83","6877649eabb845cf142cd221","6893ad33c30ddf83cc021201","1","676578b520552faa04a8ef83","1","2025-08-06T19:44:33.874Z","","","","MotivationQ","","","","","","","","","","","50","","","","","","","","","","","","","","","","","","","","","","","","","","",""
