"rt","response_timestamp","stimulus","response","trial_type","trial_index","time_elapsed","internal_node_id","run_id","condition","recorded_at","source_code_version","ip","user_agent","device","browser","browser_version","platform","platform_version","referer","accept_language","PROLIFIC_PID","STUDY_ID","SESSION_ID","BATCH","prolific_id","batch","realtime","success","question_order","question_id","eventType","responses","item_order","radio_event_ids","radio_event_times","key_event_times","mouse_event_times","straightlining","zigzagging","honeypot","view_history","slider_start","which_type","canvas_config","goals_layout","control_level","trial_number","tutorial_trial_number","trial_start_time","phase1_start_time","phase2_start_time","phase3_start_time","goal_1_value","goal_1_distance","goal_2_value","goal_2_distance","goal_selected","outcome","outcome_total","participant_final_score","participant_initial_score","participant_final_score_prop","goal_choice_rt","allocated_time","allocated_time_remaining","goal_direction","counts","mouse_movements","key_presses"
"27885","1753864873449","<p style='font-size:40px;line-height:1.25'><strong>Welcome to the experiment!</strong></p><p style='font-size:1.1em;line-height:1.25'>Thank you for participanting in our experiment again! You will be asked to play the Dysfunctional Ball Game again. We will briefly recap the rules before we start.</p><p style='font-size:1.1em;line-height:1.25'>Press <strong>Next</strong> to continue.</p>","0","custom-html-button-response","0","27890","0.0-0.0","26","1","2025-07-30 08:40:38","36c45c0696341be0efffe67d72a12abb","91.124.134.147","Mozilla/5.0 (Windows NT 10.0; Win64; x64) AppleWebKit/537.36 (KHTML, like Gecko) Chrome/136.0.0.0 Safari/537.36","WebKit","Chrome","136.0.0.0","Windows","10.0","https://app.prolific.com/","en-US,en;q=0.9","6769cc78e79f747dda9c7b8f","687a19d2168e237449fb8af4","6889da7783eb1b3d9bfa0eba","0","6769cc78e79f747dda9c7b8f","0","2025-07-30T08:41:13.451Z","","","","","","","","","","","","","","","","","","","","","","","","","","","","","","","","","","","","","","","","","",""
"2139","","","","fullscreen","1","31037","0.0-1.0","26","1","2025-07-30 08:40:38","36c45c0696341be0efffe67d72a12abb","91.124.134.147","Mozilla/5.0 (Windows NT 10.0; Win64; x64) AppleWebKit/537.36 (KHTML, like Gecko) Chrome/136.0.0.0 Safari/537.36","WebKit","Chrome","136.0.0.0","Windows","10.0","https://app.prolific.com/","en-US,en;q=0.9","6769cc78e79f747dda9c7b8f","687a19d2168e237449fb8af4","6889da7783eb1b3d9bfa0eba","0","6769cc78e79f747dda9c7b8f","0","","true","","","","","","","","","","","","","","","","","","","","","","","","","","","","","","","","","","","","","","","","",""
"4283","1753864880884"," <p style='font-size:1.1em;line-height:1.25'>Thank you for closing all other tabs.</p><p style='font-size:1.1em;line-height:1.25'>We will now invite you to fill in some questionnaires, before starting the game.<br>This will take about 5 minutes.<br></p><p style='font-size:1.1em;line-height:1.25'>Press the <strong>Next</strong> button to continue.</p>","0","custom-html-button-response","2","35323","0.0-2.0","26","1","2025-07-30 08:40:38","36c45c0696341be0efffe67d72a12abb","91.124.134.147","Mozilla/5.0 (Windows NT 10.0; Win64; x64) AppleWebKit/537.36 (KHTML, like Gecko) Chrome/136.0.0.0 Safari/537.36","WebKit","Chrome","136.0.0.0","Windows","10.0","https://app.prolific.com/","en-US,en;q=0.9","6769cc78e79f747dda9c7b8f","687a19d2168e237449fb8af4","6889da7783eb1b3d9bfa0eba","0","6769cc78e79f747dda9c7b8f","0","2025-07-30T08:41:20.884Z","","","","","","","","","","","","","","","","","","","","","","","","","","","","","","","","","","","","","","","","","",""
"2714","","","{""assigned_sex"":""male""}","survey-multi-choice","3","38041","0.0-3.0-0.0","26","1","2025-07-30 08:40:38","36c45c0696341be0efffe67d72a12abb","91.124.134.147","Mozilla/5.0 (Windows NT 10.0; Win64; x64) AppleWebKit/537.36 (KHTML, like Gecko) Chrome/136.0.0.0 Safari/537.36","WebKit","Chrome","136.0.0.0","Windows","10.0","https://app.prolific.com/","en-US,en;q=0.9","6769cc78e79f747dda9c7b8f","687a19d2168e237449fb8af4","6889da7783eb1b3d9bfa0eba","0","6769cc78e79f747dda9c7b8f","0","","","[0]","0","demographics","","","","","","","","","","","","","","","","","","","","","","","","","","","","","","","","","","","","","",""
"4027","1753864887630","<p style='font-size:1.1em;line-height:1.25'>In the following, we will perform a baseline assessment. This means that we will ask you a few questions relating to your experiences over the past month.<br></p><p style='font-size:1.1em;line-height:1.25'>Press the <strong>Next</strong> button to continue.</p>","0","custom-html-button-response","4","42069","0.0-4.0-0.0","26","1","2025-07-30 08:40:38","36c45c0696341be0efffe67d72a12abb","91.124.134.147","Mozilla/5.0 (Windows NT 10.0; Win64; x64) AppleWebKit/537.36 (KHTML, like Gecko) Chrome/136.0.0.0 Safari/537.36","WebKit","Chrome","136.0.0.0","Windows","10.0","https://app.prolific.com/","en-US,en;q=0.9","6769cc78e79f747dda9c7b8f","687a19d2168e237449fb8af4","6889da7783eb1b3d9bfa0eba","0","6769cc78e79f747dda9c7b8f","0","2025-07-30T08:41:27.630Z","","","","","","","","","","","","","","","","","","","","","","","","","","","","","","","","","","","","","","","","","",""
"55950.5","","","","survey-template","5","98026","0.0-4.0-1.0","26","1","2025-07-30 08:40:38","36c45c0696341be0efffe67d72a12abb","91.124.134.147","Mozilla/5.0 (Windows NT 10.0; Win64; x64) AppleWebKit/537.36 (KHTML, like Gecko) Chrome/136.0.0.0 Safari/537.36","WebKit","Chrome","136.0.0.0","Windows","10.0","https://app.prolific.com/","en-US,en;q=0.9","6769cc78e79f747dda9c7b8f","687a19d2168e237449fb8af4","6889da7783eb1b3d9bfa0eba","0","6769cc78e79f747dda9c7b8f","0","2025-07-30T08:42:23.587Z","","","","pss","{""Q01"":""0"",""Q02"":""1"",""Q03"":""1"",""Q04"":""1"",""Q05"":""1"",""Q06"":""0"",""Q07"":""2"",""Q08"":""1"",""Q09"":""2"",""Q10"":""1""}","[0,1,2,3,4,5,6,7,8,9]","[""Q01"",""Q01"",""Q02"",""Q01"",""Q03"",""Q01"",""Q04"",""Q06"",""Q07"",""Q07"",""Q08"",""Q09"",""Q09"",""Q10"",""Q05""]","[7861.9000000059605,9265,12543.09999999404,13590.199999988079,16444.69999998808,18479.40000000596,25659.59999999404,30153.90000000596,34870.40000000596,35730.09999999404,40776.90000000596,43147.5,44362.30000001192,47058.5,54258]","[]","[0,7861.9000000059605,9265,10587.699999988079,11575.09999999404,12543.09999999404,13590.199999988079,16444.69999998808,18479.40000000596,25659.59999999404,27595.30000001192,30153.90000000596,34870.40000000596,35730.09999999404,40776.90000000596,43147.5,44362.30000001192,47058.5,48263.80000001192,54258,55947.09999999404]","0.3","0.4444444444444444","0","","","","","","","","","","","","","","","","","","","","","","","","","","","","",""
"5019","1753864948608","<p style='font-size:1.1em;line-height:1.25'>Thank you for your answers! Now we will ask you a few more questions relating to your feelings in the last 24 hours.<br></p><p style='font-size:1.1em;line-height:1.25'>Press the <strong>Next</strong> button to continue.</p>","0","custom-html-button-response","6","103047","0.0-4.0-2.0","26","1","2025-07-30 08:40:38","36c45c0696341be0efffe67d72a12abb","91.124.134.147","Mozilla/5.0 (Windows NT 10.0; Win64; x64) AppleWebKit/537.36 (KHTML, like Gecko) Chrome/136.0.0.0 Safari/537.36","WebKit","Chrome","136.0.0.0","Windows","10.0","https://app.prolific.com/","en-US,en;q=0.9","6769cc78e79f747dda9c7b8f","687a19d2168e237449fb8af4","6889da7783eb1b3d9bfa0eba","0","6769cc78e79f747dda9c7b8f","0","2025-07-30T08:42:28.608Z","","","","","","","","","","","","","","","","","","","","","","","","","","","","","","","","","","","","","","","","","",""
"71052.59999999404","","","","survey-template","7","174108","0.0-4.0-3.0","26","1","2025-07-30 08:40:38","36c45c0696341be0efffe67d72a12abb","91.124.134.147","Mozilla/5.0 (Windows NT 10.0; Win64; x64) AppleWebKit/537.36 (KHTML, like Gecko) Chrome/136.0.0.0 Safari/537.36","WebKit","Chrome","136.0.0.0","Windows","10.0","https://app.prolific.com/","en-US,en;q=0.9","6769cc78e79f747dda9c7b8f","687a19d2168e237449fb8af4","6889da7783eb1b3d9bfa0eba","0","6769cc78e79f747dda9c7b8f","0","2025-07-30T08:43:39.669Z","","","","drsp","{""Q01"":""0"",""Q02"":""0"",""Q03"":""0"",""Q04"":""0"",""Q05"":""1"",""Q06"":""1"",""Q07"":""0"",""Q08"":""1"",""Q09"":""0"",""Q10"":""0"",""Q11"":""1"",""Q12"":""2"",""Q13"":""5"",""Q14"":""1"",""Q15"":""0"",""Q16"":""2"",""Q17"":""1"",""Q18"":""0"",""Q19"":""0"",""Q20"":""0"",""Q21"":""0"",""Q22"":""0""}","[0,1,2,3,4,5,6,7,8,9,10,11,12,13,14,15,16,17,18,19,20,21]","[""Q01"",""Q02"",""Q03"",""Q04"",""Q05"",""Q06"",""Q07"",""Q08"",""Q09"",""Q10"",""Q11"",""Q12"",""Q13"",""Q12"",""Q11"",""Q08"",""Q05"",""Q06"",""Q14"",""Q15"",""Q16"",""Q17"",""Q18"",""Q19"",""Q20"",""Q21"",""Q22""]","[2160.5,3859.2000000178814,4855.300000011921,5922.300000011921,7266.4000000059605,8362,9339.5,10297.40000000596,13449.5,14535.90000000596,15493.90000000596,16490.20000001788,18881,24807.20000001788,27148.40000000596,31316.80000001192,41441.59999999404,43831.70000001788,53580.40000000596,54706.59999999404,56731.20000001788,58123.70000001788,60267.09999999404,63941.59999999404,65818.20000001788,67705,68949.40000000596]","[]","[0,2160.5,3127.0999999940395,3859.2000000178814,4855.300000011921,5922.300000011921,7266.4000000059605,8362,9339.5,10297.40000000596,13449.5,14535.90000000596,15493.90000000596,16490.20000001788,18881,22535.70000001788,24807.20000001788,27148.40000000596,28827.70000001788,31316.80000001192,41441.59999999404,43831.70000001788,50232.5,53580.40000000596,54706.59999999404,56731.20000001788,58123.70000001788,59161.09999999404,60267.09999999404,63941.59999999404,65818.20000001788,67705,68949.40000000596,71043.90000000596]","0.5909090909090909","0.42857142857142855","0","","","","","","","","","","","","","","","","","","","","","","","","","","","","",""
"11522.699999988079","","","","survey-template","8","185634","0.0-4.0-4.0","26","1","2025-07-30 08:40:38","36c45c0696341be0efffe67d72a12abb","91.124.134.147","Mozilla/5.0 (Windows NT 10.0; Win64; x64) AppleWebKit/537.36 (KHTML, like Gecko) Chrome/136.0.0.0 Safari/537.36","WebKit","Chrome","136.0.0.0","Windows","10.0","https://app.prolific.com/","en-US,en;q=0.9","6769cc78e79f747dda9c7b8f","687a19d2168e237449fb8af4","6889da7783eb1b3d9bfa0eba","0","6769cc78e79f747dda9c7b8f","0","2025-07-30T08:43:51.195Z","","","","stress","{""Q01"":""0"",""Q02"":""2"",""Q03"":""0""}","[0,1,2]","[""Q01"",""Q02"",""Q03""]","[3233.7999999821186,7077.199999988079,8913.699999988079]","[]","[3233.7999999821186,7077.199999988079,8913.699999988079,11521.299999982119]","0.6666666666666666","0","0","","","","","","","","","","","","","","","","","","","","","","","","","","","","",""
"27181","","","","instructions","9","212817","0.0-5.0-0.0","26","1","2025-07-30 08:40:38","36c45c0696341be0efffe67d72a12abb","91.124.134.147","Mozilla/5.0 (Windows NT 10.0; Win64; x64) AppleWebKit/537.36 (KHTML, like Gecko) Chrome/136.0.0.0 Safari/537.36","WebKit","Chrome","136.0.0.0","Windows","10.0","https://app.prolific.com/","en-US,en;q=0.9","6769cc78e79f747dda9c7b8f","687a19d2168e237449fb8af4","6889da7783eb1b3d9bfa0eba","0","6769cc78e79f747dda9c7b8f","0","","","","","","","","","","","","","","","[{""page_index"":0,""viewing_time"":27181}]","","","","","","","","","","","","","","","","","","","","","","","","","","","",""
"6546","","<p>Before you start with this game please answer the following three questions yourself. </p>
  <p>Through this game, we measure several aspects of your cognitive performance, such as reaction times, multi-tasking capabilities </p>
  <p>and the ability to assess the situation you are in.</p>
  <p></p>
  <p><b>How good do you usually are in such tasks?</b></p>","77","html-slider-response","10","219366","0.0-6.0-0.0","26","1","2025-07-30 08:40:38","36c45c0696341be0efffe67d72a12abb","91.124.134.147","Mozilla/5.0 (Windows NT 10.0; Win64; x64) AppleWebKit/537.36 (KHTML, like Gecko) Chrome/136.0.0.0 Safari/537.36","WebKit","Chrome","136.0.0.0","Windows","10.0","https://app.prolific.com/","en-US,en;q=0.9","6769cc78e79f747dda9c7b8f","687a19d2168e237449fb8af4","6889da7783eb1b3d9bfa0eba","0","6769cc78e79f747dda9c7b8f","0","2025-07-30T08:44:24.927Z","","","","PreSkillQ","","","","","","","","","","","50","","","","","","","","","","","","","","","","","","","","","","","","","","",""
"4028","","<div style=""width:500px;"">
  <p>How well do you think you will perform in this task compared to other participants?</p>
  </div>","74","html-slider-response","11","223396","0.0-6.0-1.0","26","1","2025-07-30 08:40:38","36c45c0696341be0efffe67d72a12abb","91.124.134.147","Mozilla/5.0 (Windows NT 10.0; Win64; x64) AppleWebKit/537.36 (KHTML, like Gecko) Chrome/136.0.0.0 Safari/537.36","WebKit","Chrome","136.0.0.0","Windows","10.0","https://app.prolific.com/","en-US,en;q=0.9","6769cc78e79f747dda9c7b8f","687a19d2168e237449fb8af4","6889da7783eb1b3d9bfa0eba","0","6769cc78e79f747dda9c7b8f","0","2025-07-30T08:44:28.957Z","","","","PrePerfQ","","","","","","","","","","","50","","","","","","","","","","","","","","","","","","","","","","","","","","",""
"4176","","<div style=""width:500px;"">
  <p>What best describes how you currently feel?</p>
  </div>","100","html-slider-response","12","227574","0.0-6.0-2.0","26","1","2025-07-30 08:40:38","36c45c0696341be0efffe67d72a12abb","91.124.134.147","Mozilla/5.0 (Windows NT 10.0; Win64; x64) AppleWebKit/537.36 (KHTML, like Gecko) Chrome/136.0.0.0 Safari/537.36","WebKit","Chrome","136.0.0.0","Windows","10.0","https://app.prolific.com/","en-US,en;q=0.9","6769cc78e79f747dda9c7b8f","687a19d2168e237449fb8af4","6889da7783eb1b3d9bfa0eba","0","6769cc78e79f747dda9c7b8f","0","2025-07-30T08:44:33.135Z","","","","PreMotivationQ","","","","","","","","","","","50","","","","","","","","","","","","","","","","","","","","","","","","","","",""
"","","","","ctl-task-cpt","13","271465","0.0-7.0-0.0","26","1","2025-07-30 08:40:38","36c45c0696341be0efffe67d72a12abb","91.124.134.147","Mozilla/5.0 (Windows NT 10.0; Win64; x64) AppleWebKit/537.36 (KHTML, like Gecko) Chrome/136.0.0.0 Safari/537.36","WebKit","Chrome","136.0.0.0","Windows","10.0","https://app.prolific.com/","en-US,en;q=0.9","6769cc78e79f747dda9c7b8f","687a19d2168e237449fb8af4","6889da7783eb1b3d9bfa0eba","0","6769cc78e79f747dda9c7b8f","0","2025-07-30T08:45:17.026Z","","","","","","","","","","","","","","","","win-only","3","g1:SW,g2:NE","1","1","0","234913.1","4462.5","9466.1","40878.1","1","4","8","6","2","-8","-8","0","0","0","1560.9","3000","-2995","[""up"",""right""]","{""num_key_presses"":5,""num_perfect"":5,""num_errors"":0,""num_randdir"":0,""num_randdir_good_moves"":0,""num_whilered"":0,""num_whileblue"":0,""num_blue"":4,""num_good_moves"":5}","[296.22232142857143,295.12857142857143,0.7,296.22232142857143,295.12857142857143,104.1,296.22232142857143,295.12857142857143,206.2,296.22232142857143,295.12857142857143,308.9,335.22232142857143,324.12857142857143,409.1,281.22232142857143,407.12857142857143,513.5,160.22232142857143,458.12857142857143,613.8,155.22232142857143,457.12857142857143,719.2,158.22232142857143,451.12857142857143,820.5,449.22232142857143,121.12857142857143,921.4,495.22232142857143,73.12857142857143,1023.7,495.22232142857143,73.12857142857143,1130,512.2223214285714,75.12857142857143,1236.2,527.2223214285714,69.12857142857143,1338.9,527.2223214285714,69.12857142857143,1439.2,527.2223214285714,69.12857142857143,1543.7,527.2223214285714,69.12857142857143,1643.8,527.2223214285714,69.12857142857143,1743.9,527.2223214285714,69.12857142857143,1844.2,527.2223214285714,69.12857142857143,1949.1,527.2223214285714,69.12857142857143,2053.6,527.2223214285714,69.12857142857143,2154,527.2223214285714,69.12857142857143,2259.2,527.2223214285714,69.12857142857143,2359.4,527.2223214285714,69.12857142857143,2463.6,527.2223214285714,69.12857142857143,2563.7,527.2223214285714,69.12857142857143,2670,527.2223214285714,69.12857142857143,2770.1,527.2223214285714,69.12857142857143,2873.7,527.2223214285714,69.12857142857143,2973.7,527.2223214285714,69.12857142857143,3073.7,527.2223214285714,69.12857142857143,3179,527.2223214285714,69.12857142857143,3279,527.2223214285714,69.12857142857143,3379.1,527.2223214285714,69.12857142857143,3484,527.2223214285714,69.12857142857143,3584.5,527.2223214285714,69.12857142857143,3684.6,527.2223214285714,69.12857142857143,3789.1,527.2223214285714,69.12857142857143,3889.2,527.2223214285714,69.12857142857143,3993.7,527.2223214285714,69.12857142857143,4093.7,527.2223214285714,69.12857142857143,4198.6,527.2223214285714,69.12857142857143,4298.8,527.2223214285714,69.12857142857143,4403.6,527.2223214285714,69.12857142857143,4509.9,527.2223214285714,69.12857142857143,4614.4,527.2223214285714,69.12857142857143,4719,527.2223214285714,69.12857142857143,4819.1,527.2223214285714,69.12857142857143,4923.5]","[1484.2,1484.2,1000,0,484.2,""smooth"",""up"",""up"",""good_move"",8593.5,7108.6,2618.6,5487.1,487.8,""smooth"",""up"",""up"",""good_move"",11580.5,2986.7,2434.1,8593.8,552.6,""smooth"",""right"",""right"",""good_move"",25209.1,13626.4,3230.1,21579.6,399.4,""smooth"",""right"",""right"",""good_move"",28484,3274.6,2319.1,25209.4,955.5,""smooth"",""right"",""right"",""good_move""]"
"3972","","<div style=""width:500px;"">
  <p>What determined the result of this run?</p>
  </div>","100","html-slider-response","14","275440","0.0-7.0-1.0","26","1","2025-07-30 08:40:38","36c45c0696341be0efffe67d72a12abb","91.124.134.147","Mozilla/5.0 (Windows NT 10.0; Win64; x64) AppleWebKit/537.36 (KHTML, like Gecko) Chrome/136.0.0.0 Safari/537.36","WebKit","Chrome","136.0.0.0","Windows","10.0","https://app.prolific.com/","en-US,en;q=0.9","6769cc78e79f747dda9c7b8f","687a19d2168e237449fb8af4","6889da7783eb1b3d9bfa0eba","0","6769cc78e79f747dda9c7b8f","0","2025-07-30T08:45:21.001Z","","","","AttribQ","","","","","","","","","","","50","","","","","","","","","","","","","","","","","","","","","","","","","","",""
"2804","","<div style=""width:500px;"">
  <p>How much control did you have over the ball?</p>
  </div>","100","html-slider-response","15","278246","0.0-7.0-2.0","26","1","2025-07-30 08:40:38","36c45c0696341be0efffe67d72a12abb","91.124.134.147","Mozilla/5.0 (Windows NT 10.0; Win64; x64) AppleWebKit/537.36 (KHTML, like Gecko) Chrome/136.0.0.0 Safari/537.36","WebKit","Chrome","136.0.0.0","Windows","10.0","https://app.prolific.com/","en-US,en;q=0.9","6769cc78e79f747dda9c7b8f","687a19d2168e237449fb8af4","6889da7783eb1b3d9bfa0eba","0","6769cc78e79f747dda9c7b8f","0","2025-07-30T08:45:23.808Z","","","","ControlQ","","","","","","","","","","","50","","","","","","","","","","","","","","","","","","","","","","","","","","",""
"3673","","<div style=""width:500px;"">
  <p>How would you describe your current emotional state?</p>
  </div>","71","html-slider-response","16","281921","0.0-7.0-3.0","26","1","2025-07-30 08:40:38","36c45c0696341be0efffe67d72a12abb","91.124.134.147","Mozilla/5.0 (Windows NT 10.0; Win64; x64) AppleWebKit/537.36 (KHTML, like Gecko) Chrome/136.0.0.0 Safari/537.36","WebKit","Chrome","136.0.0.0","Windows","10.0","https://app.prolific.com/","en-US,en;q=0.9","6769cc78e79f747dda9c7b8f","687a19d2168e237449fb8af4","6889da7783eb1b3d9bfa0eba","0","6769cc78e79f747dda9c7b8f","0","2025-07-30T08:45:27.482Z","","","","StressQ","","","","","","","","","","","50","","","","","","","","","","","","","","","","","","","","","","","","","","",""
"3305","","<div style=""width:500px;"">
  <p>What best describes how you currently feel?</p>
  </div>","100","html-slider-response","17","285228","0.0-7.0-4.0","26","1","2025-07-30 08:40:38","36c45c0696341be0efffe67d72a12abb","91.124.134.147","Mozilla/5.0 (Windows NT 10.0; Win64; x64) AppleWebKit/537.36 (KHTML, like Gecko) Chrome/136.0.0.0 Safari/537.36","WebKit","Chrome","136.0.0.0","Windows","10.0","https://app.prolific.com/","en-US,en;q=0.9","6769cc78e79f747dda9c7b8f","687a19d2168e237449fb8af4","6889da7783eb1b3d9bfa0eba","0","6769cc78e79f747dda9c7b8f","0","2025-07-30T08:45:30.790Z","","","","MotivationQ","","","","","","","","","","","50","","","","","","","","","","","","","","","","","","","","","","","","","","",""
"","","","","ctl-task-cpt","18","314553","0.0-7.0-0.1","26","1","2025-07-30 08:40:38","36c45c0696341be0efffe67d72a12abb","91.124.134.147","Mozilla/5.0 (Windows NT 10.0; Win64; x64) AppleWebKit/537.36 (KHTML, like Gecko) Chrome/136.0.0.0 Safari/537.36","WebKit","Chrome","136.0.0.0","Windows","10.0","https://app.prolific.com/","en-US,en;q=0.9","6769cc78e79f747dda9c7b8f","687a19d2168e237449fb8af4","6889da7783eb1b3d9bfa0eba","0","6769cc78e79f747dda9c7b8f","0","2025-07-30T08:46:00.114Z","","","","","","","","","","","","","","","","win-only","3","g1:SW,g2:NE","0.9","2","0","292563.7","1641.1","6641.8","26317.9","1","4","4","6","2","4","3","3","0","0.022727272727272728","1179","3000","980","[""up"",""right""]","{""num_key_presses"":6,""num_perfect"":5,""num_errors"":1,""num_randdir"":0,""num_randdir_good_moves"":0,""num_whilered"":0,""num_whileblue"":1,""num_blue"":2,""num_good_moves"":6}","[297.22232142857143,299.12857142857143,0.4,297.22232142857143,299.12857142857143,104.4,297.22232142857143,299.12857142857143,205.2,297.22232142857143,299.12857142857143,305.8,297.22232142857143,299.12857142857143,408.6,297.22232142857143,299.12857142857143,515.3,406.22232142857143,209.12857142857143,615.9,535.2223214285714,73.12857142857143,718.2,535.2223214285714,73.12857142857143,819.6,535.2223214285714,72.12857142857143,926.8,535.2223214285714,72.12857142857143,1030.2,536.2223214285714,71.12857142857143,1130.5,536.2223214285714,71.12857142857143,1235.4,536.2223214285714,71.12857142857143,1339.6,536.2223214285714,71.12857142857143,1442.7,477.22232142857143,171.12857142857143,1547.4,317.22232142857143,309.12857142857143,1651.7,289.22232142857143,320.12857142857143,1755.3,289.22232142857143,320.12857142857143,1864.2,289.22232142857143,320.12857142857143,1968.9,289.22232142857143,320.12857142857143,2070.5,289.22232142857143,320.12857142857143,2177.1,289.22232142857143,320.12857142857143,2278.8,289.22232142857143,320.12857142857143,2379.4,289.22232142857143,320.12857142857143,2479.9,289.22232142857143,320.12857142857143,2580.5,289.22232142857143,320.12857142857143,2680.9,289.22232142857143,320.12857142857143,2785,289.22232142857143,320.12857142857143,2886.2,289.22232142857143,320.12857142857143,2993.3,289.22232142857143,320.12857142857143,3094.2,289.22232142857143,320.12857142857143,3195.8,289.22232142857143,320.12857142857143,3300.1,289.22232142857143,320.12857142857143,3407.5,289.22232142857143,320.12857142857143,3509.6,289.22232142857143,320.12857142857143,3611.5,289.22232142857143,320.12857142857143,3715.3,289.22232142857143,320.12857142857143,3815.3,289.22232142857143,320.12857142857143,3915.9,289.22232142857143,320.12857142857143,4016.4,289.22232142857143,320.12857142857143,4120.2,289.22232142857143,320.12857142857143,4220.2,289.22232142857143,320.12857142857143,4326.1,289.22232142857143,320.12857142857143,4426.6,289.22232142857143,320.12857142857143,4530.1,289.22232142857143,320.12857142857143,4634.9,289.22232142857143,320.12857142857143,4740.9,289.22232142857143,320.12857142857143,4841.2,289.22232142857143,320.12857142857143,4945.8]","[1374.7,1374.7,1007.3,0,367.4,""while_blue"",""up"",""right"",""good_move"",4816.1,3440.6,2985.9,1375.5,454.7,""smooth"",""up"",""up"",""good_move"",8108.9,3291.4,2843.7,4817.5,447.7,""smooth"",""up"",""up"",""good_move"",14333.7,6224.4,2980.5,11018.7,334.5,""smooth"",""up"",""up"",""good_move"",16620.7,2286.7,1722.9,14334,563.8,""smooth"",""right"",""right"",""good_move"",19572.4,2949.8,2569.6,16622.6,380.2,""smooth"",""right"",""right"",""good_move""]"
"5909","","<div style=""width:500px;"">
  <p>What determined the result of this run?</p>
  </div>","100","html-slider-response","19","320465","0.0-7.0-1.1","26","1","2025-07-30 08:40:38","36c45c0696341be0efffe67d72a12abb","91.124.134.147","Mozilla/5.0 (Windows NT 10.0; Win64; x64) AppleWebKit/537.36 (KHTML, like Gecko) Chrome/136.0.0.0 Safari/537.36","WebKit","Chrome","136.0.0.0","Windows","10.0","https://app.prolific.com/","en-US,en;q=0.9","6769cc78e79f747dda9c7b8f","687a19d2168e237449fb8af4","6889da7783eb1b3d9bfa0eba","0","6769cc78e79f747dda9c7b8f","0","2025-07-30T08:46:06.026Z","","","","AttribQ","","","","","","","","","","","50","","","","","","","","","","","","","","","","","","","","","","","","","","",""
"3011","","<div style=""width:500px;"">
  <p>How much control did you have over the ball?</p>
  </div>","100","html-slider-response","20","323478","0.0-7.0-2.1","26","1","2025-07-30 08:40:38","36c45c0696341be0efffe67d72a12abb","91.124.134.147","Mozilla/5.0 (Windows NT 10.0; Win64; x64) AppleWebKit/537.36 (KHTML, like Gecko) Chrome/136.0.0.0 Safari/537.36","WebKit","Chrome","136.0.0.0","Windows","10.0","https://app.prolific.com/","en-US,en;q=0.9","6769cc78e79f747dda9c7b8f","687a19d2168e237449fb8af4","6889da7783eb1b3d9bfa0eba","0","6769cc78e79f747dda9c7b8f","0","2025-07-30T08:46:09.039Z","","","","ControlQ","","","","","","","","","","","50","","","","","","","","","","","","","","","","","","","","","","","","","","",""
"3741","","<div style=""width:500px;"">
  <p>How would you describe your current emotional state?</p>
  </div>","0","html-slider-response","21","327223","0.0-7.0-3.1","26","1","2025-07-30 08:40:38","36c45c0696341be0efffe67d72a12abb","91.124.134.147","Mozilla/5.0 (Windows NT 10.0; Win64; x64) AppleWebKit/537.36 (KHTML, like Gecko) Chrome/136.0.0.0 Safari/537.36","WebKit","Chrome","136.0.0.0","Windows","10.0","https://app.prolific.com/","en-US,en;q=0.9","6769cc78e79f747dda9c7b8f","687a19d2168e237449fb8af4","6889da7783eb1b3d9bfa0eba","0","6769cc78e79f747dda9c7b8f","0","2025-07-30T08:46:12.784Z","","","","StressQ","","","","","","","","","","","50","","","","","","","","","","","","","","","","","","","","","","","","","","",""
"2713","","<div style=""width:500px;"">
  <p>What best describes how you currently feel?</p>
  </div>","100","html-slider-response","22","329938","0.0-7.0-4.1","26","1","2025-07-30 08:40:38","36c45c0696341be0efffe67d72a12abb","91.124.134.147","Mozilla/5.0 (Windows NT 10.0; Win64; x64) AppleWebKit/537.36 (KHTML, like Gecko) Chrome/136.0.0.0 Safari/537.36","WebKit","Chrome","136.0.0.0","Windows","10.0","https://app.prolific.com/","en-US,en;q=0.9","6769cc78e79f747dda9c7b8f","687a19d2168e237449fb8af4","6889da7783eb1b3d9bfa0eba","0","6769cc78e79f747dda9c7b8f","0","2025-07-30T08:46:15.499Z","","","","MotivationQ","","","","","","","","","","","50","","","","","","","","","","","","","","","","","","","","","","","","","","",""
"","","","","ctl-task-cpt","23","389157","0.0-7.0-0.2","26","1","2025-07-30 08:40:38","36c45c0696341be0efffe67d72a12abb","91.124.134.147","Mozilla/5.0 (Windows NT 10.0; Win64; x64) AppleWebKit/537.36 (KHTML, like Gecko) Chrome/136.0.0.0 Safari/537.36","WebKit","Chrome","136.0.0.0","Windows","10.0","https://app.prolific.com/","en-US,en;q=0.9","6769cc78e79f747dda9c7b8f","687a19d2168e237449fb8af4","6889da7783eb1b3d9bfa0eba","0","6769cc78e79f747dda9c7b8f","0","2025-07-30T08:47:14.718Z","","","","","","","","","","","","","","","","win-only","1","g1:NE,g2:SW","0.8","3","0","337276.3","2292.5","7302.4","56197.3","1","4","4","6","2","-4","-6","0","3","0","1559.8","3000","-2530","[""down"",""left""]","{""num_key_presses"":10,""num_perfect"":6,""num_errors"":2,""num_randdir"":2,""num_randdir_good_moves"":1,""num_whilered"":0,""num_whileblue"":1,""num_blue"":7,""num_good_moves"":7}","[296.22232142857143,304.12857142857143,1.1,296.22232142857143,304.12857142857143,103.6,296.22232142857143,304.12857142857143,204.2,296.22232142857143,304.12857142857143,309.1,296.22232142857143,304.12857142857143,412.4,296.22232142857143,304.12857142857143,522,296.22232142857143,304.12857142857143,624.7,296.22232142857143,304.12857142857143,733.2,294.22232142857143,321.12857142857143,836,102.22232142857143,583.1285714285714,938.2,102.22232142857143,583.1285714285714,1039,102.22232142857143,583.1285714285714,1139,88.22232142857143,569.1285714285714,1239.1,61.222321428571426,557.1285714285714,1339.3,61.222321428571426,557.1285714285714,1439.8,61.222321428571426,557.1285714285714,1553.3,61.222321428571426,557.1285714285714,1654.1,61.222321428571426,557.1285714285714,1754.9,61.222321428571426,557.1285714285714,1859.7,61.222321428571426,557.1285714285714,1964.1,61.222321428571426,557.1285714285714,2064.8,61.222321428571426,557.1285714285714,2165.3,61.222321428571426,557.1285714285714,2269.1,61.222321428571426,557.1285714285714,2369.9,61.222321428571426,557.1285714285714,2480.1,61.222321428571426,557.1285714285714,2581,61.222321428571426,557.1285714285714,2684.4,61.222321428571426,557.1285714285714,2784.6,61.222321428571426,557.1285714285714,2891.7,61.222321428571426,557.1285714285714,2994.2,61.222321428571426,557.1285714285714,3098.7,61.222321428571426,557.1285714285714,3203.4,61.222321428571426,557.1285714285714,3303.6,61.222321428571426,557.1285714285714,3405.1,61.222321428571426,557.1285714285714,3511.3,61.222321428571426,557.1285714285714,3612.3,61.222321428571426,557.1285714285714,3715.5,61.222321428571426,557.1285714285714,3818.4,61.222321428571426,557.1285714285714,3919.1,61.222321428571426,557.1285714285714,4024.3,61.222321428571426,557.1285714285714,4128.2,61.222321428571426,557.1285714285714,4230.3,61.222321428571426,557.1285714285714,4331.5,61.222321428571426,557.1285714285714,4434,61.222321428571426,557.1285714285714,4539.9,61.222321428571426,557.1285714285714,4644.5,61.222321428571426,557.1285714285714,4744.9,61.222321428571426,557.1285714285714,4849.1,61.222321428571426,557.1285714285714,4949.3]","[2272.5,2272.6,2904.6,2013.4,-2645.4,""error"",""-"",""-"",""no_move"",7150.8,4877.7,3505.8,3279.7,365.3,""smooth"",""down"",""down"",""good_move"",12641.7,5490.2,2411.4,9928.6,301.7,""while_blue"",""down"",""right"",""bad_move"",15782.9,3140.6,2703.6,12642.3,437,""smooth"",""down"",""down"",""good_move"",22875,7090.9,2806.3,19643.4,425.3,""smooth"",""left"",""left"",""good_move"",28297.6,5421.9,2259.2,25503.2,535.2,""smooth"",""left"",""left"",""good_move"",31444.9,3146.9,2693.7,28298,453.2,""oops"",""left"",""down"",""good_move"",41127.1,9681.4,2279.6,38424.4,423.1,""smooth"",""left"",""left"",""good_move"",44421.7,3294.2,2849.2,41127.5,445,""oops"",""left"",""right"",""bad_move"",46872.2,2449.7,2040.1,44422.5,409.6,""smooth"",""left"",""left"",""good_move""]"
"3159","","<div style=""width:500px;"">
  <p>What determined the result of this run?</p>
  </div>","100","html-slider-response","24","392318","0.0-7.0-1.2","26","1","2025-07-30 08:40:38","36c45c0696341be0efffe67d72a12abb","91.124.134.147","Mozilla/5.0 (Windows NT 10.0; Win64; x64) AppleWebKit/537.36 (KHTML, like Gecko) Chrome/136.0.0.0 Safari/537.36","WebKit","Chrome","136.0.0.0","Windows","10.0","https://app.prolific.com/","en-US,en;q=0.9","6769cc78e79f747dda9c7b8f","687a19d2168e237449fb8af4","6889da7783eb1b3d9bfa0eba","0","6769cc78e79f747dda9c7b8f","0","2025-07-30T08:47:17.879Z","","","","AttribQ","","","","","","","","","","","50","","","","","","","","","","","","","","","","","","","","","","","","","","",""
"2596","","<div style=""width:500px;"">
  <p>How much control did you have over the ball?</p>
  </div>","100","html-slider-response","25","394916","0.0-7.0-2.2","26","1","2025-07-30 08:40:38","36c45c0696341be0efffe67d72a12abb","91.124.134.147","Mozilla/5.0 (Windows NT 10.0; Win64; x64) AppleWebKit/537.36 (KHTML, like Gecko) Chrome/136.0.0.0 Safari/537.36","WebKit","Chrome","136.0.0.0","Windows","10.0","https://app.prolific.com/","en-US,en;q=0.9","6769cc78e79f747dda9c7b8f","687a19d2168e237449fb8af4","6889da7783eb1b3d9bfa0eba","0","6769cc78e79f747dda9c7b8f","0","2025-07-30T08:47:20.478Z","","","","ControlQ","","","","","","","","","","","50","","","","","","","","","","","","","","","","","","","","","","","","","","",""
"3751","","<div style=""width:500px;"">
  <p>How would you describe your current emotional state?</p>
  </div>","7","html-slider-response","26","398671","0.0-7.0-3.2","26","1","2025-07-30 08:40:38","36c45c0696341be0efffe67d72a12abb","91.124.134.147","Mozilla/5.0 (Windows NT 10.0; Win64; x64) AppleWebKit/537.36 (KHTML, like Gecko) Chrome/136.0.0.0 Safari/537.36","WebKit","Chrome","136.0.0.0","Windows","10.0","https://app.prolific.com/","en-US,en;q=0.9","6769cc78e79f747dda9c7b8f","687a19d2168e237449fb8af4","6889da7783eb1b3d9bfa0eba","0","6769cc78e79f747dda9c7b8f","0","2025-07-30T08:47:24.232Z","","","","StressQ","","","","","","","","","","","50","","","","","","","","","","","","","","","","","","","","","","","","","","",""
"2771","","<div style=""width:500px;"">
  <p>What best describes how you currently feel?</p>
  </div>","83","html-slider-response","27","401444","0.0-7.0-4.2","26","1","2025-07-30 08:40:38","36c45c0696341be0efffe67d72a12abb","91.124.134.147","Mozilla/5.0 (Windows NT 10.0; Win64; x64) AppleWebKit/537.36 (KHTML, like Gecko) Chrome/136.0.0.0 Safari/537.36","WebKit","Chrome","136.0.0.0","Windows","10.0","https://app.prolific.com/","en-US,en;q=0.9","6769cc78e79f747dda9c7b8f","687a19d2168e237449fb8af4","6889da7783eb1b3d9bfa0eba","0","6769cc78e79f747dda9c7b8f","0","2025-07-30T08:47:27.005Z","","","","MotivationQ","","","","","","","","","","","50","","","","","","","","","","","","","","","","","","","","","","","","","","",""
"","","","","ctl-task-cpt","28","430910","0.0-7.0-0.3","26","1","2025-07-30 08:40:38","36c45c0696341be0efffe67d72a12abb","91.124.134.147","Mozilla/5.0 (Windows NT 10.0; Win64; x64) AppleWebKit/537.36 (KHTML, like Gecko) Chrome/136.0.0.0 Safari/537.36","WebKit","Chrome","136.0.0.0","Windows","10.0","https://app.prolific.com/","en-US,en;q=0.9","6769cc78e79f747dda9c7b8f","687a19d2168e237449fb8af4","6889da7783eb1b3d9bfa0eba","0","6769cc78e79f747dda9c7b8f","0","2025-07-30T08:47:56.471Z","","","","","","","","","","","","","","","","win-only","0","g1:NW,g2:SE","0.7","4","0","408781.4","1391.4","6392.6","26436.7","1","4","8","6","2","8","8","8","0","0.06060606060606061","1253.1","3000","1160","[""down"",""right""]","{""num_key_presses"":6,""num_perfect"":4,""num_errors"":0,""num_randdir"":2,""num_randdir_good_moves"":2,""num_whilered"":0,""num_whileblue"":0,""num_blue"":1,""num_good_moves"":6}","[293.22232142857143,304.12857142857143,0.4,293.22232142857143,304.12857142857143,104.7,293.22232142857143,304.12857142857143,205.1,293.22232142857143,304.12857142857143,315.7,293.22232142857143,304.12857142857143,422.7,293.22232142857143,304.12857142857143,534.8,335.22232142857143,342.12857142857143,640.2,534.2223214285714,521.1285714285714,743.5,534.2223214285714,524.1285714285714,848.2,532.2223214285714,532.1285714285714,949.6,556.2223214285714,552.1285714285714,1050.9,556.2223214285714,552.1285714285714,1156.3,556.2223214285714,552.1285714285714,1264.9,556.2223214285714,552.1285714285714,1369.9,556.2223214285714,552.1285714285714,1471.8,556.2223214285714,552.1285714285714,1577.8,556.2223214285714,552.1285714285714,1680.7,556.2223214285714,552.1285714285714,1786.1,556.2223214285714,552.1285714285714,1892.6,556.2223214285714,552.1285714285714,1997.2,556.2223214285714,552.1285714285714,2097.3,556.2223214285714,552.1285714285714,2200.7,556.2223214285714,552.1285714285714,2301.1,556.2223214285714,552.1285714285714,2403,556.2223214285714,552.1285714285714,2503.3,556.2223214285714,552.1285714285714,2607.6,556.2223214285714,552.1285714285714,2709.3,556.2223214285714,552.1285714285714,2822.7,556.2223214285714,552.1285714285714,2936.6,556.2223214285714,552.1285714285714,3037.7,556.2223214285714,552.1285714285714,3152.3,556.2223214285714,552.1285714285714,3262.3,556.2223214285714,552.1285714285714,3366.4,556.2223214285714,552.1285714285714,3467.2,556.2223214285714,552.1285714285714,3572.1,556.2223214285714,552.1285714285714,3685,556.2223214285714,552.1285714285714,3800,556.2223214285714,552.1285714285714,3900.5,556.2223214285714,552.1285714285714,4012.4,556.2223214285714,552.1285714285714,4114.7,556.2223214285714,552.1285714285714,4215,556.2223214285714,552.1285714285714,4320.6,556.2223214285714,552.1285714285714,4422.3,556.2223214285714,552.1285714285714,4523.2,556.2223214285714,552.1285714285714,4628,556.2223214285714,552.1285714285714,4735.8,556.2223214285714,552.1285714285714,4841.2,556.2223214285714,552.1285714285714,4942.9]","[4783.4,4783.4,2399.2,2005.8,378.4,""oops"",""down"",""down"",""good_move"",8377.7,3592.7,3110.1,4785.1,482.6,""smooth"",""right"",""right"",""good_move"",11318.1,2938.7,2505.8,8379.4,432.9,""smooth"",""right"",""right"",""good_move"",13991.7,2673.1,2296.4,11318.6,376.7,""smooth"",""right"",""right"",""good_move"",16845.2,2853.1,2512,13992.2,341.1,""oops"",""down"",""down"",""good_move"",19933,3087.1,2689.3,16845.9,397.8,""smooth"",""down"",""down"",""good_move""]"
"2982","","<div style=""width:500px;"">
  <p>What determined the result of this run?</p>
  </div>","100","html-slider-response","29","433894","0.0-7.0-1.3","26","1","2025-07-30 08:40:38","36c45c0696341be0efffe67d72a12abb","91.124.134.147","Mozilla/5.0 (Windows NT 10.0; Win64; x64) AppleWebKit/537.36 (KHTML, like Gecko) Chrome/136.0.0.0 Safari/537.36","WebKit","Chrome","136.0.0.0","Windows","10.0","https://app.prolific.com/","en-US,en;q=0.9","6769cc78e79f747dda9c7b8f","687a19d2168e237449fb8af4","6889da7783eb1b3d9bfa0eba","0","6769cc78e79f747dda9c7b8f","0","2025-07-30T08:47:59.456Z","","","","AttribQ","","","","","","","","","","","50","","","","","","","","","","","","","","","","","","","","","","","","","","",""
"3295","","<div style=""width:500px;"">
  <p>How much control did you have over the ball?</p>
  </div>","100","html-slider-response","30","437193","0.0-7.0-2.3","26","1","2025-07-30 08:40:38","36c45c0696341be0efffe67d72a12abb","91.124.134.147","Mozilla/5.0 (Windows NT 10.0; Win64; x64) AppleWebKit/537.36 (KHTML, like Gecko) Chrome/136.0.0.0 Safari/537.36","WebKit","Chrome","136.0.0.0","Windows","10.0","https://app.prolific.com/","en-US,en;q=0.9","6769cc78e79f747dda9c7b8f","687a19d2168e237449fb8af4","6889da7783eb1b3d9bfa0eba","0","6769cc78e79f747dda9c7b8f","0","2025-07-30T08:48:02.754Z","","","","ControlQ","","","","","","","","","","","50","","","","","","","","","","","","","","","","","","","","","","","","","","",""
"2604","","<div style=""width:500px;"">
  <p>How would you describe your current emotional state?</p>
  </div>","0","html-slider-response","31","439800","0.0-7.0-3.3","26","1","2025-07-30 08:40:38","36c45c0696341be0efffe67d72a12abb","91.124.134.147","Mozilla/5.0 (Windows NT 10.0; Win64; x64) AppleWebKit/537.36 (KHTML, like Gecko) Chrome/136.0.0.0 Safari/537.36","WebKit","Chrome","136.0.0.0","Windows","10.0","https://app.prolific.com/","en-US,en;q=0.9","6769cc78e79f747dda9c7b8f","687a19d2168e237449fb8af4","6889da7783eb1b3d9bfa0eba","0","6769cc78e79f747dda9c7b8f","0","2025-07-30T08:48:05.361Z","","","","StressQ","","","","","","","","","","","50","","","","","","","","","","","","","","","","","","","","","","","","","","",""
"2862","","<div style=""width:500px;"">
  <p>What best describes how you currently feel?</p>
  </div>","93","html-slider-response","32","442665","0.0-7.0-4.3","26","1","2025-07-30 08:40:38","36c45c0696341be0efffe67d72a12abb","91.124.134.147","Mozilla/5.0 (Windows NT 10.0; Win64; x64) AppleWebKit/537.36 (KHTML, like Gecko) Chrome/136.0.0.0 Safari/537.36","WebKit","Chrome","136.0.0.0","Windows","10.0","https://app.prolific.com/","en-US,en;q=0.9","6769cc78e79f747dda9c7b8f","687a19d2168e237449fb8af4","6889da7783eb1b3d9bfa0eba","0","6769cc78e79f747dda9c7b8f","0","2025-07-30T08:48:08.226Z","","","","MotivationQ","","","","","","","","","","","50","","","","","","","","","","","","","","","","","","","","","","","","","","",""
"","","","","ctl-task-cpt","33","475629","0.0-7.0-0.4","26","1","2025-07-30 08:40:38","36c45c0696341be0efffe67d72a12abb","91.124.134.147","Mozilla/5.0 (Windows NT 10.0; Win64; x64) AppleWebKit/537.36 (KHTML, like Gecko) Chrome/136.0.0.0 Safari/537.36","WebKit","Chrome","136.0.0.0","Windows","10.0","https://app.prolific.com/","en-US,en;q=0.9","6769cc78e79f747dda9c7b8f","687a19d2168e237449fb8af4","6889da7783eb1b3d9bfa0eba","0","6769cc78e79f747dda9c7b8f","0","2025-07-30T08:48:41.190Z","","","","","","","","","","","","","","","","win-only","0","g1:NW,g2:SE","0.6","5","0","450006.9","9275","14276.8","29932.1","1","4","4","6","2","4","4","12","8","0.09090909090909091","1836","3000","1260","[""down"",""right""]","{""num_key_presses"":6,""num_perfect"":5,""num_errors"":0,""num_randdir"":1,""num_randdir_good_moves"":1,""num_whilered"":0,""num_whileblue"":0,""num_blue"":0,""num_good_moves"":6}","[292.22232142857143,296.12857142857143,0.9,292.22232142857143,296.12857142857143,104,292.22232142857143,296.12857142857143,207.1,292.22232142857143,296.12857142857143,313.8,292.22232142857143,296.12857142857143,424,292.22232142857143,296.12857142857143,528.1,292.22232142857143,296.12857142857143,633,283.22232142857143,303.12857142857143,737,376.22232142857143,380.12857142857143,845.4,463.22232142857143,475.12857142857143,954.6,463.22232142857143,475.12857142857143,1055.4,465.22232142857143,478.12857142857143,1157.1,546.2223214285714,571.1285714285714,1257.6,546.2223214285714,572.1285714285714,1358.5,546.2223214285714,575.1285714285714,1461.3,544.2223214285714,575.1285714285714,1563.9,544.2223214285714,575.1285714285714,1676.7,544.2223214285714,575.1285714285714,1789.8,544.2223214285714,575.1285714285714,1893.5,544.2223214285714,575.1285714285714,1993.6,544.2223214285714,575.1285714285714,2104.6,544.2223214285714,575.1285714285714,2206.7,544.2223214285714,575.1285714285714,2321.2,544.2223214285714,575.1285714285714,2422,544.2223214285714,575.1285714285714,2532.7,544.2223214285714,575.1285714285714,2633.6,544.2223214285714,575.1285714285714,2736.5,544.2223214285714,575.1285714285714,2838.2,544.2223214285714,575.1285714285714,2944.7,544.2223214285714,575.1285714285714,3047.7,544.2223214285714,575.1285714285714,3148.1,544.2223214285714,575.1285714285714,3253.5,544.2223214285714,575.1285714285714,3354.6,544.2223214285714,575.1285714285714,3464.8,544.2223214285714,575.1285714285714,3567.5,544.2223214285714,575.1285714285714,3669.9,544.2223214285714,575.1285714285714,3771.3,542.2223214285714,575.1285714285714,3872.7,363.22232142857143,425.12857142857143,3988.8,348.22232142857143,405.12857142857143,4103.8,349.22232142857143,400.12857142857143,4218.9,349.22232142857143,400.12857142857143,4325,349.22232142857143,400.12857142857143,4427.1,349.22232142857143,400.12857142857143,4528.9,349.22232142857143,400.12857142857143,4629.7,349.22232142857143,400.12857142857143,4737.1,349.22232142857143,400.12857142857143,4839.7,349.22232142857143,400.12857142857143,4944.4]","[1605.9,1605.9,1000,0,605.9,""oops"",""right"",""down"",""good_move"",3970.2,2362.7,1943.3,1607.5,419.4,""smooth"",""right"",""right"",""good_move"",6485.5,2513.4,2065,3972.1,448.4,""smooth"",""right"",""right"",""good_move"",9288.1,2801,2415.4,6487.1,385.6,""smooth"",""right"",""right"",""good_move"",12131.9,2843.3,2506.1,9288.6,337.2,""smooth"",""down"",""down"",""good_move"",15507.1,3374.9,3033.1,12132.3,341.8,""smooth"",""down"",""down"",""good_move""]"
"3055","","<div style=""width:500px;"">
  <p>What determined the result of this run?</p>
  </div>","100","html-slider-response","34","478686","0.0-7.0-1.4","26","1","2025-07-30 08:40:38","36c45c0696341be0efffe67d72a12abb","91.124.134.147","Mozilla/5.0 (Windows NT 10.0; Win64; x64) AppleWebKit/537.36 (KHTML, like Gecko) Chrome/136.0.0.0 Safari/537.36","WebKit","Chrome","136.0.0.0","Windows","10.0","https://app.prolific.com/","en-US,en;q=0.9","6769cc78e79f747dda9c7b8f","687a19d2168e237449fb8af4","6889da7783eb1b3d9bfa0eba","0","6769cc78e79f747dda9c7b8f","0","2025-07-30T08:48:44.247Z","","","","AttribQ","","","","","","","","","","","50","","","","","","","","","","","","","","","","","","","","","","","","","","",""
"3591","","<div style=""width:500px;"">
  <p>How much control did you have over the ball?</p>
  </div>","100","html-slider-response","35","482280","0.0-7.0-2.4","26","1","2025-07-30 08:40:38","36c45c0696341be0efffe67d72a12abb","91.124.134.147","Mozilla/5.0 (Windows NT 10.0; Win64; x64) AppleWebKit/537.36 (KHTML, like Gecko) Chrome/136.0.0.0 Safari/537.36","WebKit","Chrome","136.0.0.0","Windows","10.0","https://app.prolific.com/","en-US,en;q=0.9","6769cc78e79f747dda9c7b8f","687a19d2168e237449fb8af4","6889da7783eb1b3d9bfa0eba","0","6769cc78e79f747dda9c7b8f","0","2025-07-30T08:48:47.841Z","","","","ControlQ","","","","","","","","","","","50","","","","","","","","","","","","","","","","","","","","","","","","","","",""
"2378","","<div style=""width:500px;"">
  <p>How would you describe your current emotional state?</p>
  </div>","0","html-slider-response","36","484660","0.0-7.0-3.4","26","1","2025-07-30 08:40:38","36c45c0696341be0efffe67d72a12abb","91.124.134.147","Mozilla/5.0 (Windows NT 10.0; Win64; x64) AppleWebKit/537.36 (KHTML, like Gecko) Chrome/136.0.0.0 Safari/537.36","WebKit","Chrome","136.0.0.0","Windows","10.0","https://app.prolific.com/","en-US,en;q=0.9","6769cc78e79f747dda9c7b8f","687a19d2168e237449fb8af4","6889da7783eb1b3d9bfa0eba","0","6769cc78e79f747dda9c7b8f","0","2025-07-30T08:48:50.221Z","","","","StressQ","","","","","","","","","","","50","","","","","","","","","","","","","","","","","","","","","","","","","","",""
"3582","","<div style=""width:500px;"">
  <p>What best describes how you currently feel?</p>
  </div>","100","html-slider-response","37","488245","0.0-7.0-4.4","26","1","2025-07-30 08:40:38","36c45c0696341be0efffe67d72a12abb","91.124.134.147","Mozilla/5.0 (Windows NT 10.0; Win64; x64) AppleWebKit/537.36 (KHTML, like Gecko) Chrome/136.0.0.0 Safari/537.36","WebKit","Chrome","136.0.0.0","Windows","10.0","https://app.prolific.com/","en-US,en;q=0.9","6769cc78e79f747dda9c7b8f","687a19d2168e237449fb8af4","6889da7783eb1b3d9bfa0eba","0","6769cc78e79f747dda9c7b8f","0","2025-07-30T08:48:53.806Z","","","","MotivationQ","","","","","","","","","","","50","","","","","","","","","","","","","","","","","","","","","","","","","","",""
"","","","","ctl-task-cpt","38","535823","0.0-7.0-0.5","26","1","2025-07-30 08:40:38","36c45c0696341be0efffe67d72a12abb","91.124.134.147","Mozilla/5.0 (Windows NT 10.0; Win64; x64) AppleWebKit/537.36 (KHTML, like Gecko) Chrome/136.0.0.0 Safari/537.36","WebKit","Chrome","136.0.0.0","Windows","10.0","https://app.prolific.com/","en-US,en;q=0.9","6769cc78e79f747dda9c7b8f","687a19d2168e237449fb8af4","6889da7783eb1b3d9bfa0eba","0","6769cc78e79f747dda9c7b8f","0","2025-07-30T08:49:41.384Z","","","","","","","","","","","","","","","","win-only","3","g1:SW,g2:NE","0.5","6","0","495583.2","1133","6138.9","44558.5","1","4","8","6","2","-8","-10","2","12","0.015151515151515152","1322.7","3000","-1945","[""up"",""right""]","{""num_key_presses"":10,""num_perfect"":5,""num_errors"":2,""num_randdir"":3,""num_randdir_good_moves"":1,""num_whilered"":0,""num_whileblue"":1,""num_blue"":3,""num_good_moves"":7}","[296.22232142857143,288.12857142857143,0.3,296.22232142857143,288.12857142857143,113.2,296.22232142857143,288.12857142857143,214.5,296.22232142857143,288.12857142857143,321.8,296.22232142857143,288.12857142857143,423.8,296.22232142857143,288.12857142857143,523.9,296.22232142857143,288.12857142857143,625.8,313.22232142857143,280.12857142857143,730.2,521.2223214285714,92.12857142857143,833.7,537.2223214285714,79.12857142857143,937.6,546.2223214285714,72.12857142857143,1052.5,550.2223214285714,69.12857142857143,1154.5,550.2223214285714,69.12857142857143,1259.6,550.2223214285714,69.12857142857143,1362.9,550.2223214285714,69.12857142857143,1463.8,550.2223214285714,69.12857142857143,1568.9,549.2223214285714,77.12857142857143,1674.7,489.22232142857143,164.12857142857143,1789.9,424.22232142857143,281.12857142857143,1897.6,411.22232142857143,341.12857142857143,2006.4,434.22232142857143,335.12857142857143,2107.8,434.22232142857143,335.12857142857143,2218.5,434.22232142857143,335.12857142857143,2330.9,434.22232142857143,335.12857142857143,2434.8,434.22232142857143,335.12857142857143,2537.1,434.22232142857143,335.12857142857143,2641,434.22232142857143,335.12857142857143,2744.2,434.22232142857143,335.12857142857143,2844.5,434.22232142857143,335.12857142857143,2947.1,434.22232142857143,335.12857142857143,3050.9,434.22232142857143,335.12857142857143,3154.1,434.22232142857143,335.12857142857143,3256.6,434.22232142857143,335.12857142857143,3361.6,434.22232142857143,335.12857142857143,3478.2,434.22232142857143,335.12857142857143,3583.7,434.22232142857143,335.12857142857143,3693.1,434.22232142857143,335.12857142857143,3793.2,434.22232142857143,335.12857142857143,3893.5,434.22232142857143,335.12857142857143,3997.2,434.22232142857143,335.12857142857143,4100.9,434.22232142857143,335.12857142857143,4208.7,434.22232142857143,335.12857142857143,4315.7,434.22232142857143,335.12857142857143,4416.9,434.22232142857143,335.12857142857143,4523.3,434.22232142857143,335.12857142857143,4625.3,434.22232142857143,335.12857142857143,4731.3,434.22232142857143,335.12857142857143,4832.7,434.22232142857143,335.12857142857143,4936.4]","[469.2,469.3,1000,0,-530.7,""error"",""-"",""-"",""no_move"",7975.6,7505.7,2812.2,4691.7,471.7,""oops"",""up"",""left"",""bad_move"",10822.8,2846.1,2314.9,7976.8,531.2,""smooth"",""right"",""right"",""good_move"",13934.4,3104.5,2624.7,10830,479.8,""oops"",""right"",""left"",""bad_move"",16712.6,2776.7,2233.8,13937.3,541.6,""smooth"",""right"",""right"",""good_move"",20749.7,4036.1,2567.3,16713.6,1468.8,""smooth"",""up"",""up"",""good_move"",24613.4,3863,3290.7,20750.4,572.3,""smooth"",""up"",""up"",""good_move"",26959.3,2344.5,1914.2,24614.9,430.2,""oops"",""right"",""up"",""good_move"",29825,2864.2,2464.6,26960.8,399.6,""while_blue"",""right"",""right"",""good_move"",32788.7,2962.9,2561.9,29825.9,400.9,""smooth"",""right"",""right"",""good_move""]"
"3459","","<div style=""width:500px;"">
  <p>What determined the result of this run?</p>
  </div>","100","html-slider-response","39","539284","0.0-7.0-1.5","26","1","2025-07-30 08:40:38","36c45c0696341be0efffe67d72a12abb","91.124.134.147","Mozilla/5.0 (Windows NT 10.0; Win64; x64) AppleWebKit/537.36 (KHTML, like Gecko) Chrome/136.0.0.0 Safari/537.36","WebKit","Chrome","136.0.0.0","Windows","10.0","https://app.prolific.com/","en-US,en;q=0.9","6769cc78e79f747dda9c7b8f","687a19d2168e237449fb8af4","6889da7783eb1b3d9bfa0eba","0","6769cc78e79f747dda9c7b8f","0","2025-07-30T08:49:44.845Z","","","","AttribQ","","","","","","","","","","","50","","","","","","","","","","","","","","","","","","","","","","","","","","",""
"3029","","<div style=""width:500px;"">
  <p>How much control did you have over the ball?</p>
  </div>","76","html-slider-response","40","542316","0.0-7.0-2.5","26","1","2025-07-30 08:40:38","36c45c0696341be0efffe67d72a12abb","91.124.134.147","Mozilla/5.0 (Windows NT 10.0; Win64; x64) AppleWebKit/537.36 (KHTML, like Gecko) Chrome/136.0.0.0 Safari/537.36","WebKit","Chrome","136.0.0.0","Windows","10.0","https://app.prolific.com/","en-US,en;q=0.9","6769cc78e79f747dda9c7b8f","687a19d2168e237449fb8af4","6889da7783eb1b3d9bfa0eba","0","6769cc78e79f747dda9c7b8f","0","2025-07-30T08:49:47.877Z","","","","ControlQ","","","","","","","","","","","50","","","","","","","","","","","","","","","","","","","","","","","","","","",""
"3642","","<div style=""width:500px;"">
  <p>How would you describe your current emotional state?</p>
  </div>","68","html-slider-response","41","545961","0.0-7.0-3.5","26","1","2025-07-30 08:40:38","36c45c0696341be0efffe67d72a12abb","91.124.134.147","Mozilla/5.0 (Windows NT 10.0; Win64; x64) AppleWebKit/537.36 (KHTML, like Gecko) Chrome/136.0.0.0 Safari/537.36","WebKit","Chrome","136.0.0.0","Windows","10.0","https://app.prolific.com/","en-US,en;q=0.9","6769cc78e79f747dda9c7b8f","687a19d2168e237449fb8af4","6889da7783eb1b3d9bfa0eba","0","6769cc78e79f747dda9c7b8f","0","2025-07-30T08:49:51.522Z","","","","StressQ","","","","","","","","","","","50","","","","","","","","","","","","","","","","","","","","","","","","","","",""
"3394","","<div style=""width:500px;"">
  <p>What best describes how you currently feel?</p>
  </div>","75","html-slider-response","42","549358","0.0-7.0-4.5","26","1","2025-07-30 08:40:38","36c45c0696341be0efffe67d72a12abb","91.124.134.147","Mozilla/5.0 (Windows NT 10.0; Win64; x64) AppleWebKit/537.36 (KHTML, like Gecko) Chrome/136.0.0.0 Safari/537.36","WebKit","Chrome","136.0.0.0","Windows","10.0","https://app.prolific.com/","en-US,en;q=0.9","6769cc78e79f747dda9c7b8f","687a19d2168e237449fb8af4","6889da7783eb1b3d9bfa0eba","0","6769cc78e79f747dda9c7b8f","0","2025-07-30T08:49:54.920Z","","","","MotivationQ","","","","","","","","","","","50","","","","","","","","","","","","","","","","","","","","","","","","","","",""
"","","","","ctl-task-cpt","43","601130","0.0-7.0-0.6","26","1","2025-07-30 08:40:38","36c45c0696341be0efffe67d72a12abb","91.124.134.147","Mozilla/5.0 (Windows NT 10.0; Win64; x64) AppleWebKit/537.36 (KHTML, like Gecko) Chrome/136.0.0.0 Safari/537.36","WebKit","Chrome","136.0.0.0","Windows","10.0","https://app.prolific.com/","en-US,en;q=0.9","6769cc78e79f747dda9c7b8f","687a19d2168e237449fb8af4","6889da7783eb1b3d9bfa0eba","0","6769cc78e79f747dda9c7b8f","0","2025-07-30T08:50:46.691Z","","","","","","","","","","","","","","","","win-only","1","g1:NE,g2:SW","0.4","7","0","556696.4","4199.3","9208.5","48745.9","1","4","8","6","2","-8","-8","0","2","0","1728.9","3000","-1730","[""down"",""left""]","{""num_key_presses"":12,""num_perfect"":4,""num_errors"":0,""num_randdir"":8,""num_randdir_good_moves"":3,""num_whilered"":0,""num_whileblue"":0,""num_blue"":1,""num_good_moves"":7}","[293.22232142857143,302.12857142857143,0.4,293.22232142857143,302.12857142857143,104.9,293.22232142857143,302.12857142857143,208.5,293.22232142857143,302.12857142857143,309.6,293.22232142857143,302.12857142857143,416.2,293.22232142857143,302.12857142857143,527,334.22232142857143,296.12857142857143,631.3,230.22232142857143,444.12857142857143,734,109.22232142857143,523.1285714285714,837.1,101.22232142857143,520.1285714285714,943.5,101.22232142857143,520.1285714285714,1049.9,102.22232142857143,520.1285714285714,1152.3,102.22232142857143,520.1285714285714,1257.6,102.22232142857143,520.1285714285714,1359.1,77.22232142857143,529.1285714285714,1460.2,63.222321428571426,534.1285714285714,1570.3,63.222321428571426,534.1285714285714,1675.5,63.222321428571426,534.1285714285714,1777.4,63.222321428571426,534.1285714285714,1883.2,63.222321428571426,534.1285714285714,1985,63.222321428571426,534.1285714285714,2088.8,63.222321428571426,534.1285714285714,2190.4,63.222321428571426,534.1285714285714,2292.8,63.222321428571426,534.1285714285714,2394.6,63.222321428571426,534.1285714285714,2496,63.222321428571426,534.1285714285714,2598.5,63.222321428571426,534.1285714285714,2714.1,63.222321428571426,534.1285714285714,2815.3,63.222321428571426,534.1285714285714,2927.1,63.222321428571426,534.1285714285714,3033,63.222321428571426,534.1285714285714,3136.4,63.222321428571426,534.1285714285714,3237.4,63.222321428571426,534.1285714285714,3345.2,63.222321428571426,534.1285714285714,3450.3,63.222321428571426,534.1285714285714,3553.3,63.222321428571426,534.1285714285714,3655,63.222321428571426,534.1285714285714,3762,63.222321428571426,534.1285714285714,3865.4,63.222321428571426,534.1285714285714,3973.8,63.222321428571426,534.1285714285714,4076.6,63.222321428571426,534.1285714285714,4179.2,63.222321428571426,534.1285714285714,4285.2,63.222321428571426,534.1285714285714,4396.2,63.222321428571426,534.1285714285714,4503.5,63.222321428571426,534.1285714285714,4607,63.222321428571426,534.1285714285714,4710.7,63.222321428571426,534.1285714285714,4820.4,63.222321428571426,534.1285714285714,4923.3]","[1490,1490,1000,0,490,""smooth"",""down"",""down"",""good_move"",4075.7,2584.5,2183.5,1491.2,401,""oops"",""down"",""right"",""bad_move"",6728.7,2651.1,2207.4,4077.6,443.7,""smooth"",""left"",""left"",""good_move"",8948.2,2218.3,1688.2,6729.9,530.1,""oops"",""left"",""down"",""good_move"",11513.1,2563.9,2160.8,8949.2,403.1,""oops"",""left"",""right"",""bad_move"",14108.4,2594.5,2103.4,11513.9,491.1,""smooth"",""down"",""down"",""good_move"",16190,2080.7,1670.5,14109.4,410.1,""oops"",""left"",""right"",""bad_move"",19324.4,3133.4,2718.3,16191,415.1,""smooth"",""left"",""left"",""good_move"",25777.6,6452.7,2806.7,22619.5,351.5,""oops"",""left"",""right"",""bad_move"",29625.1,3846.9,3408.4,25778.3,438.4,""oops"",""left"",""left"",""good_move"",33020.7,3394.3,3020.8,29626.4,373.5,""oops"",""left"",""right"",""bad_move"",36492.6,3471.1,2658.8,33021.6,812.3,""oops"",""left"",""left"",""good_move""]"
"3309","","<div style=""width:500px;"">
  <p>What determined the result of this run?</p>
  </div>","50","html-slider-response","44","604442","0.0-7.0-1.6","26","1","2025-07-30 08:40:38","36c45c0696341be0efffe67d72a12abb","91.124.134.147","Mozilla/5.0 (Windows NT 10.0; Win64; x64) AppleWebKit/537.36 (KHTML, like Gecko) Chrome/136.0.0.0 Safari/537.36","WebKit","Chrome","136.0.0.0","Windows","10.0","https://app.prolific.com/","en-US,en;q=0.9","6769cc78e79f747dda9c7b8f","687a19d2168e237449fb8af4","6889da7783eb1b3d9bfa0eba","0","6769cc78e79f747dda9c7b8f","0","2025-07-30T08:50:50.003Z","","","","AttribQ","","","","","","","","","","","50","","","","","","","","","","","","","","","","","","","","","","","","","","",""
"3643","","<div style=""width:500px;"">
  <p>How much control did you have over the ball?</p>
  </div>","33","html-slider-response","45","608090","0.0-7.0-2.6","26","1","2025-07-30 08:40:38","36c45c0696341be0efffe67d72a12abb","91.124.134.147","Mozilla/5.0 (Windows NT 10.0; Win64; x64) AppleWebKit/537.36 (KHTML, like Gecko) Chrome/136.0.0.0 Safari/537.36","WebKit","Chrome","136.0.0.0","Windows","10.0","https://app.prolific.com/","en-US,en;q=0.9","6769cc78e79f747dda9c7b8f","687a19d2168e237449fb8af4","6889da7783eb1b3d9bfa0eba","0","6769cc78e79f747dda9c7b8f","0","2025-07-30T08:50:53.651Z","","","","ControlQ","","","","","","","","","","","50","","","","","","","","","","","","","","","","","","","","","","","","","","",""
"3312","","<div style=""width:500px;"">
  <p>How would you describe your current emotional state?</p>
  </div>","73","html-slider-response","46","611404","0.0-7.0-3.6","26","1","2025-07-30 08:40:38","36c45c0696341be0efffe67d72a12abb","91.124.134.147","Mozilla/5.0 (Windows NT 10.0; Win64; x64) AppleWebKit/537.36 (KHTML, like Gecko) Chrome/136.0.0.0 Safari/537.36","WebKit","Chrome","136.0.0.0","Windows","10.0","https://app.prolific.com/","en-US,en;q=0.9","6769cc78e79f747dda9c7b8f","687a19d2168e237449fb8af4","6889da7783eb1b3d9bfa0eba","0","6769cc78e79f747dda9c7b8f","0","2025-07-30T08:50:56.965Z","","","","StressQ","","","","","","","","","","","50","","","","","","","","","","","","","","","","","","","","","","","","","","",""
"4709","","<div style=""width:500px;"">
  <p>What best describes how you currently feel?</p>
  </div>","73","html-slider-response","47","616116","0.0-7.0-4.6","26","1","2025-07-30 08:40:38","36c45c0696341be0efffe67d72a12abb","91.124.134.147","Mozilla/5.0 (Windows NT 10.0; Win64; x64) AppleWebKit/537.36 (KHTML, like Gecko) Chrome/136.0.0.0 Safari/537.36","WebKit","Chrome","136.0.0.0","Windows","10.0","https://app.prolific.com/","en-US,en;q=0.9","6769cc78e79f747dda9c7b8f","687a19d2168e237449fb8af4","6889da7783eb1b3d9bfa0eba","0","6769cc78e79f747dda9c7b8f","0","2025-07-30T08:51:01.677Z","","","","MotivationQ","","","","","","","","","","","50","","","","","","","","","","","","","","","","","","","","","","","","","","",""
"","","","","ctl-task-cpt","48","676106","0.0-7.0-0.7","26","1","2025-07-30 08:40:38","36c45c0696341be0efffe67d72a12abb","91.124.134.147","Mozilla/5.0 (Windows NT 10.0; Win64; x64) AppleWebKit/537.36 (KHTML, like Gecko) Chrome/136.0.0.0 Safari/537.36","WebKit","Chrome","136.0.0.0","Windows","10.0","https://app.prolific.com/","en-US,en;q=0.9","6769cc78e79f747dda9c7b8f","687a19d2168e237449fb8af4","6889da7783eb1b3d9bfa0eba","0","6769cc78e79f747dda9c7b8f","0","2025-07-30T08:52:01.668Z","","","","","","","","","","","","","","","","win-only","2","g1:SE,g2:NW","0.3","8","0","623454.7","1290","6295.7","56971.5","1","4","4","6","2","-4","-6","0","0","0","1828.1","3000","-1460","[""left"",""up""]","{""num_key_presses"":12,""num_perfect"":3,""num_errors"":2,""num_randdir"":7,""num_randdir_good_moves"":3,""num_whilered"":0,""num_whileblue"":1,""num_blue"":4,""num_good_moves"":7}","[294.22232142857143,294.12857142857143,1,294.22232142857143,294.12857142857143,104.1,294.22232142857143,294.12857142857143,209.5,294.22232142857143,294.12857142857143,312,294.22232142857143,294.12857142857143,415.8,294.22232142857143,294.12857142857143,516.2,294.22232142857143,294.12857142857143,619.7,365.22232142857143,328.12857142857143,720.3,487.22232142857143,458.12857142857143,832.3,496.22232142857143,480.12857142857143,938.1,350.22232142857143,288.12857142857143,1038.6,94.22232142857143,23.128571428571426,1151,94.22232142857143,23.128571428571426,1255.8,94.22232142857143,23.128571428571426,1359.6,75.22232142857143,35.128571428571426,1470.5,50.222321428571426,63.128571428571426,1571.3,50.222321428571426,63.128571428571426,1674.2,50.222321428571426,63.128571428571426,1774.9,50.222321428571426,63.128571428571426,1876.4,50.222321428571426,63.128571428571426,1982,50.222321428571426,63.128571428571426,2085.3,50.222321428571426,63.128571428571426,2194.2,50.222321428571426,63.128571428571426,2297.8,50.222321428571426,63.128571428571426,2404.3,50.222321428571426,63.128571428571426,2511.4,50.222321428571426,63.128571428571426,2614.7,50.222321428571426,63.128571428571426,2717.1,50.222321428571426,63.128571428571426,2822.1,50.222321428571426,63.128571428571426,2930.4,50.222321428571426,63.128571428571426,3034.1,50.222321428571426,63.128571428571426,3138,50.222321428571426,63.128571428571426,3252.8,50.222321428571426,63.128571428571426,3360.4,50.222321428571426,63.128571428571426,3463.1,50.222321428571426,63.128571428571426,3573.5,50.222321428571426,63.128571428571426,3674.3,50.222321428571426,63.128571428571426,3779.6,50.222321428571426,63.128571428571426,3883.2,50.222321428571426,63.128571428571426,3992.3,50.222321428571426,63.128571428571426,4097.1,50.222321428571426,63.128571428571426,4198.4,50.222321428571426,63.128571428571426,4304.3,50.222321428571426,63.128571428571426,4409,50.222321428571426,63.128571428571426,4515,50.222321428571426,63.128571428571426,4621.3,50.222321428571426,63.128571428571426,4728.6,50.222321428571426,63.128571428571426,4831.5,50.222321428571426,63.128571428571426,4932.5]","[5217.5,5217.6,2756.1,2018.5,443,""smooth"",""left"",""left"",""good_move"",11814.6,6596.1,2350.6,9031,433,""oops"",""left"",""right"",""bad_move"",15075.1,3259.9,2740.2,11815.3,519.7,""oops"",""up"",""down"",""bad_move"",18548.1,3471.9,3052.2,15076.3,419.7,""smooth"",""up"",""up"",""good_move"",22364.5,3815.6,3430.3,18548.9,385.3,""oops"",""up"",""up"",""good_move"",25499.1,3133.6,2705.1,22365.5,428.5,""oops"",""up"",""right"",""bad_move"",29353.2,3853.2,3371.8,25500,481.5,""while_blue"",""up"",""up"",""good_move"",32203.4,2849.1,2300.5,29354.4,548.5,""oops"",""left"",""left"",""good_move"",35904.7,3700.3,3291,32204.4,409.3,""smooth"",""left"",""left"",""good_move"",39507.8,3602,1685.9,39482.9,-1660.9,""error"",""-"",""-"",""no_move"",43718.2,4209.7,2735.1,40514.5,468.6,""oops"",""left"",""right"",""bad_move"",47381.3,3662,3007.5,43719.3,654.5,""oops"",""up"",""up"",""good_move""]"
"3308","","<div style=""width:500px;"">
  <p>What determined the result of this run?</p>
  </div>","71","html-slider-response","49","679417","0.0-7.0-1.7","26","1","2025-07-30 08:40:38","36c45c0696341be0efffe67d72a12abb","91.124.134.147","Mozilla/5.0 (Windows NT 10.0; Win64; x64) AppleWebKit/537.36 (KHTML, like Gecko) Chrome/136.0.0.0 Safari/537.36","WebKit","Chrome","136.0.0.0","Windows","10.0","https://app.prolific.com/","en-US,en;q=0.9","6769cc78e79f747dda9c7b8f","687a19d2168e237449fb8af4","6889da7783eb1b3d9bfa0eba","0","6769cc78e79f747dda9c7b8f","0","2025-07-30T08:52:04.978Z","","","","AttribQ","","","","","","","","","","","50","","","","","","","","","","","","","","","","","","","","","","","","","","",""
"5380","","<div style=""width:500px;"">
  <p>How much control did you have over the ball?</p>
  </div>","72","html-slider-response","50","684800","0.0-7.0-2.7","26","1","2025-07-30 08:40:38","36c45c0696341be0efffe67d72a12abb","91.124.134.147","Mozilla/5.0 (Windows NT 10.0; Win64; x64) AppleWebKit/537.36 (KHTML, like Gecko) Chrome/136.0.0.0 Safari/537.36","WebKit","Chrome","136.0.0.0","Windows","10.0","https://app.prolific.com/","en-US,en;q=0.9","6769cc78e79f747dda9c7b8f","687a19d2168e237449fb8af4","6889da7783eb1b3d9bfa0eba","0","6769cc78e79f747dda9c7b8f","0","2025-07-30T08:52:10.361Z","","","","ControlQ","","","","","","","","","","","50","","","","","","","","","","","","","","","","","","","","","","","","","","",""
"3128","","<div style=""width:500px;"">
  <p>How would you describe your current emotional state?</p>
  </div>","63","html-slider-response","51","687931","0.0-7.0-3.7","26","1","2025-07-30 08:40:38","36c45c0696341be0efffe67d72a12abb","91.124.134.147","Mozilla/5.0 (Windows NT 10.0; Win64; x64) AppleWebKit/537.36 (KHTML, like Gecko) Chrome/136.0.0.0 Safari/537.36","WebKit","Chrome","136.0.0.0","Windows","10.0","https://app.prolific.com/","en-US,en;q=0.9","6769cc78e79f747dda9c7b8f","687a19d2168e237449fb8af4","6889da7783eb1b3d9bfa0eba","0","6769cc78e79f747dda9c7b8f","0","2025-07-30T08:52:13.492Z","","","","StressQ","","","","","","","","","","","50","","","","","","","","","","","","","","","","","","","","","","","","","","",""
"2761","","<div style=""width:500px;"">
  <p>What best describes how you currently feel?</p>
  </div>","81","html-slider-response","52","690696","0.0-7.0-4.7","26","1","2025-07-30 08:40:38","36c45c0696341be0efffe67d72a12abb","91.124.134.147","Mozilla/5.0 (Windows NT 10.0; Win64; x64) AppleWebKit/537.36 (KHTML, like Gecko) Chrome/136.0.0.0 Safari/537.36","WebKit","Chrome","136.0.0.0","Windows","10.0","https://app.prolific.com/","en-US,en;q=0.9","6769cc78e79f747dda9c7b8f","687a19d2168e237449fb8af4","6889da7783eb1b3d9bfa0eba","0","6769cc78e79f747dda9c7b8f","0","2025-07-30T08:52:16.257Z","","","","MotivationQ","","","","","","","","","","","50","","","","","","","","","","","","","","","","","","","","","","","","","","",""
"","","","","ctl-task-cpt","53","733969","0.0-7.0-0.8","26","1","2025-07-30 08:40:38","36c45c0696341be0efffe67d72a12abb","91.124.134.147","Mozilla/5.0 (Windows NT 10.0; Win64; x64) AppleWebKit/537.36 (KHTML, like Gecko) Chrome/136.0.0.0 Safari/537.36","WebKit","Chrome","136.0.0.0","Windows","10.0","https://app.prolific.com/","en-US,en;q=0.9","6769cc78e79f747dda9c7b8f","687a19d2168e237449fb8af4","6889da7783eb1b3d9bfa0eba","0","6769cc78e79f747dda9c7b8f","0","2025-07-30T08:52:59.531Z","","","","","","","","","","","","","","","","win-only","2","g1:SE,g2:NW","0.4","9","0","698035","2207.6","7213.1","40237.3","1","4","4","6","2","-4","-5","0","0","0","1522.1","3000","-1155","[""left"",""up""]","{""num_key_presses"":9,""num_perfect"":4,""num_errors"":1,""num_randdir"":4,""num_randdir_good_moves"":2,""num_whilered"":0,""num_whileblue"":1,""num_blue"":2,""num_good_moves"":6}","[290.22232142857143,296.12857142857143,1,290.22232142857143,296.12857142857143,100.4,290.22232142857143,296.12857142857143,205.6,290.22232142857143,296.12857142857143,312.4,290.22232142857143,296.12857142857143,419.7,290.22232142857143,296.12857142857143,527,290.22232142857143,296.12857142857143,627.1,290.22232142857143,296.12857142857143,731.9,290.22232142857143,296.12857142857143,842.5,283.22232142857143,296.12857142857143,948.5,99.22232142857143,138.12857142857143,1059.9,21.222321428571426,31.128571428571426,1167,21.222321428571426,31.128571428571426,1275.1,21.222321428571426,31.128571428571426,1378.7,21.222321428571426,31.128571428571426,1482,21.222321428571426,31.128571428571426,1583,21.222321428571426,31.128571428571426,1686.4,21.222321428571426,31.128571428571426,1797.6,21.222321428571426,31.128571428571426,1906.8,21.222321428571426,31.128571428571426,2011.5,32.222321428571426,86.12857142857143,2116.7,33.222321428571426,105.12857142857143,2227.1,33.222321428571426,105.12857142857143,2328.5,33.222321428571426,105.12857142857143,2429.3,33.222321428571426,105.12857142857143,2536.7,33.222321428571426,105.12857142857143,2646.5,33.222321428571426,105.12857142857143,2749.6,33.222321428571426,105.12857142857143,2858.8,33.222321428571426,105.12857142857143,2967.2,33.222321428571426,105.12857142857143,3074.8,33.222321428571426,105.12857142857143,3179.7,33.222321428571426,105.12857142857143,3287.2,33.222321428571426,105.12857142857143,3395.6,33.222321428571426,105.12857142857143,3495.9,33.222321428571426,105.12857142857143,3599.5,33.222321428571426,105.12857142857143,3705.7,33.222321428571426,105.12857142857143,3807.4,33.222321428571426,105.12857142857143,3914.1,33.222321428571426,105.12857142857143,4022.5,33.222321428571426,105.12857142857143,4133.4,33.222321428571426,105.12857142857143,4239.6,33.222321428571426,105.12857142857143,4349.9,33.222321428571426,105.12857142857143,4454.2,33.222321428571426,105.12857142857143,4564.8,33.222321428571426,105.12857142857143,4672.9,33.222321428571426,105.12857142857143,4781.2,33.222321428571426,105.12857142857143,4888.2,33.222321428571426,105.12857142857143,4993.3]","[1431,1431,1000,0,431,""smooth"",""left"",""left"",""good_move"",7799.1,6367.1,2705.6,4704.2,389.3,""smooth"",""left"",""left"",""good_move"",11985.6,4186.2,2571.2,7799.4,1615,""oops"",""left"",""right"",""bad_move"",15565.2,3578.4,2207,11986.8,1371.4,""oops"",""up"",""left"",""good_move"",18917.7,3351.8,2595.7,15565.9,756.1,""smooth"",""up"",""up"",""good_move"",21442,2523,1421,18919,1102,""oops"",""up"",""up"",""good_move"",24006.6,2563.7,2130.9,21443,432.8,""smooth"",""up"",""up"",""good_move"",26984.8,2977.2,2626.9,24007.6,350.3,""oops"",""left"",""down"",""bad_move"",30404.2,3418.1,3037.7,26986.2,380.3,""while_blue"",""up"",""down"",""bad_move""]"
"3292","","<div style=""width:500px;"">
  <p>What determined the result of this run?</p>
  </div>","100","html-slider-response","54","737265","0.0-7.0-1.8","26","1","2025-07-30 08:40:38","36c45c0696341be0efffe67d72a12abb","91.124.134.147","Mozilla/5.0 (Windows NT 10.0; Win64; x64) AppleWebKit/537.36 (KHTML, like Gecko) Chrome/136.0.0.0 Safari/537.36","WebKit","Chrome","136.0.0.0","Windows","10.0","https://app.prolific.com/","en-US,en;q=0.9","6769cc78e79f747dda9c7b8f","687a19d2168e237449fb8af4","6889da7783eb1b3d9bfa0eba","0","6769cc78e79f747dda9c7b8f","0","2025-07-30T08:53:02.827Z","","","","AttribQ","","","","","","","","","","","50","","","","","","","","","","","","","","","","","","","","","","","","","","",""
"3591","","<div style=""width:500px;"">
  <p>How much control did you have over the ball?</p>
  </div>","98","html-slider-response","55","740861","0.0-7.0-2.8","26","1","2025-07-30 08:40:38","36c45c0696341be0efffe67d72a12abb","91.124.134.147","Mozilla/5.0 (Windows NT 10.0; Win64; x64) AppleWebKit/537.36 (KHTML, like Gecko) Chrome/136.0.0.0 Safari/537.36","WebKit","Chrome","136.0.0.0","Windows","10.0","https://app.prolific.com/","en-US,en;q=0.9","6769cc78e79f747dda9c7b8f","687a19d2168e237449fb8af4","6889da7783eb1b3d9bfa0eba","0","6769cc78e79f747dda9c7b8f","0","2025-07-30T08:53:06.422Z","","","","ControlQ","","","","","","","","","","","50","","","","","","","","","","","","","","","","","","","","","","","","","","",""
"2662","","<div style=""width:500px;"">
  <p>How would you describe your current emotional state?</p>
  </div>","88","html-slider-response","56","743527","0.0-7.0-3.8","26","1","2025-07-30 08:40:38","36c45c0696341be0efffe67d72a12abb","91.124.134.147","Mozilla/5.0 (Windows NT 10.0; Win64; x64) AppleWebKit/537.36 (KHTML, like Gecko) Chrome/136.0.0.0 Safari/537.36","WebKit","Chrome","136.0.0.0","Windows","10.0","https://app.prolific.com/","en-US,en;q=0.9","6769cc78e79f747dda9c7b8f","687a19d2168e237449fb8af4","6889da7783eb1b3d9bfa0eba","0","6769cc78e79f747dda9c7b8f","0","2025-07-30T08:53:09.088Z","","","","StressQ","","","","","","","","","","","50","","","","","","","","","","","","","","","","","","","","","","","","","","",""
"3789","","<div style=""width:500px;"">
  <p>What best describes how you currently feel?</p>
  </div>","67","html-slider-response","57","747319","0.0-7.0-4.8","26","1","2025-07-30 08:40:38","36c45c0696341be0efffe67d72a12abb","91.124.134.147","Mozilla/5.0 (Windows NT 10.0; Win64; x64) AppleWebKit/537.36 (KHTML, like Gecko) Chrome/136.0.0.0 Safari/537.36","WebKit","Chrome","136.0.0.0","Windows","10.0","https://app.prolific.com/","en-US,en;q=0.9","6769cc78e79f747dda9c7b8f","687a19d2168e237449fb8af4","6889da7783eb1b3d9bfa0eba","0","6769cc78e79f747dda9c7b8f","0","2025-07-30T08:53:12.880Z","","","","MotivationQ","","","","","","","","","","","50","","","","","","","","","","","","","","","","","","","","","","","","","","",""
"","","","","ctl-task-cpt","58","781912","0.0-7.0-0.9","26","1","2025-07-30 08:40:38","36c45c0696341be0efffe67d72a12abb","91.124.134.147","Mozilla/5.0 (Windows NT 10.0; Win64; x64) AppleWebKit/537.36 (KHTML, like Gecko) Chrome/136.0.0.0 Safari/537.36","WebKit","Chrome","136.0.0.0","Windows","10.0","https://app.prolific.com/","en-US,en;q=0.9","6769cc78e79f747dda9c7b8f","687a19d2168e237449fb8af4","6889da7783eb1b3d9bfa0eba","0","6769cc78e79f747dda9c7b8f","0","2025-07-30T08:53:47.473Z","","","","","","","","","","","","","","","","win-only","3","g1:SW,g2:NE","0.5","10","0","754658.4","2249.6","7251.7","31570.3","1","4","8","6","2","8","8","8","0","0.06060606060606061","1439.2","3000","1865","[""up"",""right""]","{""num_key_presses"":6,""num_perfect"":4,""num_errors"":0,""num_randdir"":2,""num_randdir_good_moves"":2,""num_whilered"":0,""num_whileblue"":0,""num_blue"":2,""num_good_moves"":6}","[294.22232142857143,293.12857142857143,0.6,294.22232142857143,293.12857142857143,104.8,294.22232142857143,293.12857142857143,206.1,294.22232142857143,293.12857142857143,317.3,294.22232142857143,293.12857142857143,428.7,294.22232142857143,293.12857142857143,536.8,294.22232142857143,293.12857142857143,642.4,294.22232142857143,293.12857142857143,752.6,374.22232142857143,213.12857142857143,856.8,544.2223214285714,40.128571428571426,966.1,544.2223214285714,40.128571428571426,1089.7,546.2223214285714,37.128571428571426,1212.4,546.2223214285714,37.128571428571426,1319.9,546.2223214285714,37.128571428571426,1430.8,546.2223214285714,37.128571428571426,1536.7,546.2223214285714,37.128571428571426,1644.8,546.2223214285714,37.128571428571426,1756.4,546.2223214285714,37.128571428571426,1869.4,546.2223214285714,37.128571428571426,1980.3,546.2223214285714,37.128571428571426,2086.8,546.2223214285714,37.128571428571426,2187.7,546.2223214285714,37.128571428571426,2293.9,546.2223214285714,37.128571428571426,2403.1,546.2223214285714,37.128571428571426,2505.4,546.2223214285714,37.128571428571426,2614.8,546.2223214285714,37.128571428571426,2722.2,546.2223214285714,37.128571428571426,2828.5,546.2223214285714,37.128571428571426,2937.5,546.2223214285714,37.128571428571426,3045.2,546.2223214285714,37.128571428571426,3148,546.2223214285714,37.128571428571426,3252.3,546.2223214285714,37.128571428571426,3359.4,546.2223214285714,37.128571428571426,3466.3,546.2223214285714,37.128571428571426,3576.6,546.2223214285714,37.128571428571426,3686.9,546.2223214285714,37.128571428571426,3802.4,546.2223214285714,37.128571428571426,3912.7,546.2223214285714,37.128571428571426,4017.6,546.2223214285714,37.128571428571426,4121.6,546.2223214285714,37.128571428571426,4227.7,546.2223214285714,37.128571428571426,4331.5,546.2223214285714,37.128571428571426,4439.3,546.2223214285714,37.128571428571426,4550.3,546.2223214285714,37.128571428571426,4657.5,546.2223214285714,37.128571428571426,4768,546.2223214285714,37.128571428571426,4878.8,546.2223214285714,37.128571428571426,4986.3]","[1395,1395,1000,0,395,""oops"",""up"",""right"",""good_move"",5241.3,3845.3,3381,1396,464.3,""smooth"",""up"",""up"",""good_move"",8014.5,2772,2326.8,5242.5,445.2,""smooth"",""up"",""up"",""good_move"",15095.9,7080.5,2931.9,11604.6,559.5,""smooth"",""right"",""right"",""good_move"",21007.8,5911.2,1929.6,18692.7,385.5,""oops"",""right"",""right"",""good_move"",24118,3109.2,2725.8,21008.8,383.4,""smooth"",""up"",""up"",""good_move""]"
"3324","","<div style=""width:500px;"">
  <p>What determined the result of this run?</p>
  </div>","100","html-slider-response","59","785239","0.0-7.0-1.9","26","1","2025-07-30 08:40:38","36c45c0696341be0efffe67d72a12abb","91.124.134.147","Mozilla/5.0 (Windows NT 10.0; Win64; x64) AppleWebKit/537.36 (KHTML, like Gecko) Chrome/136.0.0.0 Safari/537.36","WebKit","Chrome","136.0.0.0","Windows","10.0","https://app.prolific.com/","en-US,en;q=0.9","6769cc78e79f747dda9c7b8f","687a19d2168e237449fb8af4","6889da7783eb1b3d9bfa0eba","0","6769cc78e79f747dda9c7b8f","0","2025-07-30T08:53:50.800Z","","","","AttribQ","","","","","","","","","","","50","","","","","","","","","","","","","","","","","","","","","","","","","","",""
"2654","","<div style=""width:500px;"">
  <p>How much control did you have over the ball?</p>
  </div>","100","html-slider-response","60","787896","0.0-7.0-2.9","26","1","2025-07-30 08:40:38","36c45c0696341be0efffe67d72a12abb","91.124.134.147","Mozilla/5.0 (Windows NT 10.0; Win64; x64) AppleWebKit/537.36 (KHTML, like Gecko) Chrome/136.0.0.0 Safari/537.36","WebKit","Chrome","136.0.0.0","Windows","10.0","https://app.prolific.com/","en-US,en;q=0.9","6769cc78e79f747dda9c7b8f","687a19d2168e237449fb8af4","6889da7783eb1b3d9bfa0eba","0","6769cc78e79f747dda9c7b8f","0","2025-07-30T08:53:53.457Z","","","","ControlQ","","","","","","","","","","","50","","","","","","","","","","","","","","","","","","","","","","","","","","",""
"3188","","<div style=""width:500px;"">
  <p>How would you describe your current emotional state?</p>
  </div>","0","html-slider-response","61","791087","0.0-7.0-3.9","26","1","2025-07-30 08:40:38","36c45c0696341be0efffe67d72a12abb","91.124.134.147","Mozilla/5.0 (Windows NT 10.0; Win64; x64) AppleWebKit/537.36 (KHTML, like Gecko) Chrome/136.0.0.0 Safari/537.36","WebKit","Chrome","136.0.0.0","Windows","10.0","https://app.prolific.com/","en-US,en;q=0.9","6769cc78e79f747dda9c7b8f","687a19d2168e237449fb8af4","6889da7783eb1b3d9bfa0eba","0","6769cc78e79f747dda9c7b8f","0","2025-07-30T08:53:56.649Z","","","","StressQ","","","","","","","","","","","50","","","","","","","","","","","","","","","","","","","","","","","","","","",""
"2772","","<div style=""width:500px;"">
  <p>What best describes how you currently feel?</p>
  </div>","97","html-slider-response","62","793863","0.0-7.0-4.9","26","1","2025-07-30 08:40:38","36c45c0696341be0efffe67d72a12abb","91.124.134.147","Mozilla/5.0 (Windows NT 10.0; Win64; x64) AppleWebKit/537.36 (KHTML, like Gecko) Chrome/136.0.0.0 Safari/537.36","WebKit","Chrome","136.0.0.0","Windows","10.0","https://app.prolific.com/","en-US,en;q=0.9","6769cc78e79f747dda9c7b8f","687a19d2168e237449fb8af4","6889da7783eb1b3d9bfa0eba","0","6769cc78e79f747dda9c7b8f","0","2025-07-30T08:53:59.425Z","","","","MotivationQ","","","","","","","","","","","50","","","","","","","","","","","","","","","","","","","","","","","","","","",""
"","","","","ctl-task-cpt","63","831786","0.0-7.0-0.10","26","1","2025-07-30 08:40:38","36c45c0696341be0efffe67d72a12abb","91.124.134.147","Mozilla/5.0 (Windows NT 10.0; Win64; x64) AppleWebKit/537.36 (KHTML, like Gecko) Chrome/136.0.0.0 Safari/537.36","WebKit","Chrome","136.0.0.0","Windows","10.0","https://app.prolific.com/","en-US,en;q=0.9","6769cc78e79f747dda9c7b8f","687a19d2168e237449fb8af4","6889da7783eb1b3d9bfa0eba","0","6769cc78e79f747dda9c7b8f","0","2025-07-30T08:54:37.347Z","","","","","","","","","","","","","","","","win-only","1","g1:NE,g2:SW","0.6","11","0","801202.7","1544.6","6546.5","34894.4","1","4","8","6","2","8","8","16","8","0.12121212121212122","1342.9","3000","1505","[""down"",""left""]","{""num_key_presses"":10,""num_perfect"":6,""num_errors"":0,""num_randdir"":4,""num_randdir_good_moves"":2,""num_whilered"":0,""num_whileblue"":0,""num_blue"":0,""num_good_moves"":8}","[294.22232142857143,296.12857142857143,0.4,294.22232142857143,296.12857142857143,115.4,294.22232142857143,296.12857142857143,226.5,294.22232142857143,296.12857142857143,335.2,291.22232142857143,292.12857142857143,437,266.22232142857143,277.12857142857143,540.1,115.22232142857143,417.12857142857143,640.7,73.22232142857143,471.12857142857143,753.3,73.22232142857143,471.12857142857143,863.4,70.22232142857143,478.12857142857143,972.9,64.22232142857143,519.1285714285714,1075.9,65.22232142857143,523.1285714285714,1180.5,65.22232142857143,523.1285714285714,1294.1,65.22232142857143,523.1285714285714,1405.3,65.22232142857143,523.1285714285714,1509,65.22232142857143,523.1285714285714,1616,65.22232142857143,523.1285714285714,1726.1,65.22232142857143,523.1285714285714,1831.9,65.22232142857143,523.1285714285714,1939.3,65.22232142857143,523.1285714285714,2057.1,65.22232142857143,523.1285714285714,2166.2,65.22232142857143,523.1285714285714,2276.9,65.22232142857143,523.1285714285714,2387.5,65.22232142857143,523.1285714285714,2491.8,65.22232142857143,523.1285714285714,2593.1,65.22232142857143,523.1285714285714,2701.5,65.22232142857143,523.1285714285714,2805.9,65.22232142857143,523.1285714285714,2914.3,65.22232142857143,523.1285714285714,3017.3,65.22232142857143,523.1285714285714,3125,65.22232142857143,523.1285714285714,3227.8,65.22232142857143,523.1285714285714,3338.1,65.22232142857143,523.1285714285714,3443.2,65.22232142857143,523.1285714285714,3546.6,65.22232142857143,523.1285714285714,3649.7,65.22232142857143,523.1285714285714,3749.9,65.22232142857143,523.1285714285714,3850.9,65.22232142857143,523.1285714285714,3961.5,65.22232142857143,523.1285714285714,4067.2,65.22232142857143,523.1285714285714,4168.9,65.22232142857143,523.1285714285714,4274,65.22232142857143,523.1285714285714,4382,65.22232142857143,523.1285714285714,4483,65.22232142857143,523.1285714285714,4584.1,65.22232142857143,523.1285714285714,4688.6,65.22232142857143,523.1285714285714,4798.1,65.22232142857143,523.1285714285714,4908.6]","[1414.9,1414.8,1000,0.1,414.8,""smooth"",""down"",""down"",""good_move"",4895.3,3479.4,3090.6,1416,388.7,""smooth"",""down"",""down"",""good_move"",7344.1,2448.2,2031.3,4895.9,416.9,""oops"",""left"",""right"",""bad_move"",10193,2847.6,2447.7,7345.4,399.9,""smooth"",""down"",""down"",""good_move"",12954.6,2761.1,2337.1,10193.5,424,""oops"",""left"",""right"",""bad_move"",15937.5,2982,2571.5,12955.6,410.4,""oops"",""left"",""left"",""good_move"",19594.7,3656.2,3253.8,15938.5,402.4,""oops"",""left"",""left"",""good_move"",22426.2,2830.7,2499.1,19595.5,331.6,""smooth"",""left"",""left"",""good_move"",25259.5,2832.9,2032.1,22426.6,800.8,""smooth"",""left"",""left"",""good_move"",28131.4,2871.5,2134.6,25259.9,737,""smooth"",""left"",""left"",""good_move""]"
"2924","","<div style=""width:500px;"">
  <p>What determined the result of this run?</p>
  </div>","100","html-slider-response","64","834713","0.0-7.0-1.10","26","1","2025-07-30 08:40:38","36c45c0696341be0efffe67d72a12abb","91.124.134.147","Mozilla/5.0 (Windows NT 10.0; Win64; x64) AppleWebKit/537.36 (KHTML, like Gecko) Chrome/136.0.0.0 Safari/537.36","WebKit","Chrome","136.0.0.0","Windows","10.0","https://app.prolific.com/","en-US,en;q=0.9","6769cc78e79f747dda9c7b8f","687a19d2168e237449fb8af4","6889da7783eb1b3d9bfa0eba","0","6769cc78e79f747dda9c7b8f","0","2025-07-30T08:54:40.275Z","","","","AttribQ","","","","","","","","","","","50","","","","","","","","","","","","","","","","","","","","","","","","","","",""
"2475","","<div style=""width:500px;"">
  <p>How much control did you have over the ball?</p>
  </div>","100","html-slider-response","65","837192","0.0-7.0-2.10","26","1","2025-07-30 08:40:38","36c45c0696341be0efffe67d72a12abb","91.124.134.147","Mozilla/5.0 (Windows NT 10.0; Win64; x64) AppleWebKit/537.36 (KHTML, like Gecko) Chrome/136.0.0.0 Safari/537.36","WebKit","Chrome","136.0.0.0","Windows","10.0","https://app.prolific.com/","en-US,en;q=0.9","6769cc78e79f747dda9c7b8f","687a19d2168e237449fb8af4","6889da7783eb1b3d9bfa0eba","0","6769cc78e79f747dda9c7b8f","0","2025-07-30T08:54:42.753Z","","","","ControlQ","","","","","","","","","","","50","","","","","","","","","","","","","","","","","","","","","","","","","","",""
"2763","","<div style=""width:500px;"">
  <p>How would you describe your current emotional state?</p>
  </div>","6","html-slider-response","66","839957","0.0-7.0-3.10","26","1","2025-07-30 08:40:38","36c45c0696341be0efffe67d72a12abb","91.124.134.147","Mozilla/5.0 (Windows NT 10.0; Win64; x64) AppleWebKit/537.36 (KHTML, like Gecko) Chrome/136.0.0.0 Safari/537.36","WebKit","Chrome","136.0.0.0","Windows","10.0","https://app.prolific.com/","en-US,en;q=0.9","6769cc78e79f747dda9c7b8f","687a19d2168e237449fb8af4","6889da7783eb1b3d9bfa0eba","0","6769cc78e79f747dda9c7b8f","0","2025-07-30T08:54:45.519Z","","","","StressQ","","","","","","","","","","","50","","","","","","","","","","","","","","","","","","","","","","","","","","",""
"2388","","<div style=""width:500px;"">
  <p>What best describes how you currently feel?</p>
  </div>","100","html-slider-response","67","842348","0.0-7.0-4.10","26","1","2025-07-30 08:40:38","36c45c0696341be0efffe67d72a12abb","91.124.134.147","Mozilla/5.0 (Windows NT 10.0; Win64; x64) AppleWebKit/537.36 (KHTML, like Gecko) Chrome/136.0.0.0 Safari/537.36","WebKit","Chrome","136.0.0.0","Windows","10.0","https://app.prolific.com/","en-US,en;q=0.9","6769cc78e79f747dda9c7b8f","687a19d2168e237449fb8af4","6889da7783eb1b3d9bfa0eba","0","6769cc78e79f747dda9c7b8f","0","2025-07-30T08:54:47.910Z","","","","MotivationQ","","","","","","","","","","","50","","","","","","","","","","","","","","","","","","","","","","","","","","",""
"","","","","ctl-task-cpt","68","885466","0.0-7.0-0.11","26","1","2025-07-30 08:40:38","36c45c0696341be0efffe67d72a12abb","91.124.134.147","Mozilla/5.0 (Windows NT 10.0; Win64; x64) AppleWebKit/537.36 (KHTML, like Gecko) Chrome/136.0.0.0 Safari/537.36","WebKit","Chrome","136.0.0.0","Windows","10.0","https://app.prolific.com/","en-US,en;q=0.9","6769cc78e79f747dda9c7b8f","687a19d2168e237449fb8af4","6889da7783eb1b3d9bfa0eba","0","6769cc78e79f747dda9c7b8f","0","2025-07-30T08:55:31.027Z","","","","","","","","","","","","","","","","win-only","2","g1:SE,g2:NW","0.7","12","0","849686.6","1082.5","6097.6","40079.3","1","4","4","6","2","4","4","20","16","0.15151515151515152","1298.1","3000","1945","[""left"",""up""]","{""num_key_presses"":8,""num_perfect"":6,""num_errors"":0,""num_randdir"":2,""num_randdir_good_moves"":1,""num_whilered"":0,""num_whileblue"":0,""num_blue"":3,""num_good_moves"":7}","[301.22232142857143,295.12857142857143,0.9,301.22232142857143,295.12857142857143,100.8,301.22232142857143,295.12857142857143,201.7,301.22232142857143,295.12857142857143,305,301.22232142857143,295.12857142857143,409.9,301.22232142857143,295.12857142857143,515.4,301.22232142857143,295.12857142857143,616,301.22232142857143,295.12857142857143,730.3,188.22232142857143,182.12857142857143,834.2,35.222321428571426,36.128571428571426,934.3,30.222321428571426,26.128571428571426,1046.6,30.222321428571426,26.128571428571426,1150.2,30.222321428571426,26.128571428571426,1256.6,30.222321428571426,26.128571428571426,1360.7,30.222321428571426,26.128571428571426,1470.4,30.222321428571426,26.128571428571426,1585.2,31.222321428571426,26.128571428571426,1690.9,164.22232142857143,143.12857142857143,1809.1,323.22232142857143,276.12857142857143,1912.5,323.22232142857143,276.12857142857143,2028.8,323.22232142857143,276.12857142857143,2141.5,323.22232142857143,276.12857142857143,2256.5,323.22232142857143,276.12857142857143,2369.1,323.22232142857143,276.12857142857143,2476.5,323.22232142857143,276.12857142857143,2585,323.22232142857143,276.12857142857143,2686.4,323.22232142857143,276.12857142857143,2800.5,323.22232142857143,276.12857142857143,2914.3,323.22232142857143,276.12857142857143,3024.5,323.22232142857143,276.12857142857143,3137.7,323.22232142857143,276.12857142857143,3241.9,323.22232142857143,276.12857142857143,3354.2,323.22232142857143,276.12857142857143,3463.5,323.22232142857143,276.12857142857143,3574.9,323.22232142857143,276.12857142857143,3683.8,323.22232142857143,276.12857142857143,3796.9,323.22232142857143,276.12857142857143,3909.1,323.22232142857143,276.12857142857143,4015.8,323.22232142857143,276.12857142857143,4119.1,323.22232142857143,276.12857142857143,4231.4,323.22232142857143,276.12857142857143,4345.6,323.22232142857143,276.12857142857143,4456.2,323.22232142857143,276.12857142857143,4567.6,323.22232142857143,276.12857142857143,4682.2,323.22232142857143,276.12857142857143,4794.7,323.22232142857143,276.12857142857143,4905.4]","[4873.2,4873.2,2479.6,2028.5,365.1,""smooth"",""left"",""left"",""good_move"",11132.8,6258,2427.9,8359.1,345.8,""smooth"",""left"",""left"",""good_move"",14414.4,3281.2,2842,11133.2,439.2,""oops"",""up"",""down"",""bad_move"",17453.5,3037.3,2601.6,14416.2,435.7,""smooth"",""up"",""up"",""good_move"",20724.8,3269.7,2852.1,17455.1,417.6,""oops"",""up"",""left"",""good_move"",24375,3649.2,2485.6,20725.8,1163.6,""smooth"",""up"",""up"",""good_move"",27746.6,3370.7,3018.2,24375.9,352.5,""smooth"",""up"",""up"",""good_move"",33731.5,5984,2486.6,30898.5,346.4,""smooth"",""up"",""up"",""good_move""]"
"2657","","<div style=""width:500px;"">
  <p>What determined the result of this run?</p>
  </div>","100","html-slider-response","69","888126","0.0-7.0-1.11","26","1","2025-07-30 08:40:38","36c45c0696341be0efffe67d72a12abb","91.124.134.147","Mozilla/5.0 (Windows NT 10.0; Win64; x64) AppleWebKit/537.36 (KHTML, like Gecko) Chrome/136.0.0.0 Safari/537.36","WebKit","Chrome","136.0.0.0","Windows","10.0","https://app.prolific.com/","en-US,en;q=0.9","6769cc78e79f747dda9c7b8f","687a19d2168e237449fb8af4","6889da7783eb1b3d9bfa0eba","0","6769cc78e79f747dda9c7b8f","0","2025-07-30T08:55:33.687Z","","","","AttribQ","","","","","","","","","","","50","","","","","","","","","","","","","","","","","","","","","","","","","","",""
"2614","","<div style=""width:500px;"">
  <p>How much control did you have over the ball?</p>
  </div>","100","html-slider-response","70","890743","0.0-7.0-2.11","26","1","2025-07-30 08:40:38","36c45c0696341be0efffe67d72a12abb","91.124.134.147","Mozilla/5.0 (Windows NT 10.0; Win64; x64) AppleWebKit/537.36 (KHTML, like Gecko) Chrome/136.0.0.0 Safari/537.36","WebKit","Chrome","136.0.0.0","Windows","10.0","https://app.prolific.com/","en-US,en;q=0.9","6769cc78e79f747dda9c7b8f","687a19d2168e237449fb8af4","6889da7783eb1b3d9bfa0eba","0","6769cc78e79f747dda9c7b8f","0","2025-07-30T08:55:36.304Z","","","","ControlQ","","","","","","","","","","","50","","","","","","","","","","","","","","","","","","","","","","","","","","",""
"2603","","<div style=""width:500px;"">
  <p>How would you describe your current emotional state?</p>
  </div>","0","html-slider-response","71","893350","0.0-7.0-3.11","26","1","2025-07-30 08:40:38","36c45c0696341be0efffe67d72a12abb","91.124.134.147","Mozilla/5.0 (Windows NT 10.0; Win64; x64) AppleWebKit/537.36 (KHTML, like Gecko) Chrome/136.0.0.0 Safari/537.36","WebKit","Chrome","136.0.0.0","Windows","10.0","https://app.prolific.com/","en-US,en;q=0.9","6769cc78e79f747dda9c7b8f","687a19d2168e237449fb8af4","6889da7783eb1b3d9bfa0eba","0","6769cc78e79f747dda9c7b8f","0","2025-07-30T08:55:38.911Z","","","","StressQ","","","","","","","","","","","50","","","","","","","","","","","","","","","","","","","","","","","","","","",""
"3889","","<div style=""width:500px;"">
  <p>What best describes how you currently feel?</p>
  </div>","100","html-slider-response","72","897242","0.0-7.0-4.11","26","1","2025-07-30 08:40:38","36c45c0696341be0efffe67d72a12abb","91.124.134.147","Mozilla/5.0 (Windows NT 10.0; Win64; x64) AppleWebKit/537.36 (KHTML, like Gecko) Chrome/136.0.0.0 Safari/537.36","WebKit","Chrome","136.0.0.0","Windows","10.0","https://app.prolific.com/","en-US,en;q=0.9","6769cc78e79f747dda9c7b8f","687a19d2168e237449fb8af4","6889da7783eb1b3d9bfa0eba","0","6769cc78e79f747dda9c7b8f","0","2025-07-30T08:55:42.803Z","","","","MotivationQ","","","","","","","","","","","50","","","","","","","","","","","","","","","","","","","","","","","","","","",""
"","","","","ctl-task-cpt","73","932507","0.0-7.0-0.12","26","1","2025-07-30 08:40:38","36c45c0696341be0efffe67d72a12abb","91.124.134.147","Mozilla/5.0 (Windows NT 10.0; Win64; x64) AppleWebKit/537.36 (KHTML, like Gecko) Chrome/136.0.0.0 Safari/537.36","WebKit","Chrome","136.0.0.0","Windows","10.0","https://app.prolific.com/","en-US,en;q=0.9","6769cc78e79f747dda9c7b8f","687a19d2168e237449fb8af4","6889da7783eb1b3d9bfa0eba","0","6769cc78e79f747dda9c7b8f","0","2025-07-30T08:56:18.068Z","","","","","","","","","","","","","","","","win-only","2","g1:SE,g2:NW","0.8","13","0","904580.2","1212.1","6216.3","32218.7","1","4","8","6","2","8","7","27","20","0.20454545454545456","1334.7","3000","2545","[""left"",""up""]","{""num_key_presses"":6,""num_perfect"":4,""num_errors"":1,""num_randdir"":1,""num_randdir_good_moves"":1,""num_whilered"":0,""num_whileblue"":1,""num_blue"":2,""num_good_moves"":6}","[298.22232142857143,289.12857142857143,1.1,298.22232142857143,289.12857142857143,109.7,298.22232142857143,289.12857142857143,224.9,298.22232142857143,289.12857142857143,331.4,298.22232142857143,289.12857142857143,436.3,298.22232142857143,289.12857142857143,549.1,298.22232142857143,289.12857142857143,661.3,99.22232142857143,87.12857142857143,778.8,83.22232142857143,76.12857142857143,883.9,81.22232142857143,74.12857142857143,988.9,68.22232142857143,63.128571428571426,1107.5,68.22232142857143,63.128571428571426,1207.7,68.22232142857143,63.128571428571426,1307.8,68.22232142857143,63.128571428571426,1415.9,68.22232142857143,63.128571428571426,1527.8,70.22232142857143,64.12857142857143,1645.3,203.22232142857143,144.12857142857143,1761.7,407.22232142857143,357.12857142857143,1876.3,455.22232142857143,396.12857142857143,1988.8,455.22232142857143,396.12857142857143,2093.1,455.22232142857143,396.12857142857143,2200.4,455.22232142857143,396.12857142857143,2308.8,455.22232142857143,396.12857142857143,2414.3,455.22232142857143,396.12857142857143,2517.9,455.22232142857143,396.12857142857143,2629.7,455.22232142857143,396.12857142857143,2734.2,455.22232142857143,396.12857142857143,2835,455.22232142857143,396.12857142857143,2945.9,455.22232142857143,396.12857142857143,3058.1,455.22232142857143,396.12857142857143,3174.8,455.22232142857143,396.12857142857143,3278.8,455.22232142857143,396.12857142857143,3385.7,455.22232142857143,396.12857142857143,3494.5,455.22232142857143,396.12857142857143,3596.2,455.22232142857143,396.12857142857143,3700.9,455.22232142857143,396.12857142857143,3804,455.22232142857143,396.12857142857143,3914.2,455.22232142857143,396.12857142857143,4020.8,455.22232142857143,396.12857142857143,4130.8,455.22232142857143,396.12857142857143,4240.5,455.22232142857143,396.12857142857143,4342.7,455.22232142857143,396.12857142857143,4443.8,455.22232142857143,396.12857142857143,4548.2,455.22232142857143,396.12857142857143,4649.3,455.22232142857143,396.12857142857143,4754,455.22232142857143,396.12857142857143,4861.5,455.22232142857143,396.12857142857143,4962.9]","[5199.4,5199.4,2853.6,2026.4,319.4,""smooth"",""left"",""left"",""good_move"",8586.6,3386.3,2763.6,5200.3,622.7,""smooth"",""left"",""left"",""good_move"",12518.4,3930.6,2493.9,8587.9,1436.6,""oops"",""up"",""left"",""good_move"",16603.6,4084.3,2470.4,12519.3,1613.9,""smooth"",""up"",""up"",""good_move"",20767.3,4161.7,3837.5,16605.8,324.1,""while_blue"",""up"",""up"",""good_move"",25464.2,4695.9,2256.8,20768.3,2439.1,""smooth"",""up"",""up"",""good_move""]"
"2772","","<div style=""width:500px;"">
  <p>What determined the result of this run?</p>
  </div>","100","html-slider-response","74","935283","0.0-7.0-1.12","26","1","2025-07-30 08:40:38","36c45c0696341be0efffe67d72a12abb","91.124.134.147","Mozilla/5.0 (Windows NT 10.0; Win64; x64) AppleWebKit/537.36 (KHTML, like Gecko) Chrome/136.0.0.0 Safari/537.36","WebKit","Chrome","136.0.0.0","Windows","10.0","https://app.prolific.com/","en-US,en;q=0.9","6769cc78e79f747dda9c7b8f","687a19d2168e237449fb8af4","6889da7783eb1b3d9bfa0eba","0","6769cc78e79f747dda9c7b8f","0","2025-07-30T08:56:20.844Z","","","","AttribQ","","","","","","","","","","","50","","","","","","","","","","","","","","","","","","","","","","","","","","",""
"4629","","<div style=""width:500px;"">
  <p>How much control did you have over the ball?</p>
  </div>","100","html-slider-response","75","939915","0.0-7.0-2.12","26","1","2025-07-30 08:40:38","36c45c0696341be0efffe67d72a12abb","91.124.134.147","Mozilla/5.0 (Windows NT 10.0; Win64; x64) AppleWebKit/537.36 (KHTML, like Gecko) Chrome/136.0.0.0 Safari/537.36","WebKit","Chrome","136.0.0.0","Windows","10.0","https://app.prolific.com/","en-US,en;q=0.9","6769cc78e79f747dda9c7b8f","687a19d2168e237449fb8af4","6889da7783eb1b3d9bfa0eba","0","6769cc78e79f747dda9c7b8f","0","2025-07-30T08:56:25.476Z","","","","ControlQ","","","","","","","","","","","50","","","","","","","","","","","","","","","","","","","","","","","","","","",""
"5329","","<div style=""width:500px;"">
  <p>How would you describe your current emotional state?</p>
  </div>","2","html-slider-response","76","945249","0.0-7.0-3.12","26","1","2025-07-30 08:40:38","36c45c0696341be0efffe67d72a12abb","91.124.134.147","Mozilla/5.0 (Windows NT 10.0; Win64; x64) AppleWebKit/537.36 (KHTML, like Gecko) Chrome/136.0.0.0 Safari/537.36","WebKit","Chrome","136.0.0.0","Windows","10.0","https://app.prolific.com/","en-US,en;q=0.9","6769cc78e79f747dda9c7b8f","687a19d2168e237449fb8af4","6889da7783eb1b3d9bfa0eba","0","6769cc78e79f747dda9c7b8f","0","2025-07-30T08:56:30.811Z","","","","StressQ","","","","","","","","","","","50","","","","","","","","","","","","","","","","","","","","","","","","","","",""
"2672","","<div style=""width:500px;"">
  <p>What best describes how you currently feel?</p>
  </div>","97","html-slider-response","77","947926","0.0-7.0-4.12","26","1","2025-07-30 08:40:38","36c45c0696341be0efffe67d72a12abb","91.124.134.147","Mozilla/5.0 (Windows NT 10.0; Win64; x64) AppleWebKit/537.36 (KHTML, like Gecko) Chrome/136.0.0.0 Safari/537.36","WebKit","Chrome","136.0.0.0","Windows","10.0","https://app.prolific.com/","en-US,en;q=0.9","6769cc78e79f747dda9c7b8f","687a19d2168e237449fb8af4","6889da7783eb1b3d9bfa0eba","0","6769cc78e79f747dda9c7b8f","0","2025-07-30T08:56:33.488Z","","","","MotivationQ","","","","","","","","","","","50","","","","","","","","","","","","","","","","","","","","","","","","","","",""
