"rt","response_timestamp","stimulus","response","trial_type","trial_index","time_elapsed","internal_node_id","run_id","condition","recorded_at","source_code_version","ip","user_agent","device","browser","browser_version","platform","platform_version","referer","accept_language","PROLIFIC_PID","STUDY_ID","SESSION_ID","BATCH","prolific_id","batch","realtime","success","question_order","question_id","eventType","responses","item_order","radio_event_ids","radio_event_times","key_event_times","mouse_event_times","straightlining","zigzagging","honeypot","view_history","slider_start","which_type","canvas_config","goals_layout","control_level","trial_number","tutorial_trial_number","trial_start_time","phase1_start_time","phase2_start_time","phase3_start_time","goal_1_value","goal_1_distance","goal_2_value","goal_2_distance","goal_selected","outcome","outcome_total","participant_final_score","participant_initial_score","participant_final_score_prop","goal_choice_rt","allocated_time","allocated_time_remaining","goal_direction","counts","mouse_movements","key_presses"
"1089","1754900791100","<p style='font-size:40px;line-height:1.25'><strong>Welcome to the experiment!</strong></p><p style='font-size:1.1em;line-height:1.25'>Thank you for participanting in our experiment again! You will be asked to play the Dysfunctional Ball Game again. We will briefly recap the rules before we start.</p><p style='font-size:1.1em;line-height:1.25'>Press <strong>Next</strong> to continue.</p>","0","custom-html-button-response","0","1092","0.0-0.0","248","1","2025-08-11 08:26:23","36c45c0696341be0efffe67d72a12abb","86.180.250.53","Mozilla/5.0 (Windows NT 10.0; Win64; x64) AppleWebKit/537.36 (KHTML, like Gecko) Chrome/138.0.0.0 Safari/537.36 Edg/138.0.0.0","WebKit","Edge","138.0.0.0","Windows","10.0","https://app.prolific.com/","en-US,en;q=0.9,en-GB;q=0.8","676e882e8a97b91ee272efe4","6877649eabb845cf142cd221","6899a92172dc43bed0f8753e","1","676e882e8a97b91ee272efe4","1","2025-08-11T08:26:31.101Z","","","","","","","","","","","","","","","","","","","","","","","","","","","","","","","","","","","","","","","","","",""
"797","","","","fullscreen","1","2905","0.0-1.0","248","1","2025-08-11 08:26:23","36c45c0696341be0efffe67d72a12abb","86.180.250.53","Mozilla/5.0 (Windows NT 10.0; Win64; x64) AppleWebKit/537.36 (KHTML, like Gecko) Chrome/138.0.0.0 Safari/537.36 Edg/138.0.0.0","WebKit","Edge","138.0.0.0","Windows","10.0","https://app.prolific.com/","en-US,en;q=0.9,en-GB;q=0.8","676e882e8a97b91ee272efe4","6877649eabb845cf142cd221","6899a92172dc43bed0f8753e","1","676e882e8a97b91ee272efe4","1","","true","","","","","","","","","","","","","","","","","","","","","","","","","","","","","","","","","","","","","","","","",""
"1071","1754900793987"," <p style='font-size:1.1em;line-height:1.25'>Thank you for closing all other tabs.</p><p style='font-size:1.1em;line-height:1.25'>We will now invite you to fill in some questionnaires, before starting the game.<br>This will take about 5 minutes.<br></p><p style='font-size:1.1em;line-height:1.25'>Press the <strong>Next</strong> button to continue.</p>","0","custom-html-button-response","2","3978","0.0-2.0","248","1","2025-08-11 08:26:23","36c45c0696341be0efffe67d72a12abb","86.180.250.53","Mozilla/5.0 (Windows NT 10.0; Win64; x64) AppleWebKit/537.36 (KHTML, like Gecko) Chrome/138.0.0.0 Safari/537.36 Edg/138.0.0.0","WebKit","Edge","138.0.0.0","Windows","10.0","https://app.prolific.com/","en-US,en;q=0.9,en-GB;q=0.8","676e882e8a97b91ee272efe4","6877649eabb845cf142cd221","6899a92172dc43bed0f8753e","1","676e882e8a97b91ee272efe4","1","2025-08-11T08:26:33.987Z","","","","","","","","","","","","","","","","","","","","","","","","","","","","","","","","","","","","","","","","","",""
"2894","","","{""assigned_sex"":""female""}","survey-multi-choice","3","6874","0.0-3.0-0.0","248","1","2025-08-11 08:26:23","36c45c0696341be0efffe67d72a12abb","86.180.250.53","Mozilla/5.0 (Windows NT 10.0; Win64; x64) AppleWebKit/537.36 (KHTML, like Gecko) Chrome/138.0.0.0 Safari/537.36 Edg/138.0.0.0","WebKit","Edge","138.0.0.0","Windows","10.0","https://app.prolific.com/","en-US,en;q=0.9,en-GB;q=0.8","676e882e8a97b91ee272efe4","6877649eabb845cf142cd221","6899a92172dc43bed0f8753e","1","676e882e8a97b91ee272efe4","1","","","[0]","0","demographics","","","","","","","","","","","","","","","","","","","","","","","","","","","","","","","","","","","","","",""
"1000","1754900797885","<p style='font-size:1.1em;line-height:1.25'>In the following, we will perform a baseline assessment. This means that we will ask you a few questions relating to your experiences over the past month.<br></p><p style='font-size:1.1em;line-height:1.25'>Press the <strong>Next</strong> button to continue.</p>","0","custom-html-button-response","4","7876","0.0-4.0-0.0","248","1","2025-08-11 08:26:23","36c45c0696341be0efffe67d72a12abb","86.180.250.53","Mozilla/5.0 (Windows NT 10.0; Win64; x64) AppleWebKit/537.36 (KHTML, like Gecko) Chrome/138.0.0.0 Safari/537.36 Edg/138.0.0.0","WebKit","Edge","138.0.0.0","Windows","10.0","https://app.prolific.com/","en-US,en;q=0.9,en-GB;q=0.8","676e882e8a97b91ee272efe4","6877649eabb845cf142cd221","6899a92172dc43bed0f8753e","1","676e882e8a97b91ee272efe4","1","2025-08-11T08:26:37.885Z","","","","","","","","","","","","","","","","","","","","","","","","","","","","","","","","","","","","","","","","","",""
"90541.19999992847","","","","survey-template","5","98421","0.0-4.0-1.0","248","1","2025-08-11 08:26:23","36c45c0696341be0efffe67d72a12abb","86.180.250.53","Mozilla/5.0 (Windows NT 10.0; Win64; x64) AppleWebKit/537.36 (KHTML, like Gecko) Chrome/138.0.0.0 Safari/537.36 Edg/138.0.0.0","WebKit","Edge","138.0.0.0","Windows","10.0","https://app.prolific.com/","en-US,en;q=0.9,en-GB;q=0.8","676e882e8a97b91ee272efe4","6877649eabb845cf142cd221","6899a92172dc43bed0f8753e","1","676e882e8a97b91ee272efe4","1","2025-08-11T08:28:08.430Z","","","","pss","{""Q01"":""3"",""Q02"":""3"",""Q03"":""3"",""Q04"":""2"",""Q05"":""2"",""Q06"":""3"",""Q07"":""0"",""Q08"":""3"",""Q09"":""2"",""Q10"":""3""}","[0,1,2,3,4,5,6,7,8,9]","[""Q01"",""Q03"",""Q02"",""Q04"",""Q05"",""Q06"",""Q07"",""Q07"",""Q02"",""Q08"",""Q09"",""Q10"",""Q03"",""Q01""]","[4306.5,9940.199999928474,11064.799999952316,20809.199999928474,29339.5,37570.799999952316,44028.799999952316,46540.60000002384,52890.199999928474,72572.79999995232,76056.79999995232,78779,85244.79999995232,87416.39999997616]","[]","[0.7999999523162842,4306.5,7740.299999952316,9940.199999928474,11064.799999952316,20809.199999928474,29339.5,37570.799999952316,44028.799999952316,46540.60000002384,51202.39999997616,52890.199999928474,72572.79999995232,76056.79999995232,78779,85244.79999995232,87416.39999997616,90538.89999997616]","0.5","0.5555555555555556","0","","","","","","","","","","","","","","","","","","","","","","","","","","","","",""
"1498","1754900889929","<p style='font-size:1.1em;line-height:1.25'>Thank you for your answers! Now we will ask you a few more questions relating to your feelings in the last 24 hours.<br></p><p style='font-size:1.1em;line-height:1.25'>Press the <strong>Next</strong> button to continue.</p>","0","custom-html-button-response","6","99920","0.0-4.0-2.0","248","1","2025-08-11 08:26:23","36c45c0696341be0efffe67d72a12abb","86.180.250.53","Mozilla/5.0 (Windows NT 10.0; Win64; x64) AppleWebKit/537.36 (KHTML, like Gecko) Chrome/138.0.0.0 Safari/537.36 Edg/138.0.0.0","WebKit","Edge","138.0.0.0","Windows","10.0","https://app.prolific.com/","en-US,en;q=0.9,en-GB;q=0.8","676e882e8a97b91ee272efe4","6877649eabb845cf142cd221","6899a92172dc43bed0f8753e","1","676e882e8a97b91ee272efe4","1","2025-08-11T08:28:09.929Z","","","","","","","","","","","","","","","","","","","","","","","","","","","","","","","","","","","","","","","","","",""
"57619.89999997616","","","","survey-template","7","157546","0.0-4.0-3.0","248","1","2025-08-11 08:26:23","36c45c0696341be0efffe67d72a12abb","86.180.250.53","Mozilla/5.0 (Windows NT 10.0; Win64; x64) AppleWebKit/537.36 (KHTML, like Gecko) Chrome/138.0.0.0 Safari/537.36 Edg/138.0.0.0","WebKit","Edge","138.0.0.0","Windows","10.0","https://app.prolific.com/","en-US,en;q=0.9,en-GB;q=0.8","676e882e8a97b91ee272efe4","6877649eabb845cf142cd221","6899a92172dc43bed0f8753e","1","676e882e8a97b91ee272efe4","1","2025-08-11T08:29:07.555Z","","","","drsp","{""Q01"":""3"",""Q02"":""3"",""Q03"":""3"",""Q04"":""3"",""Q05"":""3"",""Q06"":""3"",""Q07"":""2"",""Q08"":""3"",""Q09"":""2"",""Q10"":""3"",""Q11"":""2"",""Q12"":""0"",""Q13"":""5"",""Q14"":""0"",""Q15"":""2"",""Q16"":""2"",""Q17"":""2"",""Q18"":""2"",""Q19"":""4"",""Q20"":""2"",""Q21"":""2"",""Q22"":""2""}","[0,1,2,3,4,5,6,7,8,9,10,11,12,13,14,15,16,17,18,19,20,21]","[""Q01"",""Q02"",""Q03"",""Q04"",""Q05"",""Q06"",""Q07"",""Q08"",""Q08"",""Q09"",""Q10"",""Q10"",""Q11"",""Q12"",""Q12"",""Q13"",""Q14"",""Q15"",""Q16"",""Q17"",""Q18"",""Q19"",""Q19"",""Q20"",""Q21"",""Q22""]","[5272.100000023842,6825.100000023842,8124.100000023842,9559.799999952316,11326.100000023842,13165.799999952316,14873.399999976158,17591.600000023842,18968,20583.299999952316,23269.600000023842,24818.100000023842,26066,27855.5,30083.5,32208,34391.799999952316,36982,40073.299999952316,42209.5,43355.60000002384,45555.60000002384,47612,51761.700000047684,53890.10000002384,57024]","[]","[1.100000023841858,5272.100000023842,6825.100000023842,8124.100000023842,9559.799999952316,11326.100000023842,13165.799999952316,14873.399999976158,17591.600000023842,18471.299999952316,18968,20583.299999952316,23269.600000023842,24818.100000023842,26066,27855.5,28918.100000023842,30083.5,32208,34391.799999952316,36982,40073.299999952316,42209.5,43355.60000002384,45555.60000002384,47612,51761.700000047684,53890.10000002384,57024,57616.10000002384]","0.45454545454545453","0.3333333333333333","0","","","","","","","","","","","","","","","","","","","","","","","","","","","","",""
"9644.799999952316","","","","survey-template","8","167193","0.0-4.0-4.0","248","1","2025-08-11 08:26:23","36c45c0696341be0efffe67d72a12abb","86.180.250.53","Mozilla/5.0 (Windows NT 10.0; Win64; x64) AppleWebKit/537.36 (KHTML, like Gecko) Chrome/138.0.0.0 Safari/537.36 Edg/138.0.0.0","WebKit","Edge","138.0.0.0","Windows","10.0","https://app.prolific.com/","en-US,en;q=0.9,en-GB;q=0.8","676e882e8a97b91ee272efe4","6877649eabb845cf142cd221","6899a92172dc43bed0f8753e","1","676e882e8a97b91ee272efe4","1","2025-08-11T08:29:17.203Z","","","","stress","{""Q01"":""4"",""Q02"":""4"",""Q03"":""2""}","[0,1,2]","[""Q01"",""Q02"",""Q03""]","[4290.699999928474,6344.899999976158,8945]","[]","[4290.699999928474,6344.899999976158,8945,9644]","0.3333333333333333","0.5","0","","","","","","","","","","","","","","","","","","","","","","","","","","","","",""
"1820","","","","instructions","9","169015","0.0-5.0-0.0","248","1","2025-08-11 08:26:23","36c45c0696341be0efffe67d72a12abb","86.180.250.53","Mozilla/5.0 (Windows NT 10.0; Win64; x64) AppleWebKit/537.36 (KHTML, like Gecko) Chrome/138.0.0.0 Safari/537.36 Edg/138.0.0.0","WebKit","Edge","138.0.0.0","Windows","10.0","https://app.prolific.com/","en-US,en;q=0.9,en-GB;q=0.8","676e882e8a97b91ee272efe4","6877649eabb845cf142cd221","6899a92172dc43bed0f8753e","1","676e882e8a97b91ee272efe4","1","","","","","","","","","","","","","","","[{""page_index"":0,""viewing_time"":1820}]","","","","","","","","","","","","","","","","","","","","","","","","","","","",""
"3463","","<p>Before you start with this game please answer the following three questions yourself. </p>
  <p>Through this game, we measure several aspects of your cognitive performance, such as reaction times, multi-tasking capabilities </p>
  <p>and the ability to assess the situation you are in.</p>
  <p></p>
  <p><b>How good do you usually are in such tasks?</b></p>","56","html-slider-response","10","172479","0.0-6.0-0.0","248","1","2025-08-11 08:26:23","36c45c0696341be0efffe67d72a12abb","86.180.250.53","Mozilla/5.0 (Windows NT 10.0; Win64; x64) AppleWebKit/537.36 (KHTML, like Gecko) Chrome/138.0.0.0 Safari/537.36 Edg/138.0.0.0","WebKit","Edge","138.0.0.0","Windows","10.0","https://app.prolific.com/","en-US,en;q=0.9,en-GB;q=0.8","676e882e8a97b91ee272efe4","6877649eabb845cf142cd221","6899a92172dc43bed0f8753e","1","676e882e8a97b91ee272efe4","1","2025-08-11T08:29:22.488Z","","","","PreSkillQ","","","","","","","","","","","50","","","","","","","","","","","","","","","","","","","","","","","","","","",""
"2773","","<div style=""width:500px;"">
  <p>How well do you think you will perform in this task compared to other participants?</p>
  </div>","65","html-slider-response","11","175253","0.0-6.0-1.0","248","1","2025-08-11 08:26:23","36c45c0696341be0efffe67d72a12abb","86.180.250.53","Mozilla/5.0 (Windows NT 10.0; Win64; x64) AppleWebKit/537.36 (KHTML, like Gecko) Chrome/138.0.0.0 Safari/537.36 Edg/138.0.0.0","WebKit","Edge","138.0.0.0","Windows","10.0","https://app.prolific.com/","en-US,en;q=0.9,en-GB;q=0.8","676e882e8a97b91ee272efe4","6877649eabb845cf142cd221","6899a92172dc43bed0f8753e","1","676e882e8a97b91ee272efe4","1","2025-08-11T08:29:25.262Z","","","","PrePerfQ","","","","","","","","","","","50","","","","","","","","","","","","","","","","","","","","","","","","","","",""
"3013","","<div style=""width:500px;"">
  <p>What best describes how you currently feel?</p>
  </div>","50","html-slider-response","12","178267","0.0-6.0-2.0","248","1","2025-08-11 08:26:23","36c45c0696341be0efffe67d72a12abb","86.180.250.53","Mozilla/5.0 (Windows NT 10.0; Win64; x64) AppleWebKit/537.36 (KHTML, like Gecko) Chrome/138.0.0.0 Safari/537.36 Edg/138.0.0.0","WebKit","Edge","138.0.0.0","Windows","10.0","https://app.prolific.com/","en-US,en;q=0.9,en-GB;q=0.8","676e882e8a97b91ee272efe4","6877649eabb845cf142cd221","6899a92172dc43bed0f8753e","1","676e882e8a97b91ee272efe4","1","2025-08-11T08:29:28.276Z","","","","PreMotivationQ","","","","","","","","","","","50","","","","","","","","","","","","","","","","","","","","","","","","","","",""
"","","","","ctl-task-cpt","13","270627","0.0-7.0-0.0","248","1","2025-08-11 08:26:23","36c45c0696341be0efffe67d72a12abb","86.180.250.53","Mozilla/5.0 (Windows NT 10.0; Win64; x64) AppleWebKit/537.36 (KHTML, like Gecko) Chrome/138.0.0.0 Safari/537.36 Edg/138.0.0.0","WebKit","Edge","138.0.0.0","Windows","10.0","https://app.prolific.com/","en-US,en;q=0.9,en-GB;q=0.8","676e882e8a97b91ee272efe4","6877649eabb845cf142cd221","6899a92172dc43bed0f8753e","1","676e882e8a97b91ee272efe4","1","2025-08-11T08:31:00.636Z","","","","","","","","","","","","","","","","win-only","1","g1:NE,g2:SW","1","1","0","184383.8","67230.1","72231.3","89347.5","1","4","4","6","1","1","0","0","0","0","5001.2","3000","1345","[""up"",""right""]","{""num_key_presses"":5,""num_perfect"":4,""num_errors"":1,""num_randdir"":0,""num_randdir_good_moves"":0,""num_whilered"":0,""num_whileblue"":0,""num_blue"":1,""num_good_moves"":4}","[294.22232142857143,299.12857142857143,0.4,294.22232142857143,299.12857142857143,101.2,293.22232142857143,299.12857142857143,206,484.22232142857143,300.12857142857143,306.1,978.2223214285714,285.12857142857143,411.1,978.2223214285714,282.12857142857143,515.5,978.2223214285714,282.12857142857143,615.5,978.2223214285714,282.12857142857143,720.8,978.2223214285714,282.12857142857143,825.8,978.2223214285714,282.12857142857143,930.4,978.2223214285714,282.12857142857143,1031.7,978.2223214285714,282.12857142857143,1135.3,978.2223214285714,282.12857142857143,1235.8,978.2223214285714,282.12857142857143,1336.3,978.2223214285714,282.12857142857143,1440.9,978.2223214285714,282.12857142857143,1545.8,978.2223214285714,282.12857142857143,1646.5,978.2223214285714,282.12857142857143,1746.7,978.2223214285714,282.12857142857143,1851.1,978.2223214285714,282.12857142857143,1955.2,978.2223214285714,282.12857142857143,2056.2,978.2223214285714,282.12857142857143,2156.5,978.2223214285714,282.12857142857143,2256.5,978.2223214285714,282.12857142857143,2360.4,978.2223214285714,282.12857142857143,2461.2,978.2223214285714,282.12857142857143,2565.6,978.2223214285714,282.12857142857143,2666.1,978.2223214285714,282.12857142857143,2766.4,978.2223214285714,282.12857142857143,2871.1,978.2223214285714,282.12857142857143,2976.5,978.2223214285714,282.12857142857143,3081,978.2223214285714,282.12857142857143,3186.4,978.2223214285714,282.12857142857143,3290.8,978.2223214285714,282.12857142857143,3396.7,978.2223214285714,282.12857142857143,3500.4,978.2223214285714,282.12857142857143,3600.4,978.2223214285714,282.12857142857143,3706.6,978.2223214285714,282.12857142857143,3811,978.2223214285714,282.12857142857143,3915.9,978.2223214285714,282.12857142857143,4016.6,978.2223214285714,282.12857142857143,4120.1,978.2223214285714,282.12857142857143,4220.4,978.2223214285714,282.12857142857143,4321.3,978.2223214285714,282.12857142857143,4425.5,978.2223214285714,282.12857142857143,4530.5,978.2223214285714,282.12857142857143,4631.3,978.2223214285714,282.12857142857143,4735.3,978.2223214285714,282.12857142857143,4836.1,978.2223214285714,282.12857142857143,4940.8]","[826.4,826.4,1000,0,-173.6,""error"",""-"",""-"",""no_move"",8899.9,8073.3,3180.9,5309.6,409.5,""smooth"",""right"",""right"",""good_move"",11586.8,2686.4,2132.8,8900.4,553.6,""smooth"",""right"",""right"",""good_move"",14529.3,2942.3,2524.1,11587,418.2,""smooth"",""up"",""up"",""good_move"",17024.6,2494.9,2150,14529.7,344.9,""smooth"",""up"",""up"",""good_move""]"
"3750","","<div style=""width:500px;"">
  <p>What determined the result of this run?</p>
  </div>","57","html-slider-response","14","274379","0.0-7.0-1.0","248","1","2025-08-11 08:26:23","36c45c0696341be0efffe67d72a12abb","86.180.250.53","Mozilla/5.0 (Windows NT 10.0; Win64; x64) AppleWebKit/537.36 (KHTML, like Gecko) Chrome/138.0.0.0 Safari/537.36 Edg/138.0.0.0","WebKit","Edge","138.0.0.0","Windows","10.0","https://app.prolific.com/","en-US,en;q=0.9,en-GB;q=0.8","676e882e8a97b91ee272efe4","6877649eabb845cf142cd221","6899a92172dc43bed0f8753e","1","676e882e8a97b91ee272efe4","1","2025-08-11T08:31:04.388Z","","","","AttribQ","","","","","","","","","","","50","","","","","","","","","","","","","","","","","","","","","","","","","","",""
"4103","","<div style=""width:500px;"">
  <p>How much control did you have over the ball?</p>
  </div>","98","html-slider-response","15","278482","0.0-7.0-2.0","248","1","2025-08-11 08:26:23","36c45c0696341be0efffe67d72a12abb","86.180.250.53","Mozilla/5.0 (Windows NT 10.0; Win64; x64) AppleWebKit/537.36 (KHTML, like Gecko) Chrome/138.0.0.0 Safari/537.36 Edg/138.0.0.0","WebKit","Edge","138.0.0.0","Windows","10.0","https://app.prolific.com/","en-US,en;q=0.9,en-GB;q=0.8","676e882e8a97b91ee272efe4","6877649eabb845cf142cd221","6899a92172dc43bed0f8753e","1","676e882e8a97b91ee272efe4","1","2025-08-11T08:31:08.492Z","","","","ControlQ","","","","","","","","","","","50","","","","","","","","","","","","","","","","","","","","","","","","","","",""
"2889","","<div style=""width:500px;"">
  <p>How would you describe your current emotional state?</p>
  </div>","55","html-slider-response","16","281373","0.0-7.0-3.0","248","1","2025-08-11 08:26:23","36c45c0696341be0efffe67d72a12abb","86.180.250.53","Mozilla/5.0 (Windows NT 10.0; Win64; x64) AppleWebKit/537.36 (KHTML, like Gecko) Chrome/138.0.0.0 Safari/537.36 Edg/138.0.0.0","WebKit","Edge","138.0.0.0","Windows","10.0","https://app.prolific.com/","en-US,en;q=0.9,en-GB;q=0.8","676e882e8a97b91ee272efe4","6877649eabb845cf142cd221","6899a92172dc43bed0f8753e","1","676e882e8a97b91ee272efe4","1","2025-08-11T08:31:11.382Z","","","","StressQ","","","","","","","","","","","50","","","","","","","","","","","","","","","","","","","","","","","","","","",""
"4625","","<div style=""width:500px;"">
  <p>What best describes how you currently feel?</p>
  </div>","41","html-slider-response","17","285998","0.0-7.0-4.0","248","1","2025-08-11 08:26:23","36c45c0696341be0efffe67d72a12abb","86.180.250.53","Mozilla/5.0 (Windows NT 10.0; Win64; x64) AppleWebKit/537.36 (KHTML, like Gecko) Chrome/138.0.0.0 Safari/537.36 Edg/138.0.0.0","WebKit","Edge","138.0.0.0","Windows","10.0","https://app.prolific.com/","en-US,en;q=0.9,en-GB;q=0.8","676e882e8a97b91ee272efe4","6877649eabb845cf142cd221","6899a92172dc43bed0f8753e","1","676e882e8a97b91ee272efe4","1","2025-08-11T08:31:16.007Z","","","","MotivationQ","","","","","","","","","","","50","","","","","","","","","","","","","","","","","","","","","","","","","","",""
"","","","","ctl-task-cpt","18","326938","0.0-7.0-0.1","248","1","2025-08-11 08:26:23","36c45c0696341be0efffe67d72a12abb","86.180.250.53","Mozilla/5.0 (Windows NT 10.0; Win64; x64) AppleWebKit/537.36 (KHTML, like Gecko) Chrome/138.0.0.0 Safari/537.36 Edg/138.0.0.0","WebKit","Edge","138.0.0.0","Windows","10.0","https://app.prolific.com/","en-US,en;q=0.9,en-GB;q=0.8","676e882e8a97b91ee272efe4","6877649eabb845cf142cd221","6899a92172dc43bed0f8753e","1","676e882e8a97b91ee272efe4","1","2025-08-11T08:31:56.947Z","","","","","","","","","","","","","","","","win-only","2","g1:SE,g2:NW","0.9","2","0","292115.1","1390.7","6391.9","37925.9","1","4","8","6","2","-8","-8","0","0","0","908.5","3000","-2990","[""left"",""up""]","{""num_key_presses"":7,""num_perfect"":6,""num_errors"":0,""num_randdir"":1,""num_randdir_good_moves"":0,""num_whilered"":0,""num_whileblue"":0,""num_blue"":3,""num_good_moves"":6}","[292.22232142857143,294.12857142857143,0.1,292.22232142857143,294.12857142857143,104.7,292.22232142857143,294.12857142857143,205.3,290.22232142857143,294.12857142857143,310.1,290.22232142857143,303.12857142857143,410.2,293.22232142857143,302.12857142857143,511.2,211.22232142857143,173.12857142857143,614.7,88.22232142857143,64.12857142857143,715.3,79.22232142857143,52.128571428571426,820.8,64.22232142857143,49.128571428571426,926.1,64.22232142857143,49.128571428571426,1030,64.22232142857143,49.128571428571426,1130.3,65.22232142857143,51.128571428571426,1235.7,77.22232142857143,74.12857142857143,1340.3,165.22232142857143,180.12857142857143,1440.6,427.22232142857143,304.12857142857143,1541.1,649.2223214285714,269.12857142857143,1645.7,676.2223214285714,252.12857142857143,1750,677.2223214285714,251.12857142857143,1850.4,677.2223214285714,251.12857142857143,1950.5,677.2223214285714,251.12857142857143,2054.7,677.2223214285714,251.12857142857143,2155.3,677.2223214285714,251.12857142857143,2255.3,677.2223214285714,251.12857142857143,2359.9,677.2223214285714,251.12857142857143,2464.7,677.2223214285714,251.12857142857143,2565.4,677.2223214285714,251.12857142857143,2670.1,677.2223214285714,251.12857142857143,2770.2,677.2223214285714,251.12857142857143,2870.4,677.2223214285714,251.12857142857143,2970.5,677.2223214285714,251.12857142857143,3070.9,677.2223214285714,251.12857142857143,3174.7,677.2223214285714,251.12857142857143,3275.8,677.2223214285714,251.12857142857143,3380.2,677.2223214285714,251.12857142857143,3484.5,677.2223214285714,251.12857142857143,3585.9,677.2223214285714,251.12857142857143,3685.9,677.2223214285714,251.12857142857143,3789.6,677.2223214285714,251.12857142857143,3890.3,677.2223214285714,251.12857142857143,3996.8,677.2223214285714,251.12857142857143,4099.8,677.2223214285714,251.12857142857143,4200,677.2223214285714,251.12857142857143,4304.6,677.2223214285714,251.12857142857143,4405,677.2223214285714,251.12857142857143,4510,677.2223214285714,251.12857142857143,4610.1,677.2223214285714,251.12857142857143,4715.4,677.2223214285714,251.12857142857143,4816.4,677.2223214285714,251.12857142857143,4920]","[1455.8,1455.8,1000,0,455.8,""smooth"",""left"",""left"",""good_move"",3959,2502.7,2072,1456.3,430.7,""smooth"",""left"",""left"",""good_move"",6630.1,2670.8,2316,3959.3,354.8,""smooth"",""left"",""left"",""good_move"",9695.9,3065.4,2706.1,6630.5,359.3,""smooth"",""up"",""up"",""good_move"",16686.9,6990.8,3053,13218.6,415.3,""smooth"",""up"",""up"",""good_move"",19096.5,2409.3,1969,16687.2,440.3,""oops"",""up"",""right"",""bad_move"",22216.1,3119.3,2764.7,19096.9,354.6,""smooth"",""up"",""up"",""good_move""]"
"2351","","<div style=""width:500px;"">
  <p>What determined the result of this run?</p>
  </div>","4","html-slider-response","19","329290","0.0-7.0-1.1","248","1","2025-08-11 08:26:23","36c45c0696341be0efffe67d72a12abb","86.180.250.53","Mozilla/5.0 (Windows NT 10.0; Win64; x64) AppleWebKit/537.36 (KHTML, like Gecko) Chrome/138.0.0.0 Safari/537.36 Edg/138.0.0.0","WebKit","Edge","138.0.0.0","Windows","10.0","https://app.prolific.com/","en-US,en;q=0.9,en-GB;q=0.8","676e882e8a97b91ee272efe4","6877649eabb845cf142cd221","6899a92172dc43bed0f8753e","1","676e882e8a97b91ee272efe4","1","2025-08-11T08:31:59.300Z","","","","AttribQ","","","","","","","","","","","50","","","","","","","","","","","","","","","","","","","","","","","","","","",""
"3305","","<div style=""width:500px;"">
  <p>How much control did you have over the ball?</p>
  </div>","26","html-slider-response","20","332596","0.0-7.0-2.1","248","1","2025-08-11 08:26:23","36c45c0696341be0efffe67d72a12abb","86.180.250.53","Mozilla/5.0 (Windows NT 10.0; Win64; x64) AppleWebKit/537.36 (KHTML, like Gecko) Chrome/138.0.0.0 Safari/537.36 Edg/138.0.0.0","WebKit","Edge","138.0.0.0","Windows","10.0","https://app.prolific.com/","en-US,en;q=0.9,en-GB;q=0.8","676e882e8a97b91ee272efe4","6877649eabb845cf142cd221","6899a92172dc43bed0f8753e","1","676e882e8a97b91ee272efe4","1","2025-08-11T08:32:02.605Z","","","","ControlQ","","","","","","","","","","","50","","","","","","","","","","","","","","","","","","","","","","","","","","",""
"2408","","<div style=""width:500px;"">
  <p>How would you describe your current emotional state?</p>
  </div>","77","html-slider-response","21","335005","0.0-7.0-3.1","248","1","2025-08-11 08:26:23","36c45c0696341be0efffe67d72a12abb","86.180.250.53","Mozilla/5.0 (Windows NT 10.0; Win64; x64) AppleWebKit/537.36 (KHTML, like Gecko) Chrome/138.0.0.0 Safari/537.36 Edg/138.0.0.0","WebKit","Edge","138.0.0.0","Windows","10.0","https://app.prolific.com/","en-US,en;q=0.9,en-GB;q=0.8","676e882e8a97b91ee272efe4","6877649eabb845cf142cd221","6899a92172dc43bed0f8753e","1","676e882e8a97b91ee272efe4","1","2025-08-11T08:32:05.014Z","","","","StressQ","","","","","","","","","","","50","","","","","","","","","","","","","","","","","","","","","","","","","","",""
"2968","","<div style=""width:500px;"">
  <p>What best describes how you currently feel?</p>
  </div>","28","html-slider-response","22","337974","0.0-7.0-4.1","248","1","2025-08-11 08:26:23","36c45c0696341be0efffe67d72a12abb","86.180.250.53","Mozilla/5.0 (Windows NT 10.0; Win64; x64) AppleWebKit/537.36 (KHTML, like Gecko) Chrome/138.0.0.0 Safari/537.36 Edg/138.0.0.0","WebKit","Edge","138.0.0.0","Windows","10.0","https://app.prolific.com/","en-US,en;q=0.9,en-GB;q=0.8","676e882e8a97b91ee272efe4","6877649eabb845cf142cd221","6899a92172dc43bed0f8753e","1","676e882e8a97b91ee272efe4","1","2025-08-11T08:32:07.983Z","","","","MotivationQ","","","","","","","","","","","50","","","","","","","","","","","","","","","","","","","","","","","","","","",""
"","","","","ctl-task-cpt","23","355982","0.0-7.0-0.2","248","1","2025-08-11 08:26:23","36c45c0696341be0efffe67d72a12abb","86.180.250.53","Mozilla/5.0 (Windows NT 10.0; Win64; x64) AppleWebKit/537.36 (KHTML, like Gecko) Chrome/138.0.0.0 Safari/537.36 Edg/138.0.0.0","WebKit","Edge","138.0.0.0","Windows","10.0","https://app.prolific.com/","en-US,en;q=0.9,en-GB;q=0.8","676e882e8a97b91ee272efe4","6877649eabb845cf142cd221","6899a92172dc43bed0f8753e","1","676e882e8a97b91ee272efe4","1","2025-08-11T08:32:25.991Z","","","","","","","","","","","","","","","","win-only","3","g1:SW,g2:NE","0.8","3","0","344091.3","844.1","5845.7","14986.5","1","4","4","6","1","1","1","1","0","0.007575757575757576","5001.5","3000","1380","[""down"",""left""]","{""num_key_presses"":4,""num_perfect"":4,""num_errors"":0,""num_randdir"":0,""num_randdir_good_moves"":0,""num_whilered"":0,""num_whileblue"":0,""num_blue"":0,""num_good_moves"":4}","[300.22232142857143,298.12857142857143,0.2,300.22232142857143,298.12857142857143,101.8,301.22232142857143,298.12857142857143,202.3,356.22232142857143,335.12857142857143,307.7,389.22232142857143,350.12857142857143,408.2,389.22232142857143,350.12857142857143,511.2,389.22232142857143,350.12857142857143,613,389.22232142857143,350.12857142857143,716.8,389.22232142857143,350.12857142857143,817.1,389.22232142857143,350.12857142857143,922.7,389.22232142857143,350.12857142857143,1026.9,389.22232142857143,350.12857142857143,1126.9,389.22232142857143,350.12857142857143,1227.6,389.22232142857143,350.12857142857143,1331.5,389.22232142857143,350.12857142857143,1431.7,389.22232142857143,350.12857142857143,1536.6,389.22232142857143,350.12857142857143,1636.7,389.22232142857143,350.12857142857143,1741.3,389.22232142857143,350.12857142857143,1841.7,389.22232142857143,350.12857142857143,1946.7,389.22232142857143,350.12857142857143,2051.4,389.22232142857143,350.12857142857143,2157,389.22232142857143,350.12857142857143,2262.7,389.22232142857143,350.12857142857143,2367.5,389.22232142857143,350.12857142857143,2471.3,389.22232142857143,350.12857142857143,2571.4,389.22232142857143,350.12857142857143,2672.2,389.22232142857143,350.12857142857143,2772.6,389.22232142857143,350.12857142857143,2877,389.22232142857143,350.12857142857143,2977.6,389.22232142857143,350.12857142857143,3082.2,389.22232142857143,350.12857142857143,3188.6,389.22232142857143,350.12857142857143,3292.5,389.22232142857143,350.12857142857143,3396.9,389.22232142857143,350.12857142857143,3496.9,389.22232142857143,350.12857142857143,3597.3,389.22232142857143,350.12857142857143,3701.6,389.22232142857143,350.12857142857143,3802.6,389.22232142857143,350.12857142857143,3907.4,389.22232142857143,350.12857142857143,4012.2,389.22232142857143,350.12857142857143,4112.5,389.22232142857143,350.12857142857143,4216.9,389.22232142857143,350.12857142857143,4317.2,389.22232142857143,350.12857142857143,4417.9,389.22232142857143,350.12857142857143,4521.3,389.22232142857143,350.12857142857143,4621.3,389.22232142857143,350.12857142857143,4721.4,389.22232142857143,350.12857142857143,4828,389.22232142857143,350.12857142857143,4931.9]","[1498.4,1498.4,1000,0,498.4,""smooth"",""down"",""down"",""good_move"",4015.4,2516.5,2094.2,1499,422.2,""smooth"",""down"",""down"",""good_move"",6039.9,2024.3,1660.6,4015.6,363.7,""smooth"",""left"",""left"",""good_move"",9047.5,3007,2650.7,6040.5,356.3,""smooth"",""left"",""left"",""good_move""]"
"5987","","<div style=""width:500px;"">
  <p>What determined the result of this run?</p>
  </div>","78","html-slider-response","24","361970","0.0-7.0-1.2","248","1","2025-08-11 08:26:23","36c45c0696341be0efffe67d72a12abb","86.180.250.53","Mozilla/5.0 (Windows NT 10.0; Win64; x64) AppleWebKit/537.36 (KHTML, like Gecko) Chrome/138.0.0.0 Safari/537.36 Edg/138.0.0.0","WebKit","Edge","138.0.0.0","Windows","10.0","https://app.prolific.com/","en-US,en;q=0.9,en-GB;q=0.8","676e882e8a97b91ee272efe4","6877649eabb845cf142cd221","6899a92172dc43bed0f8753e","1","676e882e8a97b91ee272efe4","1","2025-08-11T08:32:31.979Z","","","","AttribQ","","","","","","","","","","","50","","","","","","","","","","","","","","","","","","","","","","","","","","",""
"2668","","<div style=""width:500px;"">
  <p>How much control did you have over the ball?</p>
  </div>","96","html-slider-response","25","364639","0.0-7.0-2.2","248","1","2025-08-11 08:26:23","36c45c0696341be0efffe67d72a12abb","86.180.250.53","Mozilla/5.0 (Windows NT 10.0; Win64; x64) AppleWebKit/537.36 (KHTML, like Gecko) Chrome/138.0.0.0 Safari/537.36 Edg/138.0.0.0","WebKit","Edge","138.0.0.0","Windows","10.0","https://app.prolific.com/","en-US,en;q=0.9,en-GB;q=0.8","676e882e8a97b91ee272efe4","6877649eabb845cf142cd221","6899a92172dc43bed0f8753e","1","676e882e8a97b91ee272efe4","1","2025-08-11T08:32:34.648Z","","","","ControlQ","","","","","","","","","","","50","","","","","","","","","","","","","","","","","","","","","","","","","","",""
"3963","","<div style=""width:500px;"">
  <p>How would you describe your current emotional state?</p>
  </div>","58","html-slider-response","26","368602","0.0-7.0-3.2","248","1","2025-08-11 08:26:23","36c45c0696341be0efffe67d72a12abb","86.180.250.53","Mozilla/5.0 (Windows NT 10.0; Win64; x64) AppleWebKit/537.36 (KHTML, like Gecko) Chrome/138.0.0.0 Safari/537.36 Edg/138.0.0.0","WebKit","Edge","138.0.0.0","Windows","10.0","https://app.prolific.com/","en-US,en;q=0.9,en-GB;q=0.8","676e882e8a97b91ee272efe4","6877649eabb845cf142cd221","6899a92172dc43bed0f8753e","1","676e882e8a97b91ee272efe4","1","2025-08-11T08:32:38.612Z","","","","StressQ","","","","","","","","","","","50","","","","","","","","","","","","","","","","","","","","","","","","","","",""
"2366","","<div style=""width:500px;"">
  <p>What best describes how you currently feel?</p>
  </div>","50","html-slider-response","27","370969","0.0-7.0-4.2","248","1","2025-08-11 08:26:23","36c45c0696341be0efffe67d72a12abb","86.180.250.53","Mozilla/5.0 (Windows NT 10.0; Win64; x64) AppleWebKit/537.36 (KHTML, like Gecko) Chrome/138.0.0.0 Safari/537.36 Edg/138.0.0.0","WebKit","Edge","138.0.0.0","Windows","10.0","https://app.prolific.com/","en-US,en;q=0.9,en-GB;q=0.8","676e882e8a97b91ee272efe4","6877649eabb845cf142cd221","6899a92172dc43bed0f8753e","1","676e882e8a97b91ee272efe4","1","2025-08-11T08:32:40.978Z","","","","MotivationQ","","","","","","","","","","","50","","","","","","","","","","","","","","","","","","","","","","","","","","",""
"","","","","ctl-task-cpt","28","399419","0.0-7.0-0.3","248","1","2025-08-11 08:26:23","36c45c0696341be0efffe67d72a12abb","86.180.250.53","Mozilla/5.0 (Windows NT 10.0; Win64; x64) AppleWebKit/537.36 (KHTML, like Gecko) Chrome/138.0.0.0 Safari/537.36 Edg/138.0.0.0","WebKit","Edge","138.0.0.0","Windows","10.0","https://app.prolific.com/","en-US,en;q=0.9,en-GB;q=0.8","676e882e8a97b91ee272efe4","6877649eabb845cf142cd221","6899a92172dc43bed0f8753e","1","676e882e8a97b91ee272efe4","1","2025-08-11T08:33:09.428Z","","","","","","","","","","","","","","","","win-only","2","g1:SE,g2:NW","0.7","4","0","377085.7","870.1","5873.1","25430.8","1","4","8","6","2","8","8","9","1","0.06818181818181818","5003","3000","780","[""left"",""up""]","{""num_key_presses"":6,""num_perfect"":4,""num_errors"":0,""num_randdir"":2,""num_randdir_good_moves"":2,""num_whilered"":0,""num_whileblue"":0,""num_blue"":1,""num_good_moves"":6}","[298.22232142857143,301.12857142857143,0.3,298.22232142857143,301.12857142857143,100.1,298.22232142857143,301.12857142857143,200.2,298.22232142857143,301.12857142857143,300.4,345.22232142857143,317.12857142857143,402,477.22232142857143,312.12857142857143,505.5,494.22232142857143,310.12857142857143,606.9,494.22232142857143,310.12857142857143,711.5,494.22232142857143,310.12857142857143,816.9,494.22232142857143,310.12857142857143,920.3,494.22232142857143,310.12857142857143,1020.7,494.22232142857143,310.12857142857143,1125.8,494.22232142857143,310.12857142857143,1231.1,494.22232142857143,310.12857142857143,1336.1,494.22232142857143,310.12857142857143,1441.1,494.22232142857143,310.12857142857143,1545.3,494.22232142857143,310.12857142857143,1646.6,494.22232142857143,310.12857142857143,1751.9,494.22232142857143,310.12857142857143,1855.6,494.22232142857143,310.12857142857143,1956.3,494.22232142857143,310.12857142857143,2057.1,494.22232142857143,310.12857142857143,2160.5,494.22232142857143,310.12857142857143,2261.9,494.22232142857143,310.12857142857143,2365.3,494.22232142857143,310.12857142857143,2465.8,494.22232142857143,310.12857142857143,2568,494.22232142857143,310.12857142857143,2671.3,494.22232142857143,310.12857142857143,2775.1,494.22232142857143,310.12857142857143,2875.3,494.22232142857143,310.12857142857143,2976.4,494.22232142857143,310.12857142857143,3080.8,494.22232142857143,310.12857142857143,3185.9,494.22232142857143,310.12857142857143,3285.9,494.22232142857143,310.12857142857143,3386,494.22232142857143,310.12857142857143,3491.7,494.22232142857143,310.12857142857143,3595.5,494.22232142857143,310.12857142857143,3695.9,494.22232142857143,310.12857142857143,3800.3,494.22232142857143,310.12857142857143,3902.6,494.22232142857143,310.12857142857143,4005.7,494.22232142857143,310.12857142857143,4110.8,494.22232142857143,310.12857142857143,4215.1,494.22232142857143,310.12857142857143,4315.4,494.22232142857143,310.12857142857143,4416,494.22232142857143,310.12857142857143,4520.6,494.22232142857143,310.12857142857143,4621.7,494.22232142857143,310.12857142857143,4725.5,494.22232142857143,310.12857142857143,4826.2,494.22232142857143,310.12857142857143,4930.6]","[1428,1428,1000,0,428,""smooth"",""left"",""left"",""good_move"",4674.7,3246.3,2815.6,1428.4,430.7,""oops"",""left"",""left"",""good_move"",7386.5,2711.4,2369.5,4675.3,341.8,""smooth"",""up"",""up"",""good_move"",13891.2,6503.8,2195.5,11332.5,363.2,""oops"",""up"",""up"",""good_move"",16851.5,2960.1,2614.6,13891.4,345.5,""smooth"",""left"",""left"",""good_move"",19466.3,2614.5,2268.7,16851.8,345.8,""smooth"",""up"",""up"",""good_move""]"
"2759","","<div style=""width:500px;"">
  <p>What determined the result of this run?</p>
  </div>","63","html-slider-response","29","402180","0.0-7.0-1.3","248","1","2025-08-11 08:26:23","36c45c0696341be0efffe67d72a12abb","86.180.250.53","Mozilla/5.0 (Windows NT 10.0; Win64; x64) AppleWebKit/537.36 (KHTML, like Gecko) Chrome/138.0.0.0 Safari/537.36 Edg/138.0.0.0","WebKit","Edge","138.0.0.0","Windows","10.0","https://app.prolific.com/","en-US,en;q=0.9,en-GB;q=0.8","676e882e8a97b91ee272efe4","6877649eabb845cf142cd221","6899a92172dc43bed0f8753e","1","676e882e8a97b91ee272efe4","1","2025-08-11T08:33:12.189Z","","","","AttribQ","","","","","","","","","","","50","","","","","","","","","","","","","","","","","","","","","","","","","","",""
"2190","","<div style=""width:500px;"">
  <p>How much control did you have over the ball?</p>
  </div>","90","html-slider-response","30","404371","0.0-7.0-2.3","248","1","2025-08-11 08:26:23","36c45c0696341be0efffe67d72a12abb","86.180.250.53","Mozilla/5.0 (Windows NT 10.0; Win64; x64) AppleWebKit/537.36 (KHTML, like Gecko) Chrome/138.0.0.0 Safari/537.36 Edg/138.0.0.0","WebKit","Edge","138.0.0.0","Windows","10.0","https://app.prolific.com/","en-US,en;q=0.9,en-GB;q=0.8","676e882e8a97b91ee272efe4","6877649eabb845cf142cd221","6899a92172dc43bed0f8753e","1","676e882e8a97b91ee272efe4","1","2025-08-11T08:33:14.380Z","","","","ControlQ","","","","","","","","","","","50","","","","","","","","","","","","","","","","","","","","","","","","","","",""
"2220","","<div style=""width:500px;"">
  <p>How would you describe your current emotional state?</p>
  </div>","39","html-slider-response","31","406591","0.0-7.0-3.3","248","1","2025-08-11 08:26:23","36c45c0696341be0efffe67d72a12abb","86.180.250.53","Mozilla/5.0 (Windows NT 10.0; Win64; x64) AppleWebKit/537.36 (KHTML, like Gecko) Chrome/138.0.0.0 Safari/537.36 Edg/138.0.0.0","WebKit","Edge","138.0.0.0","Windows","10.0","https://app.prolific.com/","en-US,en;q=0.9,en-GB;q=0.8","676e882e8a97b91ee272efe4","6877649eabb845cf142cd221","6899a92172dc43bed0f8753e","1","676e882e8a97b91ee272efe4","1","2025-08-11T08:33:16.600Z","","","","StressQ","","","","","","","","","","","50","","","","","","","","","","","","","","","","","","","","","","","","","","",""
"2740","","<div style=""width:500px;"">
  <p>What best describes how you currently feel?</p>
  </div>","56","html-slider-response","32","409333","0.0-7.0-4.3","248","1","2025-08-11 08:26:23","36c45c0696341be0efffe67d72a12abb","86.180.250.53","Mozilla/5.0 (Windows NT 10.0; Win64; x64) AppleWebKit/537.36 (KHTML, like Gecko) Chrome/138.0.0.0 Safari/537.36 Edg/138.0.0.0","WebKit","Edge","138.0.0.0","Windows","10.0","https://app.prolific.com/","en-US,en;q=0.9,en-GB;q=0.8","676e882e8a97b91ee272efe4","6877649eabb845cf142cd221","6899a92172dc43bed0f8753e","1","676e882e8a97b91ee272efe4","1","2025-08-11T08:33:19.342Z","","","","MotivationQ","","","","","","","","","","","50","","","","","","","","","","","","","","","","","","","","","","","","","","",""
"","","","","ctl-task-cpt","33","418348","0.0-7.0-0.4","248","1","2025-08-11 08:26:23","36c45c0696341be0efffe67d72a12abb","86.180.250.53","Mozilla/5.0 (Windows NT 10.0; Win64; x64) AppleWebKit/537.36 (KHTML, like Gecko) Chrome/138.0.0.0 Safari/537.36 Edg/138.0.0.0","WebKit","Edge","138.0.0.0","Windows","10.0","https://app.prolific.com/","en-US,en;q=0.9,en-GB;q=0.8","676e882e8a97b91ee272efe4","6877649eabb845cf142cd221","6899a92172dc43bed0f8753e","1","676e882e8a97b91ee272efe4","1","2025-08-11T08:33:28.357Z","","","","","","","","","","","","","","","","win-only","0","g1:NW,g2:SE","0.6","5","0","415449.2","990.7","-9999","5996.1","1","4","4","6","-9999","-4","-4","5","9","0.03787878787878788","-9999","3000","3000","[]","{""num_key_presses"":0,""num_perfect"":0,""num_errors"":0,""num_randdir"":0,""num_randdir_good_moves"":0,""num_whilered"":0,""num_whileblue"":0,""num_blue"":0,""num_good_moves"":0}","[296.22232142857143,303.12857142857143,0.5,296.22232142857143,303.12857142857143,100.6,296.22232142857143,303.12857142857143,201.1,441.22232142857143,307.12857142857143,301.3,817.2223214285714,299.12857142857143,401.9,840.2223214285714,288.12857142857143,502.1,840.2223214285714,287.12857142857143,605.3,840.2223214285714,287.12857142857143,705.5,840.2223214285714,287.12857142857143,805.6,840.2223214285714,287.12857142857143,910.3,840.2223214285714,287.12857142857143,1016.4,840.2223214285714,287.12857142857143,1120,840.2223214285714,287.12857142857143,1225.1,840.2223214285714,287.12857142857143,1326.6,840.2223214285714,287.12857142857143,1430.3,840.2223214285714,287.12857142857143,1530.3,840.2223214285714,287.12857142857143,1635.2,840.2223214285714,287.12857142857143,1736.3,840.2223214285714,287.12857142857143,1839.5,840.2223214285714,287.12857142857143,1939.7,840.2223214285714,287.12857142857143,2040.1,840.2223214285714,287.12857142857143,2140.5,840.2223214285714,287.12857142857143,2240.8,840.2223214285714,287.12857142857143,2346.3,840.2223214285714,287.12857142857143,2451.5,840.2223214285714,287.12857142857143,2554.6,840.2223214285714,287.12857142857143,2654.6,840.2223214285714,287.12857142857143,2755.9,840.2223214285714,287.12857142857143,2861.4,840.2223214285714,287.12857142857143,2964.9,840.2223214285714,287.12857142857143,3065.3,840.2223214285714,287.12857142857143,3170.8,840.2223214285714,287.12857142857143,3271.7,840.2223214285714,287.12857142857143,3371.9,840.2223214285714,287.12857142857143,3474.8,840.2223214285714,287.12857142857143,3575.3,840.2223214285714,287.12857142857143,3676.1,840.2223214285714,287.12857142857143,3780.2,840.2223214285714,287.12857142857143,3885.8,840.2223214285714,287.12857142857143,3986.4,840.2223214285714,287.12857142857143,4090.5,840.2223214285714,287.12857142857143,4190.8,840.2223214285714,287.12857142857143,4295.2,840.2223214285714,287.12857142857143,4400.8,840.2223214285714,287.12857142857143,4506.4,840.2223214285714,287.12857142857143,4610.8,840.2223214285714,287.12857142857143,4714.8,840.2223214285714,287.12857142857143,4815.8,840.2223214285714,287.12857142857143,4920.9]","[]"
"2241","","<div style=""width:500px;"">
  <p>What determined the result of this run?</p>
  </div>","0","html-slider-response","34","420590","0.0-7.0-1.4","248","1","2025-08-11 08:26:23","36c45c0696341be0efffe67d72a12abb","86.180.250.53","Mozilla/5.0 (Windows NT 10.0; Win64; x64) AppleWebKit/537.36 (KHTML, like Gecko) Chrome/138.0.0.0 Safari/537.36 Edg/138.0.0.0","WebKit","Edge","138.0.0.0","Windows","10.0","https://app.prolific.com/","en-US,en;q=0.9,en-GB;q=0.8","676e882e8a97b91ee272efe4","6877649eabb845cf142cd221","6899a92172dc43bed0f8753e","1","676e882e8a97b91ee272efe4","1","2025-08-11T08:33:30.600Z","","","","AttribQ","","","","","","","","","","","50","","","","","","","","","","","","","","","","","","","","","","","","","","",""
"2484","","<div style=""width:500px;"">
  <p>How much control did you have over the ball?</p>
  </div>","0","html-slider-response","35","423076","0.0-7.0-2.4","248","1","2025-08-11 08:26:23","36c45c0696341be0efffe67d72a12abb","86.180.250.53","Mozilla/5.0 (Windows NT 10.0; Win64; x64) AppleWebKit/537.36 (KHTML, like Gecko) Chrome/138.0.0.0 Safari/537.36 Edg/138.0.0.0","WebKit","Edge","138.0.0.0","Windows","10.0","https://app.prolific.com/","en-US,en;q=0.9,en-GB;q=0.8","676e882e8a97b91ee272efe4","6877649eabb845cf142cd221","6899a92172dc43bed0f8753e","1","676e882e8a97b91ee272efe4","1","2025-08-11T08:33:33.085Z","","","","ControlQ","","","","","","","","","","","50","","","","","","","","","","","","","","","","","","","","","","","","","","",""
"2095","","<div style=""width:500px;"">
  <p>How would you describe your current emotional state?</p>
  </div>","90","html-slider-response","36","425172","0.0-7.0-3.4","248","1","2025-08-11 08:26:23","36c45c0696341be0efffe67d72a12abb","86.180.250.53","Mozilla/5.0 (Windows NT 10.0; Win64; x64) AppleWebKit/537.36 (KHTML, like Gecko) Chrome/138.0.0.0 Safari/537.36 Edg/138.0.0.0","WebKit","Edge","138.0.0.0","Windows","10.0","https://app.prolific.com/","en-US,en;q=0.9,en-GB;q=0.8","676e882e8a97b91ee272efe4","6877649eabb845cf142cd221","6899a92172dc43bed0f8753e","1","676e882e8a97b91ee272efe4","1","2025-08-11T08:33:35.181Z","","","","StressQ","","","","","","","","","","","50","","","","","","","","","","","","","","","","","","","","","","","","","","",""
"1804","","<div style=""width:500px;"">
  <p>What best describes how you currently feel?</p>
  </div>","14","html-slider-response","37","426977","0.0-7.0-4.4","248","1","2025-08-11 08:26:23","36c45c0696341be0efffe67d72a12abb","86.180.250.53","Mozilla/5.0 (Windows NT 10.0; Win64; x64) AppleWebKit/537.36 (KHTML, like Gecko) Chrome/138.0.0.0 Safari/537.36 Edg/138.0.0.0","WebKit","Edge","138.0.0.0","Windows","10.0","https://app.prolific.com/","en-US,en;q=0.9,en-GB;q=0.8","676e882e8a97b91ee272efe4","6877649eabb845cf142cd221","6899a92172dc43bed0f8753e","1","676e882e8a97b91ee272efe4","1","2025-08-11T08:33:36.986Z","","","","MotivationQ","","","","","","","","","","","50","","","","","","","","","","","","","","","","","","","","","","","","","","",""
"","","","","ctl-task-cpt","38","454408","0.0-7.0-0.5","248","1","2025-08-11 08:26:23","36c45c0696341be0efffe67d72a12abb","86.180.250.53","Mozilla/5.0 (Windows NT 10.0; Win64; x64) AppleWebKit/537.36 (KHTML, like Gecko) Chrome/138.0.0.0 Safari/537.36 Edg/138.0.0.0","WebKit","Edge","138.0.0.0","Windows","10.0","https://app.prolific.com/","en-US,en;q=0.9,en-GB;q=0.8","676e882e8a97b91ee272efe4","6877649eabb845cf142cd221","6899a92172dc43bed0f8753e","1","676e882e8a97b91ee272efe4","1","2025-08-11T08:34:04.417Z","","","","","","","","","","","","","","","","win-only","0","g1:NW,g2:SE","0.5","6","0","433093.3","804.5","5806.6","24412.1","1","4","8","6","2","8","8","13","5","0.09848484848484848","2629.8","3000","780","[""down"",""right""]","{""num_key_presses"":6,""num_perfect"":5,""num_errors"":0,""num_randdir"":1,""num_randdir_good_moves"":1,""num_whilered"":0,""num_whileblue"":0,""num_blue"":1,""num_good_moves"":6}","[291.22232142857143,292.12857142857143,0.4,291.22232142857143,292.12857142857143,103.9,291.22232142857143,293.12857142857143,207,378.22232142857143,313.12857142857143,307.5,704.2223214285714,327.12857142857143,412.5,785.2223214285714,319.12857142857143,517.4,785.2223214285714,319.12857142857143,621.3,785.2223214285714,319.12857142857143,726.3,785.2223214285714,319.12857142857143,826.6,785.2223214285714,319.12857142857143,933.7,785.2223214285714,319.12857142857143,1037.3,785.2223214285714,319.12857142857143,1142.6,785.2223214285714,319.12857142857143,1245.9,785.2223214285714,319.12857142857143,1347.3,785.2223214285714,319.12857142857143,1453.7,785.2223214285714,319.12857142857143,1556,785.2223214285714,319.12857142857143,1656.4,796.2223214285714,367.12857142857143,1761.6,713.2223214285714,426.12857142857143,1868,614.2223214285714,540.1285714285714,1969.5,584.2223214285714,544.1285714285714,2072.2,578.2223214285714,535.1285714285714,2177.2,578.2223214285714,535.1285714285714,2284.5,578.2223214285714,535.1285714285714,2391,578.2223214285714,535.1285714285714,2491.2,578.2223214285714,535.1285714285714,2591.7,578.2223214285714,535.1285714285714,2696.6,578.2223214285714,535.1285714285714,2801.4,636.2223214285714,506.12857142857143,2902.6,775.2223214285714,429.12857142857143,3003.7,775.2223214285714,429.12857142857143,3107.1,775.2223214285714,429.12857142857143,3211.6,775.2223214285714,429.12857142857143,3311.6,775.2223214285714,429.12857142857143,3411.6,775.2223214285714,429.12857142857143,3516.3,775.2223214285714,429.12857142857143,3617.8,775.2223214285714,429.12857142857143,3719.3,775.2223214285714,429.12857142857143,3822.7,775.2223214285714,429.12857142857143,3927.5,775.2223214285714,429.12857142857143,4030.9,775.2223214285714,429.12857142857143,4132.6,775.2223214285714,429.12857142857143,4232.8,775.2223214285714,429.12857142857143,4337.1,775.2223214285714,429.12857142857143,4441.3,775.2223214285714,429.12857142857143,4541.8,775.2223214285714,429.12857142857143,4642.3,775.2223214285714,429.12857142857143,4742.4,775.2223214285714,429.12857142857143,4846.6,775.2223214285714,429.12857142857143,4947.8]","[1469.7,1469.7,1000,0,469.7,""smooth"",""down"",""down"",""good_move"",3717.9,2247.8,1891.4,1470.1,356.4,""smooth"",""down"",""down"",""good_move"",7101.6,3383.2,3032,3718.4,351.2,""smooth"",""right"",""right"",""good_move"",9672.5,2570.5,2198.3,7102,372.2,""smooth"",""down"",""down"",""good_move"",12374.4,2700.6,2363.2,9673.9,337.3,""oops"",""right"",""right"",""good_move"",18517.5,6142.8,2338.8,15784.1,394.6,""smooth"",""right"",""right"",""good_move""]"
"3205","","<div style=""width:500px;"">
  <p>What determined the result of this run?</p>
  </div>","90","html-slider-response","39","457615","0.0-7.0-1.5","248","1","2025-08-11 08:26:23","36c45c0696341be0efffe67d72a12abb","86.180.250.53","Mozilla/5.0 (Windows NT 10.0; Win64; x64) AppleWebKit/537.36 (KHTML, like Gecko) Chrome/138.0.0.0 Safari/537.36 Edg/138.0.0.0","WebKit","Edge","138.0.0.0","Windows","10.0","https://app.prolific.com/","en-US,en;q=0.9,en-GB;q=0.8","676e882e8a97b91ee272efe4","6877649eabb845cf142cd221","6899a92172dc43bed0f8753e","1","676e882e8a97b91ee272efe4","1","2025-08-11T08:34:07.624Z","","","","AttribQ","","","","","","","","","","","50","","","","","","","","","","","","","","","","","","","","","","","","","","",""
"2861","","<div style=""width:500px;"">
  <p>How much control did you have over the ball?</p>
  </div>","87","html-slider-response","40","460478","0.0-7.0-2.5","248","1","2025-08-11 08:26:23","36c45c0696341be0efffe67d72a12abb","86.180.250.53","Mozilla/5.0 (Windows NT 10.0; Win64; x64) AppleWebKit/537.36 (KHTML, like Gecko) Chrome/138.0.0.0 Safari/537.36 Edg/138.0.0.0","WebKit","Edge","138.0.0.0","Windows","10.0","https://app.prolific.com/","en-US,en;q=0.9,en-GB;q=0.8","676e882e8a97b91ee272efe4","6877649eabb845cf142cd221","6899a92172dc43bed0f8753e","1","676e882e8a97b91ee272efe4","1","2025-08-11T08:34:10.487Z","","","","ControlQ","","","","","","","","","","","50","","","","","","","","","","","","","","","","","","","","","","","","","","",""
"2001","","<div style=""width:500px;"">
  <p>How would you describe your current emotional state?</p>
  </div>","38","html-slider-response","41","462481","0.0-7.0-3.5","248","1","2025-08-11 08:26:23","36c45c0696341be0efffe67d72a12abb","86.180.250.53","Mozilla/5.0 (Windows NT 10.0; Win64; x64) AppleWebKit/537.36 (KHTML, like Gecko) Chrome/138.0.0.0 Safari/537.36 Edg/138.0.0.0","WebKit","Edge","138.0.0.0","Windows","10.0","https://app.prolific.com/","en-US,en;q=0.9,en-GB;q=0.8","676e882e8a97b91ee272efe4","6877649eabb845cf142cd221","6899a92172dc43bed0f8753e","1","676e882e8a97b91ee272efe4","1","2025-08-11T08:34:12.490Z","","","","StressQ","","","","","","","","","","","50","","","","","","","","","","","","","","","","","","","","","","","","","","",""
"2181","","<div style=""width:500px;"">
  <p>What best describes how you currently feel?</p>
  </div>","57","html-slider-response","42","464663","0.0-7.0-4.5","248","1","2025-08-11 08:26:23","36c45c0696341be0efffe67d72a12abb","86.180.250.53","Mozilla/5.0 (Windows NT 10.0; Win64; x64) AppleWebKit/537.36 (KHTML, like Gecko) Chrome/138.0.0.0 Safari/537.36 Edg/138.0.0.0","WebKit","Edge","138.0.0.0","Windows","10.0","https://app.prolific.com/","en-US,en;q=0.9,en-GB;q=0.8","676e882e8a97b91ee272efe4","6877649eabb845cf142cd221","6899a92172dc43bed0f8753e","1","676e882e8a97b91ee272efe4","1","2025-08-11T08:34:14.672Z","","","","MotivationQ","","","","","","","","","","","50","","","","","","","","","","","","","","","","","","","","","","","","","","",""
"","","","","ctl-task-cpt","43","502754","0.0-7.0-0.6","248","1","2025-08-11 08:26:23","36c45c0696341be0efffe67d72a12abb","86.180.250.53","Mozilla/5.0 (Windows NT 10.0; Win64; x64) AppleWebKit/537.36 (KHTML, like Gecko) Chrome/138.0.0.0 Safari/537.36 Edg/138.0.0.0","WebKit","Edge","138.0.0.0","Windows","10.0","https://app.prolific.com/","en-US,en;q=0.9,en-GB;q=0.8","676e882e8a97b91ee272efe4","6877649eabb845cf142cd221","6899a92172dc43bed0f8753e","1","676e882e8a97b91ee272efe4","1","2025-08-11T08:34:52.763Z","","","","","","","","","","","","","","","","win-only","1","g1:NE,g2:SW","0.4","7","0","470779.5","1050.3","6053.4","35070.3","1","4","8","6","2","-8","-8","5","13","0.03787878787878788","5003.1","3000","-2975","[""down"",""left""]","{""num_key_presses"":6,""num_perfect"":2,""num_errors"":0,""num_randdir"":4,""num_randdir_good_moves"":2,""num_whilered"":0,""num_whileblue"":0,""num_blue"":2,""num_good_moves"":4}","[290.22232142857143,297.12857142857143,0.6,290.22232142857143,297.12857142857143,102.7,307.22232142857143,297.12857142857143,205.8,560.2223214285714,297.12857142857143,305.8,573.2223214285714,297.12857142857143,410.2,573.2223214285714,297.12857142857143,511.2,500.22232142857143,325.12857142857143,615.1,222.22232142857143,463.12857142857143,719.6,105.22232142857143,552.1285714285714,820.1,54.222321428571426,576.1285714285714,921.3,16.222321428571426,579.1285714285714,1022.6,14.222321428571426,575.1285714285714,1126.8,14.222321428571426,575.1285714285714,1230.8,14.222321428571426,575.1285714285714,1331.3,14.222321428571426,575.1285714285714,1431.9,14.222321428571426,575.1285714285714,1536.9,16.222321428571426,573.1285714285714,1641.9,397.22232142857143,502.12857142857143,1746.1,613.2223214285714,470.12857142857143,1853.6,613.2223214285714,470.12857142857143,1955.4,613.2223214285714,470.12857142857143,2059,613.2223214285714,470.12857142857143,2161.1,613.2223214285714,470.12857142857143,2261.3,613.2223214285714,470.12857142857143,2367.2,613.2223214285714,470.12857142857143,2474.1,613.2223214285714,470.12857142857143,2575.5,613.2223214285714,470.12857142857143,2675.6,613.2223214285714,470.12857142857143,2775.9,613.2223214285714,470.12857142857143,2876.5,613.2223214285714,470.12857142857143,2981.1,613.2223214285714,470.12857142857143,3087,613.2223214285714,470.12857142857143,3190.8,613.2223214285714,470.12857142857143,3295,613.2223214285714,470.12857142857143,3395.4,613.2223214285714,470.12857142857143,3500.6,613.2223214285714,470.12857142857143,3601.6,613.2223214285714,470.12857142857143,3702.4,613.2223214285714,470.12857142857143,3803.2,613.2223214285714,470.12857142857143,3906.4,613.2223214285714,470.12857142857143,4007.7,613.2223214285714,470.12857142857143,4110.8,613.2223214285714,470.12857142857143,4211.7,613.2223214285714,470.12857142857143,4315.4,613.2223214285714,470.12857142857143,4415.4,613.2223214285714,470.12857142857143,4521.6,613.2223214285714,470.12857142857143,4624.9,613.2223214285714,470.12857142857143,4725.7,613.2223214285714,470.12857142857143,4825.7,613.2223214285714,470.12857142857143,4926.4]","[1474.6,1474.6,1000,0.1,474.5,""oops"",""down"",""down"",""good_move"",4928.3,3452.8,3077.2,1475.5,375.6,""smooth"",""left"",""left"",""good_move"",7977.1,3048.4,2696.3,4928.7,352.1,""oops"",""down"",""up"",""bad_move"",18987.2,11009.7,3047.4,15397.8,542,""oops"",""down"",""down"",""good_move"",22696.8,3709.3,3195.8,18987.5,513.6,""smooth"",""left"",""left"",""good_move"",26136.8,3439.6,3037.9,22697.2,401.7,""oops"",""left"",""up"",""bad_move""]"
"1882","","<div style=""width:500px;"">
  <p>What determined the result of this run?</p>
  </div>","8","html-slider-response","44","504638","0.0-7.0-1.6","248","1","2025-08-11 08:26:23","36c45c0696341be0efffe67d72a12abb","86.180.250.53","Mozilla/5.0 (Windows NT 10.0; Win64; x64) AppleWebKit/537.36 (KHTML, like Gecko) Chrome/138.0.0.0 Safari/537.36 Edg/138.0.0.0","WebKit","Edge","138.0.0.0","Windows","10.0","https://app.prolific.com/","en-US,en;q=0.9,en-GB;q=0.8","676e882e8a97b91ee272efe4","6877649eabb845cf142cd221","6899a92172dc43bed0f8753e","1","676e882e8a97b91ee272efe4","1","2025-08-11T08:34:54.647Z","","","","AttribQ","","","","","","","","","","","50","","","","","","","","","","","","","","","","","","","","","","","","","","",""
"2156","","<div style=""width:500px;"">
  <p>How much control did you have over the ball?</p>
  </div>","9","html-slider-response","45","506796","0.0-7.0-2.6","248","1","2025-08-11 08:26:23","36c45c0696341be0efffe67d72a12abb","86.180.250.53","Mozilla/5.0 (Windows NT 10.0; Win64; x64) AppleWebKit/537.36 (KHTML, like Gecko) Chrome/138.0.0.0 Safari/537.36 Edg/138.0.0.0","WebKit","Edge","138.0.0.0","Windows","10.0","https://app.prolific.com/","en-US,en;q=0.9,en-GB;q=0.8","676e882e8a97b91ee272efe4","6877649eabb845cf142cd221","6899a92172dc43bed0f8753e","1","676e882e8a97b91ee272efe4","1","2025-08-11T08:34:56.805Z","","","","ControlQ","","","","","","","","","","","50","","","","","","","","","","","","","","","","","","","","","","","","","","",""
"3702","","<div style=""width:500px;"">
  <p>How would you describe your current emotional state?</p>
  </div>","84","html-slider-response","46","510499","0.0-7.0-3.6","248","1","2025-08-11 08:26:23","36c45c0696341be0efffe67d72a12abb","86.180.250.53","Mozilla/5.0 (Windows NT 10.0; Win64; x64) AppleWebKit/537.36 (KHTML, like Gecko) Chrome/138.0.0.0 Safari/537.36 Edg/138.0.0.0","WebKit","Edge","138.0.0.0","Windows","10.0","https://app.prolific.com/","en-US,en;q=0.9,en-GB;q=0.8","676e882e8a97b91ee272efe4","6877649eabb845cf142cd221","6899a92172dc43bed0f8753e","1","676e882e8a97b91ee272efe4","1","2025-08-11T08:35:00.508Z","","","","StressQ","","","","","","","","","","","50","","","","","","","","","","","","","","","","","","","","","","","","","","",""
"2044","","<div style=""width:500px;"">
  <p>What best describes how you currently feel?</p>
  </div>","22","html-slider-response","47","512545","0.0-7.0-4.6","248","1","2025-08-11 08:26:23","36c45c0696341be0efffe67d72a12abb","86.180.250.53","Mozilla/5.0 (Windows NT 10.0; Win64; x64) AppleWebKit/537.36 (KHTML, like Gecko) Chrome/138.0.0.0 Safari/537.36 Edg/138.0.0.0","WebKit","Edge","138.0.0.0","Windows","10.0","https://app.prolific.com/","en-US,en;q=0.9,en-GB;q=0.8","676e882e8a97b91ee272efe4","6877649eabb845cf142cd221","6899a92172dc43bed0f8753e","1","676e882e8a97b91ee272efe4","1","2025-08-11T08:35:02.554Z","","","","MotivationQ","","","","","","","","","","","50","","","","","","","","","","","","","","","","","","","","","","","","","","",""
"","","","","ctl-task-cpt","48","546340","0.0-7.0-0.7","248","1","2025-08-11 08:26:23","36c45c0696341be0efffe67d72a12abb","86.180.250.53","Mozilla/5.0 (Windows NT 10.0; Win64; x64) AppleWebKit/537.36 (KHTML, like Gecko) Chrome/138.0.0.0 Safari/537.36 Edg/138.0.0.0","WebKit","Edge","138.0.0.0","Windows","10.0","https://app.prolific.com/","en-US,en;q=0.9,en-GB;q=0.8","676e882e8a97b91ee272efe4","6877649eabb845cf142cd221","6899a92172dc43bed0f8753e","1","676e882e8a97b91ee272efe4","1","2025-08-11T08:35:36.349Z","","","","","","","","","","","","","","","","win-only","1","g1:NE,g2:SW","0.3","8","0","518660.8","879.5","5882.9","30775.8","1","4","4","6","1","-1","-1","4","5","0.030303030303030304","5003.4","3000","-2875","[""up"",""right""]","{""num_key_presses"":7,""num_perfect"":2,""num_errors"":0,""num_randdir"":5,""num_randdir_good_moves"":1,""num_whilered"":0,""num_whileblue"":0,""num_blue"":1,""num_good_moves"":3}","[292.22232142857143,299.12857142857143,0.2,292.22232142857143,299.12857142857143,101.7,292.22232142857143,298.12857142857143,206.8,318.22232142857143,318.12857142857143,314.5,470.22232142857143,352.12857142857143,417,532.2223214285714,358.12857142857143,522.4,532.2223214285714,358.12857142857143,622.6,532.2223214285714,358.12857142857143,727.6,532.2223214285714,358.12857142857143,832.5,532.2223214285714,358.12857142857143,933.3,532.2223214285714,358.12857142857143,1037,532.2223214285714,358.12857142857143,1141.6,533.2223214285714,358.12857142857143,1243.4,533.2223214285714,358.12857142857143,1347.6,533.2223214285714,358.12857142857143,1451.7,533.2223214285714,358.12857142857143,1551.9,533.2223214285714,358.12857142857143,1656.8,533.2223214285714,358.12857142857143,1756.8,533.2223214285714,358.12857142857143,1857.2,533.2223214285714,358.12857142857143,1961.8,533.2223214285714,358.12857142857143,2063.8,533.2223214285714,358.12857142857143,2165.9,533.2223214285714,358.12857142857143,2267.3,533.2223214285714,358.12857142857143,2371.6,533.2223214285714,358.12857142857143,2471.7,533.2223214285714,358.12857142857143,2576.2,533.2223214285714,358.12857142857143,2677.1,533.2223214285714,358.12857142857143,2785.9,533.2223214285714,358.12857142857143,2886.6,533.2223214285714,358.12857142857143,2987.1,533.2223214285714,358.12857142857143,3092.3,533.2223214285714,358.12857142857143,3199.8,533.2223214285714,358.12857142857143,3301.6,533.2223214285714,358.12857142857143,3401.7,533.2223214285714,358.12857142857143,3502.3,533.2223214285714,358.12857142857143,3607.3,533.2223214285714,358.12857142857143,3712.5,533.2223214285714,358.12857142857143,3812.8,533.2223214285714,358.12857142857143,3918.3,533.2223214285714,358.12857142857143,4019.5,533.2223214285714,358.12857142857143,4121.5,533.2223214285714,358.12857142857143,4222.4,533.2223214285714,358.12857142857143,4327.2,533.2223214285714,358.12857142857143,4432.2,533.2223214285714,358.12857142857143,4532.6,533.2223214285714,358.12857142857143,4635.1,533.2223214285714,358.12857142857143,4738.9,533.2223214285714,358.12857142857143,4842.3,533.2223214285714,358.12857142857143,4942.5]","[1400.9,1400.9,1000,0,401,""smooth"",""right"",""right"",""good_move"",4100.2,2698.9,2181.1,1401.3,517.8,""smooth"",""right"",""right"",""good_move"",6578.3,2477.7,2107.7,4100.6,370,""oops"",""up"",""down"",""bad_move"",9133.7,2555,2170,6578.7,385,""oops"",""up"",""left"",""bad_move"",12130.6,2996.7,2595.7,9134.4,401,""oops"",""up"",""left"",""bad_move"",15588.5,3456.4,3063.7,12132.1,392.7,""oops"",""up"",""left"",""bad_move"",21674.7,6085.8,2743.3,18608.9,322.6,""oops"",""right"",""up"",""good_move""]"
"1765","","<div style=""width:500px;"">
  <p>What determined the result of this run?</p>
  </div>","5","html-slider-response","49","548106","0.0-7.0-1.7","248","1","2025-08-11 08:26:23","36c45c0696341be0efffe67d72a12abb","86.180.250.53","Mozilla/5.0 (Windows NT 10.0; Win64; x64) AppleWebKit/537.36 (KHTML, like Gecko) Chrome/138.0.0.0 Safari/537.36 Edg/138.0.0.0","WebKit","Edge","138.0.0.0","Windows","10.0","https://app.prolific.com/","en-US,en;q=0.9,en-GB;q=0.8","676e882e8a97b91ee272efe4","6877649eabb845cf142cd221","6899a92172dc43bed0f8753e","1","676e882e8a97b91ee272efe4","1","2025-08-11T08:35:38.115Z","","","","AttribQ","","","","","","","","","","","50","","","","","","","","","","","","","","","","","","","","","","","","","","",""
"2594","","<div style=""width:500px;"">
  <p>How much control did you have over the ball?</p>
  </div>","2","html-slider-response","50","550702","0.0-7.0-2.7","248","1","2025-08-11 08:26:23","36c45c0696341be0efffe67d72a12abb","86.180.250.53","Mozilla/5.0 (Windows NT 10.0; Win64; x64) AppleWebKit/537.36 (KHTML, like Gecko) Chrome/138.0.0.0 Safari/537.36 Edg/138.0.0.0","WebKit","Edge","138.0.0.0","Windows","10.0","https://app.prolific.com/","en-US,en;q=0.9,en-GB;q=0.8","676e882e8a97b91ee272efe4","6877649eabb845cf142cd221","6899a92172dc43bed0f8753e","1","676e882e8a97b91ee272efe4","1","2025-08-11T08:35:40.711Z","","","","ControlQ","","","","","","","","","","","50","","","","","","","","","","","","","","","","","","","","","","","","","","",""
"2597","","<div style=""width:500px;"">
  <p>How would you describe your current emotional state?</p>
  </div>","92","html-slider-response","51","553301","0.0-7.0-3.7","248","1","2025-08-11 08:26:23","36c45c0696341be0efffe67d72a12abb","86.180.250.53","Mozilla/5.0 (Windows NT 10.0; Win64; x64) AppleWebKit/537.36 (KHTML, like Gecko) Chrome/138.0.0.0 Safari/537.36 Edg/138.0.0.0","WebKit","Edge","138.0.0.0","Windows","10.0","https://app.prolific.com/","en-US,en;q=0.9,en-GB;q=0.8","676e882e8a97b91ee272efe4","6877649eabb845cf142cd221","6899a92172dc43bed0f8753e","1","676e882e8a97b91ee272efe4","1","2025-08-11T08:35:43.310Z","","","","StressQ","","","","","","","","","","","50","","","","","","","","","","","","","","","","","","","","","","","","","","",""
"1871","","<div style=""width:500px;"">
  <p>What best describes how you currently feel?</p>
  </div>","10","html-slider-response","52","555174","0.0-7.0-4.7","248","1","2025-08-11 08:26:23","36c45c0696341be0efffe67d72a12abb","86.180.250.53","Mozilla/5.0 (Windows NT 10.0; Win64; x64) AppleWebKit/537.36 (KHTML, like Gecko) Chrome/138.0.0.0 Safari/537.36 Edg/138.0.0.0","WebKit","Edge","138.0.0.0","Windows","10.0","https://app.prolific.com/","en-US,en;q=0.9,en-GB;q=0.8","676e882e8a97b91ee272efe4","6877649eabb845cf142cd221","6899a92172dc43bed0f8753e","1","676e882e8a97b91ee272efe4","1","2025-08-11T08:35:45.183Z","","","","MotivationQ","","","","","","","","","","","50","","","","","","","","","","","","","","","","","","","","","","","","","","",""
"","","","","ctl-task-cpt","53","592611","0.0-7.0-0.8","248","1","2025-08-11 08:26:23","36c45c0696341be0efffe67d72a12abb","86.180.250.53","Mozilla/5.0 (Windows NT 10.0; Win64; x64) AppleWebKit/537.36 (KHTML, like Gecko) Chrome/138.0.0.0 Safari/537.36 Edg/138.0.0.0","WebKit","Edge","138.0.0.0","Windows","10.0","https://app.prolific.com/","en-US,en;q=0.9,en-GB;q=0.8","676e882e8a97b91ee272efe4","6877649eabb845cf142cd221","6899a92172dc43bed0f8753e","1","676e882e8a97b91ee272efe4","1","2025-08-11T08:36:22.620Z","","","","","","","","","","","","","","","","win-only","3","g1:SW,g2:NE","0.4","9","0","561290.4","5320.5","10322.2","34426.4","1","4","4","6","2","-4","-4","0","4","0","5001.7","3000","-2920","[""up"",""right""]","{""num_key_presses"":7,""num_perfect"":3,""num_errors"":0,""num_randdir"":4,""num_randdir_good_moves"":2,""num_whilered"":0,""num_whileblue"":0,""num_blue"":1,""num_good_moves"":5}","[292.22232142857143,298.12857142857143,0.4,292.22232142857143,298.12857142857143,100.6,292.22232142857143,298.12857142857143,205,292.22232142857143,298.12857142857143,310.9,292.22232142857143,298.12857142857143,415.7,292.22232142857143,298.12857142857143,520.3,291.22232142857143,298.12857142857143,620.7,291.22232142857143,298.12857142857143,725.3,293.22232142857143,298.12857142857143,825.6,293.22232142857143,298.12857142857143,925.8,293.22232142857143,298.12857142857143,1026.3,293.22232142857143,298.12857142857143,1132.1,293.22232142857143,298.12857142857143,1235.1,293.22232142857143,298.12857142857143,1335.8,293.22232142857143,298.12857142857143,1440.4,293.22232142857143,298.12857142857143,1540.4,293.22232142857143,298.12857142857143,1640.4,293.22232142857143,298.12857142857143,1744.9,293.22232142857143,298.12857142857143,1846.3,293.22232142857143,298.12857142857143,1951.6,293.22232142857143,298.12857142857143,2055.5,293.22232142857143,298.12857142857143,2160.6,293.22232142857143,298.12857142857143,2262.6,293.22232142857143,298.12857142857143,2367.4,293.22232142857143,298.12857142857143,2469.8,293.22232142857143,298.12857142857143,2570.6,293.22232142857143,298.12857142857143,2671.3,293.22232142857143,298.12857142857143,2773.4,293.22232142857143,298.12857142857143,2875.3,293.22232142857143,298.12857142857143,2975.6,293.22232142857143,298.12857142857143,3080.8,293.22232142857143,298.12857142857143,3185.7,293.22232142857143,298.12857142857143,3285.7,293.22232142857143,298.12857142857143,3386.7,293.22232142857143,298.12857142857143,3489.7,293.22232142857143,298.12857142857143,3590,293.22232142857143,298.12857142857143,3690.3,293.22232142857143,298.12857142857143,3790.4,293.22232142857143,298.12857142857143,3890.5,293.22232142857143,298.12857142857143,3996.5,293.22232142857143,298.12857142857143,4096.7,293.22232142857143,298.12857142857143,4200.6,293.22232142857143,298.12857142857143,4300.7,293.22232142857143,298.12857142857143,4404.8,293.22232142857143,298.12857142857143,4505.4,293.22232142857143,298.12857142857143,4605.5,293.22232142857143,298.12857142857143,4706.5,293.22232142857143,298.12857142857143,4810.1,293.22232142857143,298.12857142857143,4911.2]","[1500.5,1500.5,1000,0,500.5,""oops"",""up"",""up"",""good_move"",3724.2,2222.7,1813.1,1501.5,409.6,""smooth"",""right"",""right"",""good_move"",9590.9,5866.4,1884.3,7253.8,452.8,""oops"",""right"",""right"",""good_move"",11404.4,1813.1,1392.3,9591.3,420.8,""oops"",""up"",""down"",""bad_move"",15053.3,3648.5,3151.8,11404.8,496.7,""smooth"",""up"",""up"",""good_move"",18340.9,3286.5,2893.3,15054.4,393.2,""smooth"",""up"",""up"",""good_move"",21166.1,2824.9,2511.9,18341.2,313,""oops"",""right"",""left"",""bad_move""]"
"2710","","<div style=""width:500px;"">
  <p>What determined the result of this run?</p>
  </div>","0","html-slider-response","54","595321","0.0-7.0-1.8","248","1","2025-08-11 08:26:23","36c45c0696341be0efffe67d72a12abb","86.180.250.53","Mozilla/5.0 (Windows NT 10.0; Win64; x64) AppleWebKit/537.36 (KHTML, like Gecko) Chrome/138.0.0.0 Safari/537.36 Edg/138.0.0.0","WebKit","Edge","138.0.0.0","Windows","10.0","https://app.prolific.com/","en-US,en;q=0.9,en-GB;q=0.8","676e882e8a97b91ee272efe4","6877649eabb845cf142cd221","6899a92172dc43bed0f8753e","1","676e882e8a97b91ee272efe4","1","2025-08-11T08:36:25.331Z","","","","AttribQ","","","","","","","","","","","50","","","","","","","","","","","","","","","","","","","","","","","","","","",""
"1920","","<div style=""width:500px;"">
  <p>How much control did you have over the ball?</p>
  </div>","0","html-slider-response","55","597243","0.0-7.0-2.8","248","1","2025-08-11 08:26:23","36c45c0696341be0efffe67d72a12abb","86.180.250.53","Mozilla/5.0 (Windows NT 10.0; Win64; x64) AppleWebKit/537.36 (KHTML, like Gecko) Chrome/138.0.0.0 Safari/537.36 Edg/138.0.0.0","WebKit","Edge","138.0.0.0","Windows","10.0","https://app.prolific.com/","en-US,en;q=0.9,en-GB;q=0.8","676e882e8a97b91ee272efe4","6877649eabb845cf142cd221","6899a92172dc43bed0f8753e","1","676e882e8a97b91ee272efe4","1","2025-08-11T08:36:27.252Z","","","","ControlQ","","","","","","","","","","","50","","","","","","","","","","","","","","","","","","","","","","","","","","",""
"2102","","<div style=""width:500px;"">
  <p>How would you describe your current emotional state?</p>
  </div>","97","html-slider-response","56","599346","0.0-7.0-3.8","248","1","2025-08-11 08:26:23","36c45c0696341be0efffe67d72a12abb","86.180.250.53","Mozilla/5.0 (Windows NT 10.0; Win64; x64) AppleWebKit/537.36 (KHTML, like Gecko) Chrome/138.0.0.0 Safari/537.36 Edg/138.0.0.0","WebKit","Edge","138.0.0.0","Windows","10.0","https://app.prolific.com/","en-US,en;q=0.9,en-GB;q=0.8","676e882e8a97b91ee272efe4","6877649eabb845cf142cd221","6899a92172dc43bed0f8753e","1","676e882e8a97b91ee272efe4","1","2025-08-11T08:36:29.355Z","","","","StressQ","","","","","","","","","","","50","","","","","","","","","","","","","","","","","","","","","","","","","","",""
"1659","","<div style=""width:500px;"">
  <p>What best describes how you currently feel?</p>
  </div>","4","html-slider-response","57","601007","0.0-7.0-4.8","248","1","2025-08-11 08:26:23","36c45c0696341be0efffe67d72a12abb","86.180.250.53","Mozilla/5.0 (Windows NT 10.0; Win64; x64) AppleWebKit/537.36 (KHTML, like Gecko) Chrome/138.0.0.0 Safari/537.36 Edg/138.0.0.0","WebKit","Edge","138.0.0.0","Windows","10.0","https://app.prolific.com/","en-US,en;q=0.9,en-GB;q=0.8","676e882e8a97b91ee272efe4","6877649eabb845cf142cd221","6899a92172dc43bed0f8753e","1","676e882e8a97b91ee272efe4","1","2025-08-11T08:36:31.016Z","","","","MotivationQ","","","","","","","","","","","50","","","","","","","","","","","","","","","","","","","","","","","","","","",""
"","","","","ctl-task-cpt","58","659693","0.0-7.0-0.9","248","1","2025-08-11 08:26:23","36c45c0696341be0efffe67d72a12abb","86.180.250.53","Mozilla/5.0 (Windows NT 10.0; Win64; x64) AppleWebKit/537.36 (KHTML, like Gecko) Chrome/138.0.0.0 Safari/537.36 Edg/138.0.0.0","WebKit","Edge","138.0.0.0","Windows","10.0","https://app.prolific.com/","en-US,en;q=0.9,en-GB;q=0.8","676e882e8a97b91ee272efe4","6877649eabb845cf142cd221","6899a92172dc43bed0f8753e","1","676e882e8a97b91ee272efe4","1","2025-08-11T08:37:29.702Z","","","","","","","","","","","","","","","","win-only","2","g1:SE,g2:NW","0.5","10","0","607125.5","653.2","5657.4","55664.1","1","4","8","6","2","-8","-8","0","0","0","5004.2","3000","-2465","[""left"",""up""]","{""num_key_presses"":8,""num_perfect"":4,""num_errors"":0,""num_randdir"":4,""num_randdir_good_moves"":2,""num_whilered"":0,""num_whileblue"":0,""num_blue"":7,""num_good_moves"":6}","[294.22232142857143,300.12857142857143,0.3,294.22232142857143,300.12857142857143,102.6,294.22232142857143,300.12857142857143,204.8,307.22232142857143,306.12857142857143,309.4,478.22232142857143,323.12857142857143,417.8,691.2223214285714,312.12857142857143,520.7,768.2223214285714,301.12857142857143,620.9,768.2223214285714,301.12857142857143,723.7,768.2223214285714,301.12857142857143,829.5,768.2223214285714,301.12857142857143,930,768.2223214285714,301.12857142857143,1031.2,768.2223214285714,301.12857142857143,1133.7,768.2223214285714,301.12857142857143,1234.5,768.2223214285714,301.12857142857143,1336.5,768.2223214285714,301.12857142857143,1438,768.2223214285714,301.12857142857143,1538.4,768.2223214285714,301.12857142857143,1639.3,768.2223214285714,301.12857142857143,1742.8,768.2223214285714,301.12857142857143,1843.1,768.2223214285714,301.12857142857143,1948.2,768.2223214285714,301.12857142857143,2053.6,768.2223214285714,301.12857142857143,2156,768.2223214285714,301.12857142857143,2257.6,768.2223214285714,301.12857142857143,2357.9,768.2223214285714,301.12857142857143,2458.2,768.2223214285714,301.12857142857143,2561.2,768.2223214285714,301.12857142857143,2671.6,768.2223214285714,301.12857142857143,2773.6,768.2223214285714,301.12857142857143,2879.4,768.2223214285714,301.12857142857143,2982.5,768.2223214285714,301.12857142857143,3083.1,768.2223214285714,301.12857142857143,3185.4,768.2223214285714,301.12857142857143,3288.7,768.2223214285714,301.12857142857143,3388.8,768.2223214285714,301.12857142857143,3492.8,768.2223214285714,301.12857142857143,3592.8,768.2223214285714,301.12857142857143,3692.8,768.2223214285714,301.12857142857143,3793.1,768.2223214285714,301.12857142857143,3897.4,768.2223214285714,301.12857142857143,4000.4,768.2223214285714,301.12857142857143,4103.6,768.2223214285714,301.12857142857143,4203.7,768.2223214285714,301.12857142857143,4305.3,768.2223214285714,301.12857142857143,4407.5,768.2223214285714,301.12857142857143,4507.5,768.2223214285714,301.12857142857143,4607.7,768.2223214285714,301.12857142857143,4712.2,768.2223214285714,301.12857142857143,4812.5,768.2223214285714,301.12857142857143,4912.8]","[1436.7,1436.7,1000,0,436.7,""smooth"",""up"",""up"",""good_move"",5050.4,3613.2,3214.8,1437.2,398.4,""oops"",""up"",""left"",""good_move"",7842.8,2791.9,2379.3,5050.9,412.6,""oops"",""up"",""up"",""good_move"",10370.9,2527.7,2115.3,7843.2,412.4,""smooth"",""left"",""left"",""good_move"",16452.5,6081.4,2772.1,13266.3,414.1,""smooth"",""left"",""left"",""good_move"",29958.5,13505.5,2006.9,27513.7,437.9,""oops"",""up"",""right"",""bad_move"",40907.3,10948.2,3266,37253,388.3,""oops"",""up"",""down"",""bad_move"",43786,2878.4,2423.6,40907.6,454.8,""smooth"",""left"",""left"",""good_move""]"
"2238","","<div style=""width:500px;"">
  <p>What determined the result of this run?</p>
  </div>","0","html-slider-response","59","661932","0.0-7.0-1.9","248","1","2025-08-11 08:26:23","36c45c0696341be0efffe67d72a12abb","86.180.250.53","Mozilla/5.0 (Windows NT 10.0; Win64; x64) AppleWebKit/537.36 (KHTML, like Gecko) Chrome/138.0.0.0 Safari/537.36 Edg/138.0.0.0","WebKit","Edge","138.0.0.0","Windows","10.0","https://app.prolific.com/","en-US,en;q=0.9,en-GB;q=0.8","676e882e8a97b91ee272efe4","6877649eabb845cf142cd221","6899a92172dc43bed0f8753e","1","676e882e8a97b91ee272efe4","1","2025-08-11T08:37:31.941Z","","","","AttribQ","","","","","","","","","","","50","","","","","","","","","","","","","","","","","","","","","","","","","","",""
"1982","","<div style=""width:500px;"">
  <p>How much control did you have over the ball?</p>
  </div>","0","html-slider-response","60","663915","0.0-7.0-2.9","248","1","2025-08-11 08:26:23","36c45c0696341be0efffe67d72a12abb","86.180.250.53","Mozilla/5.0 (Windows NT 10.0; Win64; x64) AppleWebKit/537.36 (KHTML, like Gecko) Chrome/138.0.0.0 Safari/537.36 Edg/138.0.0.0","WebKit","Edge","138.0.0.0","Windows","10.0","https://app.prolific.com/","en-US,en;q=0.9,en-GB;q=0.8","676e882e8a97b91ee272efe4","6877649eabb845cf142cd221","6899a92172dc43bed0f8753e","1","676e882e8a97b91ee272efe4","1","2025-08-11T08:37:33.924Z","","","","ControlQ","","","","","","","","","","","50","","","","","","","","","","","","","","","","","","","","","","","","","","",""
"2238","","<div style=""width:500px;"">
  <p>How would you describe your current emotional state?</p>
  </div>","99","html-slider-response","61","666154","0.0-7.0-3.9","248","1","2025-08-11 08:26:23","36c45c0696341be0efffe67d72a12abb","86.180.250.53","Mozilla/5.0 (Windows NT 10.0; Win64; x64) AppleWebKit/537.36 (KHTML, like Gecko) Chrome/138.0.0.0 Safari/537.36 Edg/138.0.0.0","WebKit","Edge","138.0.0.0","Windows","10.0","https://app.prolific.com/","en-US,en;q=0.9,en-GB;q=0.8","676e882e8a97b91ee272efe4","6877649eabb845cf142cd221","6899a92172dc43bed0f8753e","1","676e882e8a97b91ee272efe4","1","2025-08-11T08:37:36.163Z","","","","StressQ","","","","","","","","","","","50","","","","","","","","","","","","","","","","","","","","","","","","","","",""
"1865","","<div style=""width:500px;"">
  <p>What best describes how you currently feel?</p>
  </div>","1","html-slider-response","62","668021","0.0-7.0-4.9","248","1","2025-08-11 08:26:23","36c45c0696341be0efffe67d72a12abb","86.180.250.53","Mozilla/5.0 (Windows NT 10.0; Win64; x64) AppleWebKit/537.36 (KHTML, like Gecko) Chrome/138.0.0.0 Safari/537.36 Edg/138.0.0.0","WebKit","Edge","138.0.0.0","Windows","10.0","https://app.prolific.com/","en-US,en;q=0.9,en-GB;q=0.8","676e882e8a97b91ee272efe4","6877649eabb845cf142cd221","6899a92172dc43bed0f8753e","1","676e882e8a97b91ee272efe4","1","2025-08-11T08:37:38.030Z","","","","MotivationQ","","","","","","","","","","","50","","","","","","","","","","","","","","","","","","","","","","","","","","",""
"","","","","ctl-task-cpt","63","697410","0.0-7.0-0.10","248","1","2025-08-11 08:26:23","36c45c0696341be0efffe67d72a12abb","86.180.250.53","Mozilla/5.0 (Windows NT 10.0; Win64; x64) AppleWebKit/537.36 (KHTML, like Gecko) Chrome/138.0.0.0 Safari/537.36 Edg/138.0.0.0","WebKit","Edge","138.0.0.0","Windows","10.0","https://app.prolific.com/","en-US,en;q=0.9,en-GB;q=0.8","676e882e8a97b91ee272efe4","6877649eabb845cf142cd221","6899a92172dc43bed0f8753e","1","676e882e8a97b91ee272efe4","1","2025-08-11T08:38:07.419Z","","","","","","","","","","","","","","","","win-only","1","g1:NE,g2:SW","0.6","11","0","674137.4","898.5","5902.2","26368.3","1","4","8","6","2","-8","-8","0","0","0","5003.7","3000","-2790","[""down"",""left""]","{""num_key_presses"":5,""num_perfect"":4,""num_errors"":0,""num_randdir"":1,""num_randdir_good_moves"":1,""num_whilered"":0,""num_whileblue"":0,""num_blue"":1,""num_good_moves"":5}","[293.22232142857143,298.12857142857143,0.2,293.22232142857143,298.12857142857143,104.1,292.22232142857143,299.12857142857143,208.8,292.22232142857143,299.12857142857143,312.2,292.22232142857143,299.12857142857143,414.2,292.22232142857143,299.12857142857143,514.9,292.22232142857143,299.12857142857143,622.5,291.22232142857143,301.12857142857143,723.2,290.22232142857143,304.12857142857143,827.1,290.22232142857143,304.12857142857143,927.1,290.22232142857143,304.12857142857143,1029.1,290.22232142857143,304.12857142857143,1129.7,290.22232142857143,304.12857142857143,1232.4,290.22232142857143,304.12857142857143,1332.9,290.22232142857143,305.12857142857143,1438.1,290.22232142857143,305.12857142857143,1538.6,290.22232142857143,305.12857142857143,1643.6,290.22232142857143,305.12857142857143,1746.2,290.22232142857143,305.12857142857143,1846.9,290.22232142857143,305.12857142857143,1948.7,290.22232142857143,305.12857142857143,2054,290.22232142857143,305.12857142857143,2160.5,290.22232142857143,305.12857142857143,2262.8,290.22232142857143,305.12857142857143,2367,290.22232142857143,305.12857142857143,2467,290.22232142857143,305.12857142857143,2567.6,290.22232142857143,305.12857142857143,2671.7,290.22232142857143,305.12857142857143,2773.3,290.22232142857143,305.12857142857143,2874.8,290.22232142857143,305.12857142857143,2977.3,290.22232142857143,305.12857142857143,3077.5,290.22232142857143,305.12857142857143,3178.5,290.22232142857143,305.12857142857143,3281.7,290.22232142857143,305.12857142857143,3382.4,290.22232142857143,305.12857142857143,3483.7,290.22232142857143,305.12857142857143,3587.3,290.22232142857143,305.12857142857143,3696.7,290.22232142857143,305.12857142857143,3797.2,290.22232142857143,305.12857142857143,3902.7,290.22232142857143,305.12857142857143,4003.9,290.22232142857143,305.12857142857143,4110,290.22232142857143,305.12857142857143,4213.5,290.22232142857143,305.12857142857143,4317.2,290.22232142857143,305.12857142857143,4418.4,290.22232142857143,305.12857142857143,4518.6,290.22232142857143,305.12857142857143,4625.9,290.22232142857143,305.12857142857143,4731.8,290.22232142857143,305.12857142857143,4832.2,290.22232142857143,305.12857142857143,4932.3]","[1745.7,1745.8,1000,0,745.8,""oops"",""up"",""down"",""good_move"",8227.4,6481.2,2082.7,5369.2,775.5,""smooth"",""left"",""left"",""good_move"",11524.5,3296.8,2653,8227.7,643.8,""smooth"",""left"",""left"",""good_move"",15098.6,3573.8,3089.2,11524.8,484.6,""smooth"",""down"",""down"",""good_move"",18138.6,3039.6,2676.4,15099,363.2,""smooth"",""down"",""down"",""good_move""]"
"3044","","<div style=""width:500px;"">
  <p>What determined the result of this run?</p>
  </div>","26","html-slider-response","64","700455","0.0-7.0-1.10","248","1","2025-08-11 08:26:23","36c45c0696341be0efffe67d72a12abb","86.180.250.53","Mozilla/5.0 (Windows NT 10.0; Win64; x64) AppleWebKit/537.36 (KHTML, like Gecko) Chrome/138.0.0.0 Safari/537.36 Edg/138.0.0.0","WebKit","Edge","138.0.0.0","Windows","10.0","https://app.prolific.com/","en-US,en;q=0.9,en-GB;q=0.8","676e882e8a97b91ee272efe4","6877649eabb845cf142cd221","6899a92172dc43bed0f8753e","1","676e882e8a97b91ee272efe4","1","2025-08-11T08:38:10.464Z","","","","AttribQ","","","","","","","","","","","50","","","","","","","","","","","","","","","","","","","","","","","","","","",""
"2038","","<div style=""width:500px;"">
  <p>How much control did you have over the ball?</p>
  </div>","61","html-slider-response","65","702495","0.0-7.0-2.10","248","1","2025-08-11 08:26:23","36c45c0696341be0efffe67d72a12abb","86.180.250.53","Mozilla/5.0 (Windows NT 10.0; Win64; x64) AppleWebKit/537.36 (KHTML, like Gecko) Chrome/138.0.0.0 Safari/537.36 Edg/138.0.0.0","WebKit","Edge","138.0.0.0","Windows","10.0","https://app.prolific.com/","en-US,en;q=0.9,en-GB;q=0.8","676e882e8a97b91ee272efe4","6877649eabb845cf142cd221","6899a92172dc43bed0f8753e","1","676e882e8a97b91ee272efe4","1","2025-08-11T08:38:12.504Z","","","","ControlQ","","","","","","","","","","","50","","","","","","","","","","","","","","","","","","","","","","","","","","",""
"2006","","<div style=""width:500px;"">
  <p>How would you describe your current emotional state?</p>
  </div>","71","html-slider-response","66","704503","0.0-7.0-3.10","248","1","2025-08-11 08:26:23","36c45c0696341be0efffe67d72a12abb","86.180.250.53","Mozilla/5.0 (Windows NT 10.0; Win64; x64) AppleWebKit/537.36 (KHTML, like Gecko) Chrome/138.0.0.0 Safari/537.36 Edg/138.0.0.0","WebKit","Edge","138.0.0.0","Windows","10.0","https://app.prolific.com/","en-US,en;q=0.9,en-GB;q=0.8","676e882e8a97b91ee272efe4","6877649eabb845cf142cd221","6899a92172dc43bed0f8753e","1","676e882e8a97b91ee272efe4","1","2025-08-11T08:38:14.512Z","","","","StressQ","","","","","","","","","","","50","","","","","","","","","","","","","","","","","","","","","","","","","","",""
"3675","","<div style=""width:500px;"">
  <p>What best describes how you currently feel?</p>
  </div>","0","html-slider-response","67","708180","0.0-7.0-4.10","248","1","2025-08-11 08:26:23","36c45c0696341be0efffe67d72a12abb","86.180.250.53","Mozilla/5.0 (Windows NT 10.0; Win64; x64) AppleWebKit/537.36 (KHTML, like Gecko) Chrome/138.0.0.0 Safari/537.36 Edg/138.0.0.0","WebKit","Edge","138.0.0.0","Windows","10.0","https://app.prolific.com/","en-US,en;q=0.9,en-GB;q=0.8","676e882e8a97b91ee272efe4","6877649eabb845cf142cd221","6899a92172dc43bed0f8753e","1","676e882e8a97b91ee272efe4","1","2025-08-11T08:38:18.189Z","","","","MotivationQ","","","","","","","","","","","50","","","","","","","","","","","","","","","","","","","","","","","","","","",""
"","","","","ctl-task-cpt","68","738017","0.0-7.0-0.11","248","1","2025-08-11 08:26:23","36c45c0696341be0efffe67d72a12abb","86.180.250.53","Mozilla/5.0 (Windows NT 10.0; Win64; x64) AppleWebKit/537.36 (KHTML, like Gecko) Chrome/138.0.0.0 Safari/537.36 Edg/138.0.0.0","WebKit","Edge","138.0.0.0","Windows","10.0","https://app.prolific.com/","en-US,en;q=0.9,en-GB;q=0.8","676e882e8a97b91ee272efe4","6877649eabb845cf142cd221","6899a92172dc43bed0f8753e","1","676e882e8a97b91ee272efe4","1","2025-08-11T08:38:48.026Z","","","","","","","","","","","","","","","","win-only","0","g1:NW,g2:SE","0.7","12","0","714296.5","831.8","5834.6","26828.4","1","4","4","6","2","4","3","3","0","0.022727272727272728","5002.8","3000","830","[""down"",""right""]","{""num_key_presses"":8,""num_perfect"":5,""num_errors"":1,""num_randdir"":2,""num_randdir_good_moves"":1,""num_whilered"":0,""num_whileblue"":1,""num_blue"":1,""num_good_moves"":7}","[293.22232142857143,288.12857142857143,0.3,293.22232142857143,288.12857142857143,101.4,293.22232142857143,288.12857142857143,204.3,293.22232142857143,288.12857142857143,307.2,293.22232142857143,288.12857142857143,409,293.22232142857143,288.12857142857143,516.1,293.22232142857143,288.12857142857143,616.7,293.22232142857143,288.12857142857143,717.8,293.22232142857143,288.12857142857143,820.3,293.22232142857143,288.12857142857143,924.3,293.22232142857143,288.12857142857143,1026.6,293.22232142857143,288.12857142857143,1131.1,293.22232142857143,288.12857142857143,1237.3,293.22232142857143,288.12857142857143,1339.2,293.22232142857143,288.12857142857143,1439.9,293.22232142857143,288.12857142857143,1540,293.22232142857143,288.12857142857143,1641,293.22232142857143,288.12857142857143,1745.6,293.22232142857143,288.12857142857143,1851.2,293.22232142857143,288.12857142857143,1951.5,293.22232142857143,288.12857142857143,2051.8,293.22232142857143,288.12857142857143,2152,293.22232142857143,288.12857142857143,2253.6,293.22232142857143,288.12857142857143,2354.6,293.22232142857143,288.12857142857143,2460.8,293.22232142857143,288.12857142857143,2566.9,293.22232142857143,288.12857142857143,2667.2,293.22232142857143,288.12857142857143,2768.5,293.22232142857143,288.12857142857143,2871.1,293.22232142857143,288.12857142857143,2973.4,293.22232142857143,288.12857142857143,3075.1,293.22232142857143,288.12857142857143,3175.6,293.22232142857143,288.12857142857143,3275.7,293.22232142857143,288.12857142857143,3376.9,293.22232142857143,288.12857142857143,3482.3,293.22232142857143,288.12857142857143,3585.9,293.22232142857143,288.12857142857143,3689.9,293.22232142857143,288.12857142857143,3794.8,293.22232142857143,288.12857142857143,3901.7,293.22232142857143,288.12857142857143,4004.4,293.22232142857143,288.12857142857143,4104.9,293.22232142857143,288.12857142857143,4208.6,293.22232142857143,288.12857142857143,4308.7,293.22232142857143,288.12857142857143,4408.8,293.22232142857143,288.12857142857143,4511.1,293.22232142857143,288.12857142857143,4616.2,293.22232142857143,288.12857142857143,4716.5,293.22232142857143,288.12857142857143,4817.3,293.22232142857143,288.12857142857143,4918.6]","[1382.8,1382.8,1000,0,382.8,""oops"",""down"",""right"",""good_move"",4223.8,2840.5,2463.6,1383.3,376.9,""smooth"",""down"",""down"",""good_move"",6918.6,2694.4,2343,4224.2,351.4,""oops"",""down"",""left"",""bad_move"",9894,2974.4,2545,6919.7,429.3,""smooth"",""down"",""down"",""good_move"",12255.5,2361.1,1960.3,9894.4,400.8,""smooth"",""right"",""right"",""good_move"",15354.1,3098.1,2794.5,12256,303.6,""smooth"",""right"",""right"",""good_move"",18549.6,3194.9,2930.1,15354.7,264.8,""smooth"",""right"",""right"",""good_move"",20878,2328.3,2063.7,18549.7,264.6,""while_blue"",""down"",""down"",""good_move""]"
"3377","","<div style=""width:500px;"">
  <p>What determined the result of this run?</p>
  </div>","62","html-slider-response","69","741395","0.0-7.0-1.11","248","1","2025-08-11 08:26:23","36c45c0696341be0efffe67d72a12abb","86.180.250.53","Mozilla/5.0 (Windows NT 10.0; Win64; x64) AppleWebKit/537.36 (KHTML, like Gecko) Chrome/138.0.0.0 Safari/537.36 Edg/138.0.0.0","WebKit","Edge","138.0.0.0","Windows","10.0","https://app.prolific.com/","en-US,en;q=0.9,en-GB;q=0.8","676e882e8a97b91ee272efe4","6877649eabb845cf142cd221","6899a92172dc43bed0f8753e","1","676e882e8a97b91ee272efe4","1","2025-08-11T08:38:51.404Z","","","","AttribQ","","","","","","","","","","","50","","","","","","","","","","","","","","","","","","","","","","","","","","",""
"2933","","<div style=""width:500px;"">
  <p>How much control did you have over the ball?</p>
  </div>","67","html-slider-response","70","744329","0.0-7.0-2.11","248","1","2025-08-11 08:26:23","36c45c0696341be0efffe67d72a12abb","86.180.250.53","Mozilla/5.0 (Windows NT 10.0; Win64; x64) AppleWebKit/537.36 (KHTML, like Gecko) Chrome/138.0.0.0 Safari/537.36 Edg/138.0.0.0","WebKit","Edge","138.0.0.0","Windows","10.0","https://app.prolific.com/","en-US,en;q=0.9,en-GB;q=0.8","676e882e8a97b91ee272efe4","6877649eabb845cf142cd221","6899a92172dc43bed0f8753e","1","676e882e8a97b91ee272efe4","1","2025-08-11T08:38:54.338Z","","","","ControlQ","","","","","","","","","","","50","","","","","","","","","","","","","","","","","","","","","","","","","","",""
"3470","","<div style=""width:500px;"">
  <p>How would you describe your current emotional state?</p>
  </div>","77","html-slider-response","71","747801","0.0-7.0-3.11","248","1","2025-08-11 08:26:23","36c45c0696341be0efffe67d72a12abb","86.180.250.53","Mozilla/5.0 (Windows NT 10.0; Win64; x64) AppleWebKit/537.36 (KHTML, like Gecko) Chrome/138.0.0.0 Safari/537.36 Edg/138.0.0.0","WebKit","Edge","138.0.0.0","Windows","10.0","https://app.prolific.com/","en-US,en;q=0.9,en-GB;q=0.8","676e882e8a97b91ee272efe4","6877649eabb845cf142cd221","6899a92172dc43bed0f8753e","1","676e882e8a97b91ee272efe4","1","2025-08-11T08:38:57.810Z","","","","StressQ","","","","","","","","","","","50","","","","","","","","","","","","","","","","","","","","","","","","","","",""
"2179","","<div style=""width:500px;"">
  <p>What best describes how you currently feel?</p>
  </div>","18","html-slider-response","72","749980","0.0-7.0-4.11","248","1","2025-08-11 08:26:23","36c45c0696341be0efffe67d72a12abb","86.180.250.53","Mozilla/5.0 (Windows NT 10.0; Win64; x64) AppleWebKit/537.36 (KHTML, like Gecko) Chrome/138.0.0.0 Safari/537.36 Edg/138.0.0.0","WebKit","Edge","138.0.0.0","Windows","10.0","https://app.prolific.com/","en-US,en;q=0.9,en-GB;q=0.8","676e882e8a97b91ee272efe4","6877649eabb845cf142cd221","6899a92172dc43bed0f8753e","1","676e882e8a97b91ee272efe4","1","2025-08-11T08:38:59.990Z","","","","MotivationQ","","","","","","","","","","","50","","","","","","","","","","","","","","","","","","","","","","","","","","",""
"","","","","ctl-task-cpt","73","774681","0.0-7.0-0.12","248","1","2025-08-11 08:26:23","36c45c0696341be0efffe67d72a12abb","86.180.250.53","Mozilla/5.0 (Windows NT 10.0; Win64; x64) AppleWebKit/537.36 (KHTML, like Gecko) Chrome/138.0.0.0 Safari/537.36 Edg/138.0.0.0","WebKit","Edge","138.0.0.0","Windows","10.0","https://app.prolific.com/","en-US,en;q=0.9,en-GB;q=0.8","676e882e8a97b91ee272efe4","6877649eabb845cf142cd221","6899a92172dc43bed0f8753e","1","676e882e8a97b91ee272efe4","1","2025-08-11T08:39:24.691Z","","","","","","","","","","","","","","","","win-only","3","g1:SW,g2:NE","0.8","13","0","756096.6","1690.6","6692.9","21688.3","1","4","4","6","1","1","1","4","3","0.030303030303030304","5002.3","3000","1500","[""down"",""left""]","{""num_key_presses"":4,""num_perfect"":4,""num_errors"":0,""num_randdir"":0,""num_randdir_good_moves"":0,""num_whilered"":0,""num_whileblue"":0,""num_blue"":1,""num_good_moves"":4}","[294.22232142857143,296.12857142857143,0.5,294.22232142857143,296.12857142857143,100.7,294.22232142857143,296.12857142857143,201.9,322.22232142857143,305.12857142857143,303.3,664.2223214285714,319.12857142857143,414.9,734.2223214285714,310.12857142857143,516.4,734.2223214285714,310.12857142857143,616.5,734.2223214285714,310.12857142857143,717.5,734.2223214285714,310.12857142857143,819.8,734.2223214285714,310.12857142857143,920.8,734.2223214285714,310.12857142857143,1023.5,734.2223214285714,310.12857142857143,1130.8,734.2223214285714,310.12857142857143,1230.8,734.2223214285714,310.12857142857143,1332.4,734.2223214285714,310.12857142857143,1437,734.2223214285714,310.12857142857143,1541.7,734.2223214285714,310.12857142857143,1645.9,734.2223214285714,310.12857142857143,1751.4,734.2223214285714,310.12857142857143,1858.3,734.2223214285714,310.12857142857143,1958.9,734.2223214285714,310.12857142857143,2063.7,734.2223214285714,310.12857142857143,2165.4,734.2223214285714,310.12857142857143,2266.4,734.2223214285714,310.12857142857143,2369.1,734.2223214285714,310.12857142857143,2470.9,734.2223214285714,310.12857142857143,2571.4,734.2223214285714,310.12857142857143,2672.2,734.2223214285714,310.12857142857143,2779,734.2223214285714,310.12857142857143,2879.4,734.2223214285714,310.12857142857143,2984.9,734.2223214285714,310.12857142857143,3086.7,734.2223214285714,310.12857142857143,3187.8,734.2223214285714,310.12857142857143,3288.2,734.2223214285714,310.12857142857143,3396.3,734.2223214285714,310.12857142857143,3498.5,734.2223214285714,310.12857142857143,3601.8,734.2223214285714,310.12857142857143,3703.4,734.2223214285714,310.12857142857143,3808,734.2223214285714,310.12857142857143,3909.9,734.2223214285714,310.12857142857143,4010.7,734.2223214285714,310.12857142857143,4113.7,734.2223214285714,310.12857142857143,4219.4,734.2223214285714,310.12857142857143,4320.9,734.2223214285714,310.12857142857143,4421.2,734.2223214285714,310.12857142857143,4523.2,734.2223214285714,310.12857142857143,4629.6,734.2223214285714,310.12857142857143,4732.7,734.2223214285714,310.12857142857143,4833.2,734.2223214285714,310.12857142857143,4935.3]","[1439.5,1439.6,1000,0,439.6,""smooth"",""down"",""down"",""good_move"",8526.6,7086.5,2578.5,5468.6,479.5,""smooth"",""left"",""left"",""good_move"",11988.1,3461.2,2901.1,8526.9,560.1,""smooth"",""left"",""left"",""good_move"",14868.5,2880.1,2508.6,11988.4,371.5,""smooth"",""down"",""down"",""good_move""]"
"2493","","<div style=""width:500px;"">
  <p>What determined the result of this run?</p>
  </div>","82","html-slider-response","74","777176","0.0-7.0-1.12","248","1","2025-08-11 08:26:23","36c45c0696341be0efffe67d72a12abb","86.180.250.53","Mozilla/5.0 (Windows NT 10.0; Win64; x64) AppleWebKit/537.36 (KHTML, like Gecko) Chrome/138.0.0.0 Safari/537.36 Edg/138.0.0.0","WebKit","Edge","138.0.0.0","Windows","10.0","https://app.prolific.com/","en-US,en;q=0.9,en-GB;q=0.8","676e882e8a97b91ee272efe4","6877649eabb845cf142cd221","6899a92172dc43bed0f8753e","1","676e882e8a97b91ee272efe4","1","2025-08-11T08:39:27.185Z","","","","AttribQ","","","","","","","","","","","50","","","","","","","","","","","","","","","","","","","","","","","","","","",""
"2299","","<div style=""width:500px;"">
  <p>How much control did you have over the ball?</p>
  </div>","73","html-slider-response","75","779476","0.0-7.0-2.12","248","1","2025-08-11 08:26:23","36c45c0696341be0efffe67d72a12abb","86.180.250.53","Mozilla/5.0 (Windows NT 10.0; Win64; x64) AppleWebKit/537.36 (KHTML, like Gecko) Chrome/138.0.0.0 Safari/537.36 Edg/138.0.0.0","WebKit","Edge","138.0.0.0","Windows","10.0","https://app.prolific.com/","en-US,en;q=0.9,en-GB;q=0.8","676e882e8a97b91ee272efe4","6877649eabb845cf142cd221","6899a92172dc43bed0f8753e","1","676e882e8a97b91ee272efe4","1","2025-08-11T08:39:29.485Z","","","","ControlQ","","","","","","","","","","","50","","","","","","","","","","","","","","","","","","","","","","","","","","",""
"2090","","<div style=""width:500px;"">
  <p>How would you describe your current emotional state?</p>
  </div>","57","html-slider-response","76","781568","0.0-7.0-3.12","248","1","2025-08-11 08:26:23","36c45c0696341be0efffe67d72a12abb","86.180.250.53","Mozilla/5.0 (Windows NT 10.0; Win64; x64) AppleWebKit/537.36 (KHTML, like Gecko) Chrome/138.0.0.0 Safari/537.36 Edg/138.0.0.0","WebKit","Edge","138.0.0.0","Windows","10.0","https://app.prolific.com/","en-US,en;q=0.9,en-GB;q=0.8","676e882e8a97b91ee272efe4","6877649eabb845cf142cd221","6899a92172dc43bed0f8753e","1","676e882e8a97b91ee272efe4","1","2025-08-11T08:39:31.577Z","","","","StressQ","","","","","","","","","","","50","","","","","","","","","","","","","","","","","","","","","","","","","","",""
"2084","","<div style=""width:500px;"">
  <p>What best describes how you currently feel?</p>
  </div>","25","html-slider-response","77","783654","0.0-7.0-4.12","248","1","2025-08-11 08:26:23","36c45c0696341be0efffe67d72a12abb","86.180.250.53","Mozilla/5.0 (Windows NT 10.0; Win64; x64) AppleWebKit/537.36 (KHTML, like Gecko) Chrome/138.0.0.0 Safari/537.36 Edg/138.0.0.0","WebKit","Edge","138.0.0.0","Windows","10.0","https://app.prolific.com/","en-US,en;q=0.9,en-GB;q=0.8","676e882e8a97b91ee272efe4","6877649eabb845cf142cd221","6899a92172dc43bed0f8753e","1","676e882e8a97b91ee272efe4","1","2025-08-11T08:39:33.663Z","","","","MotivationQ","","","","","","","","","","","50","","","","","","","","","","","","","","","","","","","","","","","","","","",""
