"rt","response_timestamp","stimulus","response","trial_type","trial_index","time_elapsed","internal_node_id","run_id","condition","recorded_at","source_code_version","ip","user_agent","device","browser","browser_version","platform","platform_version","referer","accept_language","PROLIFIC_PID","STUDY_ID","SESSION_ID","BATCH","prolific_id","batch","realtime","success","question_order","question_id","eventType","responses","item_order","radio_event_ids","radio_event_times","key_event_times","mouse_event_times","straightlining","zigzagging","honeypot","view_history","slider_start","which_type","canvas_config","goals_layout","control_level","trial_number","tutorial_trial_number","trial_start_time","phase1_start_time","phase2_start_time","phase3_start_time","goal_1_value","goal_1_distance","goal_2_value","goal_2_distance","goal_selected","outcome","outcome_total","participant_final_score","participant_initial_score","participant_final_score_prop","goal_choice_rt","allocated_time","allocated_time_remaining","goal_direction","counts","mouse_movements","key_presses"
"2677","1753865402441","<p style='font-size:40px;line-height:1.25'><strong>Welcome to the experiment!</strong></p><p style='font-size:1.1em;line-height:1.25'>Thank you for participanting in our experiment again! You will be asked to play the Dysfunctional Ball Game again. We will briefly recap the rules before we start.</p><p style='font-size:1.1em;line-height:1.25'>Press <strong>Next</strong> to continue.</p>","0","custom-html-button-response","0","2686","0.0-0.0","61","1","2025-07-30 08:49:58","36c45c0696341be0efffe67d72a12abb","196.21.80.2","Mozilla/5.0 (X11; Linux x86_64) AppleWebKit/537.36 (KHTML, like Gecko) Chrome/138.0.0.0 Safari/537.36 Edg/138.0.3351.98","WebKit","Edge","138.0.3351.98","Linux","","https://app.prolific.com/","en-ZA,en-GB;q=0.9,en-US;q=0.8,en;q=0.7","6771ad00548b3a182d5f80e0","687a19d2168e237449fb8af4","6889db7ecd56dab0ad496c01","0","6771ad00548b3a182d5f80e0","0","2025-07-30T08:50:02.450Z","","","","","","","","","","","","","","","","","","","","","","","","","","","","","","","","","","","","","","","","","",""
"9814","","","","fullscreen","1","13538","0.0-1.0","61","1","2025-07-30 08:49:58","36c45c0696341be0efffe67d72a12abb","196.21.80.2","Mozilla/5.0 (X11; Linux x86_64) AppleWebKit/537.36 (KHTML, like Gecko) Chrome/138.0.0.0 Safari/537.36 Edg/138.0.3351.98","WebKit","Edge","138.0.3351.98","Linux","","https://app.prolific.com/","en-ZA,en-GB;q=0.9,en-US;q=0.8,en;q=0.7","6771ad00548b3a182d5f80e0","687a19d2168e237449fb8af4","6889db7ecd56dab0ad496c01","0","6771ad00548b3a182d5f80e0","0","","true","","","","","","","","","","","","","","","","","","","","","","","","","","","","","","","","","","","","","","","","",""
"126290","1753865539613"," <p style='font-size:1.1em;line-height:1.25'>Thank you for closing all other tabs.</p><p style='font-size:1.1em;line-height:1.25'>We will now invite you to fill in some questionnaires, before starting the game.<br>This will take about 5 minutes.<br></p><p style='font-size:1.1em;line-height:1.25'>Press the <strong>Next</strong> button to continue.</p>","0","custom-html-button-response","2","139852","0.0-2.0","61","1","2025-07-30 08:49:58","36c45c0696341be0efffe67d72a12abb","196.21.80.2","Mozilla/5.0 (X11; Linux x86_64) AppleWebKit/537.36 (KHTML, like Gecko) Chrome/138.0.0.0 Safari/537.36 Edg/138.0.3351.98","WebKit","Edge","138.0.3351.98","Linux","","https://app.prolific.com/","en-ZA,en-GB;q=0.9,en-US;q=0.8,en;q=0.7","6771ad00548b3a182d5f80e0","687a19d2168e237449fb8af4","6889db7ecd56dab0ad496c01","0","6771ad00548b3a182d5f80e0","0","2025-07-30T08:52:19.615Z","","","","","","","","","","","","","","","","","","","","","","","","","","","","","","","","","","","","","","","","","",""
"3881","","","{""assigned_sex"":""male""}","survey-multi-choice","3","143742","0.0-3.0-0.0","61","1","2025-07-30 08:49:58","36c45c0696341be0efffe67d72a12abb","196.21.80.2","Mozilla/5.0 (X11; Linux x86_64) AppleWebKit/537.36 (KHTML, like Gecko) Chrome/138.0.0.0 Safari/537.36 Edg/138.0.3351.98","WebKit","Edge","138.0.3351.98","Linux","","https://app.prolific.com/","en-ZA,en-GB;q=0.9,en-US;q=0.8,en;q=0.7","6771ad00548b3a182d5f80e0","687a19d2168e237449fb8af4","6889db7ecd56dab0ad496c01","0","6771ad00548b3a182d5f80e0","0","","","[0]","0","demographics","","","","","","","","","","","","","","","","","","","","","","","","","","","","","","","","","","","","","",""
"4348","1753865547856","<p style='font-size:1.1em;line-height:1.25'>In the following, we will perform a baseline assessment. This means that we will ask you a few questions relating to your experiences over the past month.<br></p><p style='font-size:1.1em;line-height:1.25'>Press the <strong>Next</strong> button to continue.</p>","0","custom-html-button-response","4","148095","0.0-4.0-0.0","61","1","2025-07-30 08:49:58","36c45c0696341be0efffe67d72a12abb","196.21.80.2","Mozilla/5.0 (X11; Linux x86_64) AppleWebKit/537.36 (KHTML, like Gecko) Chrome/138.0.0.0 Safari/537.36 Edg/138.0.3351.98","WebKit","Edge","138.0.3351.98","Linux","","https://app.prolific.com/","en-ZA,en-GB;q=0.9,en-US;q=0.8,en;q=0.7","6771ad00548b3a182d5f80e0","687a19d2168e237449fb8af4","6889db7ecd56dab0ad496c01","0","6771ad00548b3a182d5f80e0","0","2025-07-30T08:52:27.858Z","","","","","","","","","","","","","","","","","","","","","","","","","","","","","","","","","","","","","","","","","",""
"64806.60000000894","","","","survey-template","5","212917","0.0-4.0-1.0","61","1","2025-07-30 08:49:58","36c45c0696341be0efffe67d72a12abb","196.21.80.2","Mozilla/5.0 (X11; Linux x86_64) AppleWebKit/537.36 (KHTML, like Gecko) Chrome/138.0.0.0 Safari/537.36 Edg/138.0.3351.98","WebKit","Edge","138.0.3351.98","Linux","","https://app.prolific.com/","en-ZA,en-GB;q=0.9,en-US;q=0.8,en;q=0.7","6771ad00548b3a182d5f80e0","687a19d2168e237449fb8af4","6889db7ecd56dab0ad496c01","0","6771ad00548b3a182d5f80e0","0","2025-07-30T08:53:32.679Z","","","","pss","{""Q01"":""2"",""Q02"":""3"",""Q03"":""2"",""Q04"":""1"",""Q05"":""1"",""Q06"":""2"",""Q07"":""2"",""Q08"":""1"",""Q09"":""2"",""Q10"":""3""}","[0,1,2,3,4,5,6,7,8,9]","[""Q01"",""Q02"",""Q03"",""Q04"",""Q05"",""Q07"",""Q06"",""Q08"",""Q09"",""Q10""]","[16483.20000000298,18822.40000000596,21508,27689.90000000596,33832.40000000596,39491.90000000596,40074.10000000894,48641.5,53655.5,60138]","[]","[0.4000000059604645,16483.20000000298,18822.40000000596,21508,27689.90000000596,33832.40000000596,39153.70000000298,39491.90000000596,40074.10000000894,48641.5,53655.5,60138,64800.79999999702]","0.5","0.7777777777777778","0","","","","","","","","","","","","","","","","","","","","","","","","","","","","",""
"3422","1753865616104","<p style='font-size:1.1em;line-height:1.25'>Thank you for your answers! Now we will ask you a few more questions relating to your feelings in the last 24 hours.<br></p><p style='font-size:1.1em;line-height:1.25'>Press the <strong>Next</strong> button to continue.</p>","0","custom-html-button-response","6","216344","0.0-4.0-2.0","61","1","2025-07-30 08:49:58","36c45c0696341be0efffe67d72a12abb","196.21.80.2","Mozilla/5.0 (X11; Linux x86_64) AppleWebKit/537.36 (KHTML, like Gecko) Chrome/138.0.0.0 Safari/537.36 Edg/138.0.3351.98","WebKit","Edge","138.0.3351.98","Linux","","https://app.prolific.com/","en-ZA,en-GB;q=0.9,en-US;q=0.8,en;q=0.7","6771ad00548b3a182d5f80e0","687a19d2168e237449fb8af4","6889db7ecd56dab0ad496c01","0","6771ad00548b3a182d5f80e0","0","2025-07-30T08:53:36.106Z","","","","","","","","","","","","","","","","","","","","","","","","","","","","","","","","","","","","","","","","","",""
"125248.09999999404","","","","survey-template","7","341617","0.0-4.0-3.0","61","1","2025-07-30 08:49:58","36c45c0696341be0efffe67d72a12abb","196.21.80.2","Mozilla/5.0 (X11; Linux x86_64) AppleWebKit/537.36 (KHTML, like Gecko) Chrome/138.0.0.0 Safari/537.36 Edg/138.0.3351.98","WebKit","Edge","138.0.3351.98","Linux","","https://app.prolific.com/","en-ZA,en-GB;q=0.9,en-US;q=0.8,en;q=0.7","6771ad00548b3a182d5f80e0","687a19d2168e237449fb8af4","6889db7ecd56dab0ad496c01","0","6771ad00548b3a182d5f80e0","0","2025-07-30T08:55:41.380Z","","","","drsp","{""Q01"":""2"",""Q02"":""3"",""Q03"":""1"",""Q04"":""3"",""Q05"":""2"",""Q06"":""3"",""Q07"":""1"",""Q08"":""1"",""Q09"":""2"",""Q10"":""3"",""Q11"":""4"",""Q12"":""2"",""Q13"":""5"",""Q14"":""3"",""Q15"":""2"",""Q16"":""2"",""Q17"":""3"",""Q18"":""2"",""Q19"":""3"",""Q20"":""4"",""Q21"":""4"",""Q22"":""3""}","[0,1,2,3,4,5,6,7,8,9,10,11,12,13,14,15,16,17,18,19,20,21]","[""Q01"",""Q02"",""Q03"",""Q04"",""Q05"",""Q06"",""Q07"",""Q08"",""Q09"",""Q10"",""Q11"",""Q12"",""Q13"",""Q14"",""Q15"",""Q16"",""Q17"",""Q18"",""Q19"",""Q20"",""Q21"",""Q22""]","[3524.699999988079,11320.699999988079,15502.699999988079,19391.29999999702,24477.39999999106,30003.19999998808,33631.59999999404,38269,42178.29999999702,45065.19999998808,48641.19999998808,53070.5,56362.5,59800,64915.79999999702,78568.39999999106,85131.69999998808,91282.89999999106,98251.09999999404,107554.5,116105.89999999106,120816.29999999702]","[]","[0.19999998807907104,3524.699999988079,11320.699999988079,15502.699999988079,19391.29999999702,24477.39999999106,30003.19999998808,33631.59999999404,38269,42178.29999999702,45065.19999998808,48641.19999998808,53070.5,56362.5,59800,64915.79999999702,78568.39999999106,85131.69999998808,91282.89999999106,98251.09999999404,107554.5,116105.89999999106,120816.29999999702,125234.19999998808]","0.36363636363636365","0.5714285714285714","0","","","","","","","","","","","","","","","","","","","","","","","","","","","","",""
"225237.79999999702","","","","survey-template","8","566867","0.0-4.0-4.0","61","1","2025-07-30 08:49:58","36c45c0696341be0efffe67d72a12abb","196.21.80.2","Mozilla/5.0 (X11; Linux x86_64) AppleWebKit/537.36 (KHTML, like Gecko) Chrome/138.0.0.0 Safari/537.36 Edg/138.0.3351.98","WebKit","Edge","138.0.3351.98","Linux","","https://app.prolific.com/","en-ZA,en-GB;q=0.9,en-US;q=0.8,en;q=0.7","6771ad00548b3a182d5f80e0","687a19d2168e237449fb8af4","6889db7ecd56dab0ad496c01","0","6771ad00548b3a182d5f80e0","0","2025-07-30T08:59:26.631Z","","","","stress","{""Q01"":""5"",""Q02"":""2"",""Q03"":""2""}","[0,1,2]","[""Q02"",""Q03"",""Q02"",""Q02"",""Q02"",""Q02"",""Q02"",""Q02"",""Q02"",""Q02"",""Q02"",""Q02"",""Q02"",""Q02"",""Q02"",""Q01""]","[140725.29999999702,145902.90000000596,146561.09999999404,147625.79999999702,148185.5,148692.40000000596,150286.40000000596,152123.29999999702,152573.59999999404,153600.70000000298,155294.29999999702,156037.20000000298,156523.5,157324.5,157920.70000000298,221774]","[]","[94008.79999999702,140725.29999999702,145902.90000000596,146561.09999999404,147625.79999999702,148185.5,148692.40000000596,150286.40000000596,152123.29999999702,152573.59999999404,153600.70000000298,155294.29999999702,156037.20000000298,156523.5,157324.5,157920.70000000298,221774,225233.59999999404]","0.3333333333333333","0.5","0","","","","","","","","","","","","","","","","","","","","","","","","","","","","",""
"432332","","","","instructions","9","999207","0.0-5.0-0.0","61","1","2025-07-30 08:49:58","36c45c0696341be0efffe67d72a12abb","196.21.80.2","Mozilla/5.0 (X11; Linux x86_64) AppleWebKit/537.36 (KHTML, like Gecko) Chrome/138.0.0.0 Safari/537.36 Edg/138.0.3351.98","WebKit","Edge","138.0.3351.98","Linux","","https://app.prolific.com/","en-ZA,en-GB;q=0.9,en-US;q=0.8,en;q=0.7","6771ad00548b3a182d5f80e0","687a19d2168e237449fb8af4","6889db7ecd56dab0ad496c01","0","6771ad00548b3a182d5f80e0","0","","","","","","","","","","","","","","","[{""page_index"":0,""viewing_time"":432325}]","","","","","","","","","","","","","","","","","","","","","","","","","","","",""
"85085","","<p>Before you start with this game please answer the following three questions yourself. </p>
  <p>Through this game, we measure several aspects of your cognitive performance, such as reaction times, multi-tasking capabilities </p>
  <p>and the ability to assess the situation you are in.</p>
  <p></p>
  <p><b>How good do you usually are in such tasks?</b></p>","80","html-slider-response","10","1084326","0.0-6.0-0.0","61","1","2025-07-30 08:49:58","36c45c0696341be0efffe67d72a12abb","196.21.80.2","Mozilla/5.0 (X11; Linux x86_64) AppleWebKit/537.36 (KHTML, like Gecko) Chrome/138.0.0.0 Safari/537.36 Edg/138.0.3351.98","WebKit","Edge","138.0.3351.98","Linux","","https://app.prolific.com/","en-ZA,en-GB;q=0.9,en-US;q=0.8,en;q=0.7","6771ad00548b3a182d5f80e0","687a19d2168e237449fb8af4","6889db7ecd56dab0ad496c01","0","6771ad00548b3a182d5f80e0","0","2025-07-30T09:08:04.089Z","","","","PreSkillQ","","","","","","","","","","","50","","","","","","","","","","","","","","","","","","","","","","","","","","",""
"5193","","<div style=""width:500px;"">
  <p>How well do you think you will perform in this task compared to other participants?</p>
  </div>","80","html-slider-response","11","1089550","0.0-6.0-1.0","61","1","2025-07-30 08:49:58","36c45c0696341be0efffe67d72a12abb","196.21.80.2","Mozilla/5.0 (X11; Linux x86_64) AppleWebKit/537.36 (KHTML, like Gecko) Chrome/138.0.0.0 Safari/537.36 Edg/138.0.3351.98","WebKit","Edge","138.0.3351.98","Linux","","https://app.prolific.com/","en-ZA,en-GB;q=0.9,en-US;q=0.8,en;q=0.7","6771ad00548b3a182d5f80e0","687a19d2168e237449fb8af4","6889db7ecd56dab0ad496c01","0","6771ad00548b3a182d5f80e0","0","2025-07-30T09:08:09.313Z","","","","PrePerfQ","","","","","","","","","","","50","","","","","","","","","","","","","","","","","","","","","","","","","","",""
"4612","","<div style=""width:500px;"">
  <p>What best describes how you currently feel?</p>
  </div>","100","html-slider-response","12","1094174","0.0-6.0-2.0","61","1","2025-07-30 08:49:58","36c45c0696341be0efffe67d72a12abb","196.21.80.2","Mozilla/5.0 (X11; Linux x86_64) AppleWebKit/537.36 (KHTML, like Gecko) Chrome/138.0.0.0 Safari/537.36 Edg/138.0.3351.98","WebKit","Edge","138.0.3351.98","Linux","","https://app.prolific.com/","en-ZA,en-GB;q=0.9,en-US;q=0.8,en;q=0.7","6771ad00548b3a182d5f80e0","687a19d2168e237449fb8af4","6889db7ecd56dab0ad496c01","0","6771ad00548b3a182d5f80e0","0","2025-07-30T09:08:13.936Z","","","","PreMotivationQ","","","","","","","","","","","50","","","","","","","","","","","","","","","","","","","","","","","","","","",""
"","","","","ctl-task-cpt","13","1344579","0.0-7.0-0.0","61","1","2025-07-30 08:49:58","36c45c0696341be0efffe67d72a12abb","196.21.80.2","Mozilla/5.0 (X11; Linux x86_64) AppleWebKit/537.36 (KHTML, like Gecko) Chrome/138.0.0.0 Safari/537.36 Edg/138.0.3351.98","WebKit","Edge","138.0.3351.98","Linux","","https://app.prolific.com/","en-ZA,en-GB;q=0.9,en-US;q=0.8,en;q=0.7","6771ad00548b3a182d5f80e0","687a19d2168e237449fb8af4","6889db7ecd56dab0ad496c01","0","6771ad00548b3a182d5f80e0","0","2025-07-30T09:12:24.343Z","","","","","","","","","","","","","","","","win-only","1","g1:NE,g2:SW","1","1","0","1095664.9","3124.6","8299.3","247012.2","1","4","4","6","2","-4","-4","0","0","0","5174.6","3000","-70","[""down"",""left""]","{""num_key_presses"":0,""num_perfect"":0,""num_errors"":0,""num_randdir"":0,""num_randdir_good_moves"":0,""num_whilered"":0,""num_whileblue"":0,""num_blue"":0,""num_good_moves"":0}","[2031.4384969068624,2036.9539191196754,0.9,2031.4384969068624,2036.9539191196754,180.2,2031.4384969068624,2036.9539191196754,310.4,2031.4384969068624,2036.9539191196754,463.1,2031.4384969068624,2036.9539191196754,695.6,2031.4384969068624,2036.9539191196754,936.9,2031.4384969068624,2036.9539191196754,1296.2,2031.4384969068624,2036.9539191196754,1583.2,2031.4384969068624,2036.9539191196754,1840.8,2031.4384969068624,2036.9539191196754,2086.8,2338.7748699976064,1751.7136251400307,2642.1,2338.7748699976064,1751.7136251400307,2770.9,2338.7748699976064,1751.7136251400307,2929.4,2338.7748699976064,1751.7136251400307,3201.3,2338.7748699976064,1751.7136251400307,3484.5,2338.7748699976064,1751.7136251400307,3786.4,2338.7748699976064,1751.7136251400307,4256.5,2338.7748699976064,1751.7136251400307,4402.5,2338.7748699976064,1751.7136251400307,4537,2338.7748699976064,1751.7136251400307,4712.8,2338.7748699976064,1751.7136251400307,4826.6]","[]"
"12442","","<div style=""width:500px;"">
  <p>What determined the result of this run?</p>
  </div>","4","html-slider-response","14","1357172","0.0-7.0-1.0","61","1","2025-07-30 08:49:58","36c45c0696341be0efffe67d72a12abb","196.21.80.2","Mozilla/5.0 (X11; Linux x86_64) AppleWebKit/537.36 (KHTML, like Gecko) Chrome/138.0.0.0 Safari/537.36 Edg/138.0.3351.98","WebKit","Edge","138.0.3351.98","Linux","","https://app.prolific.com/","en-ZA,en-GB;q=0.9,en-US;q=0.8,en;q=0.7","6771ad00548b3a182d5f80e0","687a19d2168e237449fb8af4","6889db7ecd56dab0ad496c01","0","6771ad00548b3a182d5f80e0","0","2025-07-30T09:12:36.934Z","","","","AttribQ","","","","","","","","","","","50","","","","","","","","","","","","","","","","","","","","","","","","","","",""
"2963","","<div style=""width:500px;"">
  <p>How much control did you have over the ball?</p>
  </div>","2","html-slider-response","15","1360138","0.0-7.0-2.0","61","1","2025-07-30 08:49:58","36c45c0696341be0efffe67d72a12abb","196.21.80.2","Mozilla/5.0 (X11; Linux x86_64) AppleWebKit/537.36 (KHTML, like Gecko) Chrome/138.0.0.0 Safari/537.36 Edg/138.0.3351.98","WebKit","Edge","138.0.3351.98","Linux","","https://app.prolific.com/","en-ZA,en-GB;q=0.9,en-US;q=0.8,en;q=0.7","6771ad00548b3a182d5f80e0","687a19d2168e237449fb8af4","6889db7ecd56dab0ad496c01","0","6771ad00548b3a182d5f80e0","0","2025-07-30T09:12:39.900Z","","","","ControlQ","","","","","","","","","","","50","","","","","","","","","","","","","","","","","","","","","","","","","","",""
"4095","","<div style=""width:500px;"">
  <p>How would you describe your current emotional state?</p>
  </div>","92","html-slider-response","16","1364235","0.0-7.0-3.0","61","1","2025-07-30 08:49:58","36c45c0696341be0efffe67d72a12abb","196.21.80.2","Mozilla/5.0 (X11; Linux x86_64) AppleWebKit/537.36 (KHTML, like Gecko) Chrome/138.0.0.0 Safari/537.36 Edg/138.0.3351.98","WebKit","Edge","138.0.3351.98","Linux","","https://app.prolific.com/","en-ZA,en-GB;q=0.9,en-US;q=0.8,en;q=0.7","6771ad00548b3a182d5f80e0","687a19d2168e237449fb8af4","6889db7ecd56dab0ad496c01","0","6771ad00548b3a182d5f80e0","0","2025-07-30T09:12:43.998Z","","","","StressQ","","","","","","","","","","","50","","","","","","","","","","","","","","","","","","","","","","","","","","",""
"10152","","<div style=""width:500px;"">
  <p>What best describes how you currently feel?</p>
  </div>","21","html-slider-response","17","1374391","0.0-7.0-4.0","61","1","2025-07-30 08:49:58","36c45c0696341be0efffe67d72a12abb","196.21.80.2","Mozilla/5.0 (X11; Linux x86_64) AppleWebKit/537.36 (KHTML, like Gecko) Chrome/138.0.0.0 Safari/537.36 Edg/138.0.3351.98","WebKit","Edge","138.0.3351.98","Linux","","https://app.prolific.com/","en-ZA,en-GB;q=0.9,en-US;q=0.8,en;q=0.7","6771ad00548b3a182d5f80e0","687a19d2168e237449fb8af4","6889db7ecd56dab0ad496c01","0","6771ad00548b3a182d5f80e0","0","2025-07-30T09:12:54.153Z","","","","MotivationQ","","","","","","","","","","","50","","","","","","","","","","","","","","","","","","","","","","","","","","",""
"","","","","ctl-task-cpt","18","1546467","0.0-7.0-0.1","61","1","2025-07-30 08:49:58","36c45c0696341be0efffe67d72a12abb","196.21.80.2","Mozilla/5.0 (X11; Linux x86_64) AppleWebKit/537.36 (KHTML, like Gecko) Chrome/138.0.0.0 Safari/537.36 Edg/138.0.3351.98","WebKit","Edge","138.0.3351.98","Linux","","https://app.prolific.com/","en-ZA,en-GB;q=0.9,en-US;q=0.8,en;q=0.7","6771ad00548b3a182d5f80e0","687a19d2168e237449fb8af4","6889db7ecd56dab0ad496c01","0","6771ad00548b3a182d5f80e0","0","2025-07-30T09:15:46.229Z","","","","","","","","","","","","","","","","win-only","1","g1:NE,g2:SW","0.9","2","0","1375837.4","1885.2","6914.9","168707","1","4","8","6","2","-8","-8","0","0","0","4184","3000","-90","[""down"",""left""]","{""num_key_presses"":0,""num_perfect"":0,""num_errors"":0,""num_randdir"":0,""num_randdir_good_moves"":0,""num_whilered"":0,""num_whileblue"":0,""num_blue"":0,""num_good_moves"":0}","[2019.38609011899,2034.94518465503,3.1,2019.38609011899,2034.94518465503,181.4,2019.38609011899,2034.94518465503,298.4,2019.38609011899,2034.94518465503,416.3,2019.38609011899,2034.94518465503,570.2,2019.38609011899,2034.94518465503,827.6,2059.560779411898,2075.119873947938,1031.2,2059.560779411898,2075.119873947938,1213.4,2059.560779411898,2075.119873947938,1392.7,2059.560779411898,2075.119873947938,1580.5,2527.5959096742727,1667.3467776249245,1824.1,2527.5959096742727,1667.3467776249245,1974.1,2527.5959096742727,1667.3467776249245,2155,2527.5959096742727,1667.3467776249245,2412.1,2328.7311976743795,1797.9145178268745,2607.8,2328.7311976743795,1797.9145178268745,2757.1,2328.7311976743795,1797.9145178268745,3032,2427.1591864420034,1717.5651392410591,3275.4,2427.1591864420034,1717.5651392410591,3435.3,2471.351344664202,1639.224495119889,3613,2471.351344664202,1639.224495119889,3747.7,2471.351344664202,1639.224495119889,3988.8,307.94432624112153,3678.0899767349556,4191.6,307.94432624112153,3678.0899767349556,4343.1,307.94432624112153,3678.0899767349556,4560.8,307.94432624112153,3678.0899767349556,4823.7]","[]"
"5252","","<div style=""width:500px;"">
  <p>What determined the result of this run?</p>
  </div>","0","html-slider-response","19","1551894","0.0-7.0-1.1","61","1","2025-07-30 08:49:58","36c45c0696341be0efffe67d72a12abb","196.21.80.2","Mozilla/5.0 (X11; Linux x86_64) AppleWebKit/537.36 (KHTML, like Gecko) Chrome/138.0.0.0 Safari/537.36 Edg/138.0.3351.98","WebKit","Edge","138.0.3351.98","Linux","","https://app.prolific.com/","en-ZA,en-GB;q=0.9,en-US;q=0.8,en;q=0.7","6771ad00548b3a182d5f80e0","687a19d2168e237449fb8af4","6889db7ecd56dab0ad496c01","0","6771ad00548b3a182d5f80e0","0","2025-07-30T09:15:51.656Z","","","","AttribQ","","","","","","","","","","","50","","","","","","","","","","","","","","","","","","","","","","","","","","",""
"3806","","<div style=""width:500px;"">
  <p>How much control did you have over the ball?</p>
  </div>","0","html-slider-response","20","1555704","0.0-7.0-2.1","61","1","2025-07-30 08:49:58","36c45c0696341be0efffe67d72a12abb","196.21.80.2","Mozilla/5.0 (X11; Linux x86_64) AppleWebKit/537.36 (KHTML, like Gecko) Chrome/138.0.0.0 Safari/537.36 Edg/138.0.3351.98","WebKit","Edge","138.0.3351.98","Linux","","https://app.prolific.com/","en-ZA,en-GB;q=0.9,en-US;q=0.8,en;q=0.7","6771ad00548b3a182d5f80e0","687a19d2168e237449fb8af4","6889db7ecd56dab0ad496c01","0","6771ad00548b3a182d5f80e0","0","2025-07-30T09:15:55.466Z","","","","ControlQ","","","","","","","","","","","50","","","","","","","","","","","","","","","","","","","","","","","","","","",""
"3899","","<div style=""width:500px;"">
  <p>How would you describe your current emotional state?</p>
  </div>","100","html-slider-response","21","1559607","0.0-7.0-3.1","61","1","2025-07-30 08:49:58","36c45c0696341be0efffe67d72a12abb","196.21.80.2","Mozilla/5.0 (X11; Linux x86_64) AppleWebKit/537.36 (KHTML, like Gecko) Chrome/138.0.0.0 Safari/537.36 Edg/138.0.3351.98","WebKit","Edge","138.0.3351.98","Linux","","https://app.prolific.com/","en-ZA,en-GB;q=0.9,en-US;q=0.8,en;q=0.7","6771ad00548b3a182d5f80e0","687a19d2168e237449fb8af4","6889db7ecd56dab0ad496c01","0","6771ad00548b3a182d5f80e0","0","2025-07-30T09:15:59.369Z","","","","StressQ","","","","","","","","","","","50","","","","","","","","","","","","","","","","","","","","","","","","","","",""
"2787","","<div style=""width:500px;"">
  <p>What best describes how you currently feel?</p>
  </div>","0","html-slider-response","22","1562398","0.0-7.0-4.1","61","1","2025-07-30 08:49:58","36c45c0696341be0efffe67d72a12abb","196.21.80.2","Mozilla/5.0 (X11; Linux x86_64) AppleWebKit/537.36 (KHTML, like Gecko) Chrome/138.0.0.0 Safari/537.36 Edg/138.0.3351.98","WebKit","Edge","138.0.3351.98","Linux","","https://app.prolific.com/","en-ZA,en-GB;q=0.9,en-US;q=0.8,en;q=0.7","6771ad00548b3a182d5f80e0","687a19d2168e237449fb8af4","6889db7ecd56dab0ad496c01","0","6771ad00548b3a182d5f80e0","0","2025-07-30T09:16:02.160Z","","","","MotivationQ","","","","","","","","","","","50","","","","","","","","","","","","","","","","","","","","","","","","","","",""
"","","","","ctl-task-cpt","23","1845869","0.0-7.0-0.2","61","1","2025-07-30 08:49:58","36c45c0696341be0efffe67d72a12abb","196.21.80.2","Mozilla/5.0 (X11; Linux x86_64) AppleWebKit/537.36 (KHTML, like Gecko) Chrome/138.0.0.0 Safari/537.36 Edg/138.0.3351.98","WebKit","Edge","138.0.3351.98","Linux","","https://app.prolific.com/","en-ZA,en-GB;q=0.9,en-US;q=0.8,en;q=0.7","6771ad00548b3a182d5f80e0","687a19d2168e237449fb8af4","6889db7ecd56dab0ad496c01","0","6771ad00548b3a182d5f80e0","0","2025-07-30T09:20:45.633Z","","","","","","","","","","","","","","","","win-only","3","g1:SW,g2:NE","0.8","3","0","1563830.5","20671","25923.8","275928.4","1","4","8","6","1","-1","-1","0","0","0","3286.9","3000","-5","[""down"",""left""]","{""num_key_presses"":0,""num_perfect"":0,""num_errors"":0,""num_randdir"":0,""num_randdir_good_moves"":0,""num_whilered"":0,""num_whileblue"":0,""num_blue"":0,""num_good_moves"":0}","[2067.0541817872404,2044.988856978257,2.1,2067.0541817872404,2044.988856978257,298.7,2028.888226958978,2097.215953059037,586.7,2028.888226958978,2097.215953059037,763.4,2028.888226958978,2097.215953059037,963,2028.888226958978,2097.215953059037,1134,2028.888226958978,2097.215953059037,1359.3,2028.888226958978,2097.215953059037,1921.8,2028.888226958978,2097.215953059037,2111.9,2028.888226958978,2097.215953059037,2303.3,2028.888226958978,2097.215953059037,2419.5,2028.888226958978,2097.215953059037,2561.9,2028.888226958978,2097.215953059037,2703.9,2028.888226958978,2097.215953059037,3030.8,297.72596319845127,3754.4218863914803,3349.3,297.72596319845127,3754.4218863914803,3641.4,297.72596319845127,3754.4218863914803,3784.9,297.72596319845127,3754.4218863914803,4028.7,297.72596319845127,3754.4218863914803,4237.2,297.72596319845127,3754.4218863914803,4531.2,297.72596319845127,3754.4218863914803,4784.5]","[]"
"5074","","<div style=""width:500px;"">
  <p>What determined the result of this run?</p>
  </div>","89","html-slider-response","24","1850977","0.0-7.0-1.2","61","1","2025-07-30 08:49:58","36c45c0696341be0efffe67d72a12abb","196.21.80.2","Mozilla/5.0 (X11; Linux x86_64) AppleWebKit/537.36 (KHTML, like Gecko) Chrome/138.0.0.0 Safari/537.36 Edg/138.0.3351.98","WebKit","Edge","138.0.3351.98","Linux","","https://app.prolific.com/","en-ZA,en-GB;q=0.9,en-US;q=0.8,en;q=0.7","6771ad00548b3a182d5f80e0","687a19d2168e237449fb8af4","6889db7ecd56dab0ad496c01","0","6771ad00548b3a182d5f80e0","0","2025-07-30T09:20:50.739Z","","","","AttribQ","","","","","","","","","","","50","","","","","","","","","","","","","","","","","","","","","","","","","","",""
"2851","","<div style=""width:500px;"">
  <p>How much control did you have over the ball?</p>
  </div>","0","html-slider-response","25","1853833","0.0-7.0-2.2","61","1","2025-07-30 08:49:58","36c45c0696341be0efffe67d72a12abb","196.21.80.2","Mozilla/5.0 (X11; Linux x86_64) AppleWebKit/537.36 (KHTML, like Gecko) Chrome/138.0.0.0 Safari/537.36 Edg/138.0.3351.98","WebKit","Edge","138.0.3351.98","Linux","","https://app.prolific.com/","en-ZA,en-GB;q=0.9,en-US;q=0.8,en;q=0.7","6771ad00548b3a182d5f80e0","687a19d2168e237449fb8af4","6889db7ecd56dab0ad496c01","0","6771ad00548b3a182d5f80e0","0","2025-07-30T09:20:53.595Z","","","","ControlQ","","","","","","","","","","","50","","","","","","","","","","","","","","","","","","","","","","","","","","",""
"2091","","<div style=""width:500px;"">
  <p>How would you describe your current emotional state?</p>
  </div>","90","html-slider-response","26","1855927","0.0-7.0-3.2","61","1","2025-07-30 08:49:58","36c45c0696341be0efffe67d72a12abb","196.21.80.2","Mozilla/5.0 (X11; Linux x86_64) AppleWebKit/537.36 (KHTML, like Gecko) Chrome/138.0.0.0 Safari/537.36 Edg/138.0.3351.98","WebKit","Edge","138.0.3351.98","Linux","","https://app.prolific.com/","en-ZA,en-GB;q=0.9,en-US;q=0.8,en;q=0.7","6771ad00548b3a182d5f80e0","687a19d2168e237449fb8af4","6889db7ecd56dab0ad496c01","0","6771ad00548b3a182d5f80e0","0","2025-07-30T09:20:55.689Z","","","","StressQ","","","","","","","","","","","50","","","","","","","","","","","","","","","","","","","","","","","","","","",""
"4158","","<div style=""width:500px;"">
  <p>What best describes how you currently feel?</p>
  </div>","40","html-slider-response","27","1860088","0.0-7.0-4.2","61","1","2025-07-30 08:49:58","36c45c0696341be0efffe67d72a12abb","196.21.80.2","Mozilla/5.0 (X11; Linux x86_64) AppleWebKit/537.36 (KHTML, like Gecko) Chrome/138.0.0.0 Safari/537.36 Edg/138.0.3351.98","WebKit","Edge","138.0.3351.98","Linux","","https://app.prolific.com/","en-ZA,en-GB;q=0.9,en-US;q=0.8,en;q=0.7","6771ad00548b3a182d5f80e0","687a19d2168e237449fb8af4","6889db7ecd56dab0ad496c01","0","6771ad00548b3a182d5f80e0","0","2025-07-30T09:20:59.850Z","","","","MotivationQ","","","","","","","","","","","50","","","","","","","","","","","","","","","","","","","","","","","","","","",""
"","","","","ctl-task-cpt","28","2044230","0.0-7.0-0.3","61","1","2025-07-30 08:49:58","36c45c0696341be0efffe67d72a12abb","196.21.80.2","Mozilla/5.0 (X11; Linux x86_64) AppleWebKit/537.36 (KHTML, like Gecko) Chrome/138.0.0.0 Safari/537.36 Edg/138.0.3351.98","WebKit","Edge","138.0.3351.98","Linux","","https://app.prolific.com/","en-ZA,en-GB;q=0.9,en-US;q=0.8,en;q=0.7","6771ad00548b3a182d5f80e0","687a19d2168e237449fb8af4","6889db7ecd56dab0ad496c01","0","6771ad00548b3a182d5f80e0","0","2025-07-30T09:24:03.992Z","","","","","","","","","","","","","","","","win-only","3","g1:SW,g2:NE","0.7","4","0","1861509.5","38504.6","43554.7","180751.3","1","4","4","6","1","-1","-1","0","0","0","1886.6","3000","-75","[""down"",""left""]","{""num_key_presses"":0,""num_perfect"":0,""num_errors"":0,""num_randdir"":0,""num_randdir_good_moves"":0,""num_whilered"":0,""num_whileblue"":0,""num_blue"":0,""num_good_moves"":0}","[2071.61318619977,2055.032529301484,12.5,2071.61318619977,2055.032529301484,109.6,2071.61318619977,2055.032529301484,298.4,2071.61318619977,2055.032529301484,472,2071.61318619977,2055.032529301484,662,2071.61318619977,2055.032529301484,856.6,2071.61318619977,2055.032529301484,1059.6,2071.61318619977,2055.032529301484,1255.6,2071.61318619977,2055.032529301484,1452.4,2071.61318619977,2055.032529301484,1728.9,348.11901553402924,3714.2471970985725,1963.2,348.11901553402924,3714.2471970985725,2189.6,348.11901553402924,3714.2471970985725,2404.8,348.11901553402924,3714.2471970985725,2567.6,348.11901553402924,3714.2471970985725,2741.2,348.11901553402924,3714.2471970985725,2933.1,348.11901553402924,3714.2471970985725,3159.5,348.11901553402924,3714.2471970985725,3343.5,348.11901553402924,3714.2471970985725,3526.8,348.11901553402924,3714.2471970985725,3687.7,348.11901553402924,3714.2471970985725,3859.7,348.11901553402924,3714.2471970985725,4108.5,348.11901553402924,3714.2471970985725,4340.8,348.11901553402924,3714.2471970985725,4617.8,348.11901553402924,3714.2471970985725,4824.3]","[]"
"48610","","<div style=""width:500px;"">
  <p>What determined the result of this run?</p>
  </div>","21","html-slider-response","29","2092859","0.0-7.0-1.3","61","1","2025-07-30 08:49:58","36c45c0696341be0efffe67d72a12abb","196.21.80.2","Mozilla/5.0 (X11; Linux x86_64) AppleWebKit/537.36 (KHTML, like Gecko) Chrome/138.0.0.0 Safari/537.36 Edg/138.0.3351.98","WebKit","Edge","138.0.3351.98","Linux","","https://app.prolific.com/","en-ZA,en-GB;q=0.9,en-US;q=0.8,en;q=0.7","6771ad00548b3a182d5f80e0","687a19d2168e237449fb8af4","6889db7ecd56dab0ad496c01","0","6771ad00548b3a182d5f80e0","0","2025-07-30T09:24:52.630Z","","","","AttribQ","","","","","","","","","","","50","","","","","","","","","","","","","","","","","","","","","","","","","","",""
"2859","","<div style=""width:500px;"">
  <p>How much control did you have over the ball?</p>
  </div>","15","html-slider-response","30","2095732","0.0-7.0-2.3","61","1","2025-07-30 08:49:58","36c45c0696341be0efffe67d72a12abb","196.21.80.2","Mozilla/5.0 (X11; Linux x86_64) AppleWebKit/537.36 (KHTML, like Gecko) Chrome/138.0.0.0 Safari/537.36 Edg/138.0.3351.98","WebKit","Edge","138.0.3351.98","Linux","","https://app.prolific.com/","en-ZA,en-GB;q=0.9,en-US;q=0.8,en;q=0.7","6771ad00548b3a182d5f80e0","687a19d2168e237449fb8af4","6889db7ecd56dab0ad496c01","0","6771ad00548b3a182d5f80e0","0","2025-07-30T09:24:55.494Z","","","","ControlQ","","","","","","","","","","","50","","","","","","","","","","","","","","","","","","","","","","","","","","",""
"1995","","<div style=""width:500px;"">
  <p>How would you describe your current emotional state?</p>
  </div>","22","html-slider-response","31","2097730","0.0-7.0-3.3","61","1","2025-07-30 08:49:58","36c45c0696341be0efffe67d72a12abb","196.21.80.2","Mozilla/5.0 (X11; Linux x86_64) AppleWebKit/537.36 (KHTML, like Gecko) Chrome/138.0.0.0 Safari/537.36 Edg/138.0.3351.98","WebKit","Edge","138.0.3351.98","Linux","","https://app.prolific.com/","en-ZA,en-GB;q=0.9,en-US;q=0.8,en;q=0.7","6771ad00548b3a182d5f80e0","687a19d2168e237449fb8af4","6889db7ecd56dab0ad496c01","0","6771ad00548b3a182d5f80e0","0","2025-07-30T09:24:57.492Z","","","","StressQ","","","","","","","","","","","50","","","","","","","","","","","","","","","","","","","","","","","","","","",""
"2124","","<div style=""width:500px;"">
  <p>What best describes how you currently feel?</p>
  </div>","22","html-slider-response","32","2099856","0.0-7.0-4.3","61","1","2025-07-30 08:49:58","36c45c0696341be0efffe67d72a12abb","196.21.80.2","Mozilla/5.0 (X11; Linux x86_64) AppleWebKit/537.36 (KHTML, like Gecko) Chrome/138.0.0.0 Safari/537.36 Edg/138.0.3351.98","WebKit","Edge","138.0.3351.98","Linux","","https://app.prolific.com/","en-ZA,en-GB;q=0.9,en-US;q=0.8,en;q=0.7","6771ad00548b3a182d5f80e0","687a19d2168e237449fb8af4","6889db7ecd56dab0ad496c01","0","6771ad00548b3a182d5f80e0","0","2025-07-30T09:24:59.618Z","","","","MotivationQ","","","","","","","","","","","50","","","","","","","","","","","","","","","","","","","","","","","","","","",""
"","","","","ctl-task-cpt","33","2490154","0.0-7.0-0.4","61","1","2025-07-30 08:49:58","36c45c0696341be0efffe67d72a12abb","196.21.80.2","Mozilla/5.0 (X11; Linux x86_64) AppleWebKit/537.36 (KHTML, like Gecko) Chrome/138.0.0.0 Safari/537.36 Edg/138.0.3351.98","WebKit","Edge","138.0.3351.98","Linux","","https://app.prolific.com/","en-ZA,en-GB;q=0.9,en-US;q=0.8,en;q=0.7","6771ad00548b3a182d5f80e0","687a19d2168e237449fb8af4","6889db7ecd56dab0ad496c01","0","6771ad00548b3a182d5f80e0","0","2025-07-30T09:31:29.917Z","","","","","","","","","","","","","","","","win-only","0","g1:NW,g2:SE","0.6","5","0","2101287.1","1787.4","6789.6","386887.1","1","4","4","6","2","-4","-4","0","0","0","5002.1","3000","-55","[""down"",""right""]","{""num_key_presses"":0,""num_perfect"":0,""num_errors"":0,""num_randdir"":0,""num_randdir_good_moves"":0,""num_whilered"":0,""num_whileblue"":0,""num_blue"":1,""num_good_moves"":0}","[1994.2051687943285,2014.4030404256382,0.9,1994.2051687943285,2014.4030404256382,286.3,1994.2051687943285,2014.4030404256382,521.1,1994.2051687943285,2014.4030404256382,751.7,1994.2051687943285,2014.4030404256382,932.2,1994.2051687943285,2014.4030404256382,1156.1,1994.2051687943285,2014.4030404256382,1372.5,1994.2051687943285,2014.4030404256382,1584.5,1994.2051687943285,2014.4030404256382,1838.1,1994.2051687943285,2014.4030404256382,2162.8,3317.9611809956377,3249.7747361825504,2635.7,3317.9611809956377,3249.7747361825504,2814.4,3317.9611809956377,3249.7747361825504,3038.4,3317.9611809956377,3249.7747361825504,3231.5,3317.9611809956377,3249.7747361825504,3534.6,3317.9611809956377,3249.7747361825504,3749.5,3317.9611809956377,3249.7747361825504,3966.2,3317.9611809956377,3249.7747361825504,4482.8]","[]"
"3257","","<div style=""width:500px;"">
  <p>What determined the result of this run?</p>
  </div>","12","html-slider-response","34","2493526","0.0-7.0-1.4","61","1","2025-07-30 08:49:58","36c45c0696341be0efffe67d72a12abb","196.21.80.2","Mozilla/5.0 (X11; Linux x86_64) AppleWebKit/537.36 (KHTML, like Gecko) Chrome/138.0.0.0 Safari/537.36 Edg/138.0.3351.98","WebKit","Edge","138.0.3351.98","Linux","","https://app.prolific.com/","en-ZA,en-GB;q=0.9,en-US;q=0.8,en;q=0.7","6771ad00548b3a182d5f80e0","687a19d2168e237449fb8af4","6889db7ecd56dab0ad496c01","0","6771ad00548b3a182d5f80e0","0","2025-07-30T09:31:33.288Z","","","","AttribQ","","","","","","","","","","","50","","","","","","","","","","","","","","","","","","","","","","","","","","",""
"1669","","<div style=""width:500px;"">
  <p>How much control did you have over the ball?</p>
  </div>","4","html-slider-response","35","2495205","0.0-7.0-2.4","61","1","2025-07-30 08:49:58","36c45c0696341be0efffe67d72a12abb","196.21.80.2","Mozilla/5.0 (X11; Linux x86_64) AppleWebKit/537.36 (KHTML, like Gecko) Chrome/138.0.0.0 Safari/537.36 Edg/138.0.3351.98","WebKit","Edge","138.0.3351.98","Linux","","https://app.prolific.com/","en-ZA,en-GB;q=0.9,en-US;q=0.8,en;q=0.7","6771ad00548b3a182d5f80e0","687a19d2168e237449fb8af4","6889db7ecd56dab0ad496c01","0","6771ad00548b3a182d5f80e0","0","2025-07-30T09:31:34.967Z","","","","ControlQ","","","","","","","","","","","50","","","","","","","","","","","","","","","","","","","","","","","","","","",""
"3315","","<div style=""width:500px;"">
  <p>How would you describe your current emotional state?</p>
  </div>","85","html-slider-response","36","2498525","0.0-7.0-3.4","61","1","2025-07-30 08:49:58","36c45c0696341be0efffe67d72a12abb","196.21.80.2","Mozilla/5.0 (X11; Linux x86_64) AppleWebKit/537.36 (KHTML, like Gecko) Chrome/138.0.0.0 Safari/537.36 Edg/138.0.3351.98","WebKit","Edge","138.0.3351.98","Linux","","https://app.prolific.com/","en-ZA,en-GB;q=0.9,en-US;q=0.8,en;q=0.7","6771ad00548b3a182d5f80e0","687a19d2168e237449fb8af4","6889db7ecd56dab0ad496c01","0","6771ad00548b3a182d5f80e0","0","2025-07-30T09:31:38.287Z","","","","StressQ","","","","","","","","","","","50","","","","","","","","","","","","","","","","","","","","","","","","","","",""
"5631","","<div style=""width:500px;"">
  <p>What best describes how you currently feel?</p>
  </div>","59","html-slider-response","37","2504171","0.0-7.0-4.4","61","1","2025-07-30 08:49:58","36c45c0696341be0efffe67d72a12abb","196.21.80.2","Mozilla/5.0 (X11; Linux x86_64) AppleWebKit/537.36 (KHTML, like Gecko) Chrome/138.0.0.0 Safari/537.36 Edg/138.0.3351.98","WebKit","Edge","138.0.3351.98","Linux","","https://app.prolific.com/","en-ZA,en-GB;q=0.9,en-US;q=0.8,en;q=0.7","6771ad00548b3a182d5f80e0","687a19d2168e237449fb8af4","6889db7ecd56dab0ad496c01","0","6771ad00548b3a182d5f80e0","0","2025-07-30T09:31:43.934Z","","","","MotivationQ","","","","","","","","","","","50","","","","","","","","","","","","","","","","","","","","","","","","","","",""
"","","","","ctl-task-cpt","38","2881799","0.0-7.0-0.5","61","1","2025-07-30 08:49:58","36c45c0696341be0efffe67d72a12abb","196.21.80.2","Mozilla/5.0 (X11; Linux x86_64) AppleWebKit/537.36 (KHTML, like Gecko) Chrome/138.0.0.0 Safari/537.36 Edg/138.0.3351.98","WebKit","Edge","138.0.3351.98","Linux","","https://app.prolific.com/","en-ZA,en-GB;q=0.9,en-US;q=0.8,en;q=0.7","6771ad00548b3a182d5f80e0","687a19d2168e237449fb8af4","6889db7ecd56dab0ad496c01","0","6771ad00548b3a182d5f80e0","0","2025-07-30T09:38:01.562Z","","","","","","","","","","","","","","","","win-only","2","g1:SE,g2:NW","0.5","6","0","2505610.8","3265.7","8622.5","374263.6","1","4","8","6","1","-1","-1","0","0","0","5356.7","3000","-55","[""down"",""right""]","{""num_key_presses"":0,""num_perfect"":0,""num_errors"":0,""num_randdir"":0,""num_randdir_good_moves"":0,""num_whilered"":0,""num_whileblue"":0,""num_blue"":0,""num_good_moves"":0}","[2375.3338372541525,2444.81636881658,1.7,2375.3338372541525,2444.81636881658,470.1,2375.3338372541525,2444.81636881658,758.2,2375.3338372541525,2444.81636881658,1110.1,2375.3338372541525,2444.81636881658,1523.2,2375.3338372541525,2444.81636881658,2249.6,2694.722617132769,2824.467182634558,3405.3,2694.722617132769,2824.467182634558,3868.4,2694.722617132769,2824.467182634558,4013,2694.722617132769,2824.467182634558,4645.3,2694.722617132769,2824.467182634558,4969.5]","[]"
"6091","","<div style=""width:500px;"">
  <p>What determined the result of this run?</p>
  </div>","6","html-slider-response","39","2888034","0.0-7.0-1.5","61","1","2025-07-30 08:49:58","36c45c0696341be0efffe67d72a12abb","196.21.80.2","Mozilla/5.0 (X11; Linux x86_64) AppleWebKit/537.36 (KHTML, like Gecko) Chrome/138.0.0.0 Safari/537.36 Edg/138.0.3351.98","WebKit","Edge","138.0.3351.98","Linux","","https://app.prolific.com/","en-ZA,en-GB;q=0.9,en-US;q=0.8,en;q=0.7","6771ad00548b3a182d5f80e0","687a19d2168e237449fb8af4","6889db7ecd56dab0ad496c01","0","6771ad00548b3a182d5f80e0","0","2025-07-30T09:38:07.796Z","","","","AttribQ","","","","","","","","","","","50","","","","","","","","","","","","","","","","","","","","","","","","","","",""
"2695","","<div style=""width:500px;"">
  <p>How much control did you have over the ball?</p>
  </div>","6","html-slider-response","40","2890733","0.0-7.0-2.5","61","1","2025-07-30 08:49:58","36c45c0696341be0efffe67d72a12abb","196.21.80.2","Mozilla/5.0 (X11; Linux x86_64) AppleWebKit/537.36 (KHTML, like Gecko) Chrome/138.0.0.0 Safari/537.36 Edg/138.0.3351.98","WebKit","Edge","138.0.3351.98","Linux","","https://app.prolific.com/","en-ZA,en-GB;q=0.9,en-US;q=0.8,en;q=0.7","6771ad00548b3a182d5f80e0","687a19d2168e237449fb8af4","6889db7ecd56dab0ad496c01","0","6771ad00548b3a182d5f80e0","0","2025-07-30T09:38:10.495Z","","","","ControlQ","","","","","","","","","","","50","","","","","","","","","","","","","","","","","","","","","","","","","","",""
"12118","","<div style=""width:500px;"">
  <p>How would you describe your current emotional state?</p>
  </div>","100","html-slider-response","41","2902854","0.0-7.0-3.5","61","1","2025-07-30 08:49:58","36c45c0696341be0efffe67d72a12abb","196.21.80.2","Mozilla/5.0 (X11; Linux x86_64) AppleWebKit/537.36 (KHTML, like Gecko) Chrome/138.0.0.0 Safari/537.36 Edg/138.0.3351.98","WebKit","Edge","138.0.3351.98","Linux","","https://app.prolific.com/","en-ZA,en-GB;q=0.9,en-US;q=0.8,en;q=0.7","6771ad00548b3a182d5f80e0","687a19d2168e237449fb8af4","6889db7ecd56dab0ad496c01","0","6771ad00548b3a182d5f80e0","0","2025-07-30T09:38:22.616Z","","","","StressQ","","","","","","","","","","","50","","","","","","","","","","","","","","","","","","","","","","","","","","",""
"3171","","<div style=""width:500px;"">
  <p>What best describes how you currently feel?</p>
  </div>","33","html-slider-response","42","2906029","0.0-7.0-4.5","61","1","2025-07-30 08:49:58","36c45c0696341be0efffe67d72a12abb","196.21.80.2","Mozilla/5.0 (X11; Linux x86_64) AppleWebKit/537.36 (KHTML, like Gecko) Chrome/138.0.0.0 Safari/537.36 Edg/138.0.3351.98","WebKit","Edge","138.0.3351.98","Linux","","https://app.prolific.com/","en-ZA,en-GB;q=0.9,en-US;q=0.8,en;q=0.7","6771ad00548b3a182d5f80e0","687a19d2168e237449fb8af4","6889db7ecd56dab0ad496c01","0","6771ad00548b3a182d5f80e0","0","2025-07-30T09:38:25.791Z","","","","MotivationQ","","","","","","","","","","","50","","","","","","","","","","","","","","","","","","","","","","","","","","",""