"rt","response_timestamp","stimulus","response","trial_type","trial_index","time_elapsed","internal_node_id","run_id","condition","recorded_at","source_code_version","ip","user_agent","device","browser","browser_version","platform","platform_version","referer","accept_language","PROLIFIC_PID","STUDY_ID","SESSION_ID","BATCH","prolific_id","batch","realtime","success","question_order","question_id","eventType","responses","item_order","radio_event_ids","radio_event_times","key_event_times","mouse_event_times","straightlining","zigzagging","honeypot","view_history","slider_start","which_type","canvas_config","goals_layout","control_level","trial_number","tutorial_trial_number","trial_start_time","phase1_start_time","phase2_start_time","phase3_start_time","goal_1_value","goal_1_distance","goal_2_value","goal_2_distance","goal_selected","outcome","outcome_total","participant_final_score","participant_initial_score","participant_final_score_prop","goal_choice_rt","allocated_time","allocated_time_remaining","goal_direction","counts","mouse_movements","key_presses"
"10094","1754470383010","<p style='font-size:40px;line-height:1.25'><strong>Welcome to the experiment!</strong></p><p style='font-size:1.1em;line-height:1.25'>Thank you for participanting in our experiment again! You will be asked to play the Dysfunctional Ball Game again. We will briefly recap the rules before we start.</p><p style='font-size:1.1em;line-height:1.25'>Press <strong>Next</strong> to continue.</p>","0","custom-html-button-response","0","10098","0.0-0.0","138","1","2025-08-06 08:52:50","36c45c0696341be0efffe67d72a12abb","194.152.129.18","Mozilla/5.0 (Windows NT 10.0; Win64; x64) AppleWebKit/537.36 (KHTML, like Gecko) Chrome/131.0.0.0 Safari/537.36","WebKit","Chrome","131.0.0.0","Windows","10.0","https://app.prolific.com/","en-GB,en;q=0.9","677fb45dee7e90f416b55aea","6877649eabb845cf142cd221","689317cc459c19f19eaac51b","1","677fb45dee7e90f416b55aea","1","2025-08-06T08:53:03.013Z","","","","","","","","","","","","","","","","","","","","","","","","","","","","","","","","","","","","","","","","","",""
"6853","","","","fullscreen","1","17970","0.0-1.0","138","1","2025-08-06 08:52:50","36c45c0696341be0efffe67d72a12abb","194.152.129.18","Mozilla/5.0 (Windows NT 10.0; Win64; x64) AppleWebKit/537.36 (KHTML, like Gecko) Chrome/131.0.0.0 Safari/537.36","WebKit","Chrome","131.0.0.0","Windows","10.0","https://app.prolific.com/","en-GB,en;q=0.9","677fb45dee7e90f416b55aea","6877649eabb845cf142cd221","689317cc459c19f19eaac51b","1","677fb45dee7e90f416b55aea","1","","true","","","","","","","","","","","","","","","","","","","","","","","","","","","","","","","","","","","","","","","","",""
"10303","1754470401190"," <p style='font-size:1.1em;line-height:1.25'>Thank you for closing all other tabs.</p><p style='font-size:1.1em;line-height:1.25'>We will now invite you to fill in some questionnaires, before starting the game.<br>This will take about 5 minutes.<br></p><p style='font-size:1.1em;line-height:1.25'>Press the <strong>Next</strong> button to continue.</p>","0","custom-html-button-response","2","28277","0.0-2.0","138","1","2025-08-06 08:52:50","36c45c0696341be0efffe67d72a12abb","194.152.129.18","Mozilla/5.0 (Windows NT 10.0; Win64; x64) AppleWebKit/537.36 (KHTML, like Gecko) Chrome/131.0.0.0 Safari/537.36","WebKit","Chrome","131.0.0.0","Windows","10.0","https://app.prolific.com/","en-GB,en;q=0.9","677fb45dee7e90f416b55aea","6877649eabb845cf142cd221","689317cc459c19f19eaac51b","1","677fb45dee7e90f416b55aea","1","2025-08-06T08:53:21.191Z","","","","","","","","","","","","","","","","","","","","","","","","","","","","","","","","","","","","","","","","","",""
"9078","","","{""assigned_sex"":""female""}","survey-multi-choice","3","37359","0.0-3.0-0.0","138","1","2025-08-06 08:52:50","36c45c0696341be0efffe67d72a12abb","194.152.129.18","Mozilla/5.0 (Windows NT 10.0; Win64; x64) AppleWebKit/537.36 (KHTML, like Gecko) Chrome/131.0.0.0 Safari/537.36","WebKit","Chrome","131.0.0.0","Windows","10.0","https://app.prolific.com/","en-GB,en;q=0.9","677fb45dee7e90f416b55aea","6877649eabb845cf142cd221","689317cc459c19f19eaac51b","1","677fb45dee7e90f416b55aea","1","","","[0]","0","demographics","","","","","","","","","","","","","","","","","","","","","","","","","","","","","","","","","","","","","",""
"10644","1754470420919","<p style='font-size:1.1em;line-height:1.25'>In the following, we will perform a baseline assessment. This means that we will ask you a few questions relating to your experiences over the past month.<br></p><p style='font-size:1.1em;line-height:1.25'>Press the <strong>Next</strong> button to continue.</p>","0","custom-html-button-response","4","48007","0.0-4.0-0.0","138","1","2025-08-06 08:52:50","36c45c0696341be0efffe67d72a12abb","194.152.129.18","Mozilla/5.0 (Windows NT 10.0; Win64; x64) AppleWebKit/537.36 (KHTML, like Gecko) Chrome/131.0.0.0 Safari/537.36","WebKit","Chrome","131.0.0.0","Windows","10.0","https://app.prolific.com/","en-GB,en;q=0.9","677fb45dee7e90f416b55aea","6877649eabb845cf142cd221","689317cc459c19f19eaac51b","1","677fb45dee7e90f416b55aea","1","2025-08-06T08:53:40.921Z","","","","","","","","","","","","","","","","","","","","","","","","","","","","","","","","","","","","","","","","","",""
"74429.5","","","","survey-template","5","122449","0.0-4.0-1.0","138","1","2025-08-06 08:52:50","36c45c0696341be0efffe67d72a12abb","194.152.129.18","Mozilla/5.0 (Windows NT 10.0; Win64; x64) AppleWebKit/537.36 (KHTML, like Gecko) Chrome/131.0.0.0 Safari/537.36","WebKit","Chrome","131.0.0.0","Windows","10.0","https://app.prolific.com/","en-GB,en;q=0.9","677fb45dee7e90f416b55aea","6877649eabb845cf142cd221","689317cc459c19f19eaac51b","1","677fb45dee7e90f416b55aea","1","2025-08-06T08:54:55.363Z","","","","pss","{""Q01"":""2"",""Q02"":""2"",""Q03"":""2"",""Q04"":""2"",""Q05"":""2"",""Q06"":""2"",""Q07"":""2"",""Q08"":""2"",""Q09"":""2"",""Q10"":""2""}","[0,1,2,3,4,5,6,7,8,9]","[""Q01"",""Q02"",""Q03"",""Q04"",""Q05"",""Q06"",""Q07"",""Q08"",""Q09"",""Q10""]","[6473.200000017881,10181.200000017881,13921.300000011921,19781.90000000596,25022.30000001192,33582.30000001192,39067.59999999404,43704.40000000596,47306.59999999404,51069.90000000596]","[]","[0.4000000059604645,4525.5999999940395,6473.200000017881,10181.200000017881,13921.300000011921,19781.90000000596,25022.30000001192,33582.30000001192,39067.59999999404,43704.40000000596,47306.59999999404,51069.90000000596,74425.59999999404]","1","0","0","","","","","","","","","","","","","","","","","","","","","","","","","","","","",""
"7311","1754470502676","<p style='font-size:1.1em;line-height:1.25'>Thank you for your answers! Now we will ask you a few more questions relating to your feelings in the last 24 hours.<br></p><p style='font-size:1.1em;line-height:1.25'>Press the <strong>Next</strong> button to continue.</p>","0","custom-html-button-response","6","129762","0.0-4.0-2.0","138","1","2025-08-06 08:52:50","36c45c0696341be0efffe67d72a12abb","194.152.129.18","Mozilla/5.0 (Windows NT 10.0; Win64; x64) AppleWebKit/537.36 (KHTML, like Gecko) Chrome/131.0.0.0 Safari/537.36","WebKit","Chrome","131.0.0.0","Windows","10.0","https://app.prolific.com/","en-GB,en;q=0.9","677fb45dee7e90f416b55aea","6877649eabb845cf142cd221","689317cc459c19f19eaac51b","1","677fb45dee7e90f416b55aea","1","2025-08-06T08:55:02.677Z","","","","","","","","","","","","","","","","","","","","","","","","","","","","","","","","","","","","","","","","","",""
"79309.70000001788","","","","survey-template","7","209084","0.0-4.0-3.0","138","1","2025-08-06 08:52:50","36c45c0696341be0efffe67d72a12abb","194.152.129.18","Mozilla/5.0 (Windows NT 10.0; Win64; x64) AppleWebKit/537.36 (KHTML, like Gecko) Chrome/131.0.0.0 Safari/537.36","WebKit","Chrome","131.0.0.0","Windows","10.0","https://app.prolific.com/","en-GB,en;q=0.9","677fb45dee7e90f416b55aea","6877649eabb845cf142cd221","689317cc459c19f19eaac51b","1","677fb45dee7e90f416b55aea","1","2025-08-06T08:56:21.998Z","","","","drsp","{""Q01"":""3"",""Q02"":""3"",""Q03"":""3"",""Q04"":""3"",""Q05"":""3"",""Q06"":""3"",""Q07"":""3"",""Q08"":""3"",""Q09"":""3"",""Q10"":""3"",""Q11"":""3"",""Q12"":""3"",""Q13"":""5"",""Q14"":""3"",""Q15"":""3"",""Q16"":""3"",""Q17"":""3"",""Q18"":""3"",""Q19"":""3"",""Q20"":""3"",""Q21"":""3"",""Q22"":""3""}","[0,1,2,3,4,5,6,7,8,9,10,11,12,13,14,15,16,17,18,19,20,21]","[""Q01"",""Q02"",""Q03"",""Q04"",""Q05"",""Q06"",""Q07"",""Q08"",""Q09"",""Q10"",""Q11"",""Q12"",""Q13"",""Q14"",""Q15"",""Q16"",""Q17"",""Q18"",""Q19"",""Q20"",""Q21"",""Q22""]","[4754.100000023842,6518.300000011921,9062.300000011921,12037.100000023842,14514.90000000596,17722.5,23706.90000000596,26550.90000000596,32131.100000023842,34645.60000002384,39287,41883.10000002384,46639.40000000596,50147.10000002384,51631.5,54301.20000001788,59042,61654.5,67010.60000002384,70122.30000001192,73502.5,77636.5]","[]","[0.10000002384185791,4754.100000023842,6518.300000011921,9062.300000011921,12037.100000023842,14514.90000000596,17722.5,21336.70000001788,23706.90000000596,26550.90000000596,32131.100000023842,34645.60000002384,39287,41883.10000002384,46639.40000000596,50147.10000002384,51631.5,54301.20000001788,59042,61654.5,67010.60000002384,70122.30000001192,73502.5,77636.5,79300.5]","0.9545454545454546","0","0","","","","","","","","","","","","","","","","","","","","","","","","","","","","",""
"15759.59999999404","","","","survey-template","8","224848","0.0-4.0-4.0","138","1","2025-08-06 08:52:50","36c45c0696341be0efffe67d72a12abb","194.152.129.18","Mozilla/5.0 (Windows NT 10.0; Win64; x64) AppleWebKit/537.36 (KHTML, like Gecko) Chrome/131.0.0.0 Safari/537.36","WebKit","Chrome","131.0.0.0","Windows","10.0","https://app.prolific.com/","en-GB,en;q=0.9","677fb45dee7e90f416b55aea","6877649eabb845cf142cd221","689317cc459c19f19eaac51b","1","677fb45dee7e90f416b55aea","1","2025-08-06T08:56:37.762Z","","","","stress","{""Q01"":""3"",""Q02"":""2"",""Q03"":""3""}","[0,1,2]","[""Q01"",""Q02"",""Q03""]","[11346.90000000596,12773.90000000596,14465.40000000596]","[]","[9873.59999999404,11346.90000000596,12773.90000000596,14465.40000000596,15757.5]","1","0","0","","","","","","","","","","","","","","","","","","","","","","","","","","","","",""
"7040","","","","instructions","9","231890","0.0-5.0-0.0","138","1","2025-08-06 08:52:50","36c45c0696341be0efffe67d72a12abb","194.152.129.18","Mozilla/5.0 (Windows NT 10.0; Win64; x64) AppleWebKit/537.36 (KHTML, like Gecko) Chrome/131.0.0.0 Safari/537.36","WebKit","Chrome","131.0.0.0","Windows","10.0","https://app.prolific.com/","en-GB,en;q=0.9","677fb45dee7e90f416b55aea","6877649eabb845cf142cd221","689317cc459c19f19eaac51b","1","677fb45dee7e90f416b55aea","1","","","","","","","","","","","","","","","[{""page_index"":0,""viewing_time"":7039}]","","","","","","","","","","","","","","","","","","","","","","","","","","","",""
"20424","","<p>Before you start with this game please answer the following three questions yourself. </p>
  <p>Through this game, we measure several aspects of your cognitive performance, such as reaction times, multi-tasking capabilities </p>
  <p>and the ability to assess the situation you are in.</p>
  <p></p>
  <p><b>How good do you usually are in such tasks?</b></p>","61","html-slider-response","10","252318","0.0-6.0-0.0","138","1","2025-08-06 08:52:50","36c45c0696341be0efffe67d72a12abb","194.152.129.18","Mozilla/5.0 (Windows NT 10.0; Win64; x64) AppleWebKit/537.36 (KHTML, like Gecko) Chrome/131.0.0.0 Safari/537.36","WebKit","Chrome","131.0.0.0","Windows","10.0","https://app.prolific.com/","en-GB,en;q=0.9","677fb45dee7e90f416b55aea","6877649eabb845cf142cd221","689317cc459c19f19eaac51b","1","677fb45dee7e90f416b55aea","1","2025-08-06T08:57:05.232Z","","","","PreSkillQ","","","","","","","","","","","50","","","","","","","","","","","","","","","","","","","","","","","","","","",""
"5878","","<div style=""width:500px;"">
  <p>How well do you think you will perform in this task compared to other participants?</p>
  </div>","73","html-slider-response","11","258199","0.0-6.0-1.0","138","1","2025-08-06 08:52:50","36c45c0696341be0efffe67d72a12abb","194.152.129.18","Mozilla/5.0 (Windows NT 10.0; Win64; x64) AppleWebKit/537.36 (KHTML, like Gecko) Chrome/131.0.0.0 Safari/537.36","WebKit","Chrome","131.0.0.0","Windows","10.0","https://app.prolific.com/","en-GB,en;q=0.9","677fb45dee7e90f416b55aea","6877649eabb845cf142cd221","689317cc459c19f19eaac51b","1","677fb45dee7e90f416b55aea","1","2025-08-06T08:57:11.113Z","","","","PrePerfQ","","","","","","","","","","","50","","","","","","","","","","","","","","","","","","","","","","","","","","",""
"5234","","<div style=""width:500px;"">
  <p>What best describes how you currently feel?</p>
  </div>","59","html-slider-response","12","263434","0.0-6.0-2.0","138","1","2025-08-06 08:52:50","36c45c0696341be0efffe67d72a12abb","194.152.129.18","Mozilla/5.0 (Windows NT 10.0; Win64; x64) AppleWebKit/537.36 (KHTML, like Gecko) Chrome/131.0.0.0 Safari/537.36","WebKit","Chrome","131.0.0.0","Windows","10.0","https://app.prolific.com/","en-GB,en;q=0.9","677fb45dee7e90f416b55aea","6877649eabb845cf142cd221","689317cc459c19f19eaac51b","1","677fb45dee7e90f416b55aea","1","2025-08-06T08:57:16.348Z","","","","PreMotivationQ","","","","","","","","","","","50","","","","","","","","","","","","","","","","","","","","","","","","","","",""
"","","","","ctl-task-cpt","13","295817","0.0-7.0-0.0","138","1","2025-08-06 08:52:50","36c45c0696341be0efffe67d72a12abb","194.152.129.18","Mozilla/5.0 (Windows NT 10.0; Win64; x64) AppleWebKit/537.36 (KHTML, like Gecko) Chrome/131.0.0.0 Safari/537.36","WebKit","Chrome","131.0.0.0","Windows","10.0","https://app.prolific.com/","en-GB,en;q=0.9","677fb45dee7e90f416b55aea","6877649eabb845cf142cd221","689317cc459c19f19eaac51b","1","677fb45dee7e90f416b55aea","1","2025-08-06T08:57:48.731Z","","","","","","","","","","","","","","","","win-only","1","g1:NE,g2:SW","1","1","0","267449.1","2927.5","7934.9","29363","1","4","4","6","2","4","4","4","0","0.030303030303030304","5007.3","3000","370","[""down"",""left""]","{""num_key_presses"":6,""num_perfect"":6,""num_errors"":0,""num_randdir"":0,""num_randdir_good_moves"":0,""num_whilered"":0,""num_whileblue"":0,""num_blue"":2,""num_good_moves"":6}","[417.57142857142856,423.47767857142856,0.3,417.57142857142856,423.47767857142856,107.1,417.57142857142856,423.47767857142856,208.4,417.57142857142856,423.47767857142856,308.7,417.57142857142856,423.47767857142856,408.9,417.57142857142856,423.47767857142856,514.8,417.57142857142856,423.47767857142856,621.7,417.57142857142856,423.47767857142856,724.4,417.57142857142856,423.47767857142856,824.4,417.57142857142856,423.47767857142856,924.4,417.57142857142856,423.47767857142856,1032.7,417.57142857142856,423.47767857142856,1134.1,417.57142857142856,423.47767857142856,1234.3,417.57142857142856,423.47767857142856,1334.3,417.57142857142856,423.47767857142856,1439.6,417.57142857142856,423.47767857142856,1542.3,417.57142857142856,423.47767857142856,1644.1,417.57142857142856,423.47767857142856,1748.7,417.57142857142856,423.47767857142856,1849.7,417.57142857142856,423.47767857142856,1955.8,417.57142857142856,423.47767857142856,2059.9,417.57142857142856,423.47767857142856,2166.5,417.57142857142856,423.47767857142856,2270.4,417.57142857142856,423.47767857142856,2376.3,417.57142857142856,423.47767857142856,2480.1,417.57142857142856,423.47767857142856,2585,417.57142857142856,423.47767857142856,2693.2,417.57142857142856,423.47767857142856,2794.5,417.57142857142856,423.47767857142856,2895.3,417.57142857142856,423.47767857142856,2995.3,417.57142857142856,423.47767857142856,3095.8,417.57142857142856,423.47767857142856,3199.6,417.57142857142856,423.47767857142856,3306,417.57142857142856,423.47767857142856,3409.6,417.57142857142856,423.47767857142856,3510.1,417.57142857142856,423.47767857142856,3616.1,417.57142857142856,423.47767857142856,3717.6,417.57142857142856,423.47767857142856,3817.7,417.57142857142856,423.47767857142856,3923.6,417.57142857142856,423.47767857142856,4023.7,417.57142857142856,423.47767857142856,4127,417.57142857142856,423.47767857142856,4227.1,417.57142857142856,423.47767857142856,4335,417.57142857142856,423.47767857142856,4437.6,417.57142857142856,423.47767857142856,4545.6,417.57142857142856,423.47767857142856,4654.4,417.57142857142856,423.47767857142856,4763.1,417.57142857142856,423.47767857142856,4868.7,417.57142857142856,423.47767857142856,4969.1]","[2216.7,2216.7,1000,0,1216.7,""smooth"",""down"",""down"",""good_move"",5215.8,2998,2534.7,2217.8,463.4,""smooth"",""down"",""down"",""good_move"",14439.1,9221.7,2008,12009.2,422,""smooth"",""down"",""down"",""good_move"",16716.9,2276.1,1608.7,14440.9,667.3,""smooth"",""left"",""left"",""good_move"",18933.9,2215.5,1649.9,16718.4,565.7,""smooth"",""left"",""left"",""good_move"",21300.1,2364.2,1997.2,18936,367,""smooth"",""left"",""left"",""good_move""]"
"7293","","<div style=""width:500px;"">
  <p>What determined the result of this run?</p>
  </div>","94","html-slider-response","14","303115","0.0-7.0-1.0","138","1","2025-08-06 08:52:50","36c45c0696341be0efffe67d72a12abb","194.152.129.18","Mozilla/5.0 (Windows NT 10.0; Win64; x64) AppleWebKit/537.36 (KHTML, like Gecko) Chrome/131.0.0.0 Safari/537.36","WebKit","Chrome","131.0.0.0","Windows","10.0","https://app.prolific.com/","en-GB,en;q=0.9","677fb45dee7e90f416b55aea","6877649eabb845cf142cd221","689317cc459c19f19eaac51b","1","677fb45dee7e90f416b55aea","1","2025-08-06T08:57:56.029Z","","","","AttribQ","","","","","","","","","","","50","","","","","","","","","","","","","","","","","","","","","","","","","","",""
"7460","","<div style=""width:500px;"">
  <p>How much control did you have over the ball?</p>
  </div>","94","html-slider-response","15","310583","0.0-7.0-2.0","138","1","2025-08-06 08:52:50","36c45c0696341be0efffe67d72a12abb","194.152.129.18","Mozilla/5.0 (Windows NT 10.0; Win64; x64) AppleWebKit/537.36 (KHTML, like Gecko) Chrome/131.0.0.0 Safari/537.36","WebKit","Chrome","131.0.0.0","Windows","10.0","https://app.prolific.com/","en-GB,en;q=0.9","677fb45dee7e90f416b55aea","6877649eabb845cf142cd221","689317cc459c19f19eaac51b","1","677fb45dee7e90f416b55aea","1","2025-08-06T08:58:03.497Z","","","","ControlQ","","","","","","","","","","","50","","","","","","","","","","","","","","","","","","","","","","","","","","",""
"5634","","<div style=""width:500px;"">
  <p>How would you describe your current emotional state?</p>
  </div>","60","html-slider-response","16","316223","0.0-7.0-3.0","138","1","2025-08-06 08:52:50","36c45c0696341be0efffe67d72a12abb","194.152.129.18","Mozilla/5.0 (Windows NT 10.0; Win64; x64) AppleWebKit/537.36 (KHTML, like Gecko) Chrome/131.0.0.0 Safari/537.36","WebKit","Chrome","131.0.0.0","Windows","10.0","https://app.prolific.com/","en-GB,en;q=0.9","677fb45dee7e90f416b55aea","6877649eabb845cf142cd221","689317cc459c19f19eaac51b","1","677fb45dee7e90f416b55aea","1","2025-08-06T08:58:09.138Z","","","","StressQ","","","","","","","","","","","50","","","","","","","","","","","","","","","","","","","","","","","","","","",""
"4111","","<div style=""width:500px;"">
  <p>What best describes how you currently feel?</p>
  </div>","61","html-slider-response","17","320341","0.0-7.0-4.0","138","1","2025-08-06 08:52:50","36c45c0696341be0efffe67d72a12abb","194.152.129.18","Mozilla/5.0 (Windows NT 10.0; Win64; x64) AppleWebKit/537.36 (KHTML, like Gecko) Chrome/131.0.0.0 Safari/537.36","WebKit","Chrome","131.0.0.0","Windows","10.0","https://app.prolific.com/","en-GB,en;q=0.9","677fb45dee7e90f416b55aea","6877649eabb845cf142cd221","689317cc459c19f19eaac51b","1","677fb45dee7e90f416b55aea","1","2025-08-06T08:58:13.255Z","","","","MotivationQ","","","","","","","","","","","50","","","","","","","","","","","","","","","","","","","","","","","","","","",""
"","","","","ctl-task-cpt","18","351719","0.0-7.0-0.1","138","1","2025-08-06 08:52:50","36c45c0696341be0efffe67d72a12abb","194.152.129.18","Mozilla/5.0 (Windows NT 10.0; Win64; x64) AppleWebKit/537.36 (KHTML, like Gecko) Chrome/131.0.0.0 Safari/537.36","WebKit","Chrome","131.0.0.0","Windows","10.0","https://app.prolific.com/","en-GB,en;q=0.9","677fb45dee7e90f416b55aea","6877649eabb845cf142cd221","689317cc459c19f19eaac51b","1","677fb45dee7e90f416b55aea","1","2025-08-06T08:58:44.634Z","","","","","","","","","","","","","","","","win-only","2","g1:SE,g2:NW","0.9","2","0","324354.6","2471.6","7500.1","28365.2","1","4","8","6","2","8","8","12","4","0.09090909090909091","5028.1","3000","75","[""left"",""up""]","{""num_key_presses"":6,""num_perfect"":6,""num_errors"":0,""num_randdir"":0,""num_randdir_good_moves"":0,""num_whilered"":0,""num_whileblue"":0,""num_blue"":1,""num_good_moves"":6}","[409.57142857142856,416.47767857142856,2.5,409.57142857142856,416.47767857142856,104,409.57142857142856,416.47767857142856,210.5,409.57142857142856,416.47767857142856,317.2,409.57142857142856,416.47767857142856,420.9,409.57142857142856,416.47767857142856,527.5,409.57142857142856,416.47767857142856,630.6,409.57142857142856,416.47767857142856,730.8,409.57142857142856,416.47767857142856,832.4,409.57142857142856,416.47767857142856,935.4,409.57142857142856,416.47767857142856,1036.1,409.57142857142856,416.47767857142856,1136.2,409.57142857142856,416.47767857142856,1247,409.57142857142856,416.47767857142856,1357.8,409.57142857142856,416.47767857142856,1467.4,409.57142857142856,416.47767857142856,1572.6,409.57142857142856,416.47767857142856,1683,409.57142857142856,416.47767857142856,1783.8,409.57142857142856,416.47767857142856,1887,409.57142857142856,416.47767857142856,1997,409.57142857142856,416.47767857142856,2101.2,409.57142857142856,416.47767857142856,2202.3,409.57142857142856,416.47767857142856,2308.3,409.57142857142856,416.47767857142856,2415.3,409.57142857142856,416.47767857142856,2529.5,409.57142857142856,416.47767857142856,2632.9,409.57142857142856,416.47767857142856,2740,409.57142857142856,416.47767857142856,2840.9,409.57142857142856,416.47767857142856,2949.3,409.57142857142856,416.47767857142856,3051.5,409.57142857142856,416.47767857142856,3161.1,409.57142857142856,416.47767857142856,3266.2,409.57142857142856,416.47767857142856,3366.6,409.57142857142856,416.47767857142856,3471.8,409.57142857142856,416.47767857142856,3582.7,409.57142857142856,416.47767857142856,3693.5,409.57142857142856,416.47767857142856,3795.1,409.57142857142856,416.47767857142856,3907.8,409.57142857142856,416.47767857142856,4009.6,409.57142857142856,416.47767857142856,4115.8,409.57142857142856,416.47767857142856,4216.1,409.57142857142856,416.47767857142856,4316.7,409.57142857142856,416.47767857142856,4417.7,409.57142857142856,416.47767857142856,4519.7,409.57142857142856,416.47767857142856,4623.3,409.57142857142856,416.47767857142856,4723.4,409.57142857142856,416.47767857142856,4825.1,409.57142857142856,416.47767857142856,4928.9]","[2286.5,2286.5,1000,0,1286.5,""smooth"",""up"",""up"",""good_move"",5934.6,3645.3,2880.2,2289.3,765.1,""smooth"",""up"",""up"",""good_move"",12180.4,6244.6,2326.5,9278.2,575.7,""smooth"",""up"",""up"",""good_move"",15571.2,3388.5,2786.3,12182.7,602.2,""smooth"",""left"",""left"",""good_move"",17938.2,2365.7,1746,15572.5,619.7,""smooth"",""left"",""left"",""good_move"",20724,2784,2142.4,17940,641.7,""smooth"",""left"",""left"",""good_move""]"
"4581","","<div style=""width:500px;"">
  <p>What determined the result of this run?</p>
  </div>","93","html-slider-response","19","356303","0.0-7.0-1.1","138","1","2025-08-06 08:52:50","36c45c0696341be0efffe67d72a12abb","194.152.129.18","Mozilla/5.0 (Windows NT 10.0; Win64; x64) AppleWebKit/537.36 (KHTML, like Gecko) Chrome/131.0.0.0 Safari/537.36","WebKit","Chrome","131.0.0.0","Windows","10.0","https://app.prolific.com/","en-GB,en;q=0.9","677fb45dee7e90f416b55aea","6877649eabb845cf142cd221","689317cc459c19f19eaac51b","1","677fb45dee7e90f416b55aea","1","2025-08-06T08:58:49.217Z","","","","AttribQ","","","","","","","","","","","50","","","","","","","","","","","","","","","","","","","","","","","","","","",""
"5388","","<div style=""width:500px;"">
  <p>How much control did you have over the ball?</p>
  </div>","92","html-slider-response","20","361696","0.0-7.0-2.1","138","1","2025-08-06 08:52:50","36c45c0696341be0efffe67d72a12abb","194.152.129.18","Mozilla/5.0 (Windows NT 10.0; Win64; x64) AppleWebKit/537.36 (KHTML, like Gecko) Chrome/131.0.0.0 Safari/537.36","WebKit","Chrome","131.0.0.0","Windows","10.0","https://app.prolific.com/","en-GB,en;q=0.9","677fb45dee7e90f416b55aea","6877649eabb845cf142cd221","689317cc459c19f19eaac51b","1","677fb45dee7e90f416b55aea","1","2025-08-06T08:58:54.611Z","","","","ControlQ","","","","","","","","","","","50","","","","","","","","","","","","","","","","","","","","","","","","","","",""
"5242","","<div style=""width:500px;"">
  <p>How would you describe your current emotional state?</p>
  </div>","59","html-slider-response","21","366942","0.0-7.0-3.1","138","1","2025-08-06 08:52:50","36c45c0696341be0efffe67d72a12abb","194.152.129.18","Mozilla/5.0 (Windows NT 10.0; Win64; x64) AppleWebKit/537.36 (KHTML, like Gecko) Chrome/131.0.0.0 Safari/537.36","WebKit","Chrome","131.0.0.0","Windows","10.0","https://app.prolific.com/","en-GB,en;q=0.9","677fb45dee7e90f416b55aea","6877649eabb845cf142cd221","689317cc459c19f19eaac51b","1","677fb45dee7e90f416b55aea","1","2025-08-06T08:58:59.857Z","","","","StressQ","","","","","","","","","","","50","","","","","","","","","","","","","","","","","","","","","","","","","","",""
"6066","","<div style=""width:500px;"">
  <p>What best describes how you currently feel?</p>
  </div>","55","html-slider-response","22","373013","0.0-7.0-4.1","138","1","2025-08-06 08:52:50","36c45c0696341be0efffe67d72a12abb","194.152.129.18","Mozilla/5.0 (Windows NT 10.0; Win64; x64) AppleWebKit/537.36 (KHTML, like Gecko) Chrome/131.0.0.0 Safari/537.36","WebKit","Chrome","131.0.0.0","Windows","10.0","https://app.prolific.com/","en-GB,en;q=0.9","677fb45dee7e90f416b55aea","6877649eabb845cf142cd221","689317cc459c19f19eaac51b","1","677fb45dee7e90f416b55aea","1","2025-08-06T08:59:05.928Z","","","","MotivationQ","","","","","","","","","","","50","","","","","","","","","","","","","","","","","","","","","","","","","","",""
"","","","","ctl-task-cpt","23","413659","0.0-7.0-0.2","138","1","2025-08-06 08:52:50","36c45c0696341be0efffe67d72a12abb","194.152.129.18","Mozilla/5.0 (Windows NT 10.0; Win64; x64) AppleWebKit/537.36 (KHTML, like Gecko) Chrome/131.0.0.0 Safari/537.36","WebKit","Chrome","131.0.0.0","Windows","10.0","https://app.prolific.com/","en-GB,en;q=0.9","677fb45dee7e90f416b55aea","6877649eabb845cf142cd221","689317cc459c19f19eaac51b","1","677fb45dee7e90f416b55aea","1","2025-08-06T08:59:46.573Z","","","","","","","","","","","","","","","","win-only","1","g1:NE,g2:SW","0.8","3","0","377035.3","1636.2","6637.6","37622.5","1","4","8","6","2","-8","-8","4","12","0.030303030303030304","5001.3","3000","-2005","[""down"",""left""]","{""num_key_presses"":6,""num_perfect"":5,""num_errors"":0,""num_randdir"":1,""num_randdir_good_moves"":0,""num_whilered"":0,""num_whileblue"":0,""num_blue"":3,""num_good_moves"":5}","[421.57142857142856,414.47767857142856,0.9,421.57142857142856,414.47767857142856,100.5,421.57142857142856,414.47767857142856,203.8,421.57142857142856,414.47767857142856,305.8,421.57142857142856,414.47767857142856,407.8,421.57142857142856,414.47767857142856,523.6,421.57142857142856,414.47767857142856,629.1,421.57142857142856,414.47767857142856,732,421.57142857142856,414.47767857142856,832.4,421.57142857142856,414.47767857142856,940.6,421.57142857142856,414.47767857142856,1052.5,421.57142857142856,414.47767857142856,1168,421.57142857142856,414.47767857142856,1278.3,421.57142857142856,414.47767857142856,1387.9,421.57142857142856,414.47767857142856,1506.6,421.57142857142856,414.47767857142856,1608.6,421.57142857142856,414.47767857142856,1708.9,421.57142857142856,414.47767857142856,1809.4,421.57142857142856,414.47767857142856,1912.6,421.57142857142856,414.47767857142856,2013.8,421.57142857142856,414.47767857142856,2117.8,421.57142857142856,414.47767857142856,2222.7,421.57142857142856,414.47767857142856,2323.5,421.57142857142856,414.47767857142856,2428.8,421.57142857142856,414.47767857142856,2530.3,421.57142857142856,414.47767857142856,2638.4,421.57142857142856,414.47767857142856,2743.4,421.57142857142856,414.47767857142856,2843.9,421.57142857142856,414.47767857142856,2945.7,421.57142857142856,414.47767857142856,3048.2,421.57142857142856,414.47767857142856,3148.8,421.57142857142856,414.47767857142856,3258.9,421.57142857142856,414.47767857142856,3363.2,421.57142857142856,414.47767857142856,3475.5,421.57142857142856,414.47767857142856,3576.6,421.57142857142856,414.47767857142856,3688.8,421.57142857142856,414.47767857142856,3793.5,421.57142857142856,414.47767857142856,3897.9,421.57142857142856,414.47767857142856,4009.5,421.57142857142856,414.47767857142856,4115.6,421.57142857142856,414.47767857142856,4217.7,421.57142857142856,414.47767857142856,4328.9,421.57142857142856,414.47767857142856,4431.4,421.57142857142856,414.47767857142856,4531.9,421.57142857142856,414.47767857142856,4638.7,421.57142857142856,414.47767857142856,4744.7,421.57142857142856,414.47767857142856,4860.5,421.57142857142856,414.47767857142856,4968.1]","[2260.4,2260.4,1000,0,1260.5,""smooth"",""down"",""down"",""good_move"",5202.3,2940.4,2355.9,2262,584.5,""smooth"",""down"",""down"",""good_move"",11895.5,6691.6,2394.8,8944.6,556.1,""oops"",""down"",""right"",""bad_move"",15096.5,3198.3,2660.9,11898.2,537.4,""smooth"",""left"",""left"",""good_move"",18873.9,3773.6,3116.4,15100.3,657.3,""smooth"",""left"",""left"",""good_move"",28472,9597.1,2787.5,25192.1,492.4,""smooth"",""left"",""left"",""good_move""]"
"4565","","<div style=""width:500px;"">
  <p>What determined the result of this run?</p>
  </div>","55","html-slider-response","24","418230","0.0-7.0-1.2","138","1","2025-08-06 08:52:50","36c45c0696341be0efffe67d72a12abb","194.152.129.18","Mozilla/5.0 (Windows NT 10.0; Win64; x64) AppleWebKit/537.36 (KHTML, like Gecko) Chrome/131.0.0.0 Safari/537.36","WebKit","Chrome","131.0.0.0","Windows","10.0","https://app.prolific.com/","en-GB,en;q=0.9","677fb45dee7e90f416b55aea","6877649eabb845cf142cd221","689317cc459c19f19eaac51b","1","677fb45dee7e90f416b55aea","1","2025-08-06T08:59:51.145Z","","","","AttribQ","","","","","","","","","","","50","","","","","","","","","","","","","","","","","","","","","","","","","","",""
"3239","","<div style=""width:500px;"">
  <p>How much control did you have over the ball?</p>
  </div>","56","html-slider-response","25","421477","0.0-7.0-2.2","138","1","2025-08-06 08:52:50","36c45c0696341be0efffe67d72a12abb","194.152.129.18","Mozilla/5.0 (Windows NT 10.0; Win64; x64) AppleWebKit/537.36 (KHTML, like Gecko) Chrome/131.0.0.0 Safari/537.36","WebKit","Chrome","131.0.0.0","Windows","10.0","https://app.prolific.com/","en-GB,en;q=0.9","677fb45dee7e90f416b55aea","6877649eabb845cf142cd221","689317cc459c19f19eaac51b","1","677fb45dee7e90f416b55aea","1","2025-08-06T08:59:54.391Z","","","","ControlQ","","","","","","","","","","","50","","","","","","","","","","","","","","","","","","","","","","","","","","",""
"3411","","<div style=""width:500px;"">
  <p>How would you describe your current emotional state?</p>
  </div>","62","html-slider-response","26","424895","0.0-7.0-3.2","138","1","2025-08-06 08:52:50","36c45c0696341be0efffe67d72a12abb","194.152.129.18","Mozilla/5.0 (Windows NT 10.0; Win64; x64) AppleWebKit/537.36 (KHTML, like Gecko) Chrome/131.0.0.0 Safari/537.36","WebKit","Chrome","131.0.0.0","Windows","10.0","https://app.prolific.com/","en-GB,en;q=0.9","677fb45dee7e90f416b55aea","6877649eabb845cf142cd221","689317cc459c19f19eaac51b","1","677fb45dee7e90f416b55aea","1","2025-08-06T08:59:57.809Z","","","","StressQ","","","","","","","","","","","50","","","","","","","","","","","","","","","","","","","","","","","","","","",""
"3258","","<div style=""width:500px;"">
  <p>What best describes how you currently feel?</p>
  </div>","57","html-slider-response","27","428156","0.0-7.0-4.2","138","1","2025-08-06 08:52:50","36c45c0696341be0efffe67d72a12abb","194.152.129.18","Mozilla/5.0 (Windows NT 10.0; Win64; x64) AppleWebKit/537.36 (KHTML, like Gecko) Chrome/131.0.0.0 Safari/537.36","WebKit","Chrome","131.0.0.0","Windows","10.0","https://app.prolific.com/","en-GB,en;q=0.9","677fb45dee7e90f416b55aea","6877649eabb845cf142cd221","689317cc459c19f19eaac51b","1","677fb45dee7e90f416b55aea","1","2025-08-06T09:00:01.071Z","","","","MotivationQ","","","","","","","","","","","50","","","","","","","","","","","","","","","","","","","","","","","","","","",""
"","","","","ctl-task-cpt","28","465137","0.0-7.0-0.3","138","1","2025-08-06 08:52:50","36c45c0696341be0efffe67d72a12abb","194.152.129.18","Mozilla/5.0 (Windows NT 10.0; Win64; x64) AppleWebKit/537.36 (KHTML, like Gecko) Chrome/131.0.0.0 Safari/537.36","WebKit","Chrome","131.0.0.0","Windows","10.0","https://app.prolific.com/","en-GB,en;q=0.9","677fb45dee7e90f416b55aea","6877649eabb845cf142cd221","689317cc459c19f19eaac51b","1","677fb45dee7e90f416b55aea","1","2025-08-06T09:00:38.051Z","","","","","","","","","","","","","","","","win-only","1","g1:NE,g2:SW","0.7","4","0","432176.8","1464.8","6468.7","33960.4","1","4","4","6","1","1","1","5","4","0.03787878787878788","5003.8","3000","260","[""up"",""right""]","{""num_key_presses"":8,""num_perfect"":6,""num_errors"":0,""num_randdir"":2,""num_randdir_good_moves"":0,""num_whilered"":0,""num_whileblue"":0,""num_blue"":1,""num_good_moves"":6}","[415.57142857142856,412.47767857142856,0.5,415.57142857142856,412.47767857142856,104.3,415.57142857142856,412.47767857142856,208.2,415.57142857142856,412.47767857142856,310.9,415.57142857142856,412.47767857142856,414.8,415.57142857142856,412.47767857142856,520.3,415.57142857142856,412.47767857142856,623.3,415.57142857142856,412.47767857142856,736.3,415.57142857142856,412.47767857142856,854.4,415.57142857142856,412.47767857142856,957.9,415.57142857142856,412.47767857142856,1059.5,415.57142857142856,412.47767857142856,1169.3,415.57142857142856,412.47767857142856,1279.5,415.57142857142856,412.47767857142856,1379.5,415.57142857142856,412.47767857142856,1487.9,415.57142857142856,412.47767857142856,1599.1,415.57142857142856,412.47767857142856,1699.5,415.57142857142856,412.47767857142856,1804,415.57142857142856,412.47767857142856,1915,415.57142857142856,412.47767857142856,2016.3,415.57142857142856,412.47767857142856,2117.7,415.57142857142856,412.47767857142856,2226.4,415.57142857142856,412.47767857142856,2326.6,415.57142857142856,412.47767857142856,2426.6,415.57142857142856,412.47767857142856,2529,415.57142857142856,412.47767857142856,2635,415.57142857142856,412.47767857142856,2749.3,415.57142857142856,412.47767857142856,2863.9,415.57142857142856,412.47767857142856,2966.6,415.57142857142856,412.47767857142856,3079.6,415.57142857142856,412.47767857142856,3183.9,415.57142857142856,412.47767857142856,3295.5,415.57142857142856,412.47767857142856,3397.1,415.57142857142856,412.47767857142856,3512.9,415.57142857142856,412.47767857142856,3622.5,415.57142857142856,412.47767857142856,3724.3,415.57142857142856,412.47767857142856,3825.5,415.57142857142856,412.47767857142856,3926.4,415.57142857142856,412.47767857142856,4027.5,415.57142857142856,412.47767857142856,4132.6,415.57142857142856,412.47767857142856,4233.7,415.57142857142856,412.47767857142856,4341.4,415.57142857142856,412.47767857142856,4446.2,415.57142857142856,412.47767857142856,4546.4,415.57142857142856,412.47767857142856,4654.1,415.57142857142856,412.47767857142856,4757.9,415.57142857142856,412.47767857142856,4863.3,415.57142857142856,412.47767857142856,4973.8]","[1560.6,1560.6,1000,0,560.6,""smooth"",""up"",""up"",""good_move"",4883.7,3321.9,2669.7,1561.9,652.2,""oops"",""up"",""left"",""bad_move"",8432.5,3547.3,3027.4,4885.2,519.9,""smooth"",""up"",""up"",""good_move"",11854.3,3419.8,2974.1,8434.5,445.7,""oops"",""right"",""left"",""bad_move"",18291.8,6436.3,2563.6,15189.8,538.4,""smooth"",""right"",""right"",""good_move"",21152,2858.6,2310.8,18293.4,547.8,""smooth"",""right"",""right"",""good_move"",24291.9,3139,2598.5,21152.9,540.5,""smooth"",""right"",""right"",""good_move"",27358.1,3065.1,2617.5,24293.1,447.6,""smooth"",""right"",""right"",""good_move""]"
"5838","","<div style=""width:500px;"">
  <p>What determined the result of this run?</p>
  </div>","65","html-slider-response","29","470977","0.0-7.0-1.3","138","1","2025-08-06 08:52:50","36c45c0696341be0efffe67d72a12abb","194.152.129.18","Mozilla/5.0 (Windows NT 10.0; Win64; x64) AppleWebKit/537.36 (KHTML, like Gecko) Chrome/131.0.0.0 Safari/537.36","WebKit","Chrome","131.0.0.0","Windows","10.0","https://app.prolific.com/","en-GB,en;q=0.9","677fb45dee7e90f416b55aea","6877649eabb845cf142cd221","689317cc459c19f19eaac51b","1","677fb45dee7e90f416b55aea","1","2025-08-06T09:00:43.891Z","","","","AttribQ","","","","","","","","","","","50","","","","","","","","","","","","","","","","","","","","","","","","","","",""
"2778","","<div style=""width:500px;"">
  <p>How much control did you have over the ball?</p>
  </div>","69","html-slider-response","30","473758","0.0-7.0-2.3","138","1","2025-08-06 08:52:50","36c45c0696341be0efffe67d72a12abb","194.152.129.18","Mozilla/5.0 (Windows NT 10.0; Win64; x64) AppleWebKit/537.36 (KHTML, like Gecko) Chrome/131.0.0.0 Safari/537.36","WebKit","Chrome","131.0.0.0","Windows","10.0","https://app.prolific.com/","en-GB,en;q=0.9","677fb45dee7e90f416b55aea","6877649eabb845cf142cd221","689317cc459c19f19eaac51b","1","677fb45dee7e90f416b55aea","1","2025-08-06T09:00:46.672Z","","","","ControlQ","","","","","","","","","","","50","","","","","","","","","","","","","","","","","","","","","","","","","","",""
"2774","","<div style=""width:500px;"">
  <p>How would you describe your current emotional state?</p>
  </div>","70","html-slider-response","31","476536","0.0-7.0-3.3","138","1","2025-08-06 08:52:50","36c45c0696341be0efffe67d72a12abb","194.152.129.18","Mozilla/5.0 (Windows NT 10.0; Win64; x64) AppleWebKit/537.36 (KHTML, like Gecko) Chrome/131.0.0.0 Safari/537.36","WebKit","Chrome","131.0.0.0","Windows","10.0","https://app.prolific.com/","en-GB,en;q=0.9","677fb45dee7e90f416b55aea","6877649eabb845cf142cd221","689317cc459c19f19eaac51b","1","677fb45dee7e90f416b55aea","1","2025-08-06T09:00:49.450Z","","","","StressQ","","","","","","","","","","","50","","","","","","","","","","","","","","","","","","","","","","","","","","",""
"3152","","<div style=""width:500px;"">
  <p>What best describes how you currently feel?</p>
  </div>","74","html-slider-response","32","479691","0.0-7.0-4.3","138","1","2025-08-06 08:52:50","36c45c0696341be0efffe67d72a12abb","194.152.129.18","Mozilla/5.0 (Windows NT 10.0; Win64; x64) AppleWebKit/537.36 (KHTML, like Gecko) Chrome/131.0.0.0 Safari/537.36","WebKit","Chrome","131.0.0.0","Windows","10.0","https://app.prolific.com/","en-GB,en;q=0.9","677fb45dee7e90f416b55aea","6877649eabb845cf142cd221","689317cc459c19f19eaac51b","1","677fb45dee7e90f416b55aea","1","2025-08-06T09:00:52.605Z","","","","MotivationQ","","","","","","","","","","","50","","","","","","","","","","","","","","","","","","","","","","","","","","",""
"","","","","ctl-task-cpt","33","516001","0.0-7.0-0.4","138","1","2025-08-06 08:52:50","36c45c0696341be0efffe67d72a12abb","194.152.129.18","Mozilla/5.0 (Windows NT 10.0; Win64; x64) AppleWebKit/537.36 (KHTML, like Gecko) Chrome/131.0.0.0 Safari/537.36","WebKit","Chrome","131.0.0.0","Windows","10.0","https://app.prolific.com/","en-GB,en;q=0.9","677fb45dee7e90f416b55aea","6877649eabb845cf142cd221","689317cc459c19f19eaac51b","1","677fb45dee7e90f416b55aea","1","2025-08-06T09:01:28.916Z","","","","","","","","","","","","","","","","win-only","3","g1:SW,g2:NE","0.6","5","0","483704.8","1845","6850.4","33278.1","1","4","4","6","1","1","1","6","5","0.045454545454545456","5005.4","3000","520","[""down"",""left""]","{""num_key_presses"":6,""num_perfect"":5,""num_errors"":0,""num_randdir"":1,""num_randdir_good_moves"":0,""num_whilered"":0,""num_whileblue"":0,""num_blue"":3,""num_good_moves"":5}","[411.57142857142856,419.47767857142856,1,411.57142857142856,419.47767857142856,103.8,411.57142857142856,419.47767857142856,215,411.57142857142856,419.47767857142856,321.4,411.57142857142856,419.47767857142856,432.6,411.57142857142856,419.47767857142856,534.7,411.57142857142856,419.47767857142856,635,411.57142857142856,419.47767857142856,736.8,411.57142857142856,419.47767857142856,843.9,411.57142857142856,419.47767857142856,948.3,411.57142857142856,419.47767857142856,1057.4,411.57142857142856,419.47767857142856,1162.2,411.57142857142856,419.47767857142856,1269.3,411.57142857142856,419.47767857142856,1381.7,411.57142857142856,419.47767857142856,1489,411.57142857142856,419.47767857142856,1602.7,411.57142857142856,419.47767857142856,1703.8,411.57142857142856,419.47767857142856,1822.6,411.57142857142856,419.47767857142856,1926.1,411.57142857142856,419.47767857142856,2027,411.57142857142856,419.47767857142856,2134.1,411.57142857142856,419.47767857142856,2257.4,411.57142857142856,419.47767857142856,2359.9,411.57142857142856,419.47767857142856,2474.1,411.57142857142856,419.47767857142856,2591.9,411.57142857142856,419.47767857142856,2694.4,411.57142857142856,419.47767857142856,2805.6,411.57142857142856,419.47767857142856,2926.1,411.57142857142856,419.47767857142856,3036.4,411.57142857142856,419.47767857142856,3142.3,411.57142857142856,419.47767857142856,3247.7,411.57142857142856,419.47767857142856,3349.5,411.57142857142856,419.47767857142856,3454.5,411.57142857142856,419.47767857142856,3555.3,411.57142857142856,419.47767857142856,3661,411.57142857142856,419.47767857142856,3765,411.57142857142856,419.47767857142856,3865.1,411.57142857142856,419.47767857142856,3972.8,411.57142857142856,419.47767857142856,4077.4,411.57142857142856,419.47767857142856,4183.7,411.57142857142856,419.47767857142856,4286.1,411.57142857142856,419.47767857142856,4393.2,411.57142857142856,419.47767857142856,4500.8,411.57142857142856,419.47767857142856,4603.8,411.57142857142856,419.47767857142856,4708.3,411.57142857142856,419.47767857142856,4817.4,411.57142857142856,419.47767857142856,4925.7]","[5271,5271,2456.5,2006.2,808.4,""oops"",""left"",""right"",""bad_move"",11555.2,6282.5,2745,8239.9,570.4,""smooth"",""down"",""down"",""good_move"",18189.2,6632.4,2305.9,15209.7,673.7,""smooth"",""down"",""down"",""good_move"",20981.8,2791.5,2025.9,18190.3,765.6,""smooth"",""left"",""left"",""good_move"",24129.6,3145,2521.1,20984.6,623.9,""smooth"",""left"",""left"",""good_move"",26280.5,2149.8,1609.3,24130.7,540.5,""smooth"",""left"",""left"",""good_move""]"
"4778","","<div style=""width:500px;"">
  <p>What determined the result of this run?</p>
  </div>","81","html-slider-response","34","520781","0.0-7.0-1.4","138","1","2025-08-06 08:52:50","36c45c0696341be0efffe67d72a12abb","194.152.129.18","Mozilla/5.0 (Windows NT 10.0; Win64; x64) AppleWebKit/537.36 (KHTML, like Gecko) Chrome/131.0.0.0 Safari/537.36","WebKit","Chrome","131.0.0.0","Windows","10.0","https://app.prolific.com/","en-GB,en;q=0.9","677fb45dee7e90f416b55aea","6877649eabb845cf142cd221","689317cc459c19f19eaac51b","1","677fb45dee7e90f416b55aea","1","2025-08-06T09:01:33.696Z","","","","AttribQ","","","","","","","","","","","50","","","","","","","","","","","","","","","","","","","","","","","","","","",""
"3494","","<div style=""width:500px;"">
  <p>How much control did you have over the ball?</p>
  </div>","79","html-slider-response","35","524280","0.0-7.0-2.4","138","1","2025-08-06 08:52:50","36c45c0696341be0efffe67d72a12abb","194.152.129.18","Mozilla/5.0 (Windows NT 10.0; Win64; x64) AppleWebKit/537.36 (KHTML, like Gecko) Chrome/131.0.0.0 Safari/537.36","WebKit","Chrome","131.0.0.0","Windows","10.0","https://app.prolific.com/","en-GB,en;q=0.9","677fb45dee7e90f416b55aea","6877649eabb845cf142cd221","689317cc459c19f19eaac51b","1","677fb45dee7e90f416b55aea","1","2025-08-06T09:01:37.195Z","","","","ControlQ","","","","","","","","","","","50","","","","","","","","","","","","","","","","","","","","","","","","","","",""
"3550","","<div style=""width:500px;"">
  <p>How would you describe your current emotional state?</p>
  </div>","74","html-slider-response","36","527833","0.0-7.0-3.4","138","1","2025-08-06 08:52:50","36c45c0696341be0efffe67d72a12abb","194.152.129.18","Mozilla/5.0 (Windows NT 10.0; Win64; x64) AppleWebKit/537.36 (KHTML, like Gecko) Chrome/131.0.0.0 Safari/537.36","WebKit","Chrome","131.0.0.0","Windows","10.0","https://app.prolific.com/","en-GB,en;q=0.9","677fb45dee7e90f416b55aea","6877649eabb845cf142cd221","689317cc459c19f19eaac51b","1","677fb45dee7e90f416b55aea","1","2025-08-06T09:01:40.747Z","","","","StressQ","","","","","","","","","","","50","","","","","","","","","","","","","","","","","","","","","","","","","","",""
"3061","","<div style=""width:500px;"">
  <p>What best describes how you currently feel?</p>
  </div>","76","html-slider-response","37","530897","0.0-7.0-4.4","138","1","2025-08-06 08:52:50","36c45c0696341be0efffe67d72a12abb","194.152.129.18","Mozilla/5.0 (Windows NT 10.0; Win64; x64) AppleWebKit/537.36 (KHTML, like Gecko) Chrome/131.0.0.0 Safari/537.36","WebKit","Chrome","131.0.0.0","Windows","10.0","https://app.prolific.com/","en-GB,en;q=0.9","677fb45dee7e90f416b55aea","6877649eabb845cf142cd221","689317cc459c19f19eaac51b","1","677fb45dee7e90f416b55aea","1","2025-08-06T09:01:43.811Z","","","","MotivationQ","","","","","","","","","","","50","","","","","","","","","","","","","","","","","","","","","","","","","","",""
"","","","","ctl-task-cpt","38","566614","0.0-7.0-0.5","138","1","2025-08-06 08:52:50","36c45c0696341be0efffe67d72a12abb","194.152.129.18","Mozilla/5.0 (Windows NT 10.0; Win64; x64) AppleWebKit/537.36 (KHTML, like Gecko) Chrome/131.0.0.0 Safari/537.36","WebKit","Chrome","131.0.0.0","Windows","10.0","https://app.prolific.com/","en-GB,en;q=0.9","677fb45dee7e90f416b55aea","6877649eabb845cf142cd221","689317cc459c19f19eaac51b","1","677fb45dee7e90f416b55aea","1","2025-08-06T09:02:19.528Z","","","","","","","","","","","","","","","","win-only","0","g1:NW,g2:SE","0.5","6","0","534911.9","1547.6","6559.3","32693.3","1","4","8","6","2","-8","-8","0","6","0","5011.7","3000","-1845","[""down"",""right""]","{""num_key_presses"":6,""num_perfect"":2,""num_errors"":0,""num_randdir"":4,""num_randdir_good_moves"":2,""num_whilered"":0,""num_whileblue"":0,""num_blue"":2,""num_good_moves"":4}","[412.57142857142856,417.47767857142856,1.1,412.57142857142856,417.47767857142856,101.6,412.57142857142856,417.47767857142856,207.9,412.57142857142856,417.47767857142856,311.8,412.57142857142856,417.47767857142856,413.8,412.57142857142856,417.47767857142856,519.3,412.57142857142856,417.47767857142856,632.9,412.57142857142856,417.47767857142856,733.3,412.57142857142856,417.47767857142856,839.1,412.57142857142856,417.47767857142856,944.8,412.57142857142856,417.47767857142856,1053,412.57142857142856,417.47767857142856,1159.7,412.57142857142856,417.47767857142856,1270.7,412.57142857142856,417.47767857142856,1373.9,412.57142857142856,417.47767857142856,1476.2,412.57142857142856,417.47767857142856,1578.7,412.57142857142856,417.47767857142856,1682.5,412.57142857142856,417.47767857142856,1793.8,412.57142857142856,417.47767857142856,1907.9,412.57142857142856,417.47767857142856,2012.1,412.57142857142856,417.47767857142856,2116.2,412.57142857142856,417.47767857142856,2226.8,412.57142857142856,417.47767857142856,2330.2,412.57142857142856,417.47767857142856,2430.5,412.57142857142856,417.47767857142856,2532.6,412.57142857142856,417.47767857142856,2639.6,412.57142857142856,417.47767857142856,2747.3,412.57142857142856,417.47767857142856,2859.3,412.57142857142856,417.47767857142856,2964.1,412.57142857142856,417.47767857142856,3065.2,412.57142857142856,417.47767857142856,3166.7,412.57142857142856,417.47767857142856,3268.7,412.57142857142856,417.47767857142856,3371.1,412.57142857142856,417.47767857142856,3472.2,412.57142857142856,417.47767857142856,3587.5,412.57142857142856,417.47767857142856,3700.9,412.57142857142856,417.47767857142856,3801.6,412.57142857142856,417.47767857142856,3909.1,412.57142857142856,417.47767857142856,4015.4,412.57142857142856,417.47767857142856,4128.9,412.57142857142856,417.47767857142856,4232.3,412.57142857142856,417.47767857142856,4344.8,412.57142857142856,417.47767857142856,4447.4,412.57142857142856,417.47767857142856,4552.6,412.57142857142856,417.47767857142856,4656.3,412.57142857142856,417.47767857142856,4764.3,412.57142857142856,417.47767857142856,4874.2,412.57142857142856,417.47767857142856,4976]","[2087.9,2088,1000,0,1088,""smooth"",""right"",""right"",""good_move"",5864.4,3775.3,2238.3,2089.1,1537,""oops"",""right"",""right"",""good_move"",8557.8,2691.5,2212.4,5866.3,479.1,""oops"",""right"",""left"",""bad_move"",10973.9,2414.2,1952,8559.7,462.2,""oops"",""down"",""left"",""bad_move"",12808.5,1832.4,1388.5,10976.1,443.9,""oops"",""right"",""right"",""good_move"",16058.2,3249.2,2847.3,12809,402,""smooth"",""down"",""down"",""good_move""]"
"4855","","<div style=""width:500px;"">
  <p>What determined the result of this run?</p>
  </div>","59","html-slider-response","39","571472","0.0-7.0-1.5","138","1","2025-08-06 08:52:50","36c45c0696341be0efffe67d72a12abb","194.152.129.18","Mozilla/5.0 (Windows NT 10.0; Win64; x64) AppleWebKit/537.36 (KHTML, like Gecko) Chrome/131.0.0.0 Safari/537.36","WebKit","Chrome","131.0.0.0","Windows","10.0","https://app.prolific.com/","en-GB,en;q=0.9","677fb45dee7e90f416b55aea","6877649eabb845cf142cd221","689317cc459c19f19eaac51b","1","677fb45dee7e90f416b55aea","1","2025-08-06T09:02:24.386Z","","","","AttribQ","","","","","","","","","","","50","","","","","","","","","","","","","","","","","","","","","","","","","","",""
"4006","","<div style=""width:500px;"">
  <p>How much control did you have over the ball?</p>
  </div>","18","html-slider-response","40","575480","0.0-7.0-2.5","138","1","2025-08-06 08:52:50","36c45c0696341be0efffe67d72a12abb","194.152.129.18","Mozilla/5.0 (Windows NT 10.0; Win64; x64) AppleWebKit/537.36 (KHTML, like Gecko) Chrome/131.0.0.0 Safari/537.36","WebKit","Chrome","131.0.0.0","Windows","10.0","https://app.prolific.com/","en-GB,en;q=0.9","677fb45dee7e90f416b55aea","6877649eabb845cf142cd221","689317cc459c19f19eaac51b","1","677fb45dee7e90f416b55aea","1","2025-08-06T09:02:28.394Z","","","","ControlQ","","","","","","","","","","","50","","","","","","","","","","","","","","","","","","","","","","","","","","",""
"3240","","<div style=""width:500px;"">
  <p>How would you describe your current emotional state?</p>
  </div>","56","html-slider-response","41","578723","0.0-7.0-3.5","138","1","2025-08-06 08:52:50","36c45c0696341be0efffe67d72a12abb","194.152.129.18","Mozilla/5.0 (Windows NT 10.0; Win64; x64) AppleWebKit/537.36 (KHTML, like Gecko) Chrome/131.0.0.0 Safari/537.36","WebKit","Chrome","131.0.0.0","Windows","10.0","https://app.prolific.com/","en-GB,en;q=0.9","677fb45dee7e90f416b55aea","6877649eabb845cf142cd221","689317cc459c19f19eaac51b","1","677fb45dee7e90f416b55aea","1","2025-08-06T09:02:31.638Z","","","","StressQ","","","","","","","","","","","50","","","","","","","","","","","","","","","","","","","","","","","","","","",""
"3725","","<div style=""width:500px;"">
  <p>What best describes how you currently feel?</p>
  </div>","57","html-slider-response","42","582452","0.0-7.0-4.5","138","1","2025-08-06 08:52:50","36c45c0696341be0efffe67d72a12abb","194.152.129.18","Mozilla/5.0 (Windows NT 10.0; Win64; x64) AppleWebKit/537.36 (KHTML, like Gecko) Chrome/131.0.0.0 Safari/537.36","WebKit","Chrome","131.0.0.0","Windows","10.0","https://app.prolific.com/","en-GB,en;q=0.9","677fb45dee7e90f416b55aea","6877649eabb845cf142cd221","689317cc459c19f19eaac51b","1","677fb45dee7e90f416b55aea","1","2025-08-06T09:02:35.366Z","","","","MotivationQ","","","","","","","","","","","50","","","","","","","","","","","","","","","","","","","","","","","","","","",""
"","","","","ctl-task-cpt","43","620016","0.0-7.0-0.6","138","1","2025-08-06 08:52:50","36c45c0696341be0efffe67d72a12abb","194.152.129.18","Mozilla/5.0 (Windows NT 10.0; Win64; x64) AppleWebKit/537.36 (KHTML, like Gecko) Chrome/131.0.0.0 Safari/537.36","WebKit","Chrome","131.0.0.0","Windows","10.0","https://app.prolific.com/","en-GB,en;q=0.9","677fb45dee7e90f416b55aea","6877649eabb845cf142cd221","689317cc459c19f19eaac51b","1","677fb45dee7e90f416b55aea","1","2025-08-06T09:03:12.931Z","","","","","","","","","","","","","","","","win-only","3","g1:SW,g2:NE","0.4","7","0","586463.4","1616.6","6620.9","34551.3","1","4","8","6","2","-8","-8","0","0","0","5004.3","3000","-1670","[""up"",""right""]","{""num_key_presses"":6,""num_perfect"":2,""num_errors"":0,""num_randdir"":4,""num_randdir_good_moves"":3,""num_whilered"":0,""num_whileblue"":0,""num_blue"":2,""num_good_moves"":5}","[413.57142857142856,414.47767857142856,0.8,413.57142857142856,414.47767857142856,103.5,413.57142857142856,414.47767857142856,207,413.57142857142856,414.47767857142856,307.8,413.57142857142856,414.47767857142856,407.8,413.57142857142856,414.47767857142856,512.9,413.57142857142856,414.47767857142856,626.9,413.57142857142856,414.47767857142856,742.1,413.57142857142856,414.47767857142856,854,413.57142857142856,414.47767857142856,971.8,413.57142857142856,414.47767857142856,1072.3,413.57142857142856,414.47767857142856,1174,413.57142857142856,414.47767857142856,1279.1,413.57142857142856,414.47767857142856,1386.9,413.57142857142856,414.47767857142856,1489.5,413.57142857142856,414.47767857142856,1597,413.57142857142856,414.47767857142856,1699.4,413.57142857142856,414.47767857142856,1811,413.57142857142856,414.47767857142856,1913.6,413.57142857142856,414.47767857142856,2014.3,413.57142857142856,414.47767857142856,2115.3,413.57142857142856,414.47767857142856,2224.1,413.57142857142856,414.47767857142856,2324.5,413.57142857142856,414.47767857142856,2427.1,413.57142857142856,414.47767857142856,2528.5,413.57142857142856,414.47767857142856,2635.3,413.57142857142856,414.47767857142856,2742.6,413.57142857142856,414.47767857142856,2847.6,413.57142857142856,414.47767857142856,2951.7,413.57142857142856,414.47767857142856,3057.2,413.57142857142856,414.47767857142856,3162.3,413.57142857142856,414.47767857142856,3266.4,413.57142857142856,414.47767857142856,3367.3,413.57142857142856,414.47767857142856,3474.5,413.57142857142856,414.47767857142856,3577.7,413.57142857142856,414.47767857142856,3684.8,413.57142857142856,414.47767857142856,3794.1,413.57142857142856,414.47767857142856,3906.4,413.57142857142856,414.47767857142856,4011.2,413.57142857142856,414.47767857142856,4113.2,413.57142857142856,414.47767857142856,4225.8,413.57142857142856,414.47767857142856,4331.3,413.57142857142856,414.47767857142856,4437.4,413.57142857142856,414.47767857142856,4540.9,413.57142857142856,414.47767857142856,4653.1,413.57142857142856,414.47767857142856,4756.1,413.57142857142856,414.47767857142856,4856.7,413.57142857142856,414.47767857142856,4973.3]","[2102.5,2102.5,1000,0,1102.5,""oops"",""up"",""down"",""bad_move"",12371.9,10268,2451.2,9325.7,595,""oops"",""right"",""right"",""good_move"",16537.5,4164.6,2775.3,12372.9,1389.3,""smooth"",""right"",""right"",""good_move"",19206.1,2668.1,1804.7,16538.1,863.4,""smooth"",""right"",""right"",""good_move"",22247.9,3040.7,2526.7,19207.2,514,""oops"",""up"",""up"",""good_move"",25294.9,3045.5,2584.2,22249.5,461.3,""oops"",""up"",""up"",""good_move""]"
"4273","","<div style=""width:500px;"">
  <p>What determined the result of this run?</p>
  </div>","49","html-slider-response","44","624291","0.0-7.0-1.6","138","1","2025-08-06 08:52:50","36c45c0696341be0efffe67d72a12abb","194.152.129.18","Mozilla/5.0 (Windows NT 10.0; Win64; x64) AppleWebKit/537.36 (KHTML, like Gecko) Chrome/131.0.0.0 Safari/537.36","WebKit","Chrome","131.0.0.0","Windows","10.0","https://app.prolific.com/","en-GB,en;q=0.9","677fb45dee7e90f416b55aea","6877649eabb845cf142cd221","689317cc459c19f19eaac51b","1","677fb45dee7e90f416b55aea","1","2025-08-06T09:03:17.205Z","","","","AttribQ","","","","","","","","","","","50","","","","","","","","","","","","","","","","","","","","","","","","","","",""
"4022","","<div style=""width:500px;"">
  <p>How much control did you have over the ball?</p>
  </div>","29","html-slider-response","45","628317","0.0-7.0-2.6","138","1","2025-08-06 08:52:50","36c45c0696341be0efffe67d72a12abb","194.152.129.18","Mozilla/5.0 (Windows NT 10.0; Win64; x64) AppleWebKit/537.36 (KHTML, like Gecko) Chrome/131.0.0.0 Safari/537.36","WebKit","Chrome","131.0.0.0","Windows","10.0","https://app.prolific.com/","en-GB,en;q=0.9","677fb45dee7e90f416b55aea","6877649eabb845cf142cd221","689317cc459c19f19eaac51b","1","677fb45dee7e90f416b55aea","1","2025-08-06T09:03:21.231Z","","","","ControlQ","","","","","","","","","","","50","","","","","","","","","","","","","","","","","","","","","","","","","","",""
"3283","","<div style=""width:500px;"">
  <p>How would you describe your current emotional state?</p>
  </div>","53","html-slider-response","46","631603","0.0-7.0-3.6","138","1","2025-08-06 08:52:50","36c45c0696341be0efffe67d72a12abb","194.152.129.18","Mozilla/5.0 (Windows NT 10.0; Win64; x64) AppleWebKit/537.36 (KHTML, like Gecko) Chrome/131.0.0.0 Safari/537.36","WebKit","Chrome","131.0.0.0","Windows","10.0","https://app.prolific.com/","en-GB,en;q=0.9","677fb45dee7e90f416b55aea","6877649eabb845cf142cd221","689317cc459c19f19eaac51b","1","677fb45dee7e90f416b55aea","1","2025-08-06T09:03:24.517Z","","","","StressQ","","","","","","","","","","","50","","","","","","","","","","","","","","","","","","","","","","","","","","",""
"5980","","<div style=""width:500px;"">
  <p>What best describes how you currently feel?</p>
  </div>","54","html-slider-response","47","637588","0.0-7.0-4.6","138","1","2025-08-06 08:52:50","36c45c0696341be0efffe67d72a12abb","194.152.129.18","Mozilla/5.0 (Windows NT 10.0; Win64; x64) AppleWebKit/537.36 (KHTML, like Gecko) Chrome/131.0.0.0 Safari/537.36","WebKit","Chrome","131.0.0.0","Windows","10.0","https://app.prolific.com/","en-GB,en;q=0.9","677fb45dee7e90f416b55aea","6877649eabb845cf142cd221","689317cc459c19f19eaac51b","1","677fb45dee7e90f416b55aea","1","2025-08-06T09:03:30.503Z","","","","MotivationQ","","","","","","","","","","","50","","","","","","","","","","","","","","","","","","","","","","","","","","",""
"","","","","ctl-task-cpt","48","668924","0.0-7.0-0.7","138","1","2025-08-06 08:52:50","36c45c0696341be0efffe67d72a12abb","194.152.129.18","Mozilla/5.0 (Windows NT 10.0; Win64; x64) AppleWebKit/537.36 (KHTML, like Gecko) Chrome/131.0.0.0 Safari/537.36","WebKit","Chrome","131.0.0.0","Windows","10.0","https://app.prolific.com/","en-GB,en;q=0.9","677fb45dee7e90f416b55aea","6877649eabb845cf142cd221","689317cc459c19f19eaac51b","1","677fb45dee7e90f416b55aea","1","2025-08-06T09:04:01.838Z","","","","","","","","","","","","","","","","win-only","2","g1:SE,g2:NW","0.3","8","0","641600.5","1641.8","6645.4","28305","1","4","4","6","1","1","1","1","0","0.007575757575757576","5003.6","3000","825","[""down"",""right""]","{""num_key_presses"":6,""num_perfect"":3,""num_errors"":0,""num_randdir"":3,""num_randdir_good_moves"":2,""num_whilered"":0,""num_whileblue"":0,""num_blue"":1,""num_good_moves"":5}","[411.57142857142856,423.47767857142856,1.1,411.57142857142856,423.47767857142856,102.8,411.57142857142856,423.47767857142856,205.1,411.57142857142856,423.47767857142856,314.2,411.57142857142856,423.47767857142856,417.1,411.57142857142856,423.47767857142856,525.4,411.57142857142856,423.47767857142856,627.2,411.57142857142856,423.47767857142856,729.4,411.57142857142856,423.47767857142856,831.7,411.57142857142856,423.47767857142856,935,411.57142857142856,423.47767857142856,1036.5,411.57142857142856,423.47767857142856,1141.5,411.57142857142856,423.47767857142856,1249.1,411.57142857142856,423.47767857142856,1352.2,411.57142857142856,423.47767857142856,1459.3,411.57142857142856,423.47767857142856,1559.5,411.57142857142856,423.47767857142856,1666.5,411.57142857142856,423.47767857142856,1773.3,411.57142857142856,423.47767857142856,1875.9,411.57142857142856,423.47767857142856,1984.6,411.57142857142856,423.47767857142856,2088.4,411.57142857142856,423.47767857142856,2189,411.57142857142856,423.47767857142856,2295.2,411.57142857142856,423.47767857142856,2400.5,411.57142857142856,423.47767857142856,2502.6,411.57142857142856,423.47767857142856,2608.9,411.57142857142856,423.47767857142856,2711.8,411.57142857142856,423.47767857142856,2817.3,411.57142857142856,423.47767857142856,2921,411.57142857142856,423.47767857142856,3029.6,411.57142857142856,423.47767857142856,3130.1,411.57142857142856,423.47767857142856,3234.9,411.57142857142856,423.47767857142856,3339.2,411.57142857142856,423.47767857142856,3440.3,411.57142857142856,423.47767857142856,3548.7,411.57142857142856,423.47767857142856,3650.5,411.57142857142856,423.47767857142856,3750.7,411.57142857142856,423.47767857142856,3853.3,411.57142857142856,423.47767857142856,3953.3,411.57142857142856,423.47767857142856,4056.9,411.57142857142856,423.47767857142856,4171,411.57142857142856,423.47767857142856,4271.2,411.57142857142856,423.47767857142856,4378.4,411.57142857142856,423.47767857142856,4482.2,411.57142857142856,423.47767857142856,4597.4,411.57142857142856,423.47767857142856,4698.3,411.57142857142856,423.47767857142856,4798.3,411.57142857142856,423.47767857142856,4903.7]","[2460.9,2460.9,1000,0,1460.9,""smooth"",""right"",""right"",""good_move"",5778,3316.4,2833.7,2461.7,482.7,""oops"",""down"",""up"",""bad_move"",8687.2,2906.2,2461.3,5781.2,444.8,""smooth"",""right"",""right"",""good_move"",11905.4,3217.8,2689.7,8687.6,528.1,""smooth"",""down"",""down"",""good_move"",18143.8,6236.7,2296.4,15337.4,510,""oops"",""down"",""down"",""good_move"",21465.4,3320.8,2818.1,18144.7,502.7,""oops"",""down"",""down"",""good_move""]"
"4145","","<div style=""width:500px;"">
  <p>What determined the result of this run?</p>
  </div>","63","html-slider-response","49","673073","0.0-7.0-1.7","138","1","2025-08-06 08:52:50","36c45c0696341be0efffe67d72a12abb","194.152.129.18","Mozilla/5.0 (Windows NT 10.0; Win64; x64) AppleWebKit/537.36 (KHTML, like Gecko) Chrome/131.0.0.0 Safari/537.36","WebKit","Chrome","131.0.0.0","Windows","10.0","https://app.prolific.com/","en-GB,en;q=0.9","677fb45dee7e90f416b55aea","6877649eabb845cf142cd221","689317cc459c19f19eaac51b","1","677fb45dee7e90f416b55aea","1","2025-08-06T09:04:05.987Z","","","","AttribQ","","","","","","","","","","","50","","","","","","","","","","","","","","","","","","","","","","","","","","",""
"3821","","<div style=""width:500px;"">
  <p>How much control did you have over the ball?</p>
  </div>","64","html-slider-response","50","676898","0.0-7.0-2.7","138","1","2025-08-06 08:52:50","36c45c0696341be0efffe67d72a12abb","194.152.129.18","Mozilla/5.0 (Windows NT 10.0; Win64; x64) AppleWebKit/537.36 (KHTML, like Gecko) Chrome/131.0.0.0 Safari/537.36","WebKit","Chrome","131.0.0.0","Windows","10.0","https://app.prolific.com/","en-GB,en;q=0.9","677fb45dee7e90f416b55aea","6877649eabb845cf142cd221","689317cc459c19f19eaac51b","1","677fb45dee7e90f416b55aea","1","2025-08-06T09:04:09.812Z","","","","ControlQ","","","","","","","","","","","50","","","","","","","","","","","","","","","","","","","","","","","","","","",""
"3424","","<div style=""width:500px;"">
  <p>How would you describe your current emotional state?</p>
  </div>","66","html-slider-response","51","680325","0.0-7.0-3.7","138","1","2025-08-06 08:52:50","36c45c0696341be0efffe67d72a12abb","194.152.129.18","Mozilla/5.0 (Windows NT 10.0; Win64; x64) AppleWebKit/537.36 (KHTML, like Gecko) Chrome/131.0.0.0 Safari/537.36","WebKit","Chrome","131.0.0.0","Windows","10.0","https://app.prolific.com/","en-GB,en;q=0.9","677fb45dee7e90f416b55aea","6877649eabb845cf142cd221","689317cc459c19f19eaac51b","1","677fb45dee7e90f416b55aea","1","2025-08-06T09:04:13.239Z","","","","StressQ","","","","","","","","","","","50","","","","","","","","","","","","","","","","","","","","","","","","","","",""
"3302","","<div style=""width:500px;"">
  <p>What best describes how you currently feel?</p>
  </div>","67","html-slider-response","52","683629","0.0-7.0-4.7","138","1","2025-08-06 08:52:50","36c45c0696341be0efffe67d72a12abb","194.152.129.18","Mozilla/5.0 (Windows NT 10.0; Win64; x64) AppleWebKit/537.36 (KHTML, like Gecko) Chrome/131.0.0.0 Safari/537.36","WebKit","Chrome","131.0.0.0","Windows","10.0","https://app.prolific.com/","en-GB,en;q=0.9","677fb45dee7e90f416b55aea","6877649eabb845cf142cd221","689317cc459c19f19eaac51b","1","677fb45dee7e90f416b55aea","1","2025-08-06T09:04:16.543Z","","","","MotivationQ","","","","","","","","","","","50","","","","","","","","","","","","","","","","","","","","","","","","","","",""
"","","","","ctl-task-cpt","53","752840","0.0-7.0-0.8","138","1","2025-08-06 08:52:50","36c45c0696341be0efffe67d72a12abb","194.152.129.18","Mozilla/5.0 (Windows NT 10.0; Win64; x64) AppleWebKit/537.36 (KHTML, like Gecko) Chrome/131.0.0.0 Safari/537.36","WebKit","Chrome","131.0.0.0","Windows","10.0","https://app.prolific.com/","en-GB,en;q=0.9","677fb45dee7e90f416b55aea","6877649eabb845cf142cd221","689317cc459c19f19eaac51b","1","677fb45dee7e90f416b55aea","1","2025-08-06T09:05:25.754Z","","","","","","","","","","","","","","","","win-only","1","g1:NE,g2:SW","0.4","9","0","687638.9","2061.9","7072.1","66182.5","1","4","8","6","2","-8","-8","0","1","0","5010.1","3000","-1665","[""down"",""left""]","{""num_key_presses"":11,""num_perfect"":5,""num_errors"":0,""num_randdir"":6,""num_randdir_good_moves"":3,""num_whilered"":0,""num_whileblue"":0,""num_blue"":7,""num_good_moves"":8}","[417.57142857142856,417.47767857142856,0.8,417.57142857142856,417.47767857142856,104.3,417.57142857142856,417.47767857142856,211,417.57142857142856,417.47767857142856,323.4,417.57142857142856,417.47767857142856,430.8,417.57142857142856,417.47767857142856,535.5,417.57142857142856,417.47767857142856,637.9,417.57142857142856,417.47767857142856,744.8,417.57142857142856,417.47767857142856,853,417.57142857142856,417.47767857142856,954.7,417.57142857142856,417.47767857142856,1058.6,417.57142857142856,417.47767857142856,1171.4,417.57142857142856,417.47767857142856,1279.8,417.57142857142856,417.47767857142856,1382,417.57142857142856,417.47767857142856,1487.3,417.57142857142856,417.47767857142856,1594.3,417.57142857142856,417.47767857142856,1697.7,417.57142857142856,417.47767857142856,1803.6,417.57142857142856,417.47767857142856,1911.7,417.57142857142856,417.47767857142856,2021.9,417.57142857142856,417.47767857142856,2123.2,417.57142857142856,417.47767857142856,2227,417.57142857142856,417.47767857142856,2327,417.57142857142856,417.47767857142856,2442.7,417.57142857142856,417.47767857142856,2560,417.57142857142856,417.47767857142856,2667,417.57142857142856,417.47767857142856,2769.2,417.57142857142856,417.47767857142856,2875.8,417.57142857142856,417.47767857142856,2978.8,417.57142857142856,417.47767857142856,3080,417.57142857142856,417.47767857142856,3182.2,417.57142857142856,417.47767857142856,3282.2,417.57142857142856,417.47767857142856,3383.4,417.57142857142856,417.47767857142856,3488.2,417.57142857142856,417.47767857142856,3594.4,417.57142857142856,417.47767857142856,3698.1,417.57142857142856,417.47767857142856,3804.2,417.57142857142856,417.47767857142856,3904.6,417.57142857142856,417.47767857142856,4007.1,417.57142857142856,417.47767857142856,4112.3,417.57142857142856,417.47767857142856,4220.1,417.57142857142856,417.47767857142856,4322.7,417.57142857142856,417.47767857142856,4437.7,417.57142857142856,417.47767857142856,4542.3,417.57142857142856,417.47767857142856,4643.2,417.57142857142856,417.47767857142856,4753.2,417.57142857142856,417.47767857142856,4861.3,417.57142857142856,417.47767857142856,4966.7]","[1542.6,1542.6,1000,0,542.6,""smooth"",""down"",""down"",""good_move"",4709.9,3165.6,2343.3,1544.3,822.3,""smooth"",""down"",""down"",""good_move"",7728.1,3017.5,2452.8,4710.8,564.6,""oops"",""down"",""up"",""bad_move"",17889.7,10159.8,3004.8,14471.3,413.7,""smooth"",""left"",""left"",""good_move"",20858.4,2967.9,2388.2,17890.5,579.7,""oops"",""left"",""down"",""good_move"",24003.8,3143.8,2738.3,20860,405.5,""smooth"",""left"",""left"",""good_move"",30972,6966.5,2497.5,27990.5,484.1,""oops"",""down"",""right"",""bad_move"",34078.6,3104.6,2634.8,30974.1,469.9,""oops"",""left"",""down"",""good_move"",40101.5,6020.5,2147.4,37408.7,545.4,""oops"",""left"",""right"",""bad_move"",50706,10603.7,2420,47756.1,529.9,""oops"",""left"",""left"",""good_move"",56966.1,6258.8,2760.4,53707,498.8,""smooth"",""left"",""left"",""good_move""]"
"5559","","<div style=""width:500px;"">
  <p>What determined the result of this run?</p>
  </div>","56","html-slider-response","54","758401","0.0-7.0-1.8","138","1","2025-08-06 08:52:50","36c45c0696341be0efffe67d72a12abb","194.152.129.18","Mozilla/5.0 (Windows NT 10.0; Win64; x64) AppleWebKit/537.36 (KHTML, like Gecko) Chrome/131.0.0.0 Safari/537.36","WebKit","Chrome","131.0.0.0","Windows","10.0","https://app.prolific.com/","en-GB,en;q=0.9","677fb45dee7e90f416b55aea","6877649eabb845cf142cd221","689317cc459c19f19eaac51b","1","677fb45dee7e90f416b55aea","1","2025-08-06T09:05:31.316Z","","","","AttribQ","","","","","","","","","","","50","","","","","","","","","","","","","","","","","","","","","","","","","","",""
"3090","","<div style=""width:500px;"">
  <p>How much control did you have over the ball?</p>
  </div>","57","html-slider-response","55","761493","0.0-7.0-2.8","138","1","2025-08-06 08:52:50","36c45c0696341be0efffe67d72a12abb","194.152.129.18","Mozilla/5.0 (Windows NT 10.0; Win64; x64) AppleWebKit/537.36 (KHTML, like Gecko) Chrome/131.0.0.0 Safari/537.36","WebKit","Chrome","131.0.0.0","Windows","10.0","https://app.prolific.com/","en-GB,en;q=0.9","677fb45dee7e90f416b55aea","6877649eabb845cf142cd221","689317cc459c19f19eaac51b","1","677fb45dee7e90f416b55aea","1","2025-08-06T09:05:34.407Z","","","","ControlQ","","","","","","","","","","","50","","","","","","","","","","","","","","","","","","","","","","","","","","",""
"3350","","<div style=""width:500px;"">
  <p>How would you describe your current emotional state?</p>
  </div>","50","html-slider-response","56","764845","0.0-7.0-3.8","138","1","2025-08-06 08:52:50","36c45c0696341be0efffe67d72a12abb","194.152.129.18","Mozilla/5.0 (Windows NT 10.0; Win64; x64) AppleWebKit/537.36 (KHTML, like Gecko) Chrome/131.0.0.0 Safari/537.36","WebKit","Chrome","131.0.0.0","Windows","10.0","https://app.prolific.com/","en-GB,en;q=0.9","677fb45dee7e90f416b55aea","6877649eabb845cf142cd221","689317cc459c19f19eaac51b","1","677fb45dee7e90f416b55aea","1","2025-08-06T09:05:37.759Z","","","","StressQ","","","","","","","","","","","50","","","","","","","","","","","","","","","","","","","","","","","","","","",""
"2915","","<div style=""width:500px;"">
  <p>What best describes how you currently feel?</p>
  </div>","61","html-slider-response","57","767761","0.0-7.0-4.8","138","1","2025-08-06 08:52:50","36c45c0696341be0efffe67d72a12abb","194.152.129.18","Mozilla/5.0 (Windows NT 10.0; Win64; x64) AppleWebKit/537.36 (KHTML, like Gecko) Chrome/131.0.0.0 Safari/537.36","WebKit","Chrome","131.0.0.0","Windows","10.0","https://app.prolific.com/","en-GB,en;q=0.9","677fb45dee7e90f416b55aea","6877649eabb845cf142cd221","689317cc459c19f19eaac51b","1","677fb45dee7e90f416b55aea","1","2025-08-06T09:05:40.676Z","","","","MotivationQ","","","","","","","","","","","50","","","","","","","","","","","","","","","","","","","","","","","","","","",""
"","","","","ctl-task-cpt","58","814376","0.0-7.0-0.9","138","1","2025-08-06 08:52:50","36c45c0696341be0efffe67d72a12abb","194.152.129.18","Mozilla/5.0 (Windows NT 10.0; Win64; x64) AppleWebKit/537.36 (KHTML, like Gecko) Chrome/131.0.0.0 Safari/537.36","WebKit","Chrome","131.0.0.0","Windows","10.0","https://app.prolific.com/","en-GB,en;q=0.9","677fb45dee7e90f416b55aea","6877649eabb845cf142cd221","689317cc459c19f19eaac51b","1","677fb45dee7e90f416b55aea","1","2025-08-06T09:06:27.290Z","","","","","","","","","","","","","","","","win-only","3","g1:SW,g2:NE","0.5","10","0","771768.8","1704.3","6709.5","43589.4","1","4","4","6","1","-1","-1","0","0","0","5005.2","3000","-1495","[""down"",""left""]","{""num_key_presses"":9,""num_perfect"":4,""num_errors"":0,""num_randdir"":5,""num_randdir_good_moves"":1,""num_whilered"":0,""num_whileblue"":0,""num_blue"":2,""num_good_moves"":5}","[413.57142857142856,425.47767857142856,1.2,413.57142857142856,425.47767857142856,103.5,413.57142857142856,425.47767857142856,214.8,413.57142857142856,425.47767857142856,324.9,413.57142857142856,425.47767857142856,435,413.57142857142856,425.47767857142856,545.9,413.57142857142856,425.47767857142856,654.6,413.57142857142856,425.47767857142856,764.2,413.57142857142856,425.47767857142856,866.1,413.57142857142856,425.47767857142856,968.7,413.57142857142856,425.47767857142856,1069.8,413.57142857142856,425.47767857142856,1175.1,413.57142857142856,425.47767857142856,1278,413.57142857142856,425.47767857142856,1379.6,413.57142857142856,425.47767857142856,1486,413.57142857142856,425.47767857142856,1600.5,413.57142857142856,425.47767857142856,1705.9,413.57142857142856,425.47767857142856,1809.2,413.57142857142856,425.47767857142856,1910.4,413.57142857142856,425.47767857142856,2021.3,413.57142857142856,425.47767857142856,2123.4,413.57142857142856,425.47767857142856,2228.2,413.57142857142856,425.47767857142856,2331.5,413.57142857142856,425.47767857142856,2438.4,413.57142857142856,425.47767857142856,2539.2,413.57142857142856,425.47767857142856,2654.4,413.57142857142856,425.47767857142856,2760.3,413.57142857142856,425.47767857142856,2860.3,413.57142857142856,425.47767857142856,2965.1,413.57142857142856,425.47767857142856,3070.3,413.57142857142856,425.47767857142856,3172.9,413.57142857142856,425.47767857142856,3276.4,413.57142857142856,425.47767857142856,3383.5,413.57142857142856,425.47767857142856,3484.7,413.57142857142856,425.47767857142856,3587.8,413.57142857142856,425.47767857142856,3695.2,413.57142857142856,425.47767857142856,3811.4,413.57142857142856,425.47767857142856,3917.1,413.57142857142856,425.47767857142856,4021.3,413.57142857142856,425.47767857142856,4127,413.57142857142856,425.47767857142856,4230.4,413.57142857142856,425.47767857142856,4330.5,413.57142857142856,425.47767857142856,4436.7,413.57142857142856,425.47767857142856,4546,413.57142857142856,425.47767857142856,4647.8,413.57142857142856,425.47767857142856,4755.1,413.57142857142856,425.47767857142856,4861.4,413.57142857142856,425.47767857142856,4962.3]","[1591.9,1591.9,1000,0,591.9,""oops"",""down"",""left"",""good_move"",4824.7,3231.6,2179.7,1593.1,1051.9,""smooth"",""down"",""down"",""good_move"",11373.6,6547.7,2599.1,8181.3,593.2,""oops"",""down"",""up"",""bad_move"",14656.9,3281.8,2825.8,11375.1,456,""smooth"",""left"",""left"",""good_move"",18493.9,3836.2,3363.2,14657.7,473,""oops"",""down"",""up"",""bad_move"",21824.5,3329.9,2701.2,18494.7,628.7,""smooth"",""down"",""down"",""good_move"",27821.9,5995.1,2588.5,24850.3,383.1,""oops"",""down"",""up"",""bad_move"",31303.9,3481.6,2962.3,27822.3,519.4,""smooth"",""down"",""down"",""good_move"",34399.4,3094.9,2639.3,31304.5,455.6,""oops"",""down"",""up"",""bad_move""]"
"3860","","<div style=""width:500px;"">
  <p>What determined the result of this run?</p>
  </div>","65","html-slider-response","59","818238","0.0-7.0-1.9","138","1","2025-08-06 08:52:50","36c45c0696341be0efffe67d72a12abb","194.152.129.18","Mozilla/5.0 (Windows NT 10.0; Win64; x64) AppleWebKit/537.36 (KHTML, like Gecko) Chrome/131.0.0.0 Safari/537.36","WebKit","Chrome","131.0.0.0","Windows","10.0","https://app.prolific.com/","en-GB,en;q=0.9","677fb45dee7e90f416b55aea","6877649eabb845cf142cd221","689317cc459c19f19eaac51b","1","677fb45dee7e90f416b55aea","1","2025-08-06T09:06:31.152Z","","","","AttribQ","","","","","","","","","","","50","","","","","","","","","","","","","","","","","","","","","","","","","","",""
"4253","","<div style=""width:500px;"">
  <p>How much control did you have over the ball?</p>
  </div>","66","html-slider-response","60","822493","0.0-7.0-2.9","138","1","2025-08-06 08:52:50","36c45c0696341be0efffe67d72a12abb","194.152.129.18","Mozilla/5.0 (Windows NT 10.0; Win64; x64) AppleWebKit/537.36 (KHTML, like Gecko) Chrome/131.0.0.0 Safari/537.36","WebKit","Chrome","131.0.0.0","Windows","10.0","https://app.prolific.com/","en-GB,en;q=0.9","677fb45dee7e90f416b55aea","6877649eabb845cf142cd221","689317cc459c19f19eaac51b","1","677fb45dee7e90f416b55aea","1","2025-08-06T09:06:35.408Z","","","","ControlQ","","","","","","","","","","","50","","","","","","","","","","","","","","","","","","","","","","","","","","",""
"2878","","<div style=""width:500px;"">
  <p>How would you describe your current emotional state?</p>
  </div>","68","html-slider-response","61","825373","0.0-7.0-3.9","138","1","2025-08-06 08:52:50","36c45c0696341be0efffe67d72a12abb","194.152.129.18","Mozilla/5.0 (Windows NT 10.0; Win64; x64) AppleWebKit/537.36 (KHTML, like Gecko) Chrome/131.0.0.0 Safari/537.36","WebKit","Chrome","131.0.0.0","Windows","10.0","https://app.prolific.com/","en-GB,en;q=0.9","677fb45dee7e90f416b55aea","6877649eabb845cf142cd221","689317cc459c19f19eaac51b","1","677fb45dee7e90f416b55aea","1","2025-08-06T09:06:38.288Z","","","","StressQ","","","","","","","","","","","50","","","","","","","","","","","","","","","","","","","","","","","","","","",""
"2967","","<div style=""width:500px;"">
  <p>What best describes how you currently feel?</p>
  </div>","63","html-slider-response","62","828343","0.0-7.0-4.9","138","1","2025-08-06 08:52:50","36c45c0696341be0efffe67d72a12abb","194.152.129.18","Mozilla/5.0 (Windows NT 10.0; Win64; x64) AppleWebKit/537.36 (KHTML, like Gecko) Chrome/131.0.0.0 Safari/537.36","WebKit","Chrome","131.0.0.0","Windows","10.0","https://app.prolific.com/","en-GB,en;q=0.9","677fb45dee7e90f416b55aea","6877649eabb845cf142cd221","689317cc459c19f19eaac51b","1","677fb45dee7e90f416b55aea","1","2025-08-06T09:06:41.257Z","","","","MotivationQ","","","","","","","","","","","50","","","","","","","","","","","","","","","","","","","","","","","","","","",""
"","","","","ctl-task-cpt","63","884043","0.0-7.0-0.10","138","1","2025-08-06 08:52:50","36c45c0696341be0efffe67d72a12abb","194.152.129.18","Mozilla/5.0 (Windows NT 10.0; Win64; x64) AppleWebKit/537.36 (KHTML, like Gecko) Chrome/131.0.0.0 Safari/537.36","WebKit","Chrome","131.0.0.0","Windows","10.0","https://app.prolific.com/","en-GB,en;q=0.9","677fb45dee7e90f416b55aea","6877649eabb845cf142cd221","689317cc459c19f19eaac51b","1","677fb45dee7e90f416b55aea","1","2025-08-06T09:07:36.958Z","","","","","","","","","","","","","","","","win-only","0","g1:NW,g2:SE","0.6","11","0","832352.1","1847","6856.3","52666.3","1","4","8","6","2","-8","-9","0","0","0","5009.3","3000","-1620","[""down"",""right""]","{""num_key_presses"":13,""num_perfect"":6,""num_errors"":1,""num_randdir"":6,""num_randdir_good_moves"":3,""num_whilered"":0,""num_whileblue"":1,""num_blue"":2,""num_good_moves"":9}","[416.57142857142856,414.47767857142856,0.4,416.57142857142856,414.47767857142856,108.2,416.57142857142856,414.47767857142856,211.3,416.57142857142856,414.47767857142856,319.6,416.57142857142856,414.47767857142856,424.3,416.57142857142856,414.47767857142856,528.3,416.57142857142856,414.47767857142856,633.5,416.57142857142856,414.47767857142856,737.3,416.57142857142856,414.47767857142856,850.5,416.57142857142856,414.47767857142856,952.2,416.57142857142856,414.47767857142856,1059.1,416.57142857142856,414.47767857142856,1167.3,416.57142857142856,414.47767857142856,1267.8,416.57142857142856,414.47767857142856,1372.5,416.57142857142856,414.47767857142856,1475.7,416.57142857142856,414.47767857142856,1576.4,416.57142857142856,414.47767857142856,1676.4,416.57142857142856,414.47767857142856,1782.4,416.57142857142856,414.47767857142856,1885,416.57142857142856,414.47767857142856,1989.9,416.57142857142856,414.47767857142856,2092.1,416.57142857142856,414.47767857142856,2198.7,416.57142857142856,414.47767857142856,2305.7,416.57142857142856,414.47767857142856,2412.5,416.57142857142856,414.47767857142856,2518.9,416.57142857142856,414.47767857142856,2625.2,416.57142857142856,414.47767857142856,2730.5,416.57142857142856,414.47767857142856,2839.4,416.57142857142856,414.47767857142856,2947.1,416.57142857142856,414.47767857142856,3048.2,416.57142857142856,414.47767857142856,3154.1,416.57142857142856,414.47767857142856,3256.3,416.57142857142856,414.47767857142856,3365.5,416.57142857142856,414.47767857142856,3466.5,416.57142857142856,414.47767857142856,3572.9,416.57142857142856,414.47767857142856,3675,416.57142857142856,414.47767857142856,3785.8,416.57142857142856,414.47767857142856,3887.5,416.57142857142856,414.47767857142856,4008.8,416.57142857142856,414.47767857142856,4109,416.57142857142856,414.47767857142856,4226.2,416.57142857142856,414.47767857142856,4328.6,416.57142857142856,414.47767857142856,4434.3,416.57142857142856,414.47767857142856,4547.6,416.57142857142856,414.47767857142856,4649.4,416.57142857142856,414.47767857142856,4750.9,416.57142857142856,414.47767857142856,4851,416.57142857142856,414.47767857142856,4959]","[1678,1678.2,1000,0,678.2,""smooth"",""down"",""down"",""good_move"",5624.4,3944.9,3450.7,1679.6,494.1,""oops"",""down"",""up"",""bad_move"",9084.6,3459.2,3025.3,5625.4,433.9,""oops"",""right"",""left"",""bad_move"",11824.6,2739.4,2199.1,9085.2,540.4,""smooth"",""right"",""right"",""good_move"",14462.1,2636.6,2169.2,11825.5,467.4,""oops"",""down"",""up"",""bad_move"",17204.1,2741.6,2610.7,14462.6,130.9,""smooth"",""down"",""down"",""good_move"",20321.4,3115.9,2707.4,17205.5,408.5,""smooth"",""down"",""down"",""good_move"",23200.9,2877.9,2659.7,20323,218.2,""oops"",""down"",""right"",""good_move"",29271.2,6068.9,2378,26387,506.2,""smooth"",""down"",""down"",""good_move"",32491.2,3219,2605.7,29272.2,613.3,""smooth"",""down"",""down"",""good_move"",36160.6,3668.8,3151.7,32491.8,517.1,""while_blue"",""right"",""up"",""bad_move"",39304.8,3143.4,2371.7,36161.4,771.7,""oops"",""right"",""down"",""good_move"",42734.6,3429,2720.7,39305.6,708.3,""oops"",""right"",""right"",""good_move""]"
"2872","","<div style=""width:500px;"">
  <p>What determined the result of this run?</p>
  </div>","59","html-slider-response","64","886918","0.0-7.0-1.10","138","1","2025-08-06 08:52:50","36c45c0696341be0efffe67d72a12abb","194.152.129.18","Mozilla/5.0 (Windows NT 10.0; Win64; x64) AppleWebKit/537.36 (KHTML, like Gecko) Chrome/131.0.0.0 Safari/537.36","WebKit","Chrome","131.0.0.0","Windows","10.0","https://app.prolific.com/","en-GB,en;q=0.9","677fb45dee7e90f416b55aea","6877649eabb845cf142cd221","689317cc459c19f19eaac51b","1","677fb45dee7e90f416b55aea","1","2025-08-06T09:07:39.832Z","","","","AttribQ","","","","","","","","","","","50","","","","","","","","","","","","","","","","","","","","","","","","","","",""
"3419","","<div style=""width:500px;"">
  <p>How much control did you have over the ball?</p>
  </div>","58","html-slider-response","65","890338","0.0-7.0-2.10","138","1","2025-08-06 08:52:50","36c45c0696341be0efffe67d72a12abb","194.152.129.18","Mozilla/5.0 (Windows NT 10.0; Win64; x64) AppleWebKit/537.36 (KHTML, like Gecko) Chrome/131.0.0.0 Safari/537.36","WebKit","Chrome","131.0.0.0","Windows","10.0","https://app.prolific.com/","en-GB,en;q=0.9","677fb45dee7e90f416b55aea","6877649eabb845cf142cd221","689317cc459c19f19eaac51b","1","677fb45dee7e90f416b55aea","1","2025-08-06T09:07:43.252Z","","","","ControlQ","","","","","","","","","","","50","","","","","","","","","","","","","","","","","","","","","","","","","","",""
"2575","","<div style=""width:500px;"">
  <p>How would you describe your current emotional state?</p>
  </div>","62","html-slider-response","66","892915","0.0-7.0-3.10","138","1","2025-08-06 08:52:50","36c45c0696341be0efffe67d72a12abb","194.152.129.18","Mozilla/5.0 (Windows NT 10.0; Win64; x64) AppleWebKit/537.36 (KHTML, like Gecko) Chrome/131.0.0.0 Safari/537.36","WebKit","Chrome","131.0.0.0","Windows","10.0","https://app.prolific.com/","en-GB,en;q=0.9","677fb45dee7e90f416b55aea","6877649eabb845cf142cd221","689317cc459c19f19eaac51b","1","677fb45dee7e90f416b55aea","1","2025-08-06T09:07:45.829Z","","","","StressQ","","","","","","","","","","","50","","","","","","","","","","","","","","","","","","","","","","","","","","",""
"2957","","<div style=""width:500px;"">
  <p>What best describes how you currently feel?</p>
  </div>","64","html-slider-response","67","895874","0.0-7.0-4.10","138","1","2025-08-06 08:52:50","36c45c0696341be0efffe67d72a12abb","194.152.129.18","Mozilla/5.0 (Windows NT 10.0; Win64; x64) AppleWebKit/537.36 (KHTML, like Gecko) Chrome/131.0.0.0 Safari/537.36","WebKit","Chrome","131.0.0.0","Windows","10.0","https://app.prolific.com/","en-GB,en;q=0.9","677fb45dee7e90f416b55aea","6877649eabb845cf142cd221","689317cc459c19f19eaac51b","1","677fb45dee7e90f416b55aea","1","2025-08-06T09:07:48.788Z","","","","MotivationQ","","","","","","","","","","","50","","","","","","","","","","","","","","","","","","","","","","","","","","",""
"","","","","ctl-task-cpt","68","939557","0.0-7.0-0.11","138","1","2025-08-06 08:52:50","36c45c0696341be0efffe67d72a12abb","194.152.129.18","Mozilla/5.0 (Windows NT 10.0; Win64; x64) AppleWebKit/537.36 (KHTML, like Gecko) Chrome/131.0.0.0 Safari/537.36","WebKit","Chrome","131.0.0.0","Windows","10.0","https://app.prolific.com/","en-GB,en;q=0.9","677fb45dee7e90f416b55aea","6877649eabb845cf142cd221","689317cc459c19f19eaac51b","1","677fb45dee7e90f416b55aea","1","2025-08-06T09:08:32.471Z","","","","","","","","","","","","","","","","win-only","3","g1:SW,g2:NE","0.7","12","0","899879.2","1596.2","6598.2","40667","1","4","4","6","2","4","4","4","0","0.030303030303030304","5002","3000","155","[""up"",""right""]","{""num_key_presses"":12,""num_perfect"":8,""num_errors"":0,""num_randdir"":4,""num_randdir_good_moves"":1,""num_whilered"":0,""num_whileblue"":0,""num_blue"":0,""num_good_moves"":9}","[416.57142857142856,410.47767857142856,4.5,416.57142857142856,410.47767857142856,108.2,416.57142857142856,410.47767857142856,209.1,416.57142857142856,410.47767857142856,317.4,416.57142857142856,410.47767857142856,419.1,416.57142857142856,410.47767857142856,525.2,416.57142857142856,410.47767857142856,634.3,416.57142857142856,410.47767857142856,737.4,416.57142857142856,410.47767857142856,838.3,416.57142857142856,410.47767857142856,940.5,416.57142857142856,410.47767857142856,1043.2,416.57142857142856,410.47767857142856,1148.9,416.57142857142856,410.47767857142856,1254.9,416.57142857142856,410.47767857142856,1355.8,416.57142857142856,410.47767857142856,1461.4,416.57142857142856,410.47767857142856,1567.2,416.57142857142856,410.47767857142856,1667.9,416.57142857142856,410.47767857142856,1769,416.57142857142856,410.47767857142856,1870.6,416.57142857142856,410.47767857142856,1971.6,416.57142857142856,410.47767857142856,2076.9,416.57142857142856,410.47767857142856,2181.5,416.57142857142856,410.47767857142856,2300.4,416.57142857142856,410.47767857142856,2404.2,416.57142857142856,410.47767857142856,2505.4,416.57142857142856,410.47767857142856,2614.8,416.57142857142856,410.47767857142856,2724.1,416.57142857142856,410.47767857142856,2831.7,416.57142857142856,410.47767857142856,2941.2,416.57142857142856,410.47767857142856,3048.6,416.57142857142856,410.47767857142856,3152.1,416.57142857142856,410.47767857142856,3257.6,416.57142857142856,410.47767857142856,3357.7,416.57142857142856,410.47767857142856,3467.3,416.57142857142856,410.47767857142856,3572.1,416.57142857142856,410.47767857142856,3675.4,416.57142857142856,410.47767857142856,3787,416.57142857142856,410.47767857142856,3894.6,416.57142857142856,410.47767857142856,3994.7,416.57142857142856,410.47767857142856,4096.6,416.57142857142856,410.47767857142856,4200.6,416.57142857142856,410.47767857142856,4313,416.57142857142856,410.47767857142856,4416.8,416.57142857142856,410.47767857142856,4518.7,416.57142857142856,410.47767857142856,4621.5,416.57142857142856,410.47767857142856,4725.3,416.57142857142856,410.47767857142856,4828.6,416.57142857142856,410.47767857142856,4931.4]","[1958,1958,1000,0,958,""smooth"",""up"",""up"",""good_move"",5339.5,3380.1,2801.5,1959.4,578.6,""smooth"",""up"",""up"",""good_move"",8711.9,3371.5,2715,5340.4,656.5,""smooth"",""up"",""up"",""good_move"",11814.7,3101,2521.2,8713.7,579.8,""oops"",""right"",""left"",""bad_move"",14958.7,3143.2,2598.7,11815.5,544.5,""oops"",""right"",""left"",""bad_move"",17624,2664.8,2198.4,14959.2,466.5,""smooth"",""right"",""right"",""good_move"",20414.1,2789.2,2390.9,17625,398.3,""smooth"",""right"",""right"",""good_move"",22641.1,2226.4,1834.6,20414.7,391.8,""smooth"",""right"",""right"",""good_move"",25167.8,2525.2,2106.5,22642.6,418.7,""oops"",""right"",""down"",""bad_move"",28198,3029.6,2640.2,25168.5,389.4,""smooth"",""right"",""right"",""good_move"",30953.2,2754.7,2316.2,28198.5,438.5,""smooth"",""right"",""right"",""good_move"",33904.6,2950.4,2595.8,30954.2,354.6,""oops"",""up"",""up"",""good_move""]"
"7988","","<div style=""width:500px;"">
  <p>What determined the result of this run?</p>
  </div>","85","html-slider-response","69","947549","0.0-7.0-1.11","138","1","2025-08-06 08:52:50","36c45c0696341be0efffe67d72a12abb","194.152.129.18","Mozilla/5.0 (Windows NT 10.0; Win64; x64) AppleWebKit/537.36 (KHTML, like Gecko) Chrome/131.0.0.0 Safari/537.36","WebKit","Chrome","131.0.0.0","Windows","10.0","https://app.prolific.com/","en-GB,en;q=0.9","677fb45dee7e90f416b55aea","6877649eabb845cf142cd221","689317cc459c19f19eaac51b","1","677fb45dee7e90f416b55aea","1","2025-08-06T09:08:40.463Z","","","","AttribQ","","","","","","","","","","","50","","","","","","","","","","","","","","","","","","","","","","","","","","",""
"8310","","<div style=""width:500px;"">
  <p>How much control did you have over the ball?</p>
  </div>","70","html-slider-response","70","955861","0.0-7.0-2.11","138","1","2025-08-06 08:52:50","36c45c0696341be0efffe67d72a12abb","194.152.129.18","Mozilla/5.0 (Windows NT 10.0; Win64; x64) AppleWebKit/537.36 (KHTML, like Gecko) Chrome/131.0.0.0 Safari/537.36","WebKit","Chrome","131.0.0.0","Windows","10.0","https://app.prolific.com/","en-GB,en;q=0.9","677fb45dee7e90f416b55aea","6877649eabb845cf142cd221","689317cc459c19f19eaac51b","1","677fb45dee7e90f416b55aea","1","2025-08-06T09:08:48.776Z","","","","ControlQ","","","","","","","","","","","50","","","","","","","","","","","","","","","","","","","","","","","","","","",""
"5229","","<div style=""width:500px;"">
  <p>How would you describe your current emotional state?</p>
  </div>","41","html-slider-response","71","961093","0.0-7.0-3.11","138","1","2025-08-06 08:52:50","36c45c0696341be0efffe67d72a12abb","194.152.129.18","Mozilla/5.0 (Windows NT 10.0; Win64; x64) AppleWebKit/537.36 (KHTML, like Gecko) Chrome/131.0.0.0 Safari/537.36","WebKit","Chrome","131.0.0.0","Windows","10.0","https://app.prolific.com/","en-GB,en;q=0.9","677fb45dee7e90f416b55aea","6877649eabb845cf142cd221","689317cc459c19f19eaac51b","1","677fb45dee7e90f416b55aea","1","2025-08-06T09:08:54.007Z","","","","StressQ","","","","","","","","","","","50","","","","","","","","","","","","","","","","","","","","","","","","","","",""
"7187","","<div style=""width:500px;"">
  <p>What best describes how you currently feel?</p>
  </div>","59","html-slider-response","72","968282","0.0-7.0-4.11","138","1","2025-08-06 08:52:50","36c45c0696341be0efffe67d72a12abb","194.152.129.18","Mozilla/5.0 (Windows NT 10.0; Win64; x64) AppleWebKit/537.36 (KHTML, like Gecko) Chrome/131.0.0.0 Safari/537.36","WebKit","Chrome","131.0.0.0","Windows","10.0","https://app.prolific.com/","en-GB,en;q=0.9","677fb45dee7e90f416b55aea","6877649eabb845cf142cd221","689317cc459c19f19eaac51b","1","677fb45dee7e90f416b55aea","1","2025-08-06T09:09:01.196Z","","","","MotivationQ","","","","","","","","","","","50","","","","","","","","","","","","","","","","","","","","","","","","","","",""
"","","","","ctl-task-cpt","73","999900","0.0-7.0-0.12","138","1","2025-08-06 08:52:50","36c45c0696341be0efffe67d72a12abb","194.152.129.18","Mozilla/5.0 (Windows NT 10.0; Win64; x64) AppleWebKit/537.36 (KHTML, like Gecko) Chrome/131.0.0.0 Safari/537.36","WebKit","Chrome","131.0.0.0","Windows","10.0","https://app.prolific.com/","en-GB,en;q=0.9","677fb45dee7e90f416b55aea","6877649eabb845cf142cd221","689317cc459c19f19eaac51b","1","677fb45dee7e90f416b55aea","1","2025-08-06T09:09:32.814Z","","","","","","","","","","","","","","","","win-only","0","g1:NW,g2:SE","0.8","13","0","972287.8","1427.1","6434.8","28582.5","1","4","4","6","1","1","1","5","4","0.03787878787878788","5007.6","3000","1615","[""left"",""up""]","{""num_key_presses"":4,""num_perfect"":3,""num_errors"":0,""num_randdir"":1,""num_randdir_good_moves"":1,""num_whilered"":0,""num_whileblue"":0,""num_blue"":3,""num_good_moves"":4}","[406.57142857142856,413.47767857142856,0.4,406.57142857142856,413.47767857142856,101.4,406.57142857142856,413.47767857142856,209.7,406.57142857142856,413.47767857142856,322.2,406.57142857142856,413.47767857142856,427.6,406.57142857142856,413.47767857142856,527.9,406.57142857142856,413.47767857142856,632.8,406.57142857142856,413.47767857142856,736.8,406.57142857142856,413.47767857142856,837,406.57142857142856,413.47767857142856,952.1,406.57142857142856,413.47767857142856,1057.7,406.57142857142856,413.47767857142856,1179.1,406.57142857142856,413.47767857142856,1287.7,406.57142857142856,413.47767857142856,1389.6,406.57142857142856,413.47767857142856,1493.2,406.57142857142856,413.47767857142856,1595.5,406.57142857142856,413.47767857142856,1699.7,406.57142857142856,413.47767857142856,1802.3,406.57142857142856,413.47767857142856,1908.3,406.57142857142856,413.47767857142856,2014,406.57142857142856,413.47767857142856,2117,406.57142857142856,413.47767857142856,2221.1,406.57142857142856,413.47767857142856,2329.5,406.57142857142856,413.47767857142856,2430.6,406.57142857142856,413.47767857142856,2540.8,406.57142857142856,413.47767857142856,2645.3,406.57142857142856,413.47767857142856,2749.6,406.57142857142856,413.47767857142856,2855,406.57142857142856,413.47767857142856,2959.4,406.57142857142856,413.47767857142856,3063.6,406.57142857142856,413.47767857142856,3163.7,406.57142857142856,413.47767857142856,3274.7,406.57142857142856,413.47767857142856,3378.9,406.57142857142856,413.47767857142856,3479.1,406.57142857142856,413.47767857142856,3599.8,406.57142857142856,413.47767857142856,3703.7,406.57142857142856,413.47767857142856,3809.7,406.57142857142856,413.47767857142856,3912.7,406.57142857142856,413.47767857142856,4013.9,406.57142857142856,413.47767857142856,4117.5,406.57142857142856,413.47767857142856,4223.3,406.57142857142856,413.47767857142856,4326.2,406.57142857142856,413.47767857142856,4432,406.57142857142856,413.47767857142856,4542.6,406.57142857142856,413.47767857142856,4649.1,406.57142857142856,413.47767857142856,4750.2,406.57142857142856,413.47767857142856,4852.5,406.57142857142856,413.47767857142856,4955.5]","[5242.4,5242.4,2029.8,2007.2,1205.4,""smooth"",""up"",""up"",""good_move"",12837,7593.7,2502.1,9646.8,688.1,""smooth"",""up"",""up"",""good_move"",19062.9,6225.2,2694.1,15961.3,407.5,""oops"",""left"",""left"",""good_move"",21929.6,2865.4,2378.6,19064.2,486.8,""smooth"",""left"",""left"",""good_move""]"
"5408","","<div style=""width:500px;"">
  <p>What determined the result of this run?</p>
  </div>","60","html-slider-response","74","1005311","0.0-7.0-1.12","138","1","2025-08-06 08:52:50","36c45c0696341be0efffe67d72a12abb","194.152.129.18","Mozilla/5.0 (Windows NT 10.0; Win64; x64) AppleWebKit/537.36 (KHTML, like Gecko) Chrome/131.0.0.0 Safari/537.36","WebKit","Chrome","131.0.0.0","Windows","10.0","https://app.prolific.com/","en-GB,en;q=0.9","677fb45dee7e90f416b55aea","6877649eabb845cf142cd221","689317cc459c19f19eaac51b","1","677fb45dee7e90f416b55aea","1","2025-08-06T09:09:38.225Z","","","","AttribQ","","","","","","","","","","","50","","","","","","","","","","","","","","","","","","","","","","","","","","",""
"6730","","<div style=""width:500px;"">
  <p>How much control did you have over the ball?</p>
  </div>","70","html-slider-response","75","1012042","0.0-7.0-2.12","138","1","2025-08-06 08:52:50","36c45c0696341be0efffe67d72a12abb","194.152.129.18","Mozilla/5.0 (Windows NT 10.0; Win64; x64) AppleWebKit/537.36 (KHTML, like Gecko) Chrome/131.0.0.0 Safari/537.36","WebKit","Chrome","131.0.0.0","Windows","10.0","https://app.prolific.com/","en-GB,en;q=0.9","677fb45dee7e90f416b55aea","6877649eabb845cf142cd221","689317cc459c19f19eaac51b","1","677fb45dee7e90f416b55aea","1","2025-08-06T09:09:44.956Z","","","","ControlQ","","","","","","","","","","","50","","","","","","","","","","","","","","","","","","","","","","","","","","",""
"2983","","<div style=""width:500px;"">
  <p>How would you describe your current emotional state?</p>
  </div>","68","html-slider-response","76","1015027","0.0-7.0-3.12","138","1","2025-08-06 08:52:50","36c45c0696341be0efffe67d72a12abb","194.152.129.18","Mozilla/5.0 (Windows NT 10.0; Win64; x64) AppleWebKit/537.36 (KHTML, like Gecko) Chrome/131.0.0.0 Safari/537.36","WebKit","Chrome","131.0.0.0","Windows","10.0","https://app.prolific.com/","en-GB,en;q=0.9","677fb45dee7e90f416b55aea","6877649eabb845cf142cd221","689317cc459c19f19eaac51b","1","677fb45dee7e90f416b55aea","1","2025-08-06T09:09:47.941Z","","","","StressQ","","","","","","","","","","","50","","","","","","","","","","","","","","","","","","","","","","","","","","",""
"4513","","<div style=""width:500px;"">
  <p>What best describes how you currently feel?</p>
  </div>","42","html-slider-response","77","1019542","0.0-7.0-4.12","138","1","2025-08-06 08:52:50","36c45c0696341be0efffe67d72a12abb","194.152.129.18","Mozilla/5.0 (Windows NT 10.0; Win64; x64) AppleWebKit/537.36 (KHTML, like Gecko) Chrome/131.0.0.0 Safari/537.36","WebKit","Chrome","131.0.0.0","Windows","10.0","https://app.prolific.com/","en-GB,en;q=0.9","677fb45dee7e90f416b55aea","6877649eabb845cf142cd221","689317cc459c19f19eaac51b","1","677fb45dee7e90f416b55aea","1","2025-08-06T09:09:52.456Z","","","","MotivationQ","","","","","","","","","","","50","","","","","","","","","","","","","","","","","","","","","","","","","","",""
