"rt","response_timestamp","stimulus","response","trial_type","trial_index","time_elapsed","internal_node_id","run_id","condition","recorded_at","source_code_version","ip","user_agent","device","browser","browser_version","platform","platform_version","referer","accept_language","PROLIFIC_PID","STUDY_ID","SESSION_ID","BATCH","prolific_id","batch","realtime","success","question_order","question_id","eventType","responses","item_order","radio_event_ids","radio_event_times","key_event_times","mouse_event_times","straightlining","zigzagging","honeypot","view_history","slider_start","which_type","canvas_config","goals_layout","control_level","trial_number","tutorial_trial_number","trial_start_time","phase1_start_time","phase2_start_time","phase3_start_time","goal_1_value","goal_1_distance","goal_2_value","goal_2_distance","goal_selected","outcome","outcome_total","participant_final_score","participant_initial_score","participant_final_score_prop","goal_choice_rt","allocated_time","allocated_time_remaining","goal_direction","counts","mouse_movements","key_presses"
"4277","1754471014797","<p style='font-size:40px;line-height:1.25'><strong>Welcome to the experiment!</strong></p><p style='font-size:1.1em;line-height:1.25'>Thank you for participanting in our experiment again! You will be asked to play the Dysfunctional Ball Game again. We will briefly recap the rules before we start.</p><p style='font-size:1.1em;line-height:1.25'>Press <strong>Next</strong> to continue.</p>","0","custom-html-button-response","0","4280","0.0-0.0","153","1","2025-08-06 09:03:28","36c45c0696341be0efffe67d72a12abb","41.122.131.205","Mozilla/5.0 (Macintosh; Intel Mac OS X 10_15_7) AppleWebKit/537.36 (KHTML, like Gecko) Chrome/128.0.0.0 Safari/537.36","Macintosh","Chrome","128.0.0.0","OS X","10_15_7","https://app.prolific.com/","en-GB,en-US;q=0.9,en;q=0.8","6780db9dafd89add339abb6b","6877649eabb845cf142cd221","68931a52c44fcce8575be1c8","1","6780db9dafd89add339abb6b","1","2025-08-06T09:03:34.798Z","","","","","","","","","","","","","","","","","","","","","","","","","","","","","","","","","","","","","","","","","",""
"1408","","","","fullscreen","1","6691","0.0-1.0","153","1","2025-08-06 09:03:28","36c45c0696341be0efffe67d72a12abb","41.122.131.205","Mozilla/5.0 (Macintosh; Intel Mac OS X 10_15_7) AppleWebKit/537.36 (KHTML, like Gecko) Chrome/128.0.0.0 Safari/537.36","Macintosh","Chrome","128.0.0.0","OS X","10_15_7","https://app.prolific.com/","en-GB,en-US;q=0.9,en;q=0.8","6780db9dafd89add339abb6b","6877649eabb845cf142cd221","68931a52c44fcce8575be1c8","1","6780db9dafd89add339abb6b","1","","true","","","","","","","","","","","","","","","","","","","","","","","","","","","","","","","","","","","","","","","","",""
"3904","1754471021114"," <p style='font-size:1.1em;line-height:1.25'>Thank you for closing all other tabs.</p><p style='font-size:1.1em;line-height:1.25'>We will now invite you to fill in some questionnaires, before starting the game.<br>This will take about 5 minutes.<br></p><p style='font-size:1.1em;line-height:1.25'>Press the <strong>Next</strong> button to continue.</p>","0","custom-html-button-response","2","10597","0.0-2.0","153","1","2025-08-06 09:03:28","36c45c0696341be0efffe67d72a12abb","41.122.131.205","Mozilla/5.0 (Macintosh; Intel Mac OS X 10_15_7) AppleWebKit/537.36 (KHTML, like Gecko) Chrome/128.0.0.0 Safari/537.36","Macintosh","Chrome","128.0.0.0","OS X","10_15_7","https://app.prolific.com/","en-GB,en-US;q=0.9,en;q=0.8","6780db9dafd89add339abb6b","6877649eabb845cf142cd221","68931a52c44fcce8575be1c8","1","6780db9dafd89add339abb6b","1","2025-08-06T09:03:41.115Z","","","","","","","","","","","","","","","","","","","","","","","","","","","","","","","","","","","","","","","","","",""
"4599","","","{""assigned_sex"":""male""}","survey-multi-choice","3","15198","0.0-3.0-0.0","153","1","2025-08-06 09:03:28","36c45c0696341be0efffe67d72a12abb","41.122.131.205","Mozilla/5.0 (Macintosh; Intel Mac OS X 10_15_7) AppleWebKit/537.36 (KHTML, like Gecko) Chrome/128.0.0.0 Safari/537.36","Macintosh","Chrome","128.0.0.0","OS X","10_15_7","https://app.prolific.com/","en-GB,en-US;q=0.9,en;q=0.8","6780db9dafd89add339abb6b","6877649eabb845cf142cd221","68931a52c44fcce8575be1c8","1","6780db9dafd89add339abb6b","1","","","[0]","0","demographics","","","","","","","","","","","","","","","","","","","","","","","","","","","","","","","","","","","","","",""
"1714","1754471027435","<p style='font-size:1.1em;line-height:1.25'>In the following, we will perform a baseline assessment. This means that we will ask you a few questions relating to your experiences over the past month.<br></p><p style='font-size:1.1em;line-height:1.25'>Press the <strong>Next</strong> button to continue.</p>","0","custom-html-button-response","4","16917","0.0-4.0-0.0","153","1","2025-08-06 09:03:28","36c45c0696341be0efffe67d72a12abb","41.122.131.205","Mozilla/5.0 (Macintosh; Intel Mac OS X 10_15_7) AppleWebKit/537.36 (KHTML, like Gecko) Chrome/128.0.0.0 Safari/537.36","Macintosh","Chrome","128.0.0.0","OS X","10_15_7","https://app.prolific.com/","en-GB,en-US;q=0.9,en;q=0.8","6780db9dafd89add339abb6b","6877649eabb845cf142cd221","68931a52c44fcce8575be1c8","1","6780db9dafd89add339abb6b","1","2025-08-06T09:03:47.435Z","","","","","","","","","","","","","","","","","","","","","","","","","","","","","","","","","","","","","","","","","",""
"54957.5","","","","survey-template","5","71882","0.0-4.0-1.0","153","1","2025-08-06 09:03:28","36c45c0696341be0efffe67d72a12abb","41.122.131.205","Mozilla/5.0 (Macintosh; Intel Mac OS X 10_15_7) AppleWebKit/537.36 (KHTML, like Gecko) Chrome/128.0.0.0 Safari/537.36","Macintosh","Chrome","128.0.0.0","OS X","10_15_7","https://app.prolific.com/","en-GB,en-US;q=0.9,en;q=0.8","6780db9dafd89add339abb6b","6877649eabb845cf142cd221","68931a52c44fcce8575be1c8","1","6780db9dafd89add339abb6b","1","2025-08-06T09:04:42.400Z","","","","pss","{""Q01"":""3"",""Q02"":""2"",""Q03"":""3"",""Q04"":""1"",""Q05"":""1"",""Q06"":""2"",""Q07"":""2"",""Q08"":""2"",""Q09"":""3"",""Q10"":""2""}","[0,1,2,3,4,5,6,7,8,9]","[""Q01"",""Q10"",""Q09"",""Q08"",""Q07"",""Q06"",""Q05"",""Q03"",""Q02"",""Q04""]","[2102.199999809265,21928.099999904633,22732.099999904633,23842.099999904633,25158.599999904633,27172.39999961853,29912.099999904633,33392.199999809265,40616.199999809265,53464.5]","[]","[0.09999990463256836,2102.199999809265,19592.299999713898,20654.5,21524.299999713898,21928.099999904633,22732.099999904633,23842.099999904633,25158.599999904633,26696.199999809265,27172.39999961853,28870.099999904633,29912.099999904633,31048.299999713898,32393.099999904633,33392.199999809265,34952.199999809265,40616.199999809265,51146.2999997139,53464.5,54954.199999809265]","0.5","0.5555555555555556","0","","","","","","","","","","","","","","","","","","","","","","","","","","","","",""
"2221","1754471084624","<p style='font-size:1.1em;line-height:1.25'>Thank you for your answers! Now we will ask you a few more questions relating to your feelings in the last 24 hours.<br></p><p style='font-size:1.1em;line-height:1.25'>Press the <strong>Next</strong> button to continue.</p>","0","custom-html-button-response","6","74107","0.0-4.0-2.0","153","1","2025-08-06 09:03:28","36c45c0696341be0efffe67d72a12abb","41.122.131.205","Mozilla/5.0 (Macintosh; Intel Mac OS X 10_15_7) AppleWebKit/537.36 (KHTML, like Gecko) Chrome/128.0.0.0 Safari/537.36","Macintosh","Chrome","128.0.0.0","OS X","10_15_7","https://app.prolific.com/","en-GB,en-US;q=0.9,en;q=0.8","6780db9dafd89add339abb6b","6877649eabb845cf142cd221","68931a52c44fcce8575be1c8","1","6780db9dafd89add339abb6b","1","2025-08-06T09:04:44.625Z","","","","","","","","","","","","","","","","","","","","","","","","","","","","","","","","","","","","","","","","","",""
"69379.80000019073","","","","survey-template","7","143495","0.0-4.0-3.0","153","1","2025-08-06 09:03:28","36c45c0696341be0efffe67d72a12abb","41.122.131.205","Mozilla/5.0 (Macintosh; Intel Mac OS X 10_15_7) AppleWebKit/537.36 (KHTML, like Gecko) Chrome/128.0.0.0 Safari/537.36","Macintosh","Chrome","128.0.0.0","OS X","10_15_7","https://app.prolific.com/","en-GB,en-US;q=0.9,en;q=0.8","6780db9dafd89add339abb6b","6877649eabb845cf142cd221","68931a52c44fcce8575be1c8","1","6780db9dafd89add339abb6b","1","2025-08-06T09:05:54.013Z","","","","drsp","{""Q01"":""3"",""Q02"":""3"",""Q03"":""1"",""Q04"":""3"",""Q05"":""3"",""Q06"":""4"",""Q07"":""3"",""Q08"":""2"",""Q09"":""3"",""Q10"":""3"",""Q11"":""4"",""Q12"":""2"",""Q13"":""5"",""Q14"":""2"",""Q15"":""3"",""Q16"":""3"",""Q17"":""2"",""Q18"":""3"",""Q19"":""4"",""Q20"":""2"",""Q21"":""1"",""Q22"":""2""}","[0,1,2,3,4,5,6,7,8,9,10,11,12,13,14,15,16,17,18,19,20,21]","[""Q13"",""Q02"",""Q01"",""Q03"",""Q03"",""Q04"",""Q05"",""Q06"",""Q07"",""Q09"",""Q08"",""Q11"",""Q10"",""Q13"",""Q12"",""Q14"",""Q15"",""Q16"",""Q17"",""Q18"",""Q19"",""Q20"",""Q21"",""Q13"",""Q22""]","[3781.7000002861023,7468,8102,9117.800000190735,11386.099999904633,12520,13928.900000095367,15508,16829.700000286102,19069,20457,23353,25733.900000095367,28342.5,30681.800000190735,33954.90000009537,36429.2000002861,37602.800000190735,39868.7000002861,40730.800000190735,42850.7000002861,43886.800000190735,46262.2000002861,56075.800000190735,67295.80000019073]","[]","[0,3781.7000002861023,6508.700000286102,7468,8102,8733.400000095367,9117.800000190735,11386.099999904633,12520,13928.900000095367,15508,16829.700000286102,18429.300000190735,19069,20015,20457,22518.900000095367,23353,24107.300000190735,25280.200000286102,25733.900000095367,26690.400000095367,27612.099999904633,28342.5,28998.700000286102,30305.700000286102,30681.800000190735,33954.90000009537,34979.300000190735,36429.2000002861,36983.09999990463,37602.800000190735,39868.7000002861,40730.800000190735,41740.09999990463,42377,42850.7000002861,43886.800000190735,46262.2000002861,49264.40000009537,56075.800000190735,67295.80000019073,69372.2000002861]","0.45454545454545453","0.5238095238095238","0","","","","","","","","","","","","","","","","","","","","","","","","","","","","",""
"6425.599999904633","","","","survey-template","8","149929","0.0-4.0-4.0","153","1","2025-08-06 09:03:28","36c45c0696341be0efffe67d72a12abb","41.122.131.205","Mozilla/5.0 (Macintosh; Intel Mac OS X 10_15_7) AppleWebKit/537.36 (KHTML, like Gecko) Chrome/128.0.0.0 Safari/537.36","Macintosh","Chrome","128.0.0.0","OS X","10_15_7","https://app.prolific.com/","en-GB,en-US;q=0.9,en;q=0.8","6780db9dafd89add339abb6b","6877649eabb845cf142cd221","68931a52c44fcce8575be1c8","1","6780db9dafd89add339abb6b","1","2025-08-06T09:06:00.448Z","","","","stress","{""Q01"":""3"",""Q02"":""1"",""Q03"":""3""}","[0,1,2]","[""Q01"",""Q02"",""Q03""]","[2248.3999996185303,3680.2999997138977,5510.199999809265]","[]","[2248.3999996185303,3680.2999997138977,4674.39999961853,5510.199999809265,6424.099999904633]","0.6666666666666666","1","0","","","","","","","","","","","","","","","","","","","","","","","","","","","","",""
"132249","","","","instructions","9","282195","0.0-5.0-0.0","153","1","2025-08-06 09:03:28","36c45c0696341be0efffe67d72a12abb","41.122.131.205","Mozilla/5.0 (Macintosh; Intel Mac OS X 10_15_7) AppleWebKit/537.36 (KHTML, like Gecko) Chrome/128.0.0.0 Safari/537.36","Macintosh","Chrome","128.0.0.0","OS X","10_15_7","https://app.prolific.com/","en-GB,en-US;q=0.9,en;q=0.8","6780db9dafd89add339abb6b","6877649eabb845cf142cd221","68931a52c44fcce8575be1c8","1","6780db9dafd89add339abb6b","1","","","","","","","","","","","","","","","[{""page_index"":0,""viewing_time"":132249}]","","","","","","","","","","","","","","","","","","","","","","","","","","","",""
"4404","","<p>Before you start with this game please answer the following three questions yourself. </p>
  <p>Through this game, we measure several aspects of your cognitive performance, such as reaction times, multi-tasking capabilities </p>
  <p>and the ability to assess the situation you are in.</p>
  <p></p>
  <p><b>How good do you usually are in such tasks?</b></p>","80","html-slider-response","10","286601","0.0-6.0-0.0","153","1","2025-08-06 09:03:28","36c45c0696341be0efffe67d72a12abb","41.122.131.205","Mozilla/5.0 (Macintosh; Intel Mac OS X 10_15_7) AppleWebKit/537.36 (KHTML, like Gecko) Chrome/128.0.0.0 Safari/537.36","Macintosh","Chrome","128.0.0.0","OS X","10_15_7","https://app.prolific.com/","en-GB,en-US;q=0.9,en;q=0.8","6780db9dafd89add339abb6b","6877649eabb845cf142cd221","68931a52c44fcce8575be1c8","1","6780db9dafd89add339abb6b","1","2025-08-06T09:08:17.119Z","","","","PreSkillQ","","","","","","","","","","","50","","","","","","","","","","","","","","","","","","","","","","","","","","",""
"2905","","<div style=""width:500px;"">
  <p>How well do you think you will perform in this task compared to other participants?</p>
  </div>","75","html-slider-response","11","289507","0.0-6.0-1.0","153","1","2025-08-06 09:03:28","36c45c0696341be0efffe67d72a12abb","41.122.131.205","Mozilla/5.0 (Macintosh; Intel Mac OS X 10_15_7) AppleWebKit/537.36 (KHTML, like Gecko) Chrome/128.0.0.0 Safari/537.36","Macintosh","Chrome","128.0.0.0","OS X","10_15_7","https://app.prolific.com/","en-GB,en-US;q=0.9,en;q=0.8","6780db9dafd89add339abb6b","6877649eabb845cf142cd221","68931a52c44fcce8575be1c8","1","6780db9dafd89add339abb6b","1","2025-08-06T09:08:20.026Z","","","","PrePerfQ","","","","","","","","","","","50","","","","","","","","","","","","","","","","","","","","","","","","","","",""
"2533","","<div style=""width:500px;"">
  <p>What best describes how you currently feel?</p>
  </div>","75","html-slider-response","12","292042","0.0-6.0-2.0","153","1","2025-08-06 09:03:28","36c45c0696341be0efffe67d72a12abb","41.122.131.205","Mozilla/5.0 (Macintosh; Intel Mac OS X 10_15_7) AppleWebKit/537.36 (KHTML, like Gecko) Chrome/128.0.0.0 Safari/537.36","Macintosh","Chrome","128.0.0.0","OS X","10_15_7","https://app.prolific.com/","en-GB,en-US;q=0.9,en;q=0.8","6780db9dafd89add339abb6b","6877649eabb845cf142cd221","68931a52c44fcce8575be1c8","1","6780db9dafd89add339abb6b","1","2025-08-06T09:08:22.560Z","","","","PreMotivationQ","","","","","","","","","","","50","","","","","","","","","","","","","","","","","","","","","","","","","","",""
"","","","","ctl-task-cpt","13","316410","0.0-7.0-0.0","153","1","2025-08-06 09:03:28","36c45c0696341be0efffe67d72a12abb","41.122.131.205","Mozilla/5.0 (Macintosh; Intel Mac OS X 10_15_7) AppleWebKit/537.36 (KHTML, like Gecko) Chrome/128.0.0.0 Safari/537.36","Macintosh","Chrome","128.0.0.0","OS X","10_15_7","https://app.prolific.com/","en-GB,en-US;q=0.9,en;q=0.8","6780db9dafd89add339abb6b","6877649eabb845cf142cd221","68931a52c44fcce8575be1c8","1","6780db9dafd89add339abb6b","1","2025-08-06T09:08:46.928Z","","","","","","","","","","","","","","","","win-only","3","g1:SW,g2:NE","1","1","0","294479.5","984.2","5986.8","21357.5","1","4","8","6","2","8","7","7","0","0.05303030303030303","1196.4","3000","855","[""up"",""right""]","{""num_key_presses"":6,""num_perfect"":5,""num_errors"":1,""num_randdir"":0,""num_randdir_good_moves"":0,""num_whilered"":0,""num_whileblue"":1,""num_blue"":1,""num_good_moves"":6}","[349.5428623514516,347.3584873189019,0.2,349.5428623514516,347.3584873189019,102.1,347.14286231568883,348.95848734274375,203.4,346.3428623037679,349.7584873546647,306.3,346.3428623037679,349.7584873546647,407.6,408.74286323360036,320.1584869135903,514.1,525.542864974056,251.3584858883904,617.1,586.3428658800466,164.95848460093006,717.5,604.742866154228,116.95848388567433,821.8,611.1428662495954,108.15848375454411,922.9,612.7428662734372,102.5584836710976,1029.3,619.1428663688047,88.95848346844181,1129.6,620.7428663926465,86.55848343267903,1232.2,620.7428663926465,86.55848343267903,1337.2,623.9428664403302,115.35848386183247,1438.3,584.7428658562047,217.75848538771137,1543.6,491.14286446145604,247.35848582878575,1647.3,491.14286446145604,247.35848582878575,1752.1,491.14286446145604,247.35848582878575,1852.2,491.14286446145604,247.35848582878575,1952.3,491.14286446145604,247.35848582878575,2057.3,491.14286446145604,247.35848582878575,2161.2,491.14286446145604,247.35848582878575,2261.3,491.14286446145604,247.35848582878575,2361.3,491.14286446145604,247.35848582878575,2461.4,491.14286446145604,247.35848582878575,2567.2,491.14286446145604,247.35848582878575,2671.7,491.14286446145604,247.35848582878575,2772,491.14286446145604,247.35848582878575,2876.8,491.14286446145604,247.35848582878575,2981.8,491.14286446145604,247.35848582878575,3087.9,491.14286446145604,247.35848582878575,3191.8,491.14286446145604,247.35848582878575,3292.1,491.14286446145604,247.35848582878575,3396.3,491.14286446145604,247.35848582878575,3496.3,491.14286446145604,247.35848582878575,3596.4,491.14286446145604,247.35848582878575,3697.2,491.14286446145604,247.35848582878575,3801.9,491.14286446145604,247.35848582878575,3901.9,491.14286446145604,247.35848582878575,4002,491.14286446145604,247.35848582878575,4107.4,491.14286446145604,247.35848582878575,4207.5,491.14286446145604,247.35848582878575,4311.3,491.14286446145604,247.35848582878575,4412.1,491.14286446145604,247.35848582878575,4517.1,491.14286446145604,247.35848582878575,4622.1,491.14286446145604,247.35848582878575,4727.3,491.14286446145604,247.35848582878575,4831.7,491.14286446145604,247.35848582878575,4937.2]","[1465.7,1465.8,1000,0,465.9,""smooth"",""right"",""right"",""good_move"",4343.1,2876.4,2522.3,1466.7,354.1,""smooth"",""right"",""right"",""good_move"",7348.7,3004.9,2556.3,4343.8,448.6,""smooth"",""up"",""up"",""good_move"",10527.4,3178.2,2688.4,7349.2,489.8,""smooth"",""up"",""up"",""good_move"",12568,2040.2,1597.7,10527.8,442.5,""smooth"",""up"",""up"",""good_move"",15282.1,2713.5,2340.8,12568.6,372.7,""while_blue"",""right"",""right"",""good_move""]"
"3444","","<div style=""width:500px;"">
  <p>What determined the result of this run?</p>
  </div>","97","html-slider-response","14","319856","0.0-7.0-1.0","153","1","2025-08-06 09:03:28","36c45c0696341be0efffe67d72a12abb","41.122.131.205","Mozilla/5.0 (Macintosh; Intel Mac OS X 10_15_7) AppleWebKit/537.36 (KHTML, like Gecko) Chrome/128.0.0.0 Safari/537.36","Macintosh","Chrome","128.0.0.0","OS X","10_15_7","https://app.prolific.com/","en-GB,en-US;q=0.9,en;q=0.8","6780db9dafd89add339abb6b","6877649eabb845cf142cd221","68931a52c44fcce8575be1c8","1","6780db9dafd89add339abb6b","1","2025-08-06T09:08:50.374Z","","","","AttribQ","","","","","","","","","","","50","","","","","","","","","","","","","","","","","","","","","","","","","","",""
"2254","","<div style=""width:500px;"">
  <p>How much control did you have over the ball?</p>
  </div>","65","html-slider-response","15","322111","0.0-7.0-2.0","153","1","2025-08-06 09:03:28","36c45c0696341be0efffe67d72a12abb","41.122.131.205","Mozilla/5.0 (Macintosh; Intel Mac OS X 10_15_7) AppleWebKit/537.36 (KHTML, like Gecko) Chrome/128.0.0.0 Safari/537.36","Macintosh","Chrome","128.0.0.0","OS X","10_15_7","https://app.prolific.com/","en-GB,en-US;q=0.9,en;q=0.8","6780db9dafd89add339abb6b","6877649eabb845cf142cd221","68931a52c44fcce8575be1c8","1","6780db9dafd89add339abb6b","1","2025-08-06T09:08:52.629Z","","","","ControlQ","","","","","","","","","","","50","","","","","","","","","","","","","","","","","","","","","","","","","","",""
"2259","","<div style=""width:500px;"">
  <p>How would you describe your current emotional state?</p>
  </div>","38","html-slider-response","16","324372","0.0-7.0-3.0","153","1","2025-08-06 09:03:28","36c45c0696341be0efffe67d72a12abb","41.122.131.205","Mozilla/5.0 (Macintosh; Intel Mac OS X 10_15_7) AppleWebKit/537.36 (KHTML, like Gecko) Chrome/128.0.0.0 Safari/537.36","Macintosh","Chrome","128.0.0.0","OS X","10_15_7","https://app.prolific.com/","en-GB,en-US;q=0.9,en;q=0.8","6780db9dafd89add339abb6b","6877649eabb845cf142cd221","68931a52c44fcce8575be1c8","1","6780db9dafd89add339abb6b","1","2025-08-06T09:08:54.890Z","","","","StressQ","","","","","","","","","","","50","","","","","","","","","","","","","","","","","","","","","","","","","","",""
"2144","","<div style=""width:500px;"">
  <p>What best describes how you currently feel?</p>
  </div>","74","html-slider-response","17","326518","0.0-7.0-4.0","153","1","2025-08-06 09:03:28","36c45c0696341be0efffe67d72a12abb","41.122.131.205","Mozilla/5.0 (Macintosh; Intel Mac OS X 10_15_7) AppleWebKit/537.36 (KHTML, like Gecko) Chrome/128.0.0.0 Safari/537.36","Macintosh","Chrome","128.0.0.0","OS X","10_15_7","https://app.prolific.com/","en-GB,en-US;q=0.9,en;q=0.8","6780db9dafd89add339abb6b","6877649eabb845cf142cd221","68931a52c44fcce8575be1c8","1","6780db9dafd89add339abb6b","1","2025-08-06T09:08:57.036Z","","","","MotivationQ","","","","","","","","","","","50","","","","","","","","","","","","","","","","","","","","","","","","","","",""
"","","","","ctl-task-cpt","18","347895","0.0-7.0-0.1","153","1","2025-08-06 09:03:28","36c45c0696341be0efffe67d72a12abb","41.122.131.205","Mozilla/5.0 (Macintosh; Intel Mac OS X 10_15_7) AppleWebKit/537.36 (KHTML, like Gecko) Chrome/128.0.0.0 Safari/537.36","Macintosh","Chrome","128.0.0.0","OS X","10_15_7","https://app.prolific.com/","en-GB,en-US;q=0.9,en;q=0.8","6780db9dafd89add339abb6b","6877649eabb845cf142cd221","68931a52c44fcce8575be1c8","1","6780db9dafd89add339abb6b","1","2025-08-06T09:09:18.413Z","","","","","","","","","","","","","","","","win-only","1","g1:NE,g2:SW","0.9","2","0","328951.6","965.5","5971.1","18363.3","1","4","4","6","2","-4","-4","3","7","0.022727272727272728","1615.7","3000","-2915","[""down"",""left""]","{""num_key_presses"":2,""num_perfect"":2,""num_errors"":0,""num_randdir"":0,""num_randdir_good_moves"":0,""num_whilered"":0,""num_whileblue"":0,""num_blue"":1,""num_good_moves"":1}","[351.1428623752935,344.1584872712182,0.4,351.1428623752935,344.1584872712182,100,357.5428624706609,355.3584874381112,200,455.94286393693517,456.15848894014823,300.4,595.1428660111768,508.95848972692954,401,929.5428709941251,508.95848972692954,506,1066.3428730326038,332.15848709240424,611.4,1041.542872663055,236.95848567381367,713.9,523.9428649502141,143.35848427906498,815.2,171.94285970500536,351.35848737850654,915.9,122.34285896590777,431.35848857059943,1016.2,125.54285901359148,489.75848944082725,1120.9,102.34285866788454,523.3584899415063,1226.2,76.74285828641482,560.158490489869,1334.7,78.34285831025667,605.758491169362,1436.2,78.34285831025667,616.158491324334,1540.8,79.1428583221776,615.3584913124131,1649.4,79.1428583221776,614.5584913004922,1750.7,79.94285833409853,612.1584912647294,1852.6,78.34285831025667,599.3584910739945,1955.7,74.34285825065203,588.1584909071015,2061.2,74.34285825065203,588.1584909071015,2165.4,74.34285825065203,588.1584909071015,2266,74.34285825065203,588.1584909071015,2366,74.34285825065203,588.1584909071015,2470.4,74.34285825065203,588.1584909071015,2578.1,74.34285825065203,588.1584909071015,2680.9,74.34285825065203,588.1584909071015,2780.9,74.34285825065203,588.1584909071015,2885,74.34285825065203,588.1584909071015,2986.1,74.34285825065203,588.1584909071015,3086.3,74.34285825065203,588.1584909071015,3190.2,74.34285825065203,588.1584909071015,3291.7,74.34285825065203,588.1584909071015,3395.3,74.34285825065203,588.1584909071015,3495.7,74.34285825065203,588.1584909071015,3597.5,74.34285825065203,588.1584909071015,3697.8,74.34285825065203,588.1584909071015,3800.9,74.34285825065203,588.1584909071015,3905.3,74.34285825065203,588.1584909071015,4005.3,74.34285825065203,588.1584909071015,4105.4,74.34285825065203,588.1584909071015,4205.8,74.34285825065203,588.1584909071015,4306,74.34285825065203,588.1584909071015,4410,74.34285825065203,588.1584909071015,4510,74.34285825065203,588.1584909071015,4610.4,74.34285825065203,588.1584909071015,4710.7,74.34285825065203,588.1584909071015,4810.8,74.34285825065203,588.1584909071015,4911.6]","[1482.5,1482.6,1000,0,482.6,""smooth"",""right"",""right"",""bad_move"",4521.2,3038.5,2555.1,1482.7,483.4,""smooth"",""left"",""left"",""good_move""]"
"11416","","<div style=""width:500px;"">
  <p>What determined the result of this run?</p>
  </div>","14","html-slider-response","19","359312","0.0-7.0-1.1","153","1","2025-08-06 09:03:28","36c45c0696341be0efffe67d72a12abb","41.122.131.205","Mozilla/5.0 (Macintosh; Intel Mac OS X 10_15_7) AppleWebKit/537.36 (KHTML, like Gecko) Chrome/128.0.0.0 Safari/537.36","Macintosh","Chrome","128.0.0.0","OS X","10_15_7","https://app.prolific.com/","en-GB,en-US;q=0.9,en;q=0.8","6780db9dafd89add339abb6b","6877649eabb845cf142cd221","68931a52c44fcce8575be1c8","1","6780db9dafd89add339abb6b","1","2025-08-06T09:09:29.831Z","","","","AttribQ","","","","","","","","","","","50","","","","","","","","","","","","","","","","","","","","","","","","","","",""
"3981","","<div style=""width:500px;"">
  <p>How much control did you have over the ball?</p>
  </div>","43","html-slider-response","20","363296","0.0-7.0-2.1","153","1","2025-08-06 09:03:28","36c45c0696341be0efffe67d72a12abb","41.122.131.205","Mozilla/5.0 (Macintosh; Intel Mac OS X 10_15_7) AppleWebKit/537.36 (KHTML, like Gecko) Chrome/128.0.0.0 Safari/537.36","Macintosh","Chrome","128.0.0.0","OS X","10_15_7","https://app.prolific.com/","en-GB,en-US;q=0.9,en;q=0.8","6780db9dafd89add339abb6b","6877649eabb845cf142cd221","68931a52c44fcce8575be1c8","1","6780db9dafd89add339abb6b","1","2025-08-06T09:09:33.814Z","","","","ControlQ","","","","","","","","","","","50","","","","","","","","","","","","","","","","","","","","","","","","","","",""
"3361","","<div style=""width:500px;"">
  <p>How would you describe your current emotional state?</p>
  </div>","39","html-slider-response","21","366660","0.0-7.0-3.1","153","1","2025-08-06 09:03:28","36c45c0696341be0efffe67d72a12abb","41.122.131.205","Mozilla/5.0 (Macintosh; Intel Mac OS X 10_15_7) AppleWebKit/537.36 (KHTML, like Gecko) Chrome/128.0.0.0 Safari/537.36","Macintosh","Chrome","128.0.0.0","OS X","10_15_7","https://app.prolific.com/","en-GB,en-US;q=0.9,en;q=0.8","6780db9dafd89add339abb6b","6877649eabb845cf142cd221","68931a52c44fcce8575be1c8","1","6780db9dafd89add339abb6b","1","2025-08-06T09:09:37.178Z","","","","StressQ","","","","","","","","","","","50","","","","","","","","","","","","","","","","","","","","","","","","","","",""
"3490","","<div style=""width:500px;"">
  <p>What best describes how you currently feel?</p>
  </div>","58","html-slider-response","22","370151","0.0-7.0-4.1","153","1","2025-08-06 09:03:28","36c45c0696341be0efffe67d72a12abb","41.122.131.205","Mozilla/5.0 (Macintosh; Intel Mac OS X 10_15_7) AppleWebKit/537.36 (KHTML, like Gecko) Chrome/128.0.0.0 Safari/537.36","Macintosh","Chrome","128.0.0.0","OS X","10_15_7","https://app.prolific.com/","en-GB,en-US;q=0.9,en;q=0.8","6780db9dafd89add339abb6b","6877649eabb845cf142cd221","68931a52c44fcce8575be1c8","1","6780db9dafd89add339abb6b","1","2025-08-06T09:09:40.669Z","","","","MotivationQ","","","","","","","","","","","50","","","","","","","","","","","","","","","","","","","","","","","","","","",""
"","","","","ctl-task-cpt","23","404690","0.0-7.0-0.2","153","1","2025-08-06 09:03:28","36c45c0696341be0efffe67d72a12abb","41.122.131.205","Mozilla/5.0 (Macintosh; Intel Mac OS X 10_15_7) AppleWebKit/537.36 (KHTML, like Gecko) Chrome/128.0.0.0 Safari/537.36","Macintosh","Chrome","128.0.0.0","OS X","10_15_7","https://app.prolific.com/","en-GB,en-US;q=0.9,en;q=0.8","6780db9dafd89add339abb6b","6877649eabb845cf142cd221","68931a52c44fcce8575be1c8","1","6780db9dafd89add339abb6b","1","2025-08-06T09:10:15.208Z","","","","","","","","","","","","","","","","win-only","3","g1:SW,g2:NE","0.8","3","0","372585.9","822.3","5830.3","31522","1","4","4","6","2","-4","-4","0","3","0","1726.4","3000","-2890","[""up"",""right""]","{""num_key_presses"":7,""num_perfect"":6,""num_errors"":0,""num_randdir"":1,""num_randdir_good_moves"":0,""num_whilered"":0,""num_whileblue"":0,""num_blue"":1,""num_good_moves"":6}","[347.14286231568883,348.1584873308228,0.5,346.3428623037679,348.1584873308228,106.4,343.1428622560842,352.15848739042747,215.5,331.9428620891912,365.75848759308326,315.7,280.7428613262517,384.1584878672646,418,197.5428600864751,445.75848878517616,518.4,171.94285970500536,512.1584897746133,618.7,159.1428595142705,558.5584904660271,719.4,225.5428605037076,494.5584895123528,823.5,365.5428625898702,355.3584874381112,924.4,482.3428643303258,225.75848550692066,1028.6,543.1428652363164,140.15848423138127,1129.4,548.7428653197629,132.9584841240929,1230.7,559.142865474735,129.7584840764092,1336.4,584.7428658562047,102.5584836710976,1443.4,595.1428660111768,88.15848345652088,1545.5,597.5428660469396,87.35848344459995,1649.5,597.5428660469396,88.15848345652088,1760.2,596.7428660350187,100.95848364725575,1861.9,565.5428655701024,205.75848520889744,1967,448.7428638296468,336.9584871639298,2070.1,361.54286253026555,364.1584875692414,2182,361.54286253026555,364.1584875692414,2284.3,361.54286253026555,364.1584875692414,2385.2,361.54286253026555,364.1584875692414,2491.6,361.54286253026555,364.1584875692414,2593.1,361.54286253026555,364.1584875692414,2693.1,361.54286253026555,364.1584875692414,2793.4,361.54286253026555,364.1584875692414,2894.1,361.54286253026555,364.1584875692414,2998.4,361.54286253026555,364.1584875692414,3099.4,361.54286253026555,364.1584875692414,3207.4,361.54286253026555,364.1584875692414,3309.6,361.54286253026555,364.1584875692414,3412.4,361.54286253026555,364.1584875692414,3514.4,361.54286253026555,364.1584875692414,3619,361.54286253026555,364.1584875692414,3726.5,361.54286253026555,364.1584875692414,3829.2,361.54286253026555,364.1584875692414,3934.4,361.54286253026555,364.1584875692414,4035.1,361.54286253026555,364.1584875692414,4138.6,361.54286253026555,364.1584875692414,4240.6,361.54286253026555,364.1584875692414,4340.9,361.54286253026555,364.1584875692414,4441.3,361.54286253026555,364.1584875692414,4541.8,361.54286253026555,364.1584875692414,4642.5,361.54286253026555,364.1584875692414,4743.6,361.54286253026555,364.1584875692414,4848.3,361.54286253026555,364.1584875692414,4948.9]","[1728.2,1728.2,1000,0,728.2,""smooth"",""right"",""right"",""good_move"",4733,3004.5,2563.2,1728.6,441.2,""smooth"",""right"",""right"",""good_move"",6750.7,2017.5,1622.5,4733.2,395,""smooth"",""right"",""right"",""good_move"",10143,3391.9,3019.6,6751.1,372.3,""smooth"",""up"",""up"",""good_move"",13232.6,3089.2,2703.6,10143.4,385.6,""oops"",""up"",""down"",""bad_move"",19818,6585,2540.5,16876.1,401.4,""smooth"",""up"",""up"",""good_move"",23496.8,3678.5,3315.3,19818.3,363.2,""smooth"",""up"",""up"",""good_move""]"
"101026","","<div style=""width:500px;"">
  <p>What determined the result of this run?</p>
  </div>","39","html-slider-response","24","505720","0.0-7.0-1.2","153","1","2025-08-06 09:03:28","36c45c0696341be0efffe67d72a12abb","41.122.131.205","Mozilla/5.0 (Macintosh; Intel Mac OS X 10_15_7) AppleWebKit/537.36 (KHTML, like Gecko) Chrome/128.0.0.0 Safari/537.36","Macintosh","Chrome","128.0.0.0","OS X","10_15_7","https://app.prolific.com/","en-GB,en-US;q=0.9,en;q=0.8","6780db9dafd89add339abb6b","6877649eabb845cf142cd221","68931a52c44fcce8575be1c8","1","6780db9dafd89add339abb6b","1","2025-08-06T09:11:56.238Z","","","","AttribQ","","","","","","","","","","","50","","","","","","","","","","","","","","","","","","","","","","","","","","",""
"2493","","<div style=""width:500px;"">
  <p>How much control did you have over the ball?</p>
  </div>","34","html-slider-response","25","508215","0.0-7.0-2.2","153","1","2025-08-06 09:03:28","36c45c0696341be0efffe67d72a12abb","41.122.131.205","Mozilla/5.0 (Macintosh; Intel Mac OS X 10_15_7) AppleWebKit/537.36 (KHTML, like Gecko) Chrome/128.0.0.0 Safari/537.36","Macintosh","Chrome","128.0.0.0","OS X","10_15_7","https://app.prolific.com/","en-GB,en-US;q=0.9,en;q=0.8","6780db9dafd89add339abb6b","6877649eabb845cf142cd221","68931a52c44fcce8575be1c8","1","6780db9dafd89add339abb6b","1","2025-08-06T09:11:58.733Z","","","","ControlQ","","","","","","","","","","","50","","","","","","","","","","","","","","","","","","","","","","","","","","",""
"2267","","<div style=""width:500px;"">
  <p>How would you describe your current emotional state?</p>
  </div>","56","html-slider-response","26","510483","0.0-7.0-3.2","153","1","2025-08-06 09:03:28","36c45c0696341be0efffe67d72a12abb","41.122.131.205","Mozilla/5.0 (Macintosh; Intel Mac OS X 10_15_7) AppleWebKit/537.36 (KHTML, like Gecko) Chrome/128.0.0.0 Safari/537.36","Macintosh","Chrome","128.0.0.0","OS X","10_15_7","https://app.prolific.com/","en-GB,en-US;q=0.9,en;q=0.8","6780db9dafd89add339abb6b","6877649eabb845cf142cd221","68931a52c44fcce8575be1c8","1","6780db9dafd89add339abb6b","1","2025-08-06T09:12:01.001Z","","","","StressQ","","","","","","","","","","","50","","","","","","","","","","","","","","","","","","","","","","","","","","",""
"2642","","<div style=""width:500px;"">
  <p>What best describes how you currently feel?</p>
  </div>","57","html-slider-response","27","513127","0.0-7.0-4.2","153","1","2025-08-06 09:03:28","36c45c0696341be0efffe67d72a12abb","41.122.131.205","Mozilla/5.0 (Macintosh; Intel Mac OS X 10_15_7) AppleWebKit/537.36 (KHTML, like Gecko) Chrome/128.0.0.0 Safari/537.36","Macintosh","Chrome","128.0.0.0","OS X","10_15_7","https://app.prolific.com/","en-GB,en-US;q=0.9,en;q=0.8","6780db9dafd89add339abb6b","6877649eabb845cf142cd221","68931a52c44fcce8575be1c8","1","6780db9dafd89add339abb6b","1","2025-08-06T09:12:03.645Z","","","","MotivationQ","","","","","","","","","","","50","","","","","","","","","","","","","","","","","","","","","","","","","","",""
"","","","","ctl-task-cpt","28","537590","0.0-7.0-0.3","153","1","2025-08-06 09:03:28","36c45c0696341be0efffe67d72a12abb","41.122.131.205","Mozilla/5.0 (Macintosh; Intel Mac OS X 10_15_7) AppleWebKit/537.36 (KHTML, like Gecko) Chrome/128.0.0.0 Safari/537.36","Macintosh","Chrome","128.0.0.0","OS X","10_15_7","https://app.prolific.com/","en-GB,en-US;q=0.9,en;q=0.8","6780db9dafd89add339abb6b","6877649eabb845cf142cd221","68931a52c44fcce8575be1c8","1","6780db9dafd89add339abb6b","1","2025-08-06T09:12:28.109Z","","","","","","","","","","","","","","","","win-only","0","g1:NW,g2:SE","0.7","4","0","515556.2","780.8","5781.6","21441.8","1","4","8","6","2","8","8","8","0","0.06060606060606061","1023.9","3000","980","[""down"",""right""]","{""num_key_presses"":6,""num_perfect"":4,""num_errors"":0,""num_randdir"":2,""num_randdir_good_moves"":2,""num_whilered"":0,""num_whileblue"":0,""num_blue"":0,""num_good_moves"":6}","[346.3428623037679,357.75848747387397,0.3,346.3428623037679,357.75848747387397,101.2,345.542862291847,359.3584874977158,214.8,345.542862291847,360.15848750963676,318.5,347.94286232760976,375.3584877361344,422.7,424.74286347201894,478.55848927393424,528.9,563.1428655343396,568.1584906090783,642,575.1428657131536,576.1584907282876,742.1,591.1428659515722,590.5584909428643,846.7,641.5428667025907,603.3584911335992,953.1,642.3428667145116,604.958491157441,1062.2,642.3428667145116,604.958491157441,1165.5,638.342866654907,604.958491157441,1266,617.5428663449628,593.758490990548,1367.2,577.5428657489164,584.9584908594178,1473.3,577.5428657489164,584.9584908594178,1578.7,577.5428657489164,584.9584908594178,1681.9,577.5428657489164,584.9584908594178,1782,577.5428657489164,584.9584908594178,1886.7,577.5428657489164,584.9584908594178,1997.9,577.5428657489164,584.9584908594178,2101.7,577.5428657489164,584.9584908594178,2206.6,577.5428657489164,584.9584908594178,2311.2,577.5428657489164,584.9584908594178,2415.5,577.5428657489164,584.9584908594178,2516.7,577.5428657489164,584.9584908594178,2625.5,577.5428657489164,584.9584908594178,2726.9,577.5428657489164,584.9584908594178,2831.3,577.5428657489164,584.9584908594178,2931.8,577.5428657489164,584.9584908594178,3032.4,577.5428657489164,584.9584908594178,3137,577.5428657489164,584.9584908594178,3242,577.5428657489164,584.9584908594178,3346.9,577.5428657489164,584.9584908594178,3448.1,577.5428657489164,584.9584908594178,3556.3,577.5428657489164,584.9584908594178,3661.2,577.5428657489164,584.9584908594178,3765.4,577.5428657489164,584.9584908594178,3866,577.5428657489164,584.9584908594178,3970.9,577.5428657489164,584.9584908594178,4073.2,577.5428657489164,584.9584908594178,4177.9,577.5428657489164,584.9584908594178,4280.4,577.5428657489164,584.9584908594178,4381.1,577.5428657489164,584.9584908594178,4486.1,577.5428657489164,584.9584908594178,4587.9,577.5428657489164,584.9584908594178,4688.6,577.5428657489164,584.9584908594178,4790.4,577.5428657489164,584.9584908594178,4895,577.5428657489164,584.9584908594178,4997.2]","[1448.9,1448.9,1000,0,448.9,""oops"",""right"",""down"",""good_move"",4674.2,3224.7,2840.4,1449.5,384.3,""smooth"",""right"",""right"",""good_move"",7397.3,2722.5,2362.2,4674.8,360.3,""smooth"",""right"",""right"",""good_move"",10050.5,2652.1,2292.3,7398.4,359.8,""smooth"",""right"",""right"",""good_move"",12695.4,2644.2,2194.7,10051.2,449.6,""smooth"",""down"",""down"",""good_move"",15560,2863.8,2441,12696.3,422.7,""oops"",""down"",""down"",""good_move""]"
"549492","","<div style=""width:500px;"">
  <p>What determined the result of this run?</p>
  </div>","38","html-slider-response","29","1087102","0.0-7.0-1.3","153","1","2025-08-06 09:03:28","36c45c0696341be0efffe67d72a12abb","41.122.131.205","Mozilla/5.0 (Macintosh; Intel Mac OS X 10_15_7) AppleWebKit/537.36 (KHTML, like Gecko) Chrome/128.0.0.0 Safari/537.36","Macintosh","Chrome","128.0.0.0","OS X","10_15_7","https://app.prolific.com/","en-GB,en-US;q=0.9,en;q=0.8","6780db9dafd89add339abb6b","6877649eabb845cf142cd221","68931a52c44fcce8575be1c8","1","6780db9dafd89add339abb6b","1","2025-08-06T09:21:37.620Z","","","","AttribQ","","","","","","","","","","","50","","","","","","","","","","","","","","","","","","","","","","","","","","",""
"1932","","<div style=""width:500px;"">
  <p>How much control did you have over the ball?</p>
  </div>","61","html-slider-response","30","1089040","0.0-7.0-2.3","153","1","2025-08-06 09:03:28","36c45c0696341be0efffe67d72a12abb","41.122.131.205","Mozilla/5.0 (Macintosh; Intel Mac OS X 10_15_7) AppleWebKit/537.36 (KHTML, like Gecko) Chrome/128.0.0.0 Safari/537.36","Macintosh","Chrome","128.0.0.0","OS X","10_15_7","https://app.prolific.com/","en-GB,en-US;q=0.9,en;q=0.8","6780db9dafd89add339abb6b","6877649eabb845cf142cd221","68931a52c44fcce8575be1c8","1","6780db9dafd89add339abb6b","1","2025-08-06T09:21:39.558Z","","","","ControlQ","","","","","","","","","","","50","","","","","","","","","","","","","","","","","","","","","","","","","","",""
"1559","","<div style=""width:500px;"">
  <p>How would you describe your current emotional state?</p>
  </div>","59","html-slider-response","31","1090602","0.0-7.0-3.3","153","1","2025-08-06 09:03:28","36c45c0696341be0efffe67d72a12abb","41.122.131.205","Mozilla/5.0 (Macintosh; Intel Mac OS X 10_15_7) AppleWebKit/537.36 (KHTML, like Gecko) Chrome/128.0.0.0 Safari/537.36","Macintosh","Chrome","128.0.0.0","OS X","10_15_7","https://app.prolific.com/","en-GB,en-US;q=0.9,en;q=0.8","6780db9dafd89add339abb6b","6877649eabb845cf142cd221","68931a52c44fcce8575be1c8","1","6780db9dafd89add339abb6b","1","2025-08-06T09:21:41.120Z","","","","StressQ","","","","","","","","","","","50","","","","","","","","","","","","","","","","","","","","","","","","","","",""
"3041","","<div style=""width:500px;"">
  <p>What best describes how you currently feel?</p>
  </div>","41","html-slider-response","32","1093650","0.0-7.0-4.3","153","1","2025-08-06 09:03:28","36c45c0696341be0efffe67d72a12abb","41.122.131.205","Mozilla/5.0 (Macintosh; Intel Mac OS X 10_15_7) AppleWebKit/537.36 (KHTML, like Gecko) Chrome/128.0.0.0 Safari/537.36","Macintosh","Chrome","128.0.0.0","OS X","10_15_7","https://app.prolific.com/","en-GB,en-US;q=0.9,en;q=0.8","6780db9dafd89add339abb6b","6877649eabb845cf142cd221","68931a52c44fcce8575be1c8","1","6780db9dafd89add339abb6b","1","2025-08-06T09:21:44.168Z","","","","MotivationQ","","","","","","","","","","","50","","","","","","","","","","","","","","","","","","","","","","","","","","",""
"","","","","ctl-task-cpt","33","1125825","0.0-7.0-0.4","153","1","2025-08-06 09:03:28","36c45c0696341be0efffe67d72a12abb","41.122.131.205","Mozilla/5.0 (Macintosh; Intel Mac OS X 10_15_7) AppleWebKit/537.36 (KHTML, like Gecko) Chrome/128.0.0.0 Safari/537.36","Macintosh","Chrome","128.0.0.0","OS X","10_15_7","https://app.prolific.com/","en-GB,en-US;q=0.9,en;q=0.8","6780db9dafd89add339abb6b","6877649eabb845cf142cd221","68931a52c44fcce8575be1c8","1","6780db9dafd89add339abb6b","1","2025-08-06T09:22:16.343Z","","","","","","","","","","","","","","","","win-only","2","g1:SE,g2:NW","0.6","5","0","1096066.6","1070.2","6074.2","29147.1","1","4","4","6","2","4","4","12","8","0.09090909090909091","1595.4","3000","1100","[""left"",""up""]","{""num_key_presses"":6,""num_perfect"":5,""num_errors"":0,""num_randdir"":1,""num_randdir_good_moves"":1,""num_whilered"":0,""num_whileblue"":0,""num_blue"":2,""num_good_moves"":6}","[353.54286241105626,347.3584873189019,3.6,353.54286241105626,347.3584873189019,106.7,353.54286241105626,347.3584873189019,207,356.74286245874,346.55848730698096,310.1,475.14286422303746,368.958487640767,440.4,507.1428646998746,436.95848865404594,605.6,468.74286412767003,411.3584882725762,713.2,266.342861111675,216.95848537579045,816.6,181.5428598480565,144.95848430290684,938.3,179.14285981229372,144.1584842909859,1046.6,127.94285904935427,103.35848368301853,1168.5,114.34285884669848,93.75848353996739,1270.7,100.74285864404268,86.55848343267903,1376.8,87.94285845330782,79.35848332539067,1503.9,88.74285846522875,79.35848332539067,1604,88.74285846522875,79.35848332539067,1713.1,88.74285846522875,79.35848332539067,1816.1,96.74285858443804,91.3584835042046,1929.4,75.14285826257296,142.55848426714405,2030.7,65.54285811952181,173.75848473206028,2134.9,65.54285811952181,173.75848473206028,2238.2,65.54285811952181,173.75848473206028,2343,65.54285811952181,173.75848473206028,2451.5,65.54285811952181,173.75848473206028,2553.6,65.54285811952181,173.75848473206028,2656.6,65.54285811952181,173.75848473206028,2757.1,65.54285811952181,173.75848473206028,2858.1,65.54285811952181,173.75848473206028,2961,65.54285811952181,173.75848473206028,3064.9,65.54285811952181,173.75848473206028,3175.9,65.54285811952181,173.75848473206028,3278.6,65.54285811952181,173.75848473206028,3382.6,65.54285811952181,173.75848473206028,3488.9,65.54285811952181,173.75848473206028,3592.8,65.54285811952181,173.75848473206028,3697.2,65.54285811952181,173.75848473206028,3803.6,65.54285811952181,173.75848473206028,3905.7,65.54285811952181,173.75848473206028,4008.5,65.54285811952181,173.75848473206028,4110.9,65.54285811952181,173.75848473206028,4213,65.54285811952181,173.75848473206028,4317.3,65.54285811952181,173.75848473206028,4428,65.54285811952181,173.75848473206028,4530.1,65.54285811952181,173.75848473206028,4635.1,65.54285811952181,173.75848473206028,4739.9,65.54285811952181,173.75848473206028,4840.9,65.54285811952181,173.75848473206028,4941.9]","[8585.6,8585.6,2760,5359.5,466.1,""smooth"",""left"",""left"",""good_move"",12124.3,3538.3,3087.6,8586,450.7,""smooth"",""left"",""left"",""good_move"",15287.7,3162.6,2688,12125.1,474.6,""oops"",""up"",""up"",""good_move"",18216.9,2928.5,2438.2,15288.4,490.3,""smooth"",""up"",""up"",""good_move"",20580.7,2363.4,1922.9,18217.3,440.5,""smooth"",""up"",""up"",""good_move"",22939.7,2358.2,1978.4,20581.5,379.8,""smooth"",""left"",""left"",""good_move""]"
"18118","","<div style=""width:500px;"">
  <p>What determined the result of this run?</p>
  </div>","62","html-slider-response","34","1143945","0.0-7.0-1.4","153","1","2025-08-06 09:03:28","36c45c0696341be0efffe67d72a12abb","41.122.131.205","Mozilla/5.0 (Macintosh; Intel Mac OS X 10_15_7) AppleWebKit/537.36 (KHTML, like Gecko) Chrome/128.0.0.0 Safari/537.36","Macintosh","Chrome","128.0.0.0","OS X","10_15_7","https://app.prolific.com/","en-GB,en-US;q=0.9,en;q=0.8","6780db9dafd89add339abb6b","6877649eabb845cf142cd221","68931a52c44fcce8575be1c8","1","6780db9dafd89add339abb6b","1","2025-08-06T09:22:34.463Z","","","","AttribQ","","","","","","","","","","","50","","","","","","","","","","","","","","","","","","","","","","","","","","",""
"1637","","<div style=""width:500px;"">
  <p>How much control did you have over the ball?</p>
  </div>","58","html-slider-response","35","1145584","0.0-7.0-2.4","153","1","2025-08-06 09:03:28","36c45c0696341be0efffe67d72a12abb","41.122.131.205","Mozilla/5.0 (Macintosh; Intel Mac OS X 10_15_7) AppleWebKit/537.36 (KHTML, like Gecko) Chrome/128.0.0.0 Safari/537.36","Macintosh","Chrome","128.0.0.0","OS X","10_15_7","https://app.prolific.com/","en-GB,en-US;q=0.9,en;q=0.8","6780db9dafd89add339abb6b","6877649eabb845cf142cd221","68931a52c44fcce8575be1c8","1","6780db9dafd89add339abb6b","1","2025-08-06T09:22:36.102Z","","","","ControlQ","","","","","","","","","","","50","","","","","","","","","","","","","","","","","","","","","","","","","","",""
"4079","","<div style=""width:500px;"">
  <p>How would you describe your current emotional state?</p>
  </div>","45","html-slider-response","36","1149665","0.0-7.0-3.4","153","1","2025-08-06 09:03:28","36c45c0696341be0efffe67d72a12abb","41.122.131.205","Mozilla/5.0 (Macintosh; Intel Mac OS X 10_15_7) AppleWebKit/537.36 (KHTML, like Gecko) Chrome/128.0.0.0 Safari/537.36","Macintosh","Chrome","128.0.0.0","OS X","10_15_7","https://app.prolific.com/","en-GB,en-US;q=0.9,en;q=0.8","6780db9dafd89add339abb6b","6877649eabb845cf142cd221","68931a52c44fcce8575be1c8","1","6780db9dafd89add339abb6b","1","2025-08-06T09:22:40.183Z","","","","StressQ","","","","","","","","","","","50","","","","","","","","","","","","","","","","","","","","","","","","","","",""
"6001","","<div style=""width:500px;"">
  <p>What best describes how you currently feel?</p>
  </div>","62","html-slider-response","37","1155667","0.0-7.0-4.4","153","1","2025-08-06 09:03:28","36c45c0696341be0efffe67d72a12abb","41.122.131.205","Mozilla/5.0 (Macintosh; Intel Mac OS X 10_15_7) AppleWebKit/537.36 (KHTML, like Gecko) Chrome/128.0.0.0 Safari/537.36","Macintosh","Chrome","128.0.0.0","OS X","10_15_7","https://app.prolific.com/","en-GB,en-US;q=0.9,en;q=0.8","6780db9dafd89add339abb6b","6877649eabb845cf142cd221","68931a52c44fcce8575be1c8","1","6780db9dafd89add339abb6b","1","2025-08-06T09:22:46.185Z","","","","MotivationQ","","","","","","","","","","","50","","","","","","","","","","","","","","","","","","","","","","","","","","",""
"","","","","ctl-task-cpt","38","1197199","0.0-7.0-0.5","153","1","2025-08-06 09:03:28","36c45c0696341be0efffe67d72a12abb","41.122.131.205","Mozilla/5.0 (Macintosh; Intel Mac OS X 10_15_7) AppleWebKit/537.36 (KHTML, like Gecko) Chrome/128.0.0.0 Safari/537.36","Macintosh","Chrome","128.0.0.0","OS X","10_15_7","https://app.prolific.com/","en-GB,en-US;q=0.9,en;q=0.8","6780db9dafd89add339abb6b","6877649eabb845cf142cd221","68931a52c44fcce8575be1c8","1","6780db9dafd89add339abb6b","1","2025-08-06T09:23:27.717Z","","","","","","","","","","","","","","","","win-only","3","g1:SW,g2:NE","0.5","6","0","1158078.4","1026.3","6031.9","38509.3","1","4","8","6","2","8","8","20","12","0.15151515151515152","1060.5","3000","395","[""up"",""right""]","{""num_key_presses"":8,""num_perfect"":4,""num_errors"":0,""num_randdir"":4,""num_randdir_good_moves"":3,""num_whilered"":0,""num_whileblue"":0,""num_blue"":3,""num_good_moves"":7}","[353.54286241105626,354.55848742619025,0.4,353.54286241105626,354.55848742619025,104,353.54286241105626,354.55848742619025,208.1,351.9428623872144,355.3584874381112,309.9,335.9428621487958,314.5584868301438,414.5,431.9428635793073,229.7584855665253,517.7,533.5428650932653,115.35848386183247,635.9,567.9428656058652,94.55848355188832,738.5,578.3428657608373,94.55848355188832,844.2,603.942866142307,86.55848343267903,953,604.742866154228,84.95848340883717,1062.8,604.742866154228,84.95848340883717,1176.4,589.5428659277303,118.55848390951618,1278.8,479.94286429456304,241.75848574533924,1380.4,422.34286343625615,300.958486627488,1491.6,415.1428633289678,297.7584865798043,1600,415.1428633289678,297.7584865798043,1702.9,415.1428633289678,297.7584865798043,1815.4,415.1428633289678,297.7584865798043,1923.5,415.1428633289678,297.7584865798043,2035.4,415.1428633289678,297.7584865798043,2135.7,415.1428633289678,297.7584865798043,2235.8,415.1428633289678,297.7584865798043,2341.4,415.1428633289678,297.7584865798043,2444.6,415.1428633289678,297.7584865798043,2549.8,415.1428633289678,297.7584865798043,2651.4,415.1428633289678,297.7584865798043,2753.6,415.1428633289678,297.7584865798043,2860.2,415.1428633289678,297.7584865798043,2963.2,415.1428633289678,297.7584865798043,3068.4,415.1428633289678,297.7584865798043,3177.6,415.1428633289678,297.7584865798043,3282.3,415.1428633289678,297.7584865798043,3384.4,415.1428633289678,297.7584865798043,3485.9,415.1428633289678,297.7584865798043,3592.5,415.1428633289678,297.7584865798043,3692.7,415.1428633289678,297.7584865798043,3796.1,415.1428633289678,297.7584865798043,3908.1,415.1428633289678,297.7584865798043,4010.9,415.1428633289678,297.7584865798043,4118.8,415.1428633289678,297.7584865798043,4222.5,415.1428633289678,297.7584865798043,4327.3,415.1428633289678,297.7584865798043,4433.2,415.1428633289678,297.7584865798043,4534.5,415.1428633289678,297.7584865798043,4639.7,415.1428633289678,297.7584865798043,4740.4,415.1428633289678,297.7584865798043,4844.8,415.1428633289678,297.7584865798043,4945.1]","[5121,5121,2547,2008,566,""oops"",""right"",""right"",""good_move"",8097.5,2975.8,2567.5,5121.7,408.3,""oops"",""right"",""right"",""good_move"",10738.6,2637.7,2016.6,8100.9,621.1,""smooth"",""up"",""up"",""good_move"",14180.5,3438.3,2760.1,10742.2,678.2,""oops"",""right"",""left"",""bad_move"",20929.9,6748.5,2542.3,17736.9,650.7,""smooth"",""up"",""up"",""good_move"",24440.3,3509.9,2553.3,20930.4,956.6,""oops"",""up"",""up"",""good_move"",26658.4,2217.9,1793,24440.5,424.9,""smooth"",""right"",""right"",""good_move"",32349.2,5690.5,1949.3,29975.2,424.7,""smooth"",""right"",""right"",""good_move""]"
"5103","","<div style=""width:500px;"">
  <p>What determined the result of this run?</p>
  </div>","61","html-slider-response","39","1202303","0.0-7.0-1.5","153","1","2025-08-06 09:03:28","36c45c0696341be0efffe67d72a12abb","41.122.131.205","Mozilla/5.0 (Macintosh; Intel Mac OS X 10_15_7) AppleWebKit/537.36 (KHTML, like Gecko) Chrome/128.0.0.0 Safari/537.36","Macintosh","Chrome","128.0.0.0","OS X","10_15_7","https://app.prolific.com/","en-GB,en-US;q=0.9,en;q=0.8","6780db9dafd89add339abb6b","6877649eabb845cf142cd221","68931a52c44fcce8575be1c8","1","6780db9dafd89add339abb6b","1","2025-08-06T09:23:32.822Z","","","","AttribQ","","","","","","","","","","","50","","","","","","","","","","","","","","","","","","","","","","","","","","",""
"2073","","<div style=""width:500px;"">
  <p>How much control did you have over the ball?</p>
  </div>","61","html-slider-response","40","1204379","0.0-7.0-2.5","153","1","2025-08-06 09:03:28","36c45c0696341be0efffe67d72a12abb","41.122.131.205","Mozilla/5.0 (Macintosh; Intel Mac OS X 10_15_7) AppleWebKit/537.36 (KHTML, like Gecko) Chrome/128.0.0.0 Safari/537.36","Macintosh","Chrome","128.0.0.0","OS X","10_15_7","https://app.prolific.com/","en-GB,en-US;q=0.9,en;q=0.8","6780db9dafd89add339abb6b","6877649eabb845cf142cd221","68931a52c44fcce8575be1c8","1","6780db9dafd89add339abb6b","1","2025-08-06T09:23:34.897Z","","","","ControlQ","","","","","","","","","","","50","","","","","","","","","","","","","","","","","","","","","","","","","","",""
"1957","","<div style=""width:500px;"">
  <p>How would you describe your current emotional state?</p>
  </div>","38","html-slider-response","41","1206339","0.0-7.0-3.5","153","1","2025-08-06 09:03:28","36c45c0696341be0efffe67d72a12abb","41.122.131.205","Mozilla/5.0 (Macintosh; Intel Mac OS X 10_15_7) AppleWebKit/537.36 (KHTML, like Gecko) Chrome/128.0.0.0 Safari/537.36","Macintosh","Chrome","128.0.0.0","OS X","10_15_7","https://app.prolific.com/","en-GB,en-US;q=0.9,en;q=0.8","6780db9dafd89add339abb6b","6877649eabb845cf142cd221","68931a52c44fcce8575be1c8","1","6780db9dafd89add339abb6b","1","2025-08-06T09:23:36.857Z","","","","StressQ","","","","","","","","","","","50","","","","","","","","","","","","","","","","","","","","","","","","","","",""
"2480","","<div style=""width:500px;"">
  <p>What best describes how you currently feel?</p>
  </div>","62","html-slider-response","42","1208820","0.0-7.0-4.5","153","1","2025-08-06 09:03:28","36c45c0696341be0efffe67d72a12abb","41.122.131.205","Mozilla/5.0 (Macintosh; Intel Mac OS X 10_15_7) AppleWebKit/537.36 (KHTML, like Gecko) Chrome/128.0.0.0 Safari/537.36","Macintosh","Chrome","128.0.0.0","OS X","10_15_7","https://app.prolific.com/","en-GB,en-US;q=0.9,en;q=0.8","6780db9dafd89add339abb6b","6877649eabb845cf142cd221","68931a52c44fcce8575be1c8","1","6780db9dafd89add339abb6b","1","2025-08-06T09:23:39.338Z","","","","MotivationQ","","","","","","","","","","","50","","","","","","","","","","","","","","","","","","","","","","","","","","",""
"","","","","ctl-task-cpt","43","1234630","0.0-7.0-0.6","153","1","2025-08-06 09:03:28","36c45c0696341be0efffe67d72a12abb","41.122.131.205","Mozilla/5.0 (Macintosh; Intel Mac OS X 10_15_7) AppleWebKit/537.36 (KHTML, like Gecko) Chrome/128.0.0.0 Safari/537.36","Macintosh","Chrome","128.0.0.0","OS X","10_15_7","https://app.prolific.com/","en-GB,en-US;q=0.9,en;q=0.8","6780db9dafd89add339abb6b","6877649eabb845cf142cd221","68931a52c44fcce8575be1c8","1","6780db9dafd89add339abb6b","1","2025-08-06T09:24:05.148Z","","","","","","","","","","","","","","","","win-only","3","g1:SW,g2:NE","0.4","7","0","1211228","1038.8","6047.9","22797.8","1","4","8","6","2","8","8","28","20","0.21212121212121213","1182.9","3000","1310","[""up"",""right""]","{""num_key_presses"":6,""num_perfect"":4,""num_errors"":0,""num_randdir"":2,""num_randdir_good_moves"":2,""num_whilered"":0,""num_whileblue"":0,""num_blue"":0,""num_good_moves"":6}","[353.54286241105626,352.9584874023484,0.6,353.54286241105626,352.9584874023484,104.5,353.54286241105626,352.9584874023484,215.2,345.542862291847,360.15848750963676,316.7,339.94286220840047,372.9584877003716,418.2,413.54286330512593,300.1584866155671,525.9,562.3428655224187,208.95848525658116,638.6,591.9428659634931,148.95848436251148,745.1,587.9428659038884,136.15848417177662,852.9,597.5428660469396,119.35848392143711,955.5,614.3428662972791,90.55848349228367,1066.9,617.5428663449628,87.35848344459995,1171.3,617.5428663449628,87.35848344459995,1282.1,608.7428662138326,112.15848381414875,1387.6,548.7428653197629,216.95848537579045,1493.8,403.14286315015386,321.75848693743217,1602.3,367.14286261371205,344.1584872712182,1704.8,337.5428621726377,296.15848655596244,1814.7,337.5428621726377,296.15848655596244,1916.5,337.5428621726377,296.15848655596244,2017.9,337.5428621726377,296.15848655596244,2121.3,337.5428621726377,296.15848655596244,2232.2,337.5428621726377,296.15848655596244,2336.1,337.5428621726377,296.15848655596244,2439.5,337.5428621726377,296.15848655596244,2540.4,337.5428621726377,296.15848655596244,2642.5,337.5428621726377,296.15848655596244,2744.1,337.5428621726377,296.15848655596244,2850.2,337.5428621726377,296.15848655596244,2954.2,337.5428621726377,296.15848655596244,3057.8,337.5428621726377,296.15848655596244,3168.8,337.5428621726377,296.15848655596244,3271.9,337.5428621726377,296.15848655596244,3374.3,337.5428621726377,296.15848655596244,3476.5,337.5428621726377,296.15848655596244,3577,337.5428621726377,296.15848655596244,3681.7,337.5428621726377,296.15848655596244,3786.8,337.5428621726377,296.15848655596244,3889.9,337.5428621726377,296.15848655596244,3993.4,337.5428621726377,296.15848655596244,4099.5,337.5428621726377,296.15848655596244,4200.8,337.5428621726377,296.15848655596244,4302.8,337.5428621726377,296.15848655596244,4411.2,337.5428621726377,296.15848655596244,4511.7,337.5428621726377,296.15848655596244,4614.8,337.5428621726377,296.15848655596244,4719.7,337.5428621726377,296.15848655596244,4821.6,337.5428621726377,296.15848655596244,4925.1]","[1532,1532,1000,0,532,""oops"",""right"",""right"",""good_move"",5319,3786.2,3358.6,1532.8,427.6,""oops"",""right"",""up"",""good_move"",8081.9,2762.4,2294.6,5319.5,467.8,""smooth"",""right"",""right"",""good_move"",10784.4,2702.3,2197.8,8082.1,504.5,""smooth"",""up"",""up"",""good_move"",13255.1,2469.9,1883.9,10785.2,586,""smooth"",""right"",""right"",""good_move"",16582.3,3325.9,2905.9,13256.4,420,""smooth"",""up"",""up"",""good_move""]"
"4458","","<div style=""width:500px;"">
  <p>What determined the result of this run?</p>
  </div>","63","html-slider-response","44","1239090","0.0-7.0-1.6","153","1","2025-08-06 09:03:28","36c45c0696341be0efffe67d72a12abb","41.122.131.205","Mozilla/5.0 (Macintosh; Intel Mac OS X 10_15_7) AppleWebKit/537.36 (KHTML, like Gecko) Chrome/128.0.0.0 Safari/537.36","Macintosh","Chrome","128.0.0.0","OS X","10_15_7","https://app.prolific.com/","en-GB,en-US;q=0.9,en;q=0.8","6780db9dafd89add339abb6b","6877649eabb845cf142cd221","68931a52c44fcce8575be1c8","1","6780db9dafd89add339abb6b","1","2025-08-06T09:24:09.608Z","","","","AttribQ","","","","","","","","","","","50","","","","","","","","","","","","","","","","","","","","","","","","","","",""
"2321","","<div style=""width:500px;"">
  <p>How much control did you have over the ball?</p>
  </div>","64","html-slider-response","45","1241414","0.0-7.0-2.6","153","1","2025-08-06 09:03:28","36c45c0696341be0efffe67d72a12abb","41.122.131.205","Mozilla/5.0 (Macintosh; Intel Mac OS X 10_15_7) AppleWebKit/537.36 (KHTML, like Gecko) Chrome/128.0.0.0 Safari/537.36","Macintosh","Chrome","128.0.0.0","OS X","10_15_7","https://app.prolific.com/","en-GB,en-US;q=0.9,en;q=0.8","6780db9dafd89add339abb6b","6877649eabb845cf142cd221","68931a52c44fcce8575be1c8","1","6780db9dafd89add339abb6b","1","2025-08-06T09:24:11.932Z","","","","ControlQ","","","","","","","","","","","50","","","","","","","","","","","","","","","","","","","","","","","","","","",""
"2219","","<div style=""width:500px;"">
  <p>How would you describe your current emotional state?</p>
  </div>","41","html-slider-response","46","1243634","0.0-7.0-3.6","153","1","2025-08-06 09:03:28","36c45c0696341be0efffe67d72a12abb","41.122.131.205","Mozilla/5.0 (Macintosh; Intel Mac OS X 10_15_7) AppleWebKit/537.36 (KHTML, like Gecko) Chrome/128.0.0.0 Safari/537.36","Macintosh","Chrome","128.0.0.0","OS X","10_15_7","https://app.prolific.com/","en-GB,en-US;q=0.9,en;q=0.8","6780db9dafd89add339abb6b","6877649eabb845cf142cd221","68931a52c44fcce8575be1c8","1","6780db9dafd89add339abb6b","1","2025-08-06T09:24:14.153Z","","","","StressQ","","","","","","","","","","","50","","","","","","","","","","","","","","","","","","","","","","","","","","",""
"1546","","<div style=""width:500px;"">
  <p>What best describes how you currently feel?</p>
  </div>","64","html-slider-response","47","1245182","0.0-7.0-4.6","153","1","2025-08-06 09:03:28","36c45c0696341be0efffe67d72a12abb","41.122.131.205","Mozilla/5.0 (Macintosh; Intel Mac OS X 10_15_7) AppleWebKit/537.36 (KHTML, like Gecko) Chrome/128.0.0.0 Safari/537.36","Macintosh","Chrome","128.0.0.0","OS X","10_15_7","https://app.prolific.com/","en-GB,en-US;q=0.9,en;q=0.8","6780db9dafd89add339abb6b","6877649eabb845cf142cd221","68931a52c44fcce8575be1c8","1","6780db9dafd89add339abb6b","1","2025-08-06T09:24:15.701Z","","","","MotivationQ","","","","","","","","","","","50","","","","","","","","","","","","","","","","","","","","","","","","","","",""
"","","","","ctl-task-cpt","48","1283563","0.0-7.0-0.7","153","1","2025-08-06 09:03:28","36c45c0696341be0efffe67d72a12abb","41.122.131.205","Mozilla/5.0 (Macintosh; Intel Mac OS X 10_15_7) AppleWebKit/537.36 (KHTML, like Gecko) Chrome/128.0.0.0 Safari/537.36","Macintosh","Chrome","128.0.0.0","OS X","10_15_7","https://app.prolific.com/","en-GB,en-US;q=0.9,en;q=0.8","6780db9dafd89add339abb6b","6877649eabb845cf142cd221","68931a52c44fcce8575be1c8","1","6780db9dafd89add339abb6b","1","2025-08-06T09:24:54.081Z","","","","","","","","","","","","","","","","win-only","1","g1:NE,g2:SW","0.3","8","0","1247591.6","1206.9","6215.3","35361.5","1","4","4","6","2","4","4","32","28","0.24242424242424243","1387.7","3000","1620","[""down"",""left""]","{""num_key_presses"":6,""num_perfect"":3,""num_errors"":0,""num_randdir"":3,""num_randdir_good_moves"":3,""num_whilered"":0,""num_whileblue"":0,""num_blue"":3,""num_good_moves"":6}","[351.1428623752935,352.9584874023484,1.8,351.1428623752935,352.9584874023484,103.1,351.1428623752935,352.9584874023484,209.2,348.7428623395307,355.3584874381112,318.4,355.1428624348981,360.9584875215577,423.6,381.5428628282888,412.95848829641807,529.2,251.14286088517733,538.5584901680039,633.5,180.74285983613558,636.1584916223572,735.5,148.74285935929842,664.1584920395898,836.7,131.9428591089589,656.9584919323014,945.9,102.34285866788454,652.1584918607758,1049.5,79.1428583221776,650.558491836934,1152.2,79.1428583221776,650.558491836934,1254.7,79.1428583221776,650.558491836934,1358.6,79.1428583221776,650.558491836934,1467.8,79.1428583221776,650.558491836934,1568.2,79.1428583221776,651.3584918488549,1681.3,75.14285826257296,659.3584919680642,1798.4,66.34285813144274,665.7584920634316,1898.7,29.542857583080014,631.3584915508317,2003.5,29.542857583080014,631.3584915508317,2114.2,29.542857583080014,631.3584915508317,2220.4,29.542857583080014,631.3584915508317,2330.2,29.542857583080014,631.3584915508317,2438.5,29.542857583080014,631.3584915508317,2545.4,29.542857583080014,631.3584915508317,2653.2,29.542857583080014,631.3584915508317,2756.7,29.542857583080014,631.3584915508317,2857.9,29.542857583080014,631.3584915508317,2961.3,29.542857583080014,631.3584915508317,3074,29.542857583080014,631.3584915508317,3178.2,29.542857583080014,631.3584915508317,3279.5,29.542857583080014,631.3584915508317,3383.1,29.542857583080014,631.3584915508317,3484.5,29.542857583080014,631.3584915508317,3595.3,29.542857583080014,631.3584915508317,3697.7,29.542857583080014,631.3584915508317,3805.8,29.542857583080014,631.3584915508317,3913.1,29.542857583080014,631.3584915508317,4023.6,29.542857583080014,631.3584915508317,4134.5,29.542857583080014,631.3584915508317,4245.5,29.542857583080014,631.3584915508317,4349.8,29.542857583080014,631.3584915508317,4457.1,29.542857583080014,631.3584915508317,4567.8,29.542857583080014,631.3584915508317,4670.5,29.542857583080014,631.3584915508317,4777.5,29.542857583080014,631.3584915508317,4883,29.542857583080014,631.3584915508317,4989.6]","[1552.4,1552.4,1000,0,552.4,""oops"",""down"",""down"",""good_move"",11778.7,10224.7,2634.6,8714.4,429.7,""smooth"",""down"",""down"",""good_move"",14992.6,3213.7,2751.8,11778.9,461.9,""oops"",""left"",""left"",""good_move"",22178.9,7185.8,3385.3,18363.1,430.5,""smooth"",""down"",""down"",""good_move"",25750.2,3567.2,3017.9,22183,549.3,""smooth"",""left"",""left"",""good_move"",28936.2,3182.8,2627.6,25753.4,555.2,""oops"",""left"",""left"",""good_move""]"
"10703","","<div style=""width:500px;"">
  <p>What determined the result of this run?</p>
  </div>","58","html-slider-response","49","1294267","0.0-7.0-1.7","153","1","2025-08-06 09:03:28","36c45c0696341be0efffe67d72a12abb","41.122.131.205","Mozilla/5.0 (Macintosh; Intel Mac OS X 10_15_7) AppleWebKit/537.36 (KHTML, like Gecko) Chrome/128.0.0.0 Safari/537.36","Macintosh","Chrome","128.0.0.0","OS X","10_15_7","https://app.prolific.com/","en-GB,en-US;q=0.9,en;q=0.8","6780db9dafd89add339abb6b","6877649eabb845cf142cd221","68931a52c44fcce8575be1c8","1","6780db9dafd89add339abb6b","1","2025-08-06T09:25:04.785Z","","","","AttribQ","","","","","","","","","","","50","","","","","","","","","","","","","","","","","","","","","","","","","","",""
"1834","","<div style=""width:500px;"">
  <p>How much control did you have over the ball?</p>
  </div>","42","html-slider-response","50","1296103","0.0-7.0-2.7","153","1","2025-08-06 09:03:28","36c45c0696341be0efffe67d72a12abb","41.122.131.205","Mozilla/5.0 (Macintosh; Intel Mac OS X 10_15_7) AppleWebKit/537.36 (KHTML, like Gecko) Chrome/128.0.0.0 Safari/537.36","Macintosh","Chrome","128.0.0.0","OS X","10_15_7","https://app.prolific.com/","en-GB,en-US;q=0.9,en;q=0.8","6780db9dafd89add339abb6b","6877649eabb845cf142cd221","68931a52c44fcce8575be1c8","1","6780db9dafd89add339abb6b","1","2025-08-06T09:25:06.622Z","","","","ControlQ","","","","","","","","","","","50","","","","","","","","","","","","","","","","","","","","","","","","","","",""
"1748","","<div style=""width:500px;"">
  <p>How would you describe your current emotional state?</p>
  </div>","59","html-slider-response","51","1297854","0.0-7.0-3.7","153","1","2025-08-06 09:03:28","36c45c0696341be0efffe67d72a12abb","41.122.131.205","Mozilla/5.0 (Macintosh; Intel Mac OS X 10_15_7) AppleWebKit/537.36 (KHTML, like Gecko) Chrome/128.0.0.0 Safari/537.36","Macintosh","Chrome","128.0.0.0","OS X","10_15_7","https://app.prolific.com/","en-GB,en-US;q=0.9,en;q=0.8","6780db9dafd89add339abb6b","6877649eabb845cf142cd221","68931a52c44fcce8575be1c8","1","6780db9dafd89add339abb6b","1","2025-08-06T09:25:08.372Z","","","","StressQ","","","","","","","","","","","50","","","","","","","","","","","","","","","","","","","","","","","","","","",""
"1936","","<div style=""width:500px;"">
  <p>What best describes how you currently feel?</p>
  </div>","37","html-slider-response","52","1299793","0.0-7.0-4.7","153","1","2025-08-06 09:03:28","36c45c0696341be0efffe67d72a12abb","41.122.131.205","Mozilla/5.0 (Macintosh; Intel Mac OS X 10_15_7) AppleWebKit/537.36 (KHTML, like Gecko) Chrome/128.0.0.0 Safari/537.36","Macintosh","Chrome","128.0.0.0","OS X","10_15_7","https://app.prolific.com/","en-GB,en-US;q=0.9,en;q=0.8","6780db9dafd89add339abb6b","6877649eabb845cf142cd221","68931a52c44fcce8575be1c8","1","6780db9dafd89add339abb6b","1","2025-08-06T09:25:10.311Z","","","","MotivationQ","","","","","","","","","","","50","","","","","","","","","","","","","","","","","","","","","","","","","","",""
"","","","","ctl-task-cpt","53","1366226","0.0-7.0-0.8","153","1","2025-08-06 09:03:28","36c45c0696341be0efffe67d72a12abb","41.122.131.205","Mozilla/5.0 (Macintosh; Intel Mac OS X 10_15_7) AppleWebKit/537.36 (KHTML, like Gecko) Chrome/128.0.0.0 Safari/537.36","Macintosh","Chrome","128.0.0.0","OS X","10_15_7","https://app.prolific.com/","en-GB,en-US;q=0.9,en;q=0.8","6780db9dafd89add339abb6b","6877649eabb845cf142cd221","68931a52c44fcce8575be1c8","1","6780db9dafd89add339abb6b","1","2025-08-06T09:26:16.745Z","","","","","","","","","","","","","","","","win-only","3","g1:SW,g2:NE","0.4","9","0","1302196.7","1680.9","6689.7","63392.4","1","4","4","6","2","-4","-4","28","32","0.21212121212121213","1830.7","3000","-1105","[""up"",""right""]","{""num_key_presses"":13,""num_perfect"":6,""num_errors"":0,""num_randdir"":7,""num_randdir_good_moves"":1,""num_whilered"":0,""num_whileblue"":0,""num_blue"":5,""num_good_moves"":7}","[350.34286236337255,344.9584872831391,1.1,350.34286236337255,344.9584872831391,133.3,342.34286224416326,350.5584873665856,283.3,283.1428613620145,353.7584874142693,388.8,189.5428599672658,356.1584874500321,490.6,123.94285898974962,415.35848833218085,616,-114.4571445626872,640.1584916819619,767.7,-312.85714751907756,799.3584940542268,877.6,195.94286006263323,657.7584919442223,983.9,625.5428664641721,384.1584878672646,1084.9,639.9428666787488,336.9584871639298,1201.4,605.5428661661489,283.3584863652276,1313.8,587.1428658919675,208.15848524466023,1429.7,597.5428660469396,147.35848433866963,1532.1,636.7428666310651,67.35848314657673,1649.1,638.342866654907,64.95848311081394,1755.5,638.342866654907,64.95848311081394,1891.1,638.342866654907,64.95848311081394,1997.3,637.542866642986,71.35848320618138,2113.8,574.3428657012327,198.55848510160908,2256.9,493.54286449721883,292.1584864963578,2375.1,475.14286422303746,324.9584869851159,2504,475.14286422303746,303.3584866632508,2632.4,331.14286207727025,325.7584869970368,2744.4,315.1428618388517,312.95848680630195,2847.3,315.1428618388517,312.95848680630195,2961.2,315.1428618388517,312.95848680630195,3063.2,315.1428618388517,312.95848680630195,3194.1,315.1428618388517,312.95848680630195,3297.1,315.1428618388517,312.95848680630195,3397.1,339.94286220840047,271.35848618641364,3507.5,358.34286248258184,243.3584857691811,3620,358.34286248258184,243.3584857691811,3731.7,358.34286248258184,243.3584857691811,3839.6,358.34286248258184,243.3584857691811,3956.1,358.34286248258184,243.3584857691811,4085.4,358.34286248258184,243.3584857691811,4197.9,358.34286248258184,243.3584857691811,4309.4,358.34286248258184,243.3584857691811,4423.5,358.34286248258184,243.3584857691811,4549.6,358.34286248258184,243.3584857691811,4672.6,358.34286248258184,243.3584857691811,4786.2,358.34286248258184,243.3584857691811,4900.1]","[7603.2,7603.2,1808.8,5237.4,557,""smooth"",""right"",""right"",""good_move"",13730.3,6125.4,2497.2,10612,621.1,""oops"",""right"",""down"",""bad_move"",17212.9,3482.3,2908,13730.6,574.3,""smooth"",""right"",""right"",""good_move"",20195.2,2982.2,2352,17213.1,630.2,""oops"",""up"",""up"",""good_move"",23981.5,3785.1,3265.3,20196.5,519.7,""smooth"",""right"",""right"",""good_move"",26942.2,2960.5,2462.6,23981.7,497.9,""oops"",""up"",""down"",""bad_move"",29774.2,2829.3,2304,26944.9,525.3,""oops"",""up"",""down"",""bad_move"",32772.9,2997.7,2542.2,29775.3,455.5,""oops"",""up"",""left"",""bad_move"",35295.2,2520.6,2097.8,32774.6,422.8,""smooth"",""right"",""right"",""good_move"",41846.9,6551.2,2677.5,38717.7,451.7,""oops"",""up"",""left"",""bad_move"",44633.6,2786.4,1754,41847.3,1032.3,""smooth"",""right"",""right"",""good_move"",47417,2783,2306.2,44634,476.8,""smooth"",""up"",""up"",""good_move"",54309.1,6891.7,3055.8,50519,734.3,""oops"",""up"",""down"",""bad_move""]"
"200706","","<div style=""width:500px;"">
  <p>What determined the result of this run?</p>
  </div>","68","html-slider-response","54","1566940","0.0-7.0-1.8","153","1","2025-08-06 09:03:28","36c45c0696341be0efffe67d72a12abb","41.122.131.205","Mozilla/5.0 (Macintosh; Intel Mac OS X 10_15_7) AppleWebKit/537.36 (KHTML, like Gecko) Chrome/128.0.0.0 Safari/537.36","Macintosh","Chrome","128.0.0.0","OS X","10_15_7","https://app.prolific.com/","en-GB,en-US;q=0.9,en;q=0.8","6780db9dafd89add339abb6b","6877649eabb845cf142cd221","68931a52c44fcce8575be1c8","1","6780db9dafd89add339abb6b","1","2025-08-06T09:29:37.458Z","","","","AttribQ","","","","","","","","","","","50","","","","","","","","","","","","","","","","","","","","","","","","","","",""
"1951","","<div style=""width:500px;"">
  <p>How much control did you have over the ball?</p>
  </div>","38","html-slider-response","55","1568893","0.0-7.0-2.8","153","1","2025-08-06 09:03:28","36c45c0696341be0efffe67d72a12abb","41.122.131.205","Mozilla/5.0 (Macintosh; Intel Mac OS X 10_15_7) AppleWebKit/537.36 (KHTML, like Gecko) Chrome/128.0.0.0 Safari/537.36","Macintosh","Chrome","128.0.0.0","OS X","10_15_7","https://app.prolific.com/","en-GB,en-US;q=0.9,en;q=0.8","6780db9dafd89add339abb6b","6877649eabb845cf142cd221","68931a52c44fcce8575be1c8","1","6780db9dafd89add339abb6b","1","2025-08-06T09:29:39.411Z","","","","ControlQ","","","","","","","","","","","50","","","","","","","","","","","","","","","","","","","","","","","","","","",""
"1459","","<div style=""width:500px;"">
  <p>How would you describe your current emotional state?</p>
  </div>","63","html-slider-response","56","1570354","0.0-7.0-3.8","153","1","2025-08-06 09:03:28","36c45c0696341be0efffe67d72a12abb","41.122.131.205","Mozilla/5.0 (Macintosh; Intel Mac OS X 10_15_7) AppleWebKit/537.36 (KHTML, like Gecko) Chrome/128.0.0.0 Safari/537.36","Macintosh","Chrome","128.0.0.0","OS X","10_15_7","https://app.prolific.com/","en-GB,en-US;q=0.9,en;q=0.8","6780db9dafd89add339abb6b","6877649eabb845cf142cd221","68931a52c44fcce8575be1c8","1","6780db9dafd89add339abb6b","1","2025-08-06T09:29:40.872Z","","","","StressQ","","","","","","","","","","","50","","","","","","","","","","","","","","","","","","","","","","","","","","",""
"2202","","<div style=""width:500px;"">
  <p>What best describes how you currently feel?</p>
  </div>","62","html-slider-response","57","1572558","0.0-7.0-4.8","153","1","2025-08-06 09:03:28","36c45c0696341be0efffe67d72a12abb","41.122.131.205","Mozilla/5.0 (Macintosh; Intel Mac OS X 10_15_7) AppleWebKit/537.36 (KHTML, like Gecko) Chrome/128.0.0.0 Safari/537.36","Macintosh","Chrome","128.0.0.0","OS X","10_15_7","https://app.prolific.com/","en-GB,en-US;q=0.9,en;q=0.8","6780db9dafd89add339abb6b","6877649eabb845cf142cd221","68931a52c44fcce8575be1c8","1","6780db9dafd89add339abb6b","1","2025-08-06T09:29:43.076Z","","","","MotivationQ","","","","","","","","","","","50","","","","","","","","","","","","","","","","","","","","","","","","","","",""
"","","","","ctl-task-cpt","58","1624815","0.0-7.0-0.9","153","1","2025-08-06 09:03:28","36c45c0696341be0efffe67d72a12abb","41.122.131.205","Mozilla/5.0 (Macintosh; Intel Mac OS X 10_15_7) AppleWebKit/537.36 (KHTML, like Gecko) Chrome/128.0.0.0 Safari/537.36","Macintosh","Chrome","128.0.0.0","OS X","10_15_7","https://app.prolific.com/","en-GB,en-US;q=0.9,en;q=0.8","6780db9dafd89add339abb6b","6877649eabb845cf142cd221","68931a52c44fcce8575be1c8","1","6780db9dafd89add339abb6b","1","2025-08-06T09:30:35.333Z","","","","","","","","","","","","","","","","win-only","3","g1:SW,g2:NE","0.5","10","0","1574942.6","861.1","5871.3","49234.2","1","4","8","6","2","8","8","36","28","0.2727272727272727","1545.6","3000","35","[""up"",""right""]","{""num_key_presses"":12,""num_perfect"":7,""num_errors"":0,""num_randdir"":5,""num_randdir_good_moves"":2,""num_whilered"":0,""num_whileblue"":0,""num_blue"":2,""num_good_moves"":9}","[355.1428624348981,352.9584874023484,2.6,355.1428624348981,353.7584874142693,100.7,355.1428624348981,356.95848746195304,207.2,355.1428624348981,357.75848747387397,309.9,355.1428624348981,357.75848747387397,420.4,456.7428639488561,288.15848643675315,524,537.5428651528699,196.1584850658463,626.1,566.3428655820234,157.7584844936417,737.9,574.3428657012327,143.35848427906498,840.7,582.342865820442,135.3584841598557,945.6,609.5428662257535,103.35848368301853,1058.1,612.7428662734372,93.75848353996739,1161.9,613.5428662853582,90.55848349228367,1266.1,616.7428663330419,85.7584834207581,1377.6,618.3428663568837,84.15848339691624,1488.3,618.3428663568837,84.15848339691624,1592.6,616.7428663330419,84.95848340883717,1711,614.3428662972791,92.95848352804646,1811,608.7428662138326,168.15848464861378,1912.3,595.9428660230977,240.15848572149739,2018.9,589.5428659277303,277.7584862817811,2126.1,588.7428659158094,280.9584863294648,2226.8,588.7428659158094,280.9584863294648,2339.4,588.7428659158094,280.9584863294648,2441.6,588.7428659158094,280.9584863294648,2542.8,588.7428659158094,280.9584863294648,2643.8,588.7428659158094,280.9584863294648,2744.9,588.7428659158094,280.9584863294648,2845.7,588.7428659158094,280.9584863294648,2960,588.7428659158094,280.9584863294648,3064,588.7428659158094,280.9584863294648,3165.8,588.7428659158094,280.9584863294648,3273.7,588.7428659158094,280.9584863294648,3378.3,588.7428659158094,280.9584863294648,3481.1,588.7428659158094,280.9584863294648,3593.2,588.7428659158094,280.9584863294648,3707.6,588.7428659158094,280.9584863294648,3810.8,588.7428659158094,280.9584863294648,3912.4,588.7428659158094,280.9584863294648,4014,588.7428659158094,280.9584863294648,4122.9,588.7428659158094,280.9584863294648,4226,588.7428659158094,280.9584863294648,4333,588.7428659158094,280.9584863294648,4439.7,588.7428659158094,280.9584863294648,4545.8,588.7428659158094,280.9584863294648,4650.1,588.7428659158094,280.9584863294648,4758.7,588.7428659158094,280.9584863294648,4874.7,588.7428659158094,280.9584863294648,4981.6]","[2199.7,2199.8,1000,0,1199.8,""smooth"",""right"",""right"",""good_move"",10268.3,8067.9,2696.9,5695.2,1876.2,""oops"",""right"",""down"",""bad_move"",13250.3,2981.2,2512.5,10269.1,468.7,""smooth"",""up"",""up"",""good_move"",19795.8,6544.4,2565.8,16522.1,707.9,""smooth"",""up"",""up"",""good_move"",22930.2,3133.3,2612.3,19796.9,521,""smooth"",""up"",""up"",""good_move"",25821.4,2890.9,2343.3,22930.5,547.7,""smooth"",""up"",""up"",""good_move"",28565.5,2743.8,1856.9,25821.7,886.9,""oops"",""right"",""left"",""bad_move"",31743.7,3176.9,2736.9,28567,439.9,""oops"",""right"",""right"",""good_move"",35058.2,3313.1,2931.6,31745.1,381.5,""oops"",""right"",""down"",""bad_move"",37699.7,2638.7,2243.4,35061,395.3,""oops"",""right"",""right"",""good_move"",40489.9,2789.9,2396.2,37700,393.7,""smooth"",""right"",""right"",""good_move"",43123.7,2633.3,2292.2,40490.5,341,""smooth"",""up"",""up"",""good_move""]"
"4301","","<div style=""width:500px;"">
  <p>What determined the result of this run?</p>
  </div>","55","html-slider-response","59","1629119","0.0-7.0-1.9","153","1","2025-08-06 09:03:28","36c45c0696341be0efffe67d72a12abb","41.122.131.205","Mozilla/5.0 (Macintosh; Intel Mac OS X 10_15_7) AppleWebKit/537.36 (KHTML, like Gecko) Chrome/128.0.0.0 Safari/537.36","Macintosh","Chrome","128.0.0.0","OS X","10_15_7","https://app.prolific.com/","en-GB,en-US;q=0.9,en;q=0.8","6780db9dafd89add339abb6b","6877649eabb845cf142cd221","68931a52c44fcce8575be1c8","1","6780db9dafd89add339abb6b","1","2025-08-06T09:30:39.637Z","","","","AttribQ","","","","","","","","","","","50","","","","","","","","","","","","","","","","","","","","","","","","","","",""
"2044","","<div style=""width:500px;"">
  <p>How much control did you have over the ball?</p>
  </div>","46","html-slider-response","60","1631165","0.0-7.0-2.9","153","1","2025-08-06 09:03:28","36c45c0696341be0efffe67d72a12abb","41.122.131.205","Mozilla/5.0 (Macintosh; Intel Mac OS X 10_15_7) AppleWebKit/537.36 (KHTML, like Gecko) Chrome/128.0.0.0 Safari/537.36","Macintosh","Chrome","128.0.0.0","OS X","10_15_7","https://app.prolific.com/","en-GB,en-US;q=0.9,en;q=0.8","6780db9dafd89add339abb6b","6877649eabb845cf142cd221","68931a52c44fcce8575be1c8","1","6780db9dafd89add339abb6b","1","2025-08-06T09:30:41.683Z","","","","ControlQ","","","","","","","","","","","50","","","","","","","","","","","","","","","","","","","","","","","","","","",""
"1828","","<div style=""width:500px;"">
  <p>How would you describe your current emotional state?</p>
  </div>","56","html-slider-response","61","1632995","0.0-7.0-3.9","153","1","2025-08-06 09:03:28","36c45c0696341be0efffe67d72a12abb","41.122.131.205","Mozilla/5.0 (Macintosh; Intel Mac OS X 10_15_7) AppleWebKit/537.36 (KHTML, like Gecko) Chrome/128.0.0.0 Safari/537.36","Macintosh","Chrome","128.0.0.0","OS X","10_15_7","https://app.prolific.com/","en-GB,en-US;q=0.9,en;q=0.8","6780db9dafd89add339abb6b","6877649eabb845cf142cd221","68931a52c44fcce8575be1c8","1","6780db9dafd89add339abb6b","1","2025-08-06T09:30:43.513Z","","","","StressQ","","","","","","","","","","","50","","","","","","","","","","","","","","","","","","","","","","","","","","",""
"2119","","<div style=""width:500px;"">
  <p>What best describes how you currently feel?</p>
  </div>","47","html-slider-response","62","1635115","0.0-7.0-4.9","153","1","2025-08-06 09:03:28","36c45c0696341be0efffe67d72a12abb","41.122.131.205","Mozilla/5.0 (Macintosh; Intel Mac OS X 10_15_7) AppleWebKit/537.36 (KHTML, like Gecko) Chrome/128.0.0.0 Safari/537.36","Macintosh","Chrome","128.0.0.0","OS X","10_15_7","https://app.prolific.com/","en-GB,en-US;q=0.9,en;q=0.8","6780db9dafd89add339abb6b","6877649eabb845cf142cd221","68931a52c44fcce8575be1c8","1","6780db9dafd89add339abb6b","1","2025-08-06T09:30:45.633Z","","","","MotivationQ","","","","","","","","","","","50","","","","","","","","","","","","","","","","","","","","","","","","","","",""
"","","","","ctl-task-cpt","63","1677676","0.0-7.0-0.10","153","1","2025-08-06 09:03:28","36c45c0696341be0efffe67d72a12abb","41.122.131.205","Mozilla/5.0 (Macintosh; Intel Mac OS X 10_15_7) AppleWebKit/537.36 (KHTML, like Gecko) Chrome/128.0.0.0 Safari/537.36","Macintosh","Chrome","128.0.0.0","OS X","10_15_7","https://app.prolific.com/","en-GB,en-US;q=0.9,en;q=0.8","6780db9dafd89add339abb6b","6877649eabb845cf142cd221","68931a52c44fcce8575be1c8","1","6780db9dafd89add339abb6b","1","2025-08-06T09:31:28.194Z","","","","","","","","","","","","","","","","win-only","0","g1:NW,g2:SE","0.6","11","0","1637498.7","930.8","5932.4","39536.3","1","4","4","6","2","4","4","40","36","0.30303030303030304","1122.3","3000","1130","[""down"",""right""]","{""num_key_presses"":8,""num_perfect"":5,""num_errors"":0,""num_randdir"":3,""num_randdir_good_moves"":2,""num_whilered"":0,""num_whileblue"":0,""num_blue"":3,""num_good_moves"":7}","[351.9428623872144,346.55848730698096,0.3,351.9428623872144,346.55848730698096,105.9,355.94286244681905,340.15848721161353,207.6,398.3428630786283,274.55848623409736,323.2,395.14286303094457,228.95848555460438,438.5,344.74286227992604,244.95848579302296,543.5,496.74286454490255,438.5584886778878,654,601.5428661065442,580.1584907878922,760.9,600.7428660946233,596.1584910263108,861.4,608.7428662138326,605.758491169362,966.3,615.1428663092,610.5584912408875,1079.3,615.1428663092,610.5584912408875,1185.2,615.1428663092,610.5584912408875,1287.2,615.1428663092,610.5584912408875,1392.3,615.1428663092,607.3584911932038,1505.9,615.1428663092,607.3584911932038,1617,615.1428663092,607.3584911932038,1721.7,615.1428663092,607.3584911932038,1829.8,615.1428663092,607.3584911932038,1940,615.1428663092,607.3584911932038,2052.1,615.1428663092,607.3584911932038,2162.4,615.1428663092,607.3584911932038,2275.2,615.1428663092,607.3584911932038,2380.4,615.1428663092,607.3584911932038,2483.3,615.1428663092,607.3584911932038,2590.1,615.1428663092,607.3584911932038,2694.7,615.1428663092,607.3584911932038,2803.7,615.1428663092,607.3584911932038,2905.1,615.1428663092,607.3584911932038,3011.4,615.1428663092,607.3584911932038,3121.4,615.1428663092,607.3584911932038,3224.6,615.1428663092,607.3584911932038,3332.4,615.1428663092,607.3584911932038,3438.4,615.1428663092,607.3584911932038,3540.5,615.1428663092,607.3584911932038,3656,615.1428663092,607.3584911932038,3763.6,615.1428663092,607.3584911932038,3867.9,615.1428663092,607.3584911932038,3973,615.1428663092,607.3584911932038,4085.8,615.1428663092,607.3584911932038,4193,615.1428663092,607.3584911932038,4301.7,615.1428663092,607.3584911932038,4405.7,615.1428663092,607.3584911932038,4521.1,615.1428663092,607.3584911932038,4625.3,615.1428663092,607.3584911932038,4726.1,615.1428663092,607.3584911932038,4826.2,615.1428663092,607.3584911932038,4930.8]","[1433,1433,1000,0,433,""smooth"",""right"",""right"",""good_move"",7696.6,6260.4,2364.6,4904.8,427.7,""oops"",""right"",""left"",""bad_move"",10600.7,2901.9,2435,7698.8,466.9,""oops"",""down"",""down"",""good_move"",19334,8732.5,2434.6,16427,472.4,""smooth"",""down"",""down"",""good_move"",23813.5,4478.7,2967.9,19334.8,1510.8,""smooth"",""right"",""right"",""good_move"",27905.6,4089.5,3002.6,23816.1,1086.9,""oops"",""right"",""down"",""good_move"",30618.2,2711.8,2278.4,27906.4,433.4,""smooth"",""right"",""right"",""good_move"",33311.8,2692.6,2075.9,30619.2,616.7,""smooth"",""right"",""right"",""good_move""]"
"3643","","<div style=""width:500px;"">
  <p>What determined the result of this run?</p>
  </div>","57","html-slider-response","64","1681321","0.0-7.0-1.10","153","1","2025-08-06 09:03:28","36c45c0696341be0efffe67d72a12abb","41.122.131.205","Mozilla/5.0 (Macintosh; Intel Mac OS X 10_15_7) AppleWebKit/537.36 (KHTML, like Gecko) Chrome/128.0.0.0 Safari/537.36","Macintosh","Chrome","128.0.0.0","OS X","10_15_7","https://app.prolific.com/","en-GB,en-US;q=0.9,en;q=0.8","6780db9dafd89add339abb6b","6877649eabb845cf142cd221","68931a52c44fcce8575be1c8","1","6780db9dafd89add339abb6b","1","2025-08-06T09:31:31.839Z","","","","AttribQ","","","","","","","","","","","50","","","","","","","","","","","","","","","","","","","","","","","","","","",""
"2501","","<div style=""width:500px;"">
  <p>How much control did you have over the ball?</p>
  </div>","41","html-slider-response","65","1683824","0.0-7.0-2.10","153","1","2025-08-06 09:03:28","36c45c0696341be0efffe67d72a12abb","41.122.131.205","Mozilla/5.0 (Macintosh; Intel Mac OS X 10_15_7) AppleWebKit/537.36 (KHTML, like Gecko) Chrome/128.0.0.0 Safari/537.36","Macintosh","Chrome","128.0.0.0","OS X","10_15_7","https://app.prolific.com/","en-GB,en-US;q=0.9,en;q=0.8","6780db9dafd89add339abb6b","6877649eabb845cf142cd221","68931a52c44fcce8575be1c8","1","6780db9dafd89add339abb6b","1","2025-08-06T09:31:34.342Z","","","","ControlQ","","","","","","","","","","","50","","","","","","","","","","","","","","","","","","","","","","","","","","",""
"2745","","<div style=""width:500px;"">
  <p>How would you describe your current emotional state?</p>
  </div>","57","html-slider-response","66","1686571","0.0-7.0-3.10","153","1","2025-08-06 09:03:28","36c45c0696341be0efffe67d72a12abb","41.122.131.205","Mozilla/5.0 (Macintosh; Intel Mac OS X 10_15_7) AppleWebKit/537.36 (KHTML, like Gecko) Chrome/128.0.0.0 Safari/537.36","Macintosh","Chrome","128.0.0.0","OS X","10_15_7","https://app.prolific.com/","en-GB,en-US;q=0.9,en;q=0.8","6780db9dafd89add339abb6b","6877649eabb845cf142cd221","68931a52c44fcce8575be1c8","1","6780db9dafd89add339abb6b","1","2025-08-06T09:31:37.090Z","","","","StressQ","","","","","","","","","","","50","","","","","","","","","","","","","","","","","","","","","","","","","","",""
"2814","","<div style=""width:500px;"">
  <p>What best describes how you currently feel?</p>
  </div>","41","html-slider-response","67","1689389","0.0-7.0-4.10","153","1","2025-08-06 09:03:28","36c45c0696341be0efffe67d72a12abb","41.122.131.205","Mozilla/5.0 (Macintosh; Intel Mac OS X 10_15_7) AppleWebKit/537.36 (KHTML, like Gecko) Chrome/128.0.0.0 Safari/537.36","Macintosh","Chrome","128.0.0.0","OS X","10_15_7","https://app.prolific.com/","en-GB,en-US;q=0.9,en;q=0.8","6780db9dafd89add339abb6b","6877649eabb845cf142cd221","68931a52c44fcce8575be1c8","1","6780db9dafd89add339abb6b","1","2025-08-06T09:31:39.907Z","","","","MotivationQ","","","","","","","","","","","50","","","","","","","","","","","","","","","","","","","","","","","","","","",""
"","","","","ctl-task-cpt","68","1727892","0.0-7.0-0.11","153","1","2025-08-06 09:03:28","36c45c0696341be0efffe67d72a12abb","41.122.131.205","Mozilla/5.0 (Macintosh; Intel Mac OS X 10_15_7) AppleWebKit/537.36 (KHTML, like Gecko) Chrome/128.0.0.0 Safari/537.36","Macintosh","Chrome","128.0.0.0","OS X","10_15_7","https://app.prolific.com/","en-GB,en-US;q=0.9,en;q=0.8","6780db9dafd89add339abb6b","6877649eabb845cf142cd221","68931a52c44fcce8575be1c8","1","6780db9dafd89add339abb6b","1","2025-08-06T09:32:18.410Z","","","","","","","","","","","","","","","","win-only","2","g1:SE,g2:NW","0.7","12","0","1691771.3","930","5935.7","35475.7","1","4","8","6","2","8","8","48","40","0.36363636363636365","1669.7","3000","1850","[""left"",""up""]","{""num_key_presses"":8,""num_perfect"":6,""num_errors"":0,""num_randdir"":2,""num_randdir_good_moves"":1,""num_whilered"":0,""num_whileblue"":0,""num_blue"":2,""num_good_moves"":7}","[346.3428623037679,352.15848739042747,0.7,346.3428623037679,352.15848739042747,104.4,346.3428623037679,353.7584874142693,217.8,348.7428623395307,376.95848775997626,328.8,400.74286311439107,446.5584887970971,448,431.14286356738637,437.75848866596687,552.4,305.5428616958005,300.958486627488,665.4,223.14286046794481,235.3584856499718,784.7,169.54285966924257,177.75848479166493,899.2,157.54285949042864,168.9584846605347,1010.4,146.34285932353563,183.35848487511143,1120.7,84.7428584056241,144.95848430290684,1228.7,56.7428579883916,107.35848374262318,1338.3,48.74285786918231,101.75848365917668,1444.8,38.34285771421023,97.75848359957203,1553.3,38.34285771421023,97.75848359957203,1666.2,38.34285771421023,97.75848359957203,1772.4,39.14285772613116,100.95848364725575,1879.4,56.7428579883916,202.55848516121372,1985.7,43.142857785735806,380.9584878195809,2094.2,43.142857785735806,423.35848845139014,2203.6,43.142857785735806,423.35848845139014,2305.9,43.142857785735806,423.35848845139014,2417.6,43.142857785735806,423.35848845139014,2518.1,43.142857785735806,423.35848845139014,2620.3,43.142857785735806,423.35848845139014,2724,43.142857785735806,423.35848845139014,2826.1,43.142857785735806,423.35848845139014,2938.1,43.142857785735806,423.35848845139014,3051.8,43.142857785735806,423.35848845139014,3158.7,43.142857785735806,423.35848845139014,3258.8,43.142857785735806,423.35848845139014,3373.9,43.142857785735806,423.35848845139014,3481.8,43.142857785735806,423.35848845139014,3590.9,43.142857785735806,423.35848845139014,3703.2,43.142857785735806,423.35848845139014,3816.9,43.142857785735806,423.35848845139014,3924.3,43.142857785735806,423.35848845139014,4031.9,43.142857785735806,423.35848845139014,4142.6,43.142857785735806,423.35848845139014,4253.7,43.142857785735806,423.35848845139014,4358.8,43.142857785735806,423.35848845139014,4469.9,43.142857785735806,423.35848845139014,4576.6,43.142857785735806,423.35848845139014,4693.1,43.142857785735806,423.35848845139014,4805.2,43.142857785735806,423.35848845139014,4910.9]","[4474.9,4474.9,2015.5,2013.2,446.2,""smooth"",""left"",""left"",""good_move"",11061.2,6585.7,2428.5,8117.2,515.5,""oops"",""left"",""down"",""bad_move"",14330.3,3267.4,2863.3,11062.9,404.1,""smooth"",""left"",""left"",""good_move"",17193.1,2861.9,2177,14331.2,684.9,""smooth"",""left"",""left"",""good_move"",20140.6,2947.3,2513,17193.4,434.2,""smooth"",""up"",""up"",""good_move"",23044.7,2901.2,1868,20143.5,1033.2,""smooth"",""up"",""up"",""good_move"",26136.9,3092,2681.3,23044.9,410.7,""smooth"",""up"",""up"",""good_move"",29248.7,3111.1,2690.9,26137.6,420.2,""oops"",""up"",""up"",""good_move""]"
"58113","","<div style=""width:500px;"">
  <p>What determined the result of this run?</p>
  </div>","62","html-slider-response","69","1786009","0.0-7.0-1.11","153","1","2025-08-06 09:03:28","36c45c0696341be0efffe67d72a12abb","41.122.131.205","Mozilla/5.0 (Macintosh; Intel Mac OS X 10_15_7) AppleWebKit/537.36 (KHTML, like Gecko) Chrome/128.0.0.0 Safari/537.36","Macintosh","Chrome","128.0.0.0","OS X","10_15_7","https://app.prolific.com/","en-GB,en-US;q=0.9,en;q=0.8","6780db9dafd89add339abb6b","6877649eabb845cf142cd221","68931a52c44fcce8575be1c8","1","6780db9dafd89add339abb6b","1","2025-08-06T09:33:16.527Z","","","","AttribQ","","","","","","","","","","","50","","","","","","","","","","","","","","","","","","","","","","","","","","",""
"1941","","<div style=""width:500px;"">
  <p>How much control did you have over the ball?</p>
  </div>","37","html-slider-response","70","1787969","0.0-7.0-2.11","153","1","2025-08-06 09:03:28","36c45c0696341be0efffe67d72a12abb","41.122.131.205","Mozilla/5.0 (Macintosh; Intel Mac OS X 10_15_7) AppleWebKit/537.36 (KHTML, like Gecko) Chrome/128.0.0.0 Safari/537.36","Macintosh","Chrome","128.0.0.0","OS X","10_15_7","https://app.prolific.com/","en-GB,en-US;q=0.9,en;q=0.8","6780db9dafd89add339abb6b","6877649eabb845cf142cd221","68931a52c44fcce8575be1c8","1","6780db9dafd89add339abb6b","1","2025-08-06T09:33:18.487Z","","","","ControlQ","","","","","","","","","","","50","","","","","","","","","","","","","","","","","","","","","","","","","","",""
"1334","","<div style=""width:500px;"">
  <p>How would you describe your current emotional state?</p>
  </div>","61","html-slider-response","71","1789307","0.0-7.0-3.11","153","1","2025-08-06 09:03:28","36c45c0696341be0efffe67d72a12abb","41.122.131.205","Mozilla/5.0 (Macintosh; Intel Mac OS X 10_15_7) AppleWebKit/537.36 (KHTML, like Gecko) Chrome/128.0.0.0 Safari/537.36","Macintosh","Chrome","128.0.0.0","OS X","10_15_7","https://app.prolific.com/","en-GB,en-US;q=0.9,en;q=0.8","6780db9dafd89add339abb6b","6877649eabb845cf142cd221","68931a52c44fcce8575be1c8","1","6780db9dafd89add339abb6b","1","2025-08-06T09:33:19.825Z","","","","StressQ","","","","","","","","","","","50","","","","","","","","","","","","","","","","","","","","","","","","","","",""
"4349","","<div style=""width:500px;"">
  <p>What best describes how you currently feel?</p>
  </div>","59","html-slider-response","72","1793659","0.0-7.0-4.11","153","1","2025-08-06 09:03:28","36c45c0696341be0efffe67d72a12abb","41.122.131.205","Mozilla/5.0 (Macintosh; Intel Mac OS X 10_15_7) AppleWebKit/537.36 (KHTML, like Gecko) Chrome/128.0.0.0 Safari/537.36","Macintosh","Chrome","128.0.0.0","OS X","10_15_7","https://app.prolific.com/","en-GB,en-US;q=0.9,en;q=0.8","6780db9dafd89add339abb6b","6877649eabb845cf142cd221","68931a52c44fcce8575be1c8","1","6780db9dafd89add339abb6b","1","2025-08-06T09:33:24.177Z","","","","MotivationQ","","","","","","","","","","","50","","","","","","","","","","","","","","","","","","","","","","","","","","",""
"","","","","ctl-task-cpt","73","1824560","0.0-7.0-0.12","153","1","2025-08-06 09:03:28","36c45c0696341be0efffe67d72a12abb","41.122.131.205","Mozilla/5.0 (Macintosh; Intel Mac OS X 10_15_7) AppleWebKit/537.36 (KHTML, like Gecko) Chrome/128.0.0.0 Safari/537.36","Macintosh","Chrome","128.0.0.0","OS X","10_15_7","https://app.prolific.com/","en-GB,en-US;q=0.9,en;q=0.8","6780db9dafd89add339abb6b","6877649eabb845cf142cd221","68931a52c44fcce8575be1c8","1","6780db9dafd89add339abb6b","1","2025-08-06T09:33:55.078Z","","","","","","","","","","","","","","","","win-only","3","g1:SW,g2:NE","0.8","13","0","1796040.3","1438.5","6447.4","27871.7","1","4","8","6","2","8","8","56","48","0.42424242424242425","1036.6","3000","2160","[""up"",""right""]","{""num_key_presses"":6,""num_perfect"":6,""num_errors"":0,""num_randdir"":0,""num_randdir_good_moves"":0,""num_whilered"":0,""num_whileblue"":0,""num_blue"":1,""num_good_moves"":6}","[355.94286244681905,353.7584874142693,0.6,355.94286244681905,353.7584874142693,117.6,354.3428624229772,353.7584874142693,234.6,338.3428621845586,299.35848660364616,354.9,401.542863126312,217.75848538771137,454.9,528.7428650217397,132.15848411217198,569,567.9428656058652,101.75848365917668,729.3,571.1428656535489,95.35848356380924,855.4,587.9428659038884,94.55848355188832,962,591.1428659515722,92.95848352804646,1070.4,591.9428659634931,95.35848356380924,1173.8,592.742865975414,104.95848370686039,1291.5,579.9428657846792,181.75848485126957,1408.9,517.5428648548467,302.5584866513299,1513.9,477.54286425880025,327.35848702087867,1636.3,476.7428642468793,326.55848700895774,1743.5,476.7428642468793,326.55848700895774,1863.5,476.7428642468793,326.55848700895774,1971.9,476.7428642468793,326.55848700895774,2078.3,476.7428642468793,326.55848700895774,2185.9,476.7428642468793,326.55848700895774,2294.3,476.7428642468793,326.55848700895774,2395,476.7428642468793,326.55848700895774,2509.2,476.7428642468793,326.55848700895774,2616.7,476.7428642468793,326.55848700895774,2718.5,476.7428642468793,326.55848700895774,2826.1,476.7428642468793,326.55848700895774,2928.9,476.7428642468793,326.55848700895774,3037.4,476.7428642468793,326.55848700895774,3146.2,476.7428642468793,326.55848700895774,3246.2,476.7428642468793,326.55848700895774,3353.4,476.7428642468793,326.55848700895774,3455.7,476.7428642468793,326.55848700895774,3563.9,476.7428642468793,326.55848700895774,3683.7,476.7428642468793,326.55848700895774,3786.2,476.7428642468793,326.55848700895774,3892.5,476.7428642468793,326.55848700895774,4003.4,476.7428642468793,326.55848700895774,4116.8,476.7428642468793,326.55848700895774,4217.4,476.7428642468793,326.55848700895774,4318.2,476.7428642468793,326.55848700895774,4427.7,476.7428642468793,326.55848700895774,4528.3,476.7428642468793,326.55848700895774,4628.4,476.7428642468793,326.55848700895774,4746.7,476.7428642468793,326.55848700895774,4852.9,476.7428642468793,326.55848700895774,4958.6]","[1550.2,1550.2,1000,0,550.2,""smooth"",""right"",""right"",""good_move"",4675.9,3124.7,2702,1551.2,422.7,""smooth"",""right"",""right"",""good_move"",6996.2,2319.1,1847.9,4677.1,471.2,""smooth"",""right"",""right"",""good_move"",10288.8,3292.1,2843.5,6996.7,448.6,""smooth"",""up"",""up"",""good_move"",17260.9,6971.4,2959.8,13826.4,474.7,""smooth"",""up"",""up"",""good_move"",21028.6,3767.5,3251.3,17261.1,516.2,""smooth"",""up"",""up"",""good_move""]"
"11749","","<div style=""width:500px;"">
  <p>What determined the result of this run?</p>
  </div>","63","html-slider-response","74","1836312","0.0-7.0-1.12","153","1","2025-08-06 09:03:28","36c45c0696341be0efffe67d72a12abb","41.122.131.205","Mozilla/5.0 (Macintosh; Intel Mac OS X 10_15_7) AppleWebKit/537.36 (KHTML, like Gecko) Chrome/128.0.0.0 Safari/537.36","Macintosh","Chrome","128.0.0.0","OS X","10_15_7","https://app.prolific.com/","en-GB,en-US;q=0.9,en;q=0.8","6780db9dafd89add339abb6b","6877649eabb845cf142cd221","68931a52c44fcce8575be1c8","1","6780db9dafd89add339abb6b","1","2025-08-06T09:34:06.831Z","","","","AttribQ","","","","","","","","","","","50","","","","","","","","","","","","","","","","","","","","","","","","","","",""
"2065","","<div style=""width:500px;"">
  <p>How much control did you have over the ball?</p>
  </div>","38","html-slider-response","75","1838384","0.0-7.0-2.12","153","1","2025-08-06 09:03:28","36c45c0696341be0efffe67d72a12abb","41.122.131.205","Mozilla/5.0 (Macintosh; Intel Mac OS X 10_15_7) AppleWebKit/537.36 (KHTML, like Gecko) Chrome/128.0.0.0 Safari/537.36","Macintosh","Chrome","128.0.0.0","OS X","10_15_7","https://app.prolific.com/","en-GB,en-US;q=0.9,en;q=0.8","6780db9dafd89add339abb6b","6877649eabb845cf142cd221","68931a52c44fcce8575be1c8","1","6780db9dafd89add339abb6b","1","2025-08-06T09:34:08.902Z","","","","ControlQ","","","","","","","","","","","50","","","","","","","","","","","","","","","","","","","","","","","","","","",""
"2042","","<div style=""width:500px;"">
  <p>How would you describe your current emotional state?</p>
  </div>","58","html-slider-response","76","1840429","0.0-7.0-3.12","153","1","2025-08-06 09:03:28","36c45c0696341be0efffe67d72a12abb","41.122.131.205","Mozilla/5.0 (Macintosh; Intel Mac OS X 10_15_7) AppleWebKit/537.36 (KHTML, like Gecko) Chrome/128.0.0.0 Safari/537.36","Macintosh","Chrome","128.0.0.0","OS X","10_15_7","https://app.prolific.com/","en-GB,en-US;q=0.9,en;q=0.8","6780db9dafd89add339abb6b","6877649eabb845cf142cd221","68931a52c44fcce8575be1c8","1","6780db9dafd89add339abb6b","1","2025-08-06T09:34:10.947Z","","","","StressQ","","","","","","","","","","","50","","","","","","","","","","","","","","","","","","","","","","","","","","",""
"3886","","<div style=""width:500px;"">
  <p>What best describes how you currently feel?</p>
  </div>","43","html-slider-response","77","1844319","0.0-7.0-4.12","153","1","2025-08-06 09:03:28","36c45c0696341be0efffe67d72a12abb","41.122.131.205","Mozilla/5.0 (Macintosh; Intel Mac OS X 10_15_7) AppleWebKit/537.36 (KHTML, like Gecko) Chrome/128.0.0.0 Safari/537.36","Macintosh","Chrome","128.0.0.0","OS X","10_15_7","https://app.prolific.com/","en-GB,en-US;q=0.9,en;q=0.8","6780db9dafd89add339abb6b","6877649eabb845cf142cd221","68931a52c44fcce8575be1c8","1","6780db9dafd89add339abb6b","1","2025-08-06T09:34:14.837Z","","","","MotivationQ","","","","","","","","","","","50","","","","","","","","","","","","","","","","","","","","","","","","","","",""
