"rt","response_timestamp","stimulus","response","trial_type","trial_index","time_elapsed","internal_node_id","run_id","condition","recorded_at","source_code_version","ip","user_agent","device","browser","browser_version","platform","platform_version","referer","accept_language","PROLIFIC_PID","STUDY_ID","SESSION_ID","BATCH","prolific_id","batch","realtime","success","question_order","question_id","eventType","responses","item_order","radio_event_ids","radio_event_times","key_event_times","mouse_event_times","straightlining","zigzagging","honeypot","view_history","slider_start","which_type","canvas_config","goals_layout","control_level","trial_number","tutorial_trial_number","trial_start_time","phase1_start_time","phase2_start_time","phase3_start_time","goal_1_value","goal_1_distance","goal_2_value","goal_2_distance","goal_selected","outcome","outcome_total","participant_final_score","participant_initial_score","participant_final_score_prop","goal_choice_rt","allocated_time","allocated_time_remaining","goal_direction","counts","mouse_movements","key_presses"
"2938","1754479206991","<p style='font-size:40px;line-height:1.25'><strong>Welcome to the experiment!</strong></p><p style='font-size:1.1em;line-height:1.25'>Thank you for participanting in our experiment again! You will be asked to play the Dysfunctional Ball Game again. We will briefly recap the rules before we start.</p><p style='font-size:1.1em;line-height:1.25'>Press <strong>Next</strong> to continue.</p>","0","custom-html-button-response","0","2940","0.0-0.0","186","1","2025-08-06 11:20:00","36c45c0696341be0efffe67d72a12abb","41.150.224.121","Mozilla/5.0 (Windows NT 10.0; Win64; x64) AppleWebKit/537.36 (KHTML, like Gecko) Chrome/138.0.0.0 Safari/537.36","WebKit","Chrome","138.0.0.0","Windows","10.0","https://app.prolific.com/","en-US,en;q=0.9","6785052a054e7c96c09f69cd","6877649eabb845cf142cd221","68933a521c997de08755de6d","1","6785052a054e7c96c09f69cd","1","2025-08-06T11:20:06.992Z","","","","","","","","","","","","","","","","","","","","","","","","","","","","","","","","","","","","","","","","","",""
"12450","","","","fullscreen","1","16405","0.0-1.0","186","1","2025-08-06 11:20:00","36c45c0696341be0efffe67d72a12abb","41.150.224.121","Mozilla/5.0 (Windows NT 10.0; Win64; x64) AppleWebKit/537.36 (KHTML, like Gecko) Chrome/138.0.0.0 Safari/537.36","WebKit","Chrome","138.0.0.0","Windows","10.0","https://app.prolific.com/","en-US,en;q=0.9","6785052a054e7c96c09f69cd","6877649eabb845cf142cd221","68933a521c997de08755de6d","1","6785052a054e7c96c09f69cd","1","","true","","","","","","","","","","","","","","","","","","","","","","","","","","","","","","","","","","","","","","","","",""
"1196","1754479221654"," <p style='font-size:1.1em;line-height:1.25'>Thank you for closing all other tabs.</p><p style='font-size:1.1em;line-height:1.25'>We will now invite you to fill in some questionnaires, before starting the game.<br>This will take about 5 minutes.<br></p><p style='font-size:1.1em;line-height:1.25'>Press the <strong>Next</strong> button to continue.</p>","0","custom-html-button-response","2","17602","0.0-2.0","186","1","2025-08-06 11:20:00","36c45c0696341be0efffe67d72a12abb","41.150.224.121","Mozilla/5.0 (Windows NT 10.0; Win64; x64) AppleWebKit/537.36 (KHTML, like Gecko) Chrome/138.0.0.0 Safari/537.36","WebKit","Chrome","138.0.0.0","Windows","10.0","https://app.prolific.com/","en-US,en;q=0.9","6785052a054e7c96c09f69cd","6877649eabb845cf142cd221","68933a521c997de08755de6d","1","6785052a054e7c96c09f69cd","1","2025-08-06T11:20:21.655Z","","","","","","","","","","","","","","","","","","","","","","","","","","","","","","","","","","","","","","","","","",""
"2553","","","{""assigned_sex"":""female""}","survey-multi-choice","3","20156","0.0-3.0-0.0","186","1","2025-08-06 11:20:00","36c45c0696341be0efffe67d72a12abb","41.150.224.121","Mozilla/5.0 (Windows NT 10.0; Win64; x64) AppleWebKit/537.36 (KHTML, like Gecko) Chrome/138.0.0.0 Safari/537.36","WebKit","Chrome","138.0.0.0","Windows","10.0","https://app.prolific.com/","en-US,en;q=0.9","6785052a054e7c96c09f69cd","6877649eabb845cf142cd221","68933a521c997de08755de6d","1","6785052a054e7c96c09f69cd","1","","","[0]","0","demographics","","","","","","","","","","","","","","","","","","","","","","","","","","","","","","","","","","","","","",""
"1237","1754479225446","<p style='font-size:1.1em;line-height:1.25'>In the following, we will perform a baseline assessment. This means that we will ask you a few questions relating to your experiences over the past month.<br></p><p style='font-size:1.1em;line-height:1.25'>Press the <strong>Next</strong> button to continue.</p>","0","custom-html-button-response","4","21395","0.0-4.0-0.0","186","1","2025-08-06 11:20:00","36c45c0696341be0efffe67d72a12abb","41.150.224.121","Mozilla/5.0 (Windows NT 10.0; Win64; x64) AppleWebKit/537.36 (KHTML, like Gecko) Chrome/138.0.0.0 Safari/537.36","WebKit","Chrome","138.0.0.0","Windows","10.0","https://app.prolific.com/","en-US,en;q=0.9","6785052a054e7c96c09f69cd","6877649eabb845cf142cd221","68933a521c997de08755de6d","1","6785052a054e7c96c09f69cd","1","2025-08-06T11:20:25.447Z","","","","","","","","","","","","","","","","","","","","","","","","","","","","","","","","","","","","","","","","","",""
"82551.1000000001","","","","survey-template","5","103949","0.0-4.0-1.0","186","1","2025-08-06 11:20:00","36c45c0696341be0efffe67d72a12abb","41.150.224.121","Mozilla/5.0 (Windows NT 10.0; Win64; x64) AppleWebKit/537.36 (KHTML, like Gecko) Chrome/138.0.0.0 Safari/537.36","WebKit","Chrome","138.0.0.0","Windows","10.0","https://app.prolific.com/","en-US,en;q=0.9","6785052a054e7c96c09f69cd","6877649eabb845cf142cd221","68933a521c997de08755de6d","1","6785052a054e7c96c09f69cd","1","2025-08-06T11:21:48.002Z","","","","pss","{""Q01"":""2"",""Q02"":""3"",""Q03"":""2"",""Q04"":""1"",""Q05"":""2"",""Q06"":""2"",""Q07"":""1"",""Q08"":""0"",""Q09"":""2"",""Q10"":""2""}","[0,1,2,3,4,5,6,7,8,9]","[""Q01"",""Q02"",""Q03"",""Q04"",""Q05"",""Q06"",""Q07"",""Q08"",""Q09"",""Q10""]","[6642.700000000186,25450.600000000093,26414.90000000014,34936.90000000014,40226.700000000186,53250.60000000009,59258.700000000186,70786.6000000001,76273,81284.1000000001]","[]","[0.10000000009313226,6642.700000000186,13220.90000000014,25450.600000000093,26414.90000000014,34936.90000000014,40226.700000000186,53250.60000000009,59258.700000000186,69694.80000000005,70786.6000000001,76273,80396.90000000014,81284.1000000001,82548.40000000014]","0.6","0.6666666666666666","0","","","","","","","","","","","","","","","","","","","","","","","","","","","","",""
"3126","1754479311128","<p style='font-size:1.1em;line-height:1.25'>Thank you for your answers! Now we will ask you a few more questions relating to your feelings in the last 24 hours.<br></p><p style='font-size:1.1em;line-height:1.25'>Press the <strong>Next</strong> button to continue.</p>","0","custom-html-button-response","6","107077","0.0-4.0-2.0","186","1","2025-08-06 11:20:00","36c45c0696341be0efffe67d72a12abb","41.150.224.121","Mozilla/5.0 (Windows NT 10.0; Win64; x64) AppleWebKit/537.36 (KHTML, like Gecko) Chrome/138.0.0.0 Safari/537.36","WebKit","Chrome","138.0.0.0","Windows","10.0","https://app.prolific.com/","en-US,en;q=0.9","6785052a054e7c96c09f69cd","6877649eabb845cf142cd221","68933a521c997de08755de6d","1","6785052a054e7c96c09f69cd","1","2025-08-06T11:21:51.129Z","","","","","","","","","","","","","","","","","","","","","","","","","","","","","","","","","","","","","","","","","",""
"114133.69999999995","","","","survey-template","7","221214","0.0-4.0-3.0","186","1","2025-08-06 11:20:00","36c45c0696341be0efffe67d72a12abb","41.150.224.121","Mozilla/5.0 (Windows NT 10.0; Win64; x64) AppleWebKit/537.36 (KHTML, like Gecko) Chrome/138.0.0.0 Safari/537.36","WebKit","Chrome","138.0.0.0","Windows","10.0","https://app.prolific.com/","en-US,en;q=0.9","6785052a054e7c96c09f69cd","6877649eabb845cf142cd221","68933a521c997de08755de6d","1","6785052a054e7c96c09f69cd","1","2025-08-06T11:23:45.266Z","","","","drsp","{""Q01"":""0"",""Q02"":""0"",""Q03"":""0"",""Q04"":""2"",""Q05"":""3"",""Q06"":""0"",""Q07"":""2"",""Q08"":""0"",""Q09"":""1"",""Q10"":""2"",""Q11"":""3"",""Q12"":""1"",""Q13"":""5"",""Q14"":""3"",""Q15"":""5"",""Q16"":""0"",""Q17"":""2"",""Q18"":""0"",""Q19"":""3"",""Q20"":""2"",""Q21"":""2"",""Q22"":""0""}","[0,1,2,3,4,5,6,7,8,9,10,11,12,13,14,15,16,17,18,19,20,21]","[""Q01"",""Q02"",""Q03"",""Q04"",""Q05"",""Q06"",""Q07"",""Q08"",""Q09"",""Q10"",""Q11"",""Q12"",""Q13"",""Q14"",""Q15"",""Q15"",""Q16"",""Q16"",""Q15"",""Q17"",""Q18"",""Q19"",""Q20"",""Q21"",""Q22""]","[6871.199999999953,8731.800000000047,11839.699999999953,14217.59999999986,16801.300000000047,21777.399999999907,24839.399999999907,29666.699999999953,34081.19999999995,42719.5,46501.09999999986,49961,51929.5,56114.89999999991,61682.89999999991,67865.09999999986,71934.80000000005,76995.59999999986,78844.69999999995,85665.3999999999,89170.69999999995,96741.3999999999,103431.09999999986,109086.59999999986,113141.3999999999]","[]","[0,5704.899999999907,6871.199999999953,8731.800000000047,11839.699999999953,14217.59999999986,16801.300000000047,21777.399999999907,24323.699999999953,24839.399999999907,27919.09999999986,28735.699999999953,29666.699999999953,34081.19999999995,42719.5,46501.09999999986,49961,51929.5,56114.89999999991,61682.89999999991,67865.09999999986,71934.80000000005,76995.59999999986,78844.69999999995,85665.3999999999,89170.69999999995,96741.3999999999,103431.09999999986,109086.59999999986,113141.3999999999,114129.09999999986]","0.36363636363636365","0.2857142857142857","0","","","","","","","","","","","","","","","","","","","","","","","","","","","","",""
"12936.90000000014","","","","survey-template","8","234152","0.0-4.0-4.0","186","1","2025-08-06 11:20:00","36c45c0696341be0efffe67d72a12abb","41.150.224.121","Mozilla/5.0 (Windows NT 10.0; Win64; x64) AppleWebKit/537.36 (KHTML, like Gecko) Chrome/138.0.0.0 Safari/537.36","WebKit","Chrome","138.0.0.0","Windows","10.0","https://app.prolific.com/","en-US,en;q=0.9","6785052a054e7c96c09f69cd","6877649eabb845cf142cd221","68933a521c997de08755de6d","1","6785052a054e7c96c09f69cd","1","2025-08-06T11:23:58.205Z","","","","stress","{""Q01"":""0"",""Q02"":""5"",""Q03"":""2""}","[0,1,2]","[""Q01"",""Q02"",""Q03""]","[4080.3000000000466,8298.40000000014,11886.699999999953]","[]","[4080.3000000000466,6750.40000000014,8298.40000000014,11886.699999999953,12936.199999999953]","0.6666666666666666","0","0","","","","","","","","","","","","","","","","","","","","","","","","","","","","",""
"7371","","","","instructions","9","241524","0.0-5.0-0.0","186","1","2025-08-06 11:20:00","36c45c0696341be0efffe67d72a12abb","41.150.224.121","Mozilla/5.0 (Windows NT 10.0; Win64; x64) AppleWebKit/537.36 (KHTML, like Gecko) Chrome/138.0.0.0 Safari/537.36","WebKit","Chrome","138.0.0.0","Windows","10.0","https://app.prolific.com/","en-US,en;q=0.9","6785052a054e7c96c09f69cd","6877649eabb845cf142cd221","68933a521c997de08755de6d","1","6785052a054e7c96c09f69cd","1","","","","","","","","","","","","","","","[{""page_index"":0,""viewing_time"":7371}]","","","","","","","","","","","","","","","","","","","","","","","","","","","",""
"35034","","<p>Before you start with this game please answer the following three questions yourself. </p>
  <p>Through this game, we measure several aspects of your cognitive performance, such as reaction times, multi-tasking capabilities </p>
  <p>and the ability to assess the situation you are in.</p>
  <p></p>
  <p><b>How good do you usually are in such tasks?</b></p>","100","html-slider-response","10","276562","0.0-6.0-0.0","186","1","2025-08-06 11:20:00","36c45c0696341be0efffe67d72a12abb","41.150.224.121","Mozilla/5.0 (Windows NT 10.0; Win64; x64) AppleWebKit/537.36 (KHTML, like Gecko) Chrome/138.0.0.0 Safari/537.36","WebKit","Chrome","138.0.0.0","Windows","10.0","https://app.prolific.com/","en-US,en;q=0.9","6785052a054e7c96c09f69cd","6877649eabb845cf142cd221","68933a521c997de08755de6d","1","6785052a054e7c96c09f69cd","1","2025-08-06T11:24:40.614Z","","","","PreSkillQ","","","","","","","","","","","50","","","","","","","","","","","","","","","","","","","","","","","","","","",""
"3871","","<div style=""width:500px;"">
  <p>How well do you think you will perform in this task compared to other participants?</p>
  </div>","100","html-slider-response","11","280434","0.0-6.0-1.0","186","1","2025-08-06 11:20:00","36c45c0696341be0efffe67d72a12abb","41.150.224.121","Mozilla/5.0 (Windows NT 10.0; Win64; x64) AppleWebKit/537.36 (KHTML, like Gecko) Chrome/138.0.0.0 Safari/537.36","WebKit","Chrome","138.0.0.0","Windows","10.0","https://app.prolific.com/","en-US,en;q=0.9","6785052a054e7c96c09f69cd","6877649eabb845cf142cd221","68933a521c997de08755de6d","1","6785052a054e7c96c09f69cd","1","2025-08-06T11:24:44.486Z","","","","PrePerfQ","","","","","","","","","","","50","","","","","","","","","","","","","","","","","","","","","","","","","","",""
"4445","","<div style=""width:500px;"">
  <p>What best describes how you currently feel?</p>
  </div>","100","html-slider-response","12","284880","0.0-6.0-2.0","186","1","2025-08-06 11:20:00","36c45c0696341be0efffe67d72a12abb","41.150.224.121","Mozilla/5.0 (Windows NT 10.0; Win64; x64) AppleWebKit/537.36 (KHTML, like Gecko) Chrome/138.0.0.0 Safari/537.36","WebKit","Chrome","138.0.0.0","Windows","10.0","https://app.prolific.com/","en-US,en;q=0.9","6785052a054e7c96c09f69cd","6877649eabb845cf142cd221","68933a521c997de08755de6d","1","6785052a054e7c96c09f69cd","1","2025-08-06T11:24:48.932Z","","","","PreMotivationQ","","","","","","","","","","","50","","","","","","","","","","","","","","","","","","","","","","","","","","",""
"","","","","ctl-task-cpt","13","315116","0.0-7.0-0.0","186","1","2025-08-06 11:20:00","36c45c0696341be0efffe67d72a12abb","41.150.224.121","Mozilla/5.0 (Windows NT 10.0; Win64; x64) AppleWebKit/537.36 (KHTML, like Gecko) Chrome/138.0.0.0 Safari/537.36","WebKit","Chrome","138.0.0.0","Windows","10.0","https://app.prolific.com/","en-US,en;q=0.9","6785052a054e7c96c09f69cd","6877649eabb845cf142cd221","68933a521c997de08755de6d","1","6785052a054e7c96c09f69cd","1","2025-08-06T11:25:19.169Z","","","","","","","","","","","","","","","","win-only","3","g1:SW,g2:NE","1","1","0","289060.6","1383.9","6389.5","27228.4","1","4","8","6","2","8","8","8","0","0.06060606060606061","1464.8","3000","825","[""up"",""right""]","{""num_key_presses"":6,""num_perfect"":6,""num_errors"":0,""num_randdir"":0,""num_randdir_good_moves"":0,""num_whilered"":0,""num_whileblue"":0,""num_blue"":1,""num_good_moves"":6}","[404.57142857142856,419.1808016640799,0.6,404.57142857142856,419.1808016640799,102,404.57142857142856,419.1808016640799,202.7,404.57142857142856,419.1808016640799,306.4,404.57142857142856,419.1808016640799,412.5,404.57142857142856,419.1808016640799,517,404.57142857142856,419.1808016640799,618.4,404.57142857142856,419.1808016640799,722.6,404.57142857142856,419.1808016640799,827.1,509.57142857142856,284.1808016640799,927.1,640.0714285714286,132.68080166407992,1032.6,671.5714285714286,90.68080166407994,1138.6,674.5714285714286,92.18080166407994,1239.3,728.5714285714286,95.18080166407994,1343,731.5714285714286,93.68080166407994,1447.4,731.5714285714286,93.68080166407994,1547.9,731.5714285714286,93.68080166407994,1659.2,716.5714285714286,123.68080166407994,1759.7,701.5714285714286,180.68080166407992,1862.2,682.0714285714286,290.1808016640799,1965.9,679.0714285714286,335.1808016640799,2067.3,679.0714285714286,335.1808016640799,2173.7,679.0714285714286,335.1808016640799,2276.9,679.0714285714286,335.1808016640799,2377.4,679.0714285714286,335.1808016640799,2482.3,679.0714285714286,335.1808016640799,2589.3,679.0714285714286,335.1808016640799,2689.5,679.0714285714286,335.1808016640799,2792.6,679.0714285714286,335.1808016640799,2897.2,679.0714285714286,335.1808016640799,2997.2,679.0714285714286,335.1808016640799,3097.5,679.0714285714286,335.1808016640799,3205.3,679.0714285714286,335.1808016640799,3305.5,679.0714285714286,335.1808016640799,3407.4,679.0714285714286,335.1808016640799,3512,679.0714285714286,335.1808016640799,3622.6,679.0714285714286,335.1808016640799,3726.9,679.0714285714286,335.1808016640799,3827.1,679.0714285714286,335.1808016640799,3927.2,679.0714285714286,335.1808016640799,4031.8,679.0714285714286,335.1808016640799,4133.2,679.0714285714286,335.1808016640799,4238.7,679.0714285714286,335.1808016640799,4341.7,679.0714285714286,335.1808016640799,4447.2,679.0714285714286,335.1808016640799,4547.6,679.0714285714286,335.1808016640799,4655.5,679.0714285714286,335.1808016640799,4757.3,679.0714285714286,335.1808016640799,4857.3,679.0714285714286,335.1808016640799,4957.5]","[5006.7,5006.7,2507.2,2006.8,492.7,""smooth"",""up"",""up"",""good_move"",7965,2958,2467.2,5007,490.8,""smooth"",""up"",""up"",""good_move"",11164.7,3199.6,2814.8,7965.1,384.8,""smooth"",""right"",""right"",""good_move"",15230.8,4065.8,3698.8,11165,367,""smooth"",""right"",""right"",""good_move"",17830.4,2599.4,2194.4,15231,405,""smooth"",""up"",""up"",""good_move"",20725,2894.5,2519.3,17830.5,375.2,""smooth"",""right"",""right"",""good_move""]"
"4054","","<div style=""width:500px;"">
  <p>What determined the result of this run?</p>
  </div>","100","html-slider-response","14","319171","0.0-7.0-1.0","186","1","2025-08-06 11:20:00","36c45c0696341be0efffe67d72a12abb","41.150.224.121","Mozilla/5.0 (Windows NT 10.0; Win64; x64) AppleWebKit/537.36 (KHTML, like Gecko) Chrome/138.0.0.0 Safari/537.36","WebKit","Chrome","138.0.0.0","Windows","10.0","https://app.prolific.com/","en-US,en;q=0.9","6785052a054e7c96c09f69cd","6877649eabb845cf142cd221","68933a521c997de08755de6d","1","6785052a054e7c96c09f69cd","1","2025-08-06T11:25:23.224Z","","","","AttribQ","","","","","","","","","","","50","","","","","","","","","","","","","","","","","","","","","","","","","","",""
"2975","","<div style=""width:500px;"">
  <p>How much control did you have over the ball?</p>
  </div>","100","html-slider-response","15","322147","0.0-7.0-2.0","186","1","2025-08-06 11:20:00","36c45c0696341be0efffe67d72a12abb","41.150.224.121","Mozilla/5.0 (Windows NT 10.0; Win64; x64) AppleWebKit/537.36 (KHTML, like Gecko) Chrome/138.0.0.0 Safari/537.36","WebKit","Chrome","138.0.0.0","Windows","10.0","https://app.prolific.com/","en-US,en;q=0.9","6785052a054e7c96c09f69cd","6877649eabb845cf142cd221","68933a521c997de08755de6d","1","6785052a054e7c96c09f69cd","1","2025-08-06T11:25:26.200Z","","","","ControlQ","","","","","","","","","","","50","","","","","","","","","","","","","","","","","","","","","","","","","","",""
"3685","","<div style=""width:500px;"">
  <p>How would you describe your current emotional state?</p>
  </div>","0","html-slider-response","16","325833","0.0-7.0-3.0","186","1","2025-08-06 11:20:00","36c45c0696341be0efffe67d72a12abb","41.150.224.121","Mozilla/5.0 (Windows NT 10.0; Win64; x64) AppleWebKit/537.36 (KHTML, like Gecko) Chrome/138.0.0.0 Safari/537.36","WebKit","Chrome","138.0.0.0","Windows","10.0","https://app.prolific.com/","en-US,en;q=0.9","6785052a054e7c96c09f69cd","6877649eabb845cf142cd221","68933a521c997de08755de6d","1","6785052a054e7c96c09f69cd","1","2025-08-06T11:25:29.885Z","","","","StressQ","","","","","","","","","","","50","","","","","","","","","","","","","","","","","","","","","","","","","","",""
"3324","","<div style=""width:500px;"">
  <p>What best describes how you currently feel?</p>
  </div>","100","html-slider-response","17","329158","0.0-7.0-4.0","186","1","2025-08-06 11:20:00","36c45c0696341be0efffe67d72a12abb","41.150.224.121","Mozilla/5.0 (Windows NT 10.0; Win64; x64) AppleWebKit/537.36 (KHTML, like Gecko) Chrome/138.0.0.0 Safari/537.36","WebKit","Chrome","138.0.0.0","Windows","10.0","https://app.prolific.com/","en-US,en;q=0.9","6785052a054e7c96c09f69cd","6877649eabb845cf142cd221","68933a521c997de08755de6d","1","6785052a054e7c96c09f69cd","1","2025-08-06T11:25:33.210Z","","","","MotivationQ","","","","","","","","","","","50","","","","","","","","","","","","","","","","","","","","","","","","","","",""
"","","","","ctl-task-cpt","18","356085","0.0-7.0-0.1","186","1","2025-08-06 11:20:00","36c45c0696341be0efffe67d72a12abb","41.150.224.121","Mozilla/5.0 (Windows NT 10.0; Win64; x64) AppleWebKit/537.36 (KHTML, like Gecko) Chrome/138.0.0.0 Safari/537.36","WebKit","Chrome","138.0.0.0","Windows","10.0","https://app.prolific.com/","en-US,en;q=0.9","6785052a054e7c96c09f69cd","6877649eabb845cf142cd221","68933a521c997de08755de6d","1","6785052a054e7c96c09f69cd","1","2025-08-06T11:26:00.138Z","","","","","","","","","","","","","","","","win-only","1","g1:NE,g2:SW","0.9","2","0","333336.1","1275.7","6277.8","23915.4","1","4","4","6","2","-4","-4","4","8","0.030303030303030304","1221.2","3000","-3010","[""down"",""left""]","{""num_key_presses"":5,""num_perfect"":4,""num_errors"":0,""num_randdir"":1,""num_randdir_good_moves"":0,""num_whilered"":0,""num_whileblue"":0,""num_blue"":1,""num_good_moves"":4}","[415.07142857142856,413.1808016640799,0.2,415.07142857142856,413.1808016640799,100.9,415.07142857142856,413.1808016640799,204.7,415.07142857142856,413.1808016640799,305.8,415.07142857142856,413.1808016640799,410.3,376.07142857142856,437.1808016640799,517.6,254.57142857142856,615.6808016640799,620,148.07142857142856,686.1808016640799,725.1,70.07142857142857,783.6808016640799,834.5,70.07142857142857,776.1808016640799,940.3,70.07142857142857,776.1808016640799,1040.4,86.57142857142857,755.1808016640799,1140.4,86.57142857142857,753.6808016640799,1240.7,86.57142857142857,753.6808016640799,1350.3,88.07142857142857,753.6808016640799,1454.5,89.57142857142857,752.1808016640799,1555,89.57142857142857,747.6808016640799,1655.5,89.57142857142857,746.1808016640799,1755.7,88.07142857142857,749.1808016640799,1860.4,88.07142857142857,749.1808016640799,1967,89.57142857142857,747.6808016640799,2067.4,89.57142857142857,750.6808016640799,2170.2,88.07142857142857,755.1808016640799,2270.4,86.57142857142857,755.1808016640799,2370.4,85.07142857142857,756.6808016640799,2474.8,82.07142857142857,758.1808016640799,2574.9,82.07142857142857,758.1808016640799,2683.9,79.07142857142857,758.1808016640799,2784.2,79.07142857142857,758.1808016640799,2884.4,79.07142857142857,758.1808016640799,2984.6,80.57142857142857,758.1808016640799,3085.6,80.57142857142857,756.6808016640799,3190.1,83.57142857142857,756.6808016640799,3290.2,83.57142857142857,755.1808016640799,3390.2,86.57142857142857,752.1808016640799,3500.9,86.57142857142857,752.1808016640799,3605.4,85.07142857142857,752.1808016640799,3705.4,83.57142857142857,755.1808016640799,3810.2,80.57142857142857,756.6808016640799,3917.5,80.57142857142857,756.6808016640799,4025.8,85.07142857142857,752.1808016640799,4126,83.57142857142857,753.6808016640799,4239.3,82.07142857142857,753.6808016640799,4340.3,83.57142857142857,752.1808016640799,4441.2,80.57142857142857,746.1808016640799,4551.8,80.57142857142857,744.6808016640799,4654.6,83.57142857142857,740.1808016640799,4755,89.57142857142857,737.1808016640799,4860.6,89.57142857142857,734.1808016640799,4968.1]","[1431.7,1431.7,1000,0,431.7,""smooth"",""down"",""down"",""good_move"",4605.4,3173.4,2771.1,1432,402.3,""smooth"",""left"",""left"",""good_move"",6695.8,2090.1,1621.1,4605.7,469,""smooth"",""down"",""down"",""good_move"",12769.1,6073.1,2231.6,10127.5,410,""smooth"",""left"",""left"",""good_move"",15533.9,2764.7,2367.1,12769.2,397.6,""oops"",""down"",""up"",""bad_move""]"
"6208","","<div style=""width:500px;"">
  <p>What determined the result of this run?</p>
  </div>","0","html-slider-response","19","362296","0.0-7.0-1.1","186","1","2025-08-06 11:20:00","36c45c0696341be0efffe67d72a12abb","41.150.224.121","Mozilla/5.0 (Windows NT 10.0; Win64; x64) AppleWebKit/537.36 (KHTML, like Gecko) Chrome/138.0.0.0 Safari/537.36","WebKit","Chrome","138.0.0.0","Windows","10.0","https://app.prolific.com/","en-US,en;q=0.9","6785052a054e7c96c09f69cd","6877649eabb845cf142cd221","68933a521c997de08755de6d","1","6785052a054e7c96c09f69cd","1","2025-08-06T11:26:06.348Z","","","","AttribQ","","","","","","","","","","","50","","","","","","","","","","","","","","","","","","","","","","","","","","",""
"6108","","<div style=""width:500px;"">
  <p>How much control did you have over the ball?</p>
  </div>","50","html-slider-response","20","368408","0.0-7.0-2.1","186","1","2025-08-06 11:20:00","36c45c0696341be0efffe67d72a12abb","41.150.224.121","Mozilla/5.0 (Windows NT 10.0; Win64; x64) AppleWebKit/537.36 (KHTML, like Gecko) Chrome/138.0.0.0 Safari/537.36","WebKit","Chrome","138.0.0.0","Windows","10.0","https://app.prolific.com/","en-US,en;q=0.9","6785052a054e7c96c09f69cd","6877649eabb845cf142cd221","68933a521c997de08755de6d","1","6785052a054e7c96c09f69cd","1","2025-08-06T11:26:12.460Z","","","","ControlQ","","","","","","","","","","","50","","","","","","","","","","","","","","","","","","","","","","","","","","",""
"4681","","<div style=""width:500px;"">
  <p>How would you describe your current emotional state?</p>
  </div>","0","html-slider-response","21","373090","0.0-7.0-3.1","186","1","2025-08-06 11:20:00","36c45c0696341be0efffe67d72a12abb","41.150.224.121","Mozilla/5.0 (Windows NT 10.0; Win64; x64) AppleWebKit/537.36 (KHTML, like Gecko) Chrome/138.0.0.0 Safari/537.36","WebKit","Chrome","138.0.0.0","Windows","10.0","https://app.prolific.com/","en-US,en;q=0.9","6785052a054e7c96c09f69cd","6877649eabb845cf142cd221","68933a521c997de08755de6d","1","6785052a054e7c96c09f69cd","1","2025-08-06T11:26:17.142Z","","","","StressQ","","","","","","","","","","","50","","","","","","","","","","","","","","","","","","","","","","","","","","",""
"3506","","<div style=""width:500px;"">
  <p>What best describes how you currently feel?</p>
  </div>","100","html-slider-response","22","376597","0.0-7.0-4.1","186","1","2025-08-06 11:20:00","36c45c0696341be0efffe67d72a12abb","41.150.224.121","Mozilla/5.0 (Windows NT 10.0; Win64; x64) AppleWebKit/537.36 (KHTML, like Gecko) Chrome/138.0.0.0 Safari/537.36","WebKit","Chrome","138.0.0.0","Windows","10.0","https://app.prolific.com/","en-US,en;q=0.9","6785052a054e7c96c09f69cd","6877649eabb845cf142cd221","68933a521c997de08755de6d","1","6785052a054e7c96c09f69cd","1","2025-08-06T11:26:20.649Z","","","","MotivationQ","","","","","","","","","","","50","","","","","","","","","","","","","","","","","","","","","","","","","","",""
"","","","","ctl-task-cpt","23","409127","0.0-7.0-0.2","186","1","2025-08-06 11:20:00","36c45c0696341be0efffe67d72a12abb","41.150.224.121","Mozilla/5.0 (Windows NT 10.0; Win64; x64) AppleWebKit/537.36 (KHTML, like Gecko) Chrome/138.0.0.0 Safari/537.36","WebKit","Chrome","138.0.0.0","Windows","10.0","https://app.prolific.com/","en-US,en;q=0.9","6785052a054e7c96c09f69cd","6877649eabb845cf142cd221","68933a521c997de08755de6d","1","6785052a054e7c96c09f69cd","1","2025-08-06T11:26:53.179Z","","","","","","","","","","","","","","","","win-only","3","g1:SW,g2:NE","0.8","3","0","380776.8","1229.6","6230.4","29521.1","1","4","8","6","2","8","8","12","4","0.09090909090909091","1151.6","3000","790","[""up"",""right""]","{""num_key_presses"":6,""num_perfect"":6,""num_errors"":0,""num_randdir"":0,""num_randdir_good_moves"":0,""num_whilered"":0,""num_whileblue"":0,""num_blue"":2,""num_good_moves"":6}","[412.07142857142856,425.1808016640799,0.1,412.07142857142856,425.1808016640799,101.8,412.07142857142856,425.1808016640799,206.3,412.07142857142856,425.1808016640799,306.6,412.07142857142856,425.1808016640799,411.6,416.57142857142856,419.1808016640799,519,653.5714285714286,218.18080166407992,622.4,731.5714285714286,83.18080166407994,727.5,755.5714285714286,41.18080166407994,834.6,758.5714285714286,39.68080166407994,934.9,758.5714285714286,59.18080166407994,1037.7,758.5714285714286,71.18080166407994,1141.6,758.5714285714286,71.18080166407994,1251.6,758.5714285714286,71.18080166407994,1355.7,740.5714285714286,125.18080166407994,1456.5,728.5714285714286,206.18080166407992,1560.5,800.5714285714286,261.6808016640799,1663.4,875.5714285714286,279.6808016640799,1768.2,875.5714285714286,279.6808016640799,1871.5,875.5714285714286,279.6808016640799,1971.6,875.5714285714286,279.6808016640799,2077.1,875.5714285714286,279.6808016640799,2184.4,875.5714285714286,279.6808016640799,2284.8,875.5714285714286,279.6808016640799,2385.1,875.5714285714286,279.6808016640799,2486.6,875.5714285714286,279.6808016640799,2586.8,875.5714285714286,279.6808016640799,2687,875.5714285714286,279.6808016640799,2787,875.5714285714286,279.6808016640799,2891.8,875.5714285714286,279.6808016640799,3001.4,875.5714285714286,279.6808016640799,3106.5,875.5714285714286,279.6808016640799,3211.7,875.5714285714286,279.6808016640799,3311.9,875.5714285714286,279.6808016640799,3411.9,875.5714285714286,279.6808016640799,3517.6,875.5714285714286,279.6808016640799,3617.8,875.5714285714286,279.6808016640799,3718.3,875.5714285714286,279.6808016640799,3819.2,875.5714285714286,279.6808016640799,3921,875.5714285714286,279.6808016640799,4021.4,875.5714285714286,279.6808016640799,4126.7,875.5714285714286,279.6808016640799,4234.3,875.5714285714286,279.6808016640799,4334.6,875.5714285714286,279.6808016640799,4436.4,875.5714285714286,279.6808016640799,4541.3,875.5714285714286,279.6808016640799,4641.5,875.5714285714286,279.6808016640799,4750.9,875.5714285714286,279.6808016640799,4856,875.5714285714286,279.6808016640799,4962]","[1387.8,1387.8,1000,0,387.8,""smooth"",""right"",""right"",""good_move"",4681.1,3293,2840.6,1388.1,452.4,""smooth"",""up"",""up"",""good_move"",11247.8,6566.5,2434.3,8320.2,493.3,""smooth"",""right"",""right"",""good_move"",14337,3089,2610.4,11248,478.6,""smooth"",""up"",""up"",""good_move"",21046.9,6709.8,2561.4,18030.3,455.2,""smooth"",""right"",""right"",""good_move"",23196.9,2149.9,1681.9,21047,468.1,""smooth"",""up"",""up"",""good_move""]"
"5275","","<div style=""width:500px;"">
  <p>What determined the result of this run?</p>
  </div>","100","html-slider-response","24","414403","0.0-7.0-1.2","186","1","2025-08-06 11:20:00","36c45c0696341be0efffe67d72a12abb","41.150.224.121","Mozilla/5.0 (Windows NT 10.0; Win64; x64) AppleWebKit/537.36 (KHTML, like Gecko) Chrome/138.0.0.0 Safari/537.36","WebKit","Chrome","138.0.0.0","Windows","10.0","https://app.prolific.com/","en-US,en;q=0.9","6785052a054e7c96c09f69cd","6877649eabb845cf142cd221","68933a521c997de08755de6d","1","6785052a054e7c96c09f69cd","1","2025-08-06T11:26:58.455Z","","","","AttribQ","","","","","","","","","","","50","","","","","","","","","","","","","","","","","","","","","","","","","","",""
"3851","","<div style=""width:500px;"">
  <p>How much control did you have over the ball?</p>
  </div>","100","html-slider-response","25","418255","0.0-7.0-2.2","186","1","2025-08-06 11:20:00","36c45c0696341be0efffe67d72a12abb","41.150.224.121","Mozilla/5.0 (Windows NT 10.0; Win64; x64) AppleWebKit/537.36 (KHTML, like Gecko) Chrome/138.0.0.0 Safari/537.36","WebKit","Chrome","138.0.0.0","Windows","10.0","https://app.prolific.com/","en-US,en;q=0.9","6785052a054e7c96c09f69cd","6877649eabb845cf142cd221","68933a521c997de08755de6d","1","6785052a054e7c96c09f69cd","1","2025-08-06T11:27:02.307Z","","","","ControlQ","","","","","","","","","","","50","","","","","","","","","","","","","","","","","","","","","","","","","","",""
"6378","","<div style=""width:500px;"">
  <p>How would you describe your current emotional state?</p>
  </div>","0","html-slider-response","26","424634","0.0-7.0-3.2","186","1","2025-08-06 11:20:00","36c45c0696341be0efffe67d72a12abb","41.150.224.121","Mozilla/5.0 (Windows NT 10.0; Win64; x64) AppleWebKit/537.36 (KHTML, like Gecko) Chrome/138.0.0.0 Safari/537.36","WebKit","Chrome","138.0.0.0","Windows","10.0","https://app.prolific.com/","en-US,en;q=0.9","6785052a054e7c96c09f69cd","6877649eabb845cf142cd221","68933a521c997de08755de6d","1","6785052a054e7c96c09f69cd","1","2025-08-06T11:27:08.686Z","","","","StressQ","","","","","","","","","","","50","","","","","","","","","","","","","","","","","","","","","","","","","","",""
"2680","","<div style=""width:500px;"">
  <p>What best describes how you currently feel?</p>
  </div>","100","html-slider-response","27","427316","0.0-7.0-4.2","186","1","2025-08-06 11:20:00","36c45c0696341be0efffe67d72a12abb","41.150.224.121","Mozilla/5.0 (Windows NT 10.0; Win64; x64) AppleWebKit/537.36 (KHTML, like Gecko) Chrome/138.0.0.0 Safari/537.36","WebKit","Chrome","138.0.0.0","Windows","10.0","https://app.prolific.com/","en-US,en;q=0.9","6785052a054e7c96c09f69cd","6877649eabb845cf142cd221","68933a521c997de08755de6d","1","6785052a054e7c96c09f69cd","1","2025-08-06T11:27:11.368Z","","","","MotivationQ","","","","","","","","","","","50","","","","","","","","","","","","","","","","","","","","","","","","","","",""
"","","","","ctl-task-cpt","28","452952","0.0-7.0-0.3","186","1","2025-08-06 11:20:00","36c45c0696341be0efffe67d72a12abb","41.150.224.121","Mozilla/5.0 (Windows NT 10.0; Win64; x64) AppleWebKit/537.36 (KHTML, like Gecko) Chrome/138.0.0.0 Safari/537.36","WebKit","Chrome","138.0.0.0","Windows","10.0","https://app.prolific.com/","en-US,en;q=0.9","6785052a054e7c96c09f69cd","6877649eabb845cf142cd221","68933a521c997de08755de6d","1","6785052a054e7c96c09f69cd","1","2025-08-06T11:27:37.004Z","","","","","","","","","","","","","","","","win-only","0","g1:NW,g2:SE","0.7","4","0","431494.7","2110.4","7112.1","22617.5","1","4","4","6","2","4","4","16","12","0.12121212121212122","1277","3000","605","[""down"",""right""]","{""num_key_presses"":6,""num_perfect"":5,""num_errors"":0,""num_randdir"":1,""num_randdir_good_moves"":1,""num_whilered"":0,""num_whileblue"":0,""num_blue"":0,""num_good_moves"":6}","[406.07142857142856,416.1808016640799,0.2,406.07142857142856,416.1808016640799,100.1,406.07142857142856,416.1808016640799,200.9,406.07142857142856,416.1808016640799,306.6,406.07142857142856,416.1808016640799,413.6,406.07142857142856,416.1808016640799,515.2,406.07142857142856,416.1808016640799,615.6,406.07142857142856,416.1808016640799,721.2,596.5714285714286,657.6808016640799,826.4,640.0714285714286,704.1808016640799,928.6,691.0714285714286,710.1808016640799,1031,710.5714285714286,719.1808016640799,1135.4,736.0714285714286,731.1808016640799,1235.5,739.0714285714286,731.1808016640799,1335.6,739.0714285714286,731.1808016640799,1440.5,743.5714285714286,731.1808016640799,1540.8,743.5714285714286,731.1808016640799,1643.4,743.5714285714286,731.1808016640799,1745.2,743.5714285714286,731.1808016640799,1845.2,743.5714285714286,731.1808016640799,1945.6,743.5714285714286,731.1808016640799,2046.5,743.5714285714286,731.1808016640799,2150.4,743.5714285714286,731.1808016640799,2251.3,743.5714285714286,731.1808016640799,2356,743.5714285714286,731.1808016640799,2460,743.5714285714286,731.1808016640799,2565.7,743.5714285714286,731.1808016640799,2665.9,743.5714285714286,731.1808016640799,2771.4,743.5714285714286,731.1808016640799,2875.3,743.5714285714286,731.1808016640799,2977.6,743.5714285714286,731.1808016640799,3080.4,743.5714285714286,731.1808016640799,3180.9,743.5714285714286,731.1808016640799,3285.2,743.5714285714286,731.1808016640799,3385.6,743.5714285714286,731.1808016640799,3489.9,743.5714285714286,731.1808016640799,3593,743.5714285714286,731.1808016640799,3695.4,743.5714285714286,731.1808016640799,3795.9,743.5714285714286,731.1808016640799,3901.3,743.5714285714286,731.1808016640799,4006,743.5714285714286,731.1808016640799,4110.3,743.5714285714286,731.1808016640799,4213.1,743.5714285714286,731.1808016640799,4315.8,743.5714285714286,731.1808016640799,4420.6,743.5714285714286,731.1808016640799,4526.5,743.5714285714286,731.1808016640799,4627.4,743.5714285714286,731.1808016640799,4730.3,743.5714285714286,731.1808016640799,4830.8,743.5714285714286,731.1808016640799,4931.4]","[1516,1516,1000,0,516,""smooth"",""right"",""right"",""good_move"",4699.5,3182.9,2733.4,1516.6,449.5,""smooth"",""down"",""down"",""good_move"",7538.3,2838.4,2383.3,4699.9,455.1,""smooth"",""right"",""right"",""good_move"",10011.8,2473,1997.4,7538.8,475.6,""smooth"",""down"",""down"",""good_move"",12177.2,2165.3,1798.6,10011.9,366.7,""smooth"",""right"",""right"",""good_move"",15411.6,3234.2,2888.8,12177.4,345.4,""oops"",""down"",""down"",""good_move""]"
"4292","","<div style=""width:500px;"">
  <p>What determined the result of this run?</p>
  </div>","100","html-slider-response","29","457245","0.0-7.0-1.3","186","1","2025-08-06 11:20:00","36c45c0696341be0efffe67d72a12abb","41.150.224.121","Mozilla/5.0 (Windows NT 10.0; Win64; x64) AppleWebKit/537.36 (KHTML, like Gecko) Chrome/138.0.0.0 Safari/537.36","WebKit","Chrome","138.0.0.0","Windows","10.0","https://app.prolific.com/","en-US,en;q=0.9","6785052a054e7c96c09f69cd","6877649eabb845cf142cd221","68933a521c997de08755de6d","1","6785052a054e7c96c09f69cd","1","2025-08-06T11:27:41.297Z","","","","AttribQ","","","","","","","","","","","50","","","","","","","","","","","","","","","","","","","","","","","","","","",""
"2401","","<div style=""width:500px;"">
  <p>How much control did you have over the ball?</p>
  </div>","100","html-slider-response","30","459647","0.0-7.0-2.3","186","1","2025-08-06 11:20:00","36c45c0696341be0efffe67d72a12abb","41.150.224.121","Mozilla/5.0 (Windows NT 10.0; Win64; x64) AppleWebKit/537.36 (KHTML, like Gecko) Chrome/138.0.0.0 Safari/537.36","WebKit","Chrome","138.0.0.0","Windows","10.0","https://app.prolific.com/","en-US,en;q=0.9","6785052a054e7c96c09f69cd","6877649eabb845cf142cd221","68933a521c997de08755de6d","1","6785052a054e7c96c09f69cd","1","2025-08-06T11:27:43.699Z","","","","ControlQ","","","","","","","","","","","50","","","","","","","","","","","","","","","","","","","","","","","","","","",""
"5175","","<div style=""width:500px;"">
  <p>How would you describe your current emotional state?</p>
  </div>","0","html-slider-response","31","464823","0.0-7.0-3.3","186","1","2025-08-06 11:20:00","36c45c0696341be0efffe67d72a12abb","41.150.224.121","Mozilla/5.0 (Windows NT 10.0; Win64; x64) AppleWebKit/537.36 (KHTML, like Gecko) Chrome/138.0.0.0 Safari/537.36","WebKit","Chrome","138.0.0.0","Windows","10.0","https://app.prolific.com/","en-US,en;q=0.9","6785052a054e7c96c09f69cd","6877649eabb845cf142cd221","68933a521c997de08755de6d","1","6785052a054e7c96c09f69cd","1","2025-08-06T11:27:48.875Z","","","","StressQ","","","","","","","","","","","50","","","","","","","","","","","","","","","","","","","","","","","","","","",""
"2610","","<div style=""width:500px;"">
  <p>What best describes how you currently feel?</p>
  </div>","100","html-slider-response","32","467433","0.0-7.0-4.3","186","1","2025-08-06 11:20:00","36c45c0696341be0efffe67d72a12abb","41.150.224.121","Mozilla/5.0 (Windows NT 10.0; Win64; x64) AppleWebKit/537.36 (KHTML, like Gecko) Chrome/138.0.0.0 Safari/537.36","WebKit","Chrome","138.0.0.0","Windows","10.0","https://app.prolific.com/","en-US,en;q=0.9","6785052a054e7c96c09f69cd","6877649eabb845cf142cd221","68933a521c997de08755de6d","1","6785052a054e7c96c09f69cd","1","2025-08-06T11:27:51.485Z","","","","MotivationQ","","","","","","","","","","","50","","","","","","","","","","","","","","","","","","","","","","","","","","",""
"","","","","ctl-task-cpt","33","508414","0.0-7.0-0.4","186","1","2025-08-06 11:20:00","36c45c0696341be0efffe67d72a12abb","41.150.224.121","Mozilla/5.0 (Windows NT 10.0; Win64; x64) AppleWebKit/537.36 (KHTML, like Gecko) Chrome/138.0.0.0 Safari/537.36","WebKit","Chrome","138.0.0.0","Windows","10.0","https://app.prolific.com/","en-US,en;q=0.9","6785052a054e7c96c09f69cd","6877649eabb845cf142cd221","68933a521c997de08755de6d","1","6785052a054e7c96c09f69cd","1","2025-08-06T11:28:32.466Z","","","","","","","","","","","","","","","","win-only","3","g1:SW,g2:NE","0.6","5","0","471612.1","1494.9","6495.5","37970.2","1","4","8","6","2","-8","-8","8","16","0.06060606060606061","1067.7","3000","-2820","[""up"",""right""]","{""num_key_presses"":6,""num_perfect"":3,""num_errors"":0,""num_randdir"":3,""num_randdir_good_moves"":1,""num_whilered"":0,""num_whileblue"":0,""num_blue"":3,""num_good_moves"":4}","[407.57142857142856,425.1808016640799,0.2,407.57142857142856,425.1808016640799,101.1,407.57142857142856,425.1808016640799,205.3,407.57142857142856,425.1808016640799,305.8,407.57142857142856,425.1808016640799,407.5,410.57142857142856,422.1808016640799,511.5,614.5714285714286,191.18080166407992,617.9,635.5714285714286,150.68080166407992,720.3,698.5714285714286,122.18080166407994,821.4,782.5714285714286,104.18080166407994,921.7,782.5714285714286,104.18080166407994,1023.3,782.5714285714286,104.18080166407994,1126.3,782.5714285714286,104.18080166407994,1226.3,782.5714285714286,104.18080166407994,1333.4,782.5714285714286,104.18080166407994,1437.6,793.0714285714286,107.18080166407994,1541.4,829.0714285714286,132.68080166407992,1642.9,857.5714285714286,143.18080166407992,1745.9,898.0714285714286,164.18080166407992,1853.9,901.0714285714286,164.18080166407992,1956,902.5714285714286,165.68080166407992,2061,902.5714285714286,165.68080166407992,2166.9,902.5714285714286,165.68080166407992,2271.7,902.5714285714286,165.68080166407992,2373.6,902.5714285714286,165.68080166407992,2477.2,902.5714285714286,165.68080166407992,2580.6,902.5714285714286,165.68080166407992,2680.8,902.5714285714286,165.68080166407992,2787.5,902.5714285714286,165.68080166407992,2888.6,902.5714285714286,165.68080166407992,2991.1,902.5714285714286,165.68080166407992,3091.4,902.5714285714286,165.68080166407992,3191.4,902.5714285714286,165.68080166407992,3295.5,902.5714285714286,165.68080166407992,3395.8,902.5714285714286,165.68080166407992,3496.3,902.5714285714286,165.68080166407992,3596.4,902.5714285714286,165.68080166407992,3696.5,902.5714285714286,165.68080166407992,3802.3,902.5714285714286,165.68080166407992,3905.4,902.5714285714286,167.18080166407992,4007,902.5714285714286,167.18080166407992,4111.5,902.5714285714286,167.18080166407992,4218.3,902.5714285714286,167.18080166407992,4323.7,902.5714285714286,167.18080166407992,4426.7,902.5714285714286,167.18080166407992,4531.2,902.5714285714286,167.18080166407992,4633.9,902.5714285714286,167.18080166407992,4737.3,902.5714285714286,167.18080166407992,4839,902.5714285714286,167.18080166407992,4941.1]","[5742.5,5742.6,3147.4,2010.8,584.4,""smooth"",""up"",""up"",""good_move"",9294.4,3551.6,3117.5,5742.8,434.1,""smooth"",""right"",""right"",""good_move"",12300.9,3006.3,2524.4,9294.7,481.8,""smooth"",""right"",""right"",""good_move"",18505.4,6203.8,2875.5,15184.5,445.4,""oops"",""up"",""down"",""bad_move"",21712.9,3207.1,2745.1,18505.8,462,""oops"",""up"",""left"",""bad_move"",25381.3,3668.2,3113,21713.2,555.1,""oops"",""up"",""right"",""good_move""]"
"4987","","<div style=""width:500px;"">
  <p>What determined the result of this run?</p>
  </div>","50","html-slider-response","34","513403","0.0-7.0-1.4","186","1","2025-08-06 11:20:00","36c45c0696341be0efffe67d72a12abb","41.150.224.121","Mozilla/5.0 (Windows NT 10.0; Win64; x64) AppleWebKit/537.36 (KHTML, like Gecko) Chrome/138.0.0.0 Safari/537.36","WebKit","Chrome","138.0.0.0","Windows","10.0","https://app.prolific.com/","en-US,en;q=0.9","6785052a054e7c96c09f69cd","6877649eabb845cf142cd221","68933a521c997de08755de6d","1","6785052a054e7c96c09f69cd","1","2025-08-06T11:28:37.455Z","","","","AttribQ","","","","","","","","","","","50","","","","","","","","","","","","","","","","","","","","","","","","","","",""
"15455","","<div style=""width:500px;"">
  <p>How much control did you have over the ball?</p>
  </div>","50","html-slider-response","35","528859","0.0-7.0-2.4","186","1","2025-08-06 11:20:00","36c45c0696341be0efffe67d72a12abb","41.150.224.121","Mozilla/5.0 (Windows NT 10.0; Win64; x64) AppleWebKit/537.36 (KHTML, like Gecko) Chrome/138.0.0.0 Safari/537.36","WebKit","Chrome","138.0.0.0","Windows","10.0","https://app.prolific.com/","en-US,en;q=0.9","6785052a054e7c96c09f69cd","6877649eabb845cf142cd221","68933a521c997de08755de6d","1","6785052a054e7c96c09f69cd","1","2025-08-06T11:28:52.911Z","","","","ControlQ","","","","","","","","","","","50","","","","","","","","","","","","","","","","","","","","","","","","","","",""
"3813","","<div style=""width:500px;"">
  <p>How would you describe your current emotional state?</p>
  </div>","0","html-slider-response","36","532673","0.0-7.0-3.4","186","1","2025-08-06 11:20:00","36c45c0696341be0efffe67d72a12abb","41.150.224.121","Mozilla/5.0 (Windows NT 10.0; Win64; x64) AppleWebKit/537.36 (KHTML, like Gecko) Chrome/138.0.0.0 Safari/537.36","WebKit","Chrome","138.0.0.0","Windows","10.0","https://app.prolific.com/","en-US,en;q=0.9","6785052a054e7c96c09f69cd","6877649eabb845cf142cd221","68933a521c997de08755de6d","1","6785052a054e7c96c09f69cd","1","2025-08-06T11:28:56.725Z","","","","StressQ","","","","","","","","","","","50","","","","","","","","","","","","","","","","","","","","","","","","","","",""
"3214","","<div style=""width:500px;"">
  <p>What best describes how you currently feel?</p>
  </div>","100","html-slider-response","37","535888","0.0-7.0-4.4","186","1","2025-08-06 11:20:00","36c45c0696341be0efffe67d72a12abb","41.150.224.121","Mozilla/5.0 (Windows NT 10.0; Win64; x64) AppleWebKit/537.36 (KHTML, like Gecko) Chrome/138.0.0.0 Safari/537.36","WebKit","Chrome","138.0.0.0","Windows","10.0","https://app.prolific.com/","en-US,en;q=0.9","6785052a054e7c96c09f69cd","6877649eabb845cf142cd221","68933a521c997de08755de6d","1","6785052a054e7c96c09f69cd","1","2025-08-06T11:28:59.941Z","","","","MotivationQ","","","","","","","","","","","50","","","","","","","","","","","","","","","","","","","","","","","","","","",""
"","","","","ctl-task-cpt","38","570907","0.0-7.0-0.5","186","1","2025-08-06 11:20:00","36c45c0696341be0efffe67d72a12abb","41.150.224.121","Mozilla/5.0 (Windows NT 10.0; Win64; x64) AppleWebKit/537.36 (KHTML, like Gecko) Chrome/138.0.0.0 Safari/537.36","WebKit","Chrome","138.0.0.0","Windows","10.0","https://app.prolific.com/","en-US,en;q=0.9","6785052a054e7c96c09f69cd","6877649eabb845cf142cd221","68933a521c997de08755de6d","1","6785052a054e7c96c09f69cd","1","2025-08-06T11:29:34.959Z","","","","","","","","","","","","","","","","win-only","2","g1:SE,g2:NW","0.5","6","0","540069.5","1582","6584.8","31998.7","1","4","4","6","2","-4","-4","4","8","0.030303030303030304","1457.1","3000","-2430","[""left"",""up""]","{""num_key_presses"":7,""num_perfect"":2,""num_errors"":0,""num_randdir"":5,""num_randdir_good_moves"":0,""num_whilered"":0,""num_whileblue"":0,""num_blue"":1,""num_good_moves"":2}","[413.57142857142856,416.1808016640799,0.3,413.57142857142856,416.1808016640799,120.2,413.57142857142856,416.1808016640799,220.6,413.57142857142856,416.1808016640799,322.6,410.57142857142856,422.1808016640799,436.4,410.57142857142856,422.1808016640799,561.8,374.57142857142856,416.1808016640799,672.8,208.07142857142856,243.68080166407992,778.3,184.07142857142856,144.68080166407992,882.7,146.57142857142856,77.18080166407994,983.1,125.57142857142857,65.18080166407994,1087,122.57142857142857,65.18080166407994,1193.1,107.57142857142857,80.18080166407994,1305.7,101.57142857142857,84.68080166407994,1414.6,101.57142857142857,84.68080166407994,1518.4,101.57142857142857,84.68080166407994,1619.7,101.57142857142857,84.68080166407994,1726.3,101.57142857142857,84.68080166407994,1837.4,101.57142857142857,84.68080166407994,1943,101.57142857142857,86.18080166407994,2074.9,14.57142857142857,143.18080166407992,2200.3,-46.92857142857143,158.18080166407992,2309.6,-46.92857142857143,158.18080166407992,2410,-46.92857142857143,158.18080166407992,2517.6,-46.92857142857143,158.18080166407992,2619.4,-46.92857142857143,158.18080166407992,2722.7,-46.92857142857143,158.18080166407992,2825,-46.92857142857143,158.18080166407992,2932.4,-46.92857142857143,158.18080166407992,3034.6,-46.92857142857143,158.18080166407992,3137.3,-46.92857142857143,158.18080166407992,3238.7,-46.92857142857143,158.18080166407992,3340,-46.92857142857143,158.18080166407992,3444.5,-46.92857142857143,158.18080166407992,3553,-46.92857142857143,158.18080166407992,3653.4,-46.92857142857143,158.18080166407992,3759.3,-46.92857142857143,158.18080166407992,3864.8,-46.92857142857143,158.18080166407992,3969.5,-46.92857142857143,158.18080166407992,4069.5,-46.92857142857143,158.18080166407992,4170.5,-46.92857142857143,158.18080166407992,4272.5,-46.92857142857143,158.18080166407992,4373.8,-46.92857142857143,158.18080166407992,4486.8,-46.92857142857143,158.18080166407992,4586.9,-46.92857142857143,158.18080166407992,4689.6,-46.92857142857143,158.18080166407992,4803.4,-46.92857142857143,158.18080166407992,4903.4]","[1449.1,1449.1,1000,0,449.1,""oops"",""up"",""down"",""bad_move"",4667.6,3218.1,2651.7,1449.5,566.4,""oops"",""left"",""right"",""bad_move"",6848.6,2180.8,1529.1,4667.8,651.7,""smooth"",""up"",""up"",""good_move"",9898.6,3049.7,2519,6848.9,530.7,""oops"",""up"",""down"",""bad_move"",13148.6,3249.8,2776.1,9898.8,473.7,""oops"",""left"",""down"",""bad_move"",19983.3,6834.4,3307.3,16251.2,424.8,""oops"",""left"",""right"",""bad_move"",23236.5,3252.8,2734.2,19983.8,518.6,""smooth"",""up"",""up"",""good_move""]"
"7866","","<div style=""width:500px;"">
  <p>What determined the result of this run?</p>
  </div>","0","html-slider-response","39","578775","0.0-7.0-1.5","186","1","2025-08-06 11:20:00","36c45c0696341be0efffe67d72a12abb","41.150.224.121","Mozilla/5.0 (Windows NT 10.0; Win64; x64) AppleWebKit/537.36 (KHTML, like Gecko) Chrome/138.0.0.0 Safari/537.36","WebKit","Chrome","138.0.0.0","Windows","10.0","https://app.prolific.com/","en-US,en;q=0.9","6785052a054e7c96c09f69cd","6877649eabb845cf142cd221","68933a521c997de08755de6d","1","6785052a054e7c96c09f69cd","1","2025-08-06T11:29:42.828Z","","","","AttribQ","","","","","","","","","","","50","","","","","","","","","","","","","","","","","","","","","","","","","","",""
"5852","","<div style=""width:500px;"">
  <p>How much control did you have over the ball?</p>
  </div>","0","html-slider-response","40","584631","0.0-7.0-2.5","186","1","2025-08-06 11:20:00","36c45c0696341be0efffe67d72a12abb","41.150.224.121","Mozilla/5.0 (Windows NT 10.0; Win64; x64) AppleWebKit/537.36 (KHTML, like Gecko) Chrome/138.0.0.0 Safari/537.36","WebKit","Chrome","138.0.0.0","Windows","10.0","https://app.prolific.com/","en-US,en;q=0.9","6785052a054e7c96c09f69cd","6877649eabb845cf142cd221","68933a521c997de08755de6d","1","6785052a054e7c96c09f69cd","1","2025-08-06T11:29:48.683Z","","","","ControlQ","","","","","","","","","","","50","","","","","","","","","","","","","","","","","","","","","","","","","","",""
"3947","","<div style=""width:500px;"">
  <p>How would you describe your current emotional state?</p>
  </div>","0","html-slider-response","41","588579","0.0-7.0-3.5","186","1","2025-08-06 11:20:00","36c45c0696341be0efffe67d72a12abb","41.150.224.121","Mozilla/5.0 (Windows NT 10.0; Win64; x64) AppleWebKit/537.36 (KHTML, like Gecko) Chrome/138.0.0.0 Safari/537.36","WebKit","Chrome","138.0.0.0","Windows","10.0","https://app.prolific.com/","en-US,en;q=0.9","6785052a054e7c96c09f69cd","6877649eabb845cf142cd221","68933a521c997de08755de6d","1","6785052a054e7c96c09f69cd","1","2025-08-06T11:29:52.631Z","","","","StressQ","","","","","","","","","","","50","","","","","","","","","","","","","","","","","","","","","","","","","","",""
"5239","","<div style=""width:500px;"">
  <p>What best describes how you currently feel?</p>
  </div>","100","html-slider-response","42","593819","0.0-7.0-4.5","186","1","2025-08-06 11:20:00","36c45c0696341be0efffe67d72a12abb","41.150.224.121","Mozilla/5.0 (Windows NT 10.0; Win64; x64) AppleWebKit/537.36 (KHTML, like Gecko) Chrome/138.0.0.0 Safari/537.36","WebKit","Chrome","138.0.0.0","Windows","10.0","https://app.prolific.com/","en-US,en;q=0.9","6785052a054e7c96c09f69cd","6877649eabb845cf142cd221","68933a521c997de08755de6d","1","6785052a054e7c96c09f69cd","1","2025-08-06T11:29:57.871Z","","","","MotivationQ","","","","","","","","","","","50","","","","","","","","","","","","","","","","","","","","","","","","","","",""
"","","","","ctl-task-cpt","43","640767","0.0-7.0-0.6","186","1","2025-08-06 11:20:00","36c45c0696341be0efffe67d72a12abb","41.150.224.121","Mozilla/5.0 (Windows NT 10.0; Win64; x64) AppleWebKit/537.36 (KHTML, like Gecko) Chrome/138.0.0.0 Safari/537.36","WebKit","Chrome","138.0.0.0","Windows","10.0","https://app.prolific.com/","en-US,en;q=0.9","6785052a054e7c96c09f69cd","6877649eabb845cf142cd221","68933a521c997de08755de6d","1","6785052a054e7c96c09f69cd","1","2025-08-06T11:30:44.819Z","","","","","","","","","","","","","","","","win-only","0","g1:NW,g2:SE","0.4","7","0","597998.6","1678.8","6684.9","43926.9","1","4","4","6","2","-4","-4","0","4","0","1419.8","3000","-1790","[""down"",""right""]","{""num_key_presses"":8,""num_perfect"":4,""num_errors"":0,""num_randdir"":4,""num_randdir_good_moves"":2,""num_whilered"":0,""num_whileblue"":0,""num_blue"":3,""num_good_moves"":6}","[415.07142857142856,414.6808016640799,0.3,415.07142857142856,414.6808016640799,103.4,415.07142857142856,414.6808016640799,205.8,416.57142857142856,413.1808016640799,308,416.57142857142856,413.1808016640799,408.1,416.57142857142856,413.1808016640799,521.7,517.0714285714286,494.1808016640799,622.4,628.0714285714286,648.6808016640799,727.1,658.0714285714286,681.6808016640799,827.2,710.5714285714286,695.1808016640799,938.2,710.5714285714286,695.1808016640799,1038.2,710.5714285714286,695.1808016640799,1141.9,745.0714285714286,720.6808016640799,1242.5,746.5714285714286,722.1808016640799,1355.3,746.5714285714286,722.1808016640799,1456,746.5714285714286,722.1808016640799,1556.6,746.5714285714286,722.1808016640799,1656.8,746.5714285714286,722.1808016640799,1757.4,746.5714285714286,722.1808016640799,1863.5,746.5714285714286,722.1808016640799,1970.9,746.5714285714286,722.1808016640799,2071.2,748.0714285714286,722.1808016640799,2171.3,730.0714285714286,663.6808016640799,2272.6,767.5714285714286,579.6808016640799,2378.8,824.5714285714286,542.1808016640799,2482.4,841.0714285714286,536.1808016640799,2587.7,943.0714285714286,527.1808016640799,2691.8,971.5714285714286,522.6808016640799,2792.7,971.5714285714286,522.6808016640799,2897.5,971.5714285714286,522.6808016640799,2997.5,971.5714285714286,522.6808016640799,3098,971.5714285714286,522.6808016640799,3201.7,971.5714285714286,522.6808016640799,3302.8,971.5714285714286,522.6808016640799,3405.7,971.5714285714286,522.6808016640799,3506.5,971.5714285714286,522.6808016640799,3607.1,971.5714285714286,522.6808016640799,3707.3,971.5714285714286,522.6808016640799,3807.5,971.5714285714286,522.6808016640799,3922.6,971.5714285714286,522.6808016640799,4027.4,971.5714285714286,522.6808016640799,4127.4,971.5714285714286,522.6808016640799,4227.4,971.5714285714286,522.6808016640799,4327.7,971.5714285714286,522.6808016640799,4437.7,971.5714285714286,522.6808016640799,4537.7,971.5714285714286,522.6808016640799,4637.7,971.5714285714286,522.6808016640799,4743.6,971.5714285714286,522.6808016640799,4847.2,971.5714285714286,522.6808016640799,4955.2]","[1599,1599,1000,0,599,""oops"",""right"",""left"",""bad_move"",12678.1,11078.6,3057.8,9043.1,577.2,""oops"",""down"",""down"",""good_move"",15473.8,2794.9,2233.1,12678.9,561.8,""oops"",""right"",""left"",""bad_move"",18091.9,2617.1,2168.5,15474.8,448.6,""oops"",""down"",""down"",""good_move"",21378.9,3286.9,2823.4,18092.1,463.5,""smooth"",""right"",""right"",""good_move"",28544.4,7164.8,2702.2,25381.2,461.1,""smooth"",""right"",""right"",""good_move"",31211.1,2666.7,2081.4,28544.6,585.2,""smooth"",""right"",""right"",""good_move"",33999,2787.6,2336.8,31211.4,450.8,""smooth"",""right"",""right"",""good_move""]"
"3432","","<div style=""width:500px;"">
  <p>What determined the result of this run?</p>
  </div>","50","html-slider-response","44","644202","0.0-7.0-1.6","186","1","2025-08-06 11:20:00","36c45c0696341be0efffe67d72a12abb","41.150.224.121","Mozilla/5.0 (Windows NT 10.0; Win64; x64) AppleWebKit/537.36 (KHTML, like Gecko) Chrome/138.0.0.0 Safari/537.36","WebKit","Chrome","138.0.0.0","Windows","10.0","https://app.prolific.com/","en-US,en;q=0.9","6785052a054e7c96c09f69cd","6877649eabb845cf142cd221","68933a521c997de08755de6d","1","6785052a054e7c96c09f69cd","1","2025-08-06T11:30:48.255Z","","","","AttribQ","","","","","","","","","","","50","","","","","","","","","","","","","","","","","","","","","","","","","","",""
"3337","","<div style=""width:500px;"">
  <p>How much control did you have over the ball?</p>
  </div>","49","html-slider-response","45","647544","0.0-7.0-2.6","186","1","2025-08-06 11:20:00","36c45c0696341be0efffe67d72a12abb","41.150.224.121","Mozilla/5.0 (Windows NT 10.0; Win64; x64) AppleWebKit/537.36 (KHTML, like Gecko) Chrome/138.0.0.0 Safari/537.36","WebKit","Chrome","138.0.0.0","Windows","10.0","https://app.prolific.com/","en-US,en;q=0.9","6785052a054e7c96c09f69cd","6877649eabb845cf142cd221","68933a521c997de08755de6d","1","6785052a054e7c96c09f69cd","1","2025-08-06T11:30:51.596Z","","","","ControlQ","","","","","","","","","","","50","","","","","","","","","","","","","","","","","","","","","","","","","","",""
"4551","","<div style=""width:500px;"">
  <p>How would you describe your current emotional state?</p>
  </div>","0","html-slider-response","46","652097","0.0-7.0-3.6","186","1","2025-08-06 11:20:00","36c45c0696341be0efffe67d72a12abb","41.150.224.121","Mozilla/5.0 (Windows NT 10.0; Win64; x64) AppleWebKit/537.36 (KHTML, like Gecko) Chrome/138.0.0.0 Safari/537.36","WebKit","Chrome","138.0.0.0","Windows","10.0","https://app.prolific.com/","en-US,en;q=0.9","6785052a054e7c96c09f69cd","6877649eabb845cf142cd221","68933a521c997de08755de6d","1","6785052a054e7c96c09f69cd","1","2025-08-06T11:30:56.150Z","","","","StressQ","","","","","","","","","","","50","","","","","","","","","","","","","","","","","","","","","","","","","","",""
"2465","","<div style=""width:500px;"">
  <p>What best describes how you currently feel?</p>
  </div>","100","html-slider-response","47","654567","0.0-7.0-4.6","186","1","2025-08-06 11:20:00","36c45c0696341be0efffe67d72a12abb","41.150.224.121","Mozilla/5.0 (Windows NT 10.0; Win64; x64) AppleWebKit/537.36 (KHTML, like Gecko) Chrome/138.0.0.0 Safari/537.36","WebKit","Chrome","138.0.0.0","Windows","10.0","https://app.prolific.com/","en-US,en;q=0.9","6785052a054e7c96c09f69cd","6877649eabb845cf142cd221","68933a521c997de08755de6d","1","6785052a054e7c96c09f69cd","1","2025-08-06T11:30:58.619Z","","","","MotivationQ","","","","","","","","","","","50","","","","","","","","","","","","","","","","","","","","","","","","","","",""
"","","","","ctl-task-cpt","48","698473","0.0-7.0-0.7","186","1","2025-08-06 11:20:00","36c45c0696341be0efffe67d72a12abb","41.150.224.121","Mozilla/5.0 (Windows NT 10.0; Win64; x64) AppleWebKit/537.36 (KHTML, like Gecko) Chrome/138.0.0.0 Safari/537.36","WebKit","Chrome","138.0.0.0","Windows","10.0","https://app.prolific.com/","en-US,en;q=0.9","6785052a054e7c96c09f69cd","6877649eabb845cf142cd221","68933a521c997de08755de6d","1","6785052a054e7c96c09f69cd","1","2025-08-06T11:31:42.525Z","","","","","","","","","","","","","","","","win-only","3","g1:SW,g2:NE","0.3","8","0","658751.8","2033.4","7041.5","40881.5","1","4","8","6","2","-8","-8","0","0","0","1090.5","3000","-2200","[""up"",""right""]","{""num_key_presses"":8,""num_perfect"":3,""num_errors"":0,""num_randdir"":5,""num_randdir_good_moves"":2,""num_whilered"":0,""num_whileblue"":0,""num_blue"":2,""num_good_moves"":5}","[412.07142857142856,413.1808016640799,0.9,412.07142857142856,413.1808016640799,107.5,412.07142857142856,413.1808016640799,214,412.07142857142856,413.1808016640799,318,407.57142857142856,422.1808016640799,418.6,407.57142857142856,422.1808016640799,522.3,445.07142857142856,380.1808016640799,623.8,677.5714285714286,159.68080166407992,727.4,730.0714285714286,102.68080166407994,827.7,731.5714285714286,86.18080166407994,927.8,737.5714285714286,81.68080166407994,1035.5,739.0714285714286,81.68080166407994,1137.7,740.5714285714286,80.18080166407994,1238,758.5714285714286,107.18080166407994,1339.5,761.5714285714286,113.18080166407994,1442.6,761.5714285714286,113.18080166407994,1542.6,761.5714285714286,113.18080166407994,1642.7,793.0714285714286,252.68080166407992,1743.2,799.0714285714286,266.1808016640799,1857.6,800.5714285714286,266.1808016640799,1958,800.5714285714286,266.1808016640799,2062.4,800.5714285714286,266.1808016640799,2168,961.0714285714286,215.18080166407992,2274.4,968.5714285714286,212.18080166407992,2377.8,968.5714285714286,212.18080166407992,2484.9,968.5714285714286,212.18080166407992,2589.9,968.5714285714286,212.18080166407992,2693.2,968.5714285714286,212.18080166407992,2798.4,968.5714285714286,212.18080166407992,2902.5,968.5714285714286,212.18080166407992,3004.4,968.5714285714286,212.18080166407992,3126.2,968.5714285714286,212.18080166407992,3240.5,968.5714285714286,212.18080166407992,3344,968.5714285714286,212.18080166407992,3455.9,968.5714285714286,212.18080166407992,3560,968.5714285714286,212.18080166407992,3664.1,968.5714285714286,212.18080166407992,3767.9,968.5714285714286,212.18080166407992,3873.7,968.5714285714286,212.18080166407992,3982.4,968.5714285714286,212.18080166407992,4085.1,968.5714285714286,212.18080166407992,4195.4,968.5714285714286,212.18080166407992,4297.6,968.5714285714286,212.18080166407992,4399.1,968.5714285714286,212.18080166407992,4502.8,968.5714285714286,212.18080166407992,4603.5,968.5714285714286,212.18080166407992,4714.8,968.5714285714286,212.18080166407992,4836.8,968.5714285714286,212.18080166407992,4938.6]","[1505.1,1505.1,1000,0,505.1,""smooth"",""up"",""up"",""good_move"",4435.7,2925.6,2517.6,1510.1,408,""oops"",""right"",""left"",""bad_move"",10742.8,6306.9,3207.6,7063.9,471.3,""oops"",""right"",""left"",""bad_move"",13809.5,3066.2,2570.5,10743.3,495.7,""smooth"",""right"",""right"",""good_move"",16734.2,2924.5,2389.2,13809.7,535.3,""oops"",""right"",""left"",""bad_move"",22863.7,6129.3,2299.6,20149.9,414.2,""smooth"",""right"",""right"",""good_move"",26310.8,3446.7,2730.5,22864.2,716.1,""oops"",""right"",""right"",""good_move"",30611.2,4299.2,3837.1,26312,462.1,""oops"",""right"",""right"",""good_move""]"
"22001","","<div style=""width:500px;"">
  <p>What determined the result of this run?</p>
  </div>","0","html-slider-response","49","720477","0.0-7.0-1.7","186","1","2025-08-06 11:20:00","36c45c0696341be0efffe67d72a12abb","41.150.224.121","Mozilla/5.0 (Windows NT 10.0; Win64; x64) AppleWebKit/537.36 (KHTML, like Gecko) Chrome/138.0.0.0 Safari/537.36","WebKit","Chrome","138.0.0.0","Windows","10.0","https://app.prolific.com/","en-US,en;q=0.9","6785052a054e7c96c09f69cd","6877649eabb845cf142cd221","68933a521c997de08755de6d","1","6785052a054e7c96c09f69cd","1","2025-08-06T11:32:04.530Z","","","","AttribQ","","","","","","","","","","","50","","","","","","","","","","","","","","","","","","","","","","","","","","",""
"3981","","<div style=""width:500px;"">
  <p>How much control did you have over the ball?</p>
  </div>","0","html-slider-response","50","724465","0.0-7.0-2.7","186","1","2025-08-06 11:20:00","36c45c0696341be0efffe67d72a12abb","41.150.224.121","Mozilla/5.0 (Windows NT 10.0; Win64; x64) AppleWebKit/537.36 (KHTML, like Gecko) Chrome/138.0.0.0 Safari/537.36","WebKit","Chrome","138.0.0.0","Windows","10.0","https://app.prolific.com/","en-US,en;q=0.9","6785052a054e7c96c09f69cd","6877649eabb845cf142cd221","68933a521c997de08755de6d","1","6785052a054e7c96c09f69cd","1","2025-08-06T11:32:08.517Z","","","","ControlQ","","","","","","","","","","","50","","","","","","","","","","","","","","","","","","","","","","","","","","",""
"6984","","<div style=""width:500px;"">
  <p>How would you describe your current emotional state?</p>
  </div>","100","html-slider-response","51","731451","0.0-7.0-3.7","186","1","2025-08-06 11:20:00","36c45c0696341be0efffe67d72a12abb","41.150.224.121","Mozilla/5.0 (Windows NT 10.0; Win64; x64) AppleWebKit/537.36 (KHTML, like Gecko) Chrome/138.0.0.0 Safari/537.36","WebKit","Chrome","138.0.0.0","Windows","10.0","https://app.prolific.com/","en-US,en;q=0.9","6785052a054e7c96c09f69cd","6877649eabb845cf142cd221","68933a521c997de08755de6d","1","6785052a054e7c96c09f69cd","1","2025-08-06T11:32:15.504Z","","","","StressQ","","","","","","","","","","","50","","","","","","","","","","","","","","","","","","","","","","","","","","",""
"4550","","<div style=""width:500px;"">
  <p>What best describes how you currently feel?</p>
  </div>","50","html-slider-response","52","736006","0.0-7.0-4.7","186","1","2025-08-06 11:20:00","36c45c0696341be0efffe67d72a12abb","41.150.224.121","Mozilla/5.0 (Windows NT 10.0; Win64; x64) AppleWebKit/537.36 (KHTML, like Gecko) Chrome/138.0.0.0 Safari/537.36","WebKit","Chrome","138.0.0.0","Windows","10.0","https://app.prolific.com/","en-US,en;q=0.9","6785052a054e7c96c09f69cd","6877649eabb845cf142cd221","68933a521c997de08755de6d","1","6785052a054e7c96c09f69cd","1","2025-08-06T11:32:20.058Z","","","","MotivationQ","","","","","","","","","","","50","","","","","","","","","","","","","","","","","","","","","","","","","","",""
"","","","","ctl-task-cpt","53","779431","0.0-7.0-0.8","186","1","2025-08-06 11:20:00","36c45c0696341be0efffe67d72a12abb","41.150.224.121","Mozilla/5.0 (Windows NT 10.0; Win64; x64) AppleWebKit/537.36 (KHTML, like Gecko) Chrome/138.0.0.0 Safari/537.36","WebKit","Chrome","138.0.0.0","Windows","10.0","https://app.prolific.com/","en-US,en;q=0.9","6785052a054e7c96c09f69cd","6877649eabb845cf142cd221","68933a521c997de08755de6d","1","6785052a054e7c96c09f69cd","1","2025-08-06T11:33:03.483Z","","","","","","","","","","","","","","","","win-only","2","g1:SE,g2:NW","0.4","9","0","740185.6","2211","7212.3","40412.3","1","4","8","6","2","-8","-8","0","0","0","2968.7","3000","-2530","[""left"",""up""]","{""num_key_presses"":7,""num_perfect"":2,""num_errors"":0,""num_randdir"":5,""num_randdir_good_moves"":3,""num_whilered"":0,""num_whileblue"":0,""num_blue"":3,""num_good_moves"":5}","[415.07142857142856,422.1808016640799,4,415.07142857142856,422.1808016640799,120.1,415.07142857142856,422.1808016640799,231.3,415.07142857142856,422.1808016640799,333,415.07142857142856,422.1808016640799,444.1,415.07142857142856,422.1808016640799,547.9,392.57142857142856,368.1808016640799,651.1,311.57142857142856,110.18080166407994,754.7,233.57142857142856,26.180801664079937,884.4,229.07142857142856,23.180801664079937,986.6,229.07142857142856,23.180801664079937,1086.8,326.57142857142856,77.18080166407994,1190.7,340.07142857142856,77.18080166407994,1300.8,340.07142857142856,77.18080166407994,1405.3,316.07142857142856,63.68080166407994,1505.4,301.07142857142856,56.18080166407994,1607.4,287.57142857142856,47.18080166407994,1729.2,185.57142857142856,54.68080166407994,1834.8,184.07142857142856,54.68080166407994,1945.5,170.57142857142856,62.18080166407994,2050.7,86.57142857142857,72.68080166407994,2160.8,77.57142857142857,72.68080166407994,2265.5,77.57142857142857,72.68080166407994,2370.6,77.57142857142857,72.68080166407994,2486.9,77.57142857142857,72.68080166407994,2587.4,77.57142857142857,72.68080166407994,2688.2,77.57142857142857,72.68080166407994,2802,77.57142857142857,72.68080166407994,2902.4,77.57142857142857,72.68080166407994,3002.8,77.57142857142857,72.68080166407994,3105.2,77.57142857142857,72.68080166407994,3205.2,77.57142857142857,72.68080166407994,3319.5,77.57142857142857,137.18080166407992,3419.9,104.57142857142857,278.1808016640799,3521.3,116.57142857142857,462.6808016640799,3626.3,116.57142857142857,488.1808016640799,3730.2,116.57142857142857,492.6808016640799,3830.2,116.57142857142857,492.6808016640799,3935,116.57142857142857,492.6808016640799,4051.4,116.57142857142857,492.6808016640799,4151.8,116.57142857142857,492.6808016640799,4251.8,116.57142857142857,492.6808016640799,4355.2,116.57142857142857,492.6808016640799,4459.6,116.57142857142857,492.6808016640799,4560.1,116.57142857142857,492.6808016640799,4666.5,116.57142857142857,492.6808016640799,4767.2,116.57142857142857,492.6808016640799,4867.2,116.57142857142857,492.6808016640799,4969.4]","[1537.7,1537.8,1000,0,537.8,""oops"",""up"",""left"",""good_move"",4910.4,3372.3,2857.9,1538.1,514.4,""oops"",""up"",""up"",""good_move"",12113.7,7202.7,2874.8,8779.9,459,""oops"",""left"",""down"",""bad_move"",19635.7,7521.9,2186.8,16382.1,1066.8,""oops"",""up"",""left"",""good_move"",22379.7,2742,2062.8,19637.8,679.1,""smooth"",""up"",""up"",""good_move"",25013.7,2633.1,2150.8,22380.7,482.2,""smooth"",""left"",""left"",""good_move"",27533.9,2520,2126.2,25013.9,393.8,""oops"",""up"",""down"",""bad_move""]"
"7691","","<div style=""width:500px;"">
  <p>What determined the result of this run?</p>
  </div>","0","html-slider-response","54","787123","0.0-7.0-1.8","186","1","2025-08-06 11:20:00","36c45c0696341be0efffe67d72a12abb","41.150.224.121","Mozilla/5.0 (Windows NT 10.0; Win64; x64) AppleWebKit/537.36 (KHTML, like Gecko) Chrome/138.0.0.0 Safari/537.36","WebKit","Chrome","138.0.0.0","Windows","10.0","https://app.prolific.com/","en-US,en;q=0.9","6785052a054e7c96c09f69cd","6877649eabb845cf142cd221","68933a521c997de08755de6d","1","6785052a054e7c96c09f69cd","1","2025-08-06T11:33:11.175Z","","","","AttribQ","","","","","","","","","","","50","","","","","","","","","","","","","","","","","","","","","","","","","","",""
"3177","","<div style=""width:500px;"">
  <p>How much control did you have over the ball?</p>
  </div>","0","html-slider-response","55","790301","0.0-7.0-2.8","186","1","2025-08-06 11:20:00","36c45c0696341be0efffe67d72a12abb","41.150.224.121","Mozilla/5.0 (Windows NT 10.0; Win64; x64) AppleWebKit/537.36 (KHTML, like Gecko) Chrome/138.0.0.0 Safari/537.36","WebKit","Chrome","138.0.0.0","Windows","10.0","https://app.prolific.com/","en-US,en;q=0.9","6785052a054e7c96c09f69cd","6877649eabb845cf142cd221","68933a521c997de08755de6d","1","6785052a054e7c96c09f69cd","1","2025-08-06T11:33:14.353Z","","","","ControlQ","","","","","","","","","","","50","","","","","","","","","","","","","","","","","","","","","","","","","","",""
"6803","","<div style=""width:500px;"">
  <p>How would you describe your current emotional state?</p>
  </div>","100","html-slider-response","56","797106","0.0-7.0-3.8","186","1","2025-08-06 11:20:00","36c45c0696341be0efffe67d72a12abb","41.150.224.121","Mozilla/5.0 (Windows NT 10.0; Win64; x64) AppleWebKit/537.36 (KHTML, like Gecko) Chrome/138.0.0.0 Safari/537.36","WebKit","Chrome","138.0.0.0","Windows","10.0","https://app.prolific.com/","en-US,en;q=0.9","6785052a054e7c96c09f69cd","6877649eabb845cf142cd221","68933a521c997de08755de6d","1","6785052a054e7c96c09f69cd","1","2025-08-06T11:33:21.158Z","","","","StressQ","","","","","","","","","","","50","","","","","","","","","","","","","","","","","","","","","","","","","","",""
"5807","","<div style=""width:500px;"">
  <p>What best describes how you currently feel?</p>
  </div>","0","html-slider-response","57","802915","0.0-7.0-4.8","186","1","2025-08-06 11:20:00","36c45c0696341be0efffe67d72a12abb","41.150.224.121","Mozilla/5.0 (Windows NT 10.0; Win64; x64) AppleWebKit/537.36 (KHTML, like Gecko) Chrome/138.0.0.0 Safari/537.36","WebKit","Chrome","138.0.0.0","Windows","10.0","https://app.prolific.com/","en-US,en;q=0.9","6785052a054e7c96c09f69cd","6877649eabb845cf142cd221","68933a521c997de08755de6d","1","6785052a054e7c96c09f69cd","1","2025-08-06T11:33:26.967Z","","","","MotivationQ","","","","","","","","","","","50","","","","","","","","","","","","","","","","","","","","","","","","","","",""
"","","","","ctl-task-cpt","58","837692","0.0-7.0-0.9","186","1","2025-08-06 11:20:00","36c45c0696341be0efffe67d72a12abb","41.150.224.121","Mozilla/5.0 (Windows NT 10.0; Win64; x64) AppleWebKit/537.36 (KHTML, like Gecko) Chrome/138.0.0.0 Safari/537.36","WebKit","Chrome","138.0.0.0","Windows","10.0","https://app.prolific.com/","en-US,en;q=0.9","6785052a054e7c96c09f69cd","6877649eabb845cf142cd221","68933a521c997de08755de6d","1","6785052a054e7c96c09f69cd","1","2025-08-06T11:34:01.744Z","","","","","","","","","","","","","","","","win-only","0","g1:NW,g2:SE","0.5","10","0","807100.3","1539.8","6542.6","31744.1","1","4","4","6","2","4","4","4","0","0.030303030303030304","1301.3","3000","935","[""down"",""right""]","{""num_key_presses"":6,""num_perfect"":4,""num_errors"":0,""num_randdir"":2,""num_randdir_good_moves"":2,""num_whilered"":0,""num_whileblue"":0,""num_blue"":2,""num_good_moves"":6}","[416.57142857142856,423.6808016640799,0.1,416.57142857142856,422.1808016640799,103.2,418.07142857142856,422.1808016640799,205.7,418.07142857142856,422.1808016640799,311.3,418.07142857142856,422.1808016640799,415.8,395.57142857142856,428.1808016640799,519.5,404.57142857142856,416.1808016640799,620.5,473.57142857142856,450.6808016640799,720.6,560.5714285714286,563.1808016640799,822.6,656.5714285714286,674.1808016640799,939.3,755.5714285714286,740.1808016640799,1044.7,761.5714285714286,743.1808016640799,1147.4,761.5714285714286,743.1808016640799,1248.2,761.5714285714286,743.1808016640799,1351.5,761.5714285714286,743.1808016640799,1468.1,761.5714285714286,743.1808016640799,1568.5,761.5714285714286,743.1808016640799,1669.2,761.5714285714286,743.1808016640799,1769.4,767.5714285714286,761.1808016640799,1870.4,863.5714285714286,756.6808016640799,1984.6,1000.0714285714286,710.1808016640799,2086.5,1000.0714285714286,708.6808016640799,2193.7,1000.0714285714286,708.6808016640799,2294,1001.5714285714286,708.6808016640799,2398.2,1001.5714285714286,707.1808016640799,2500.5,1001.5714285714286,707.1808016640799,2601.4,1001.5714285714286,707.1808016640799,2706.7,1001.5714285714286,707.1808016640799,2806.7,1001.5714285714286,707.1808016640799,2907.1,1001.5714285714286,707.1808016640799,3010.8,1001.5714285714286,707.1808016640799,3113.9,1001.5714285714286,707.1808016640799,3215.8,1001.5714285714286,707.1808016640799,3316.5,1001.5714285714286,707.1808016640799,3432.8,1001.5714285714286,707.1808016640799,3533.8,1001.5714285714286,707.1808016640799,3634.5,1001.5714285714286,707.1808016640799,3736.5,1001.5714285714286,707.1808016640799,3840.9,1001.5714285714286,707.1808016640799,3948.2,1001.5714285714286,707.1808016640799,4051,1001.5714285714286,707.1808016640799,4151.4,1001.5714285714286,707.1808016640799,4267.9,1001.5714285714286,707.1808016640799,4371.3,1001.5714285714286,707.1808016640799,4471.4,1001.5714285714286,707.1808016640799,4579.9,1001.5714285714286,707.1808016640799,4682.9,1001.5714285714286,707.1808016640799,4786.6,1001.5714285714286,707.1808016640799,4891.3,1001.5714285714286,707.1808016640799,4999.4]","[2013.5,2013.5,1000,0,1013.5,""oops"",""right"",""down"",""good_move"",5558.2,3543.4,3023.6,2014.8,519.8,""smooth"",""down"",""down"",""good_move"",8583.7,3024.8,2419.1,5558.9,605.7,""smooth"",""right"",""right"",""good_move"",11593.9,3009.9,2438.5,8584,571.4,""oops"",""down"",""down"",""good_move"",21973.7,10379.6,2392.7,19063.1,517.9,""smooth"",""right"",""right"",""good_move"",24988.2,3013.8,2566.1,21974.4,447.7,""smooth"",""right"",""right"",""good_move""]"
"7660","","<div style=""width:500px;"">
  <p>What determined the result of this run?</p>
  </div>","100","html-slider-response","59","845354","0.0-7.0-1.9","186","1","2025-08-06 11:20:00","36c45c0696341be0efffe67d72a12abb","41.150.224.121","Mozilla/5.0 (Windows NT 10.0; Win64; x64) AppleWebKit/537.36 (KHTML, like Gecko) Chrome/138.0.0.0 Safari/537.36","WebKit","Chrome","138.0.0.0","Windows","10.0","https://app.prolific.com/","en-US,en;q=0.9","6785052a054e7c96c09f69cd","6877649eabb845cf142cd221","68933a521c997de08755de6d","1","6785052a054e7c96c09f69cd","1","2025-08-06T11:34:09.406Z","","","","AttribQ","","","","","","","","","","","50","","","","","","","","","","","","","","","","","","","","","","","","","","",""
"12845","","<div style=""width:500px;"">
  <p>How much control did you have over the ball?</p>
  </div>","100","html-slider-response","60","858201","0.0-7.0-2.9","186","1","2025-08-06 11:20:00","36c45c0696341be0efffe67d72a12abb","41.150.224.121","Mozilla/5.0 (Windows NT 10.0; Win64; x64) AppleWebKit/537.36 (KHTML, like Gecko) Chrome/138.0.0.0 Safari/537.36","WebKit","Chrome","138.0.0.0","Windows","10.0","https://app.prolific.com/","en-US,en;q=0.9","6785052a054e7c96c09f69cd","6877649eabb845cf142cd221","68933a521c997de08755de6d","1","6785052a054e7c96c09f69cd","1","2025-08-06T11:34:22.254Z","","","","ControlQ","","","","","","","","","","","50","","","","","","","","","","","","","","","","","","","","","","","","","","",""
"5490","","<div style=""width:500px;"">
  <p>How would you describe your current emotional state?</p>
  </div>","100","html-slider-response","61","863696","0.0-7.0-3.9","186","1","2025-08-06 11:20:00","36c45c0696341be0efffe67d72a12abb","41.150.224.121","Mozilla/5.0 (Windows NT 10.0; Win64; x64) AppleWebKit/537.36 (KHTML, like Gecko) Chrome/138.0.0.0 Safari/537.36","WebKit","Chrome","138.0.0.0","Windows","10.0","https://app.prolific.com/","en-US,en;q=0.9","6785052a054e7c96c09f69cd","6877649eabb845cf142cd221","68933a521c997de08755de6d","1","6785052a054e7c96c09f69cd","1","2025-08-06T11:34:27.748Z","","","","StressQ","","","","","","","","","","","50","","","","","","","","","","","","","","","","","","","","","","","","","","",""
"4037","","<div style=""width:500px;"">
  <p>What best describes how you currently feel?</p>
  </div>","0","html-slider-response","62","867736","0.0-7.0-4.9","186","1","2025-08-06 11:20:00","36c45c0696341be0efffe67d72a12abb","41.150.224.121","Mozilla/5.0 (Windows NT 10.0; Win64; x64) AppleWebKit/537.36 (KHTML, like Gecko) Chrome/138.0.0.0 Safari/537.36","WebKit","Chrome","138.0.0.0","Windows","10.0","https://app.prolific.com/","en-US,en;q=0.9","6785052a054e7c96c09f69cd","6877649eabb845cf142cd221","68933a521c997de08755de6d","1","6785052a054e7c96c09f69cd","1","2025-08-06T11:34:31.788Z","","","","MotivationQ","","","","","","","","","","","50","","","","","","","","","","","","","","","","","","","","","","","","","","",""
"","","","","ctl-task-cpt","63","905436","0.0-7.0-0.10","186","1","2025-08-06 11:20:00","36c45c0696341be0efffe67d72a12abb","41.150.224.121","Mozilla/5.0 (Windows NT 10.0; Win64; x64) AppleWebKit/537.36 (KHTML, like Gecko) Chrome/138.0.0.0 Safari/537.36","WebKit","Chrome","138.0.0.0","Windows","10.0","https://app.prolific.com/","en-US,en;q=0.9","6785052a054e7c96c09f69cd","6877649eabb845cf142cd221","68933a521c997de08755de6d","1","6785052a054e7c96c09f69cd","1","2025-08-06T11:35:09.488Z","","","","","","","","","","","","","","","","win-only","3","g1:SW,g2:NE","0.6","11","0","871919.1","3944.3","8947.6","34675.7","1","4","8","6","2","8","8","12","4","0.09090909090909091","1137.5","3000","810","[""up"",""right""]","{""num_key_presses"":8,""num_perfect"":5,""num_errors"":0,""num_randdir"":3,""num_randdir_good_moves"":2,""num_whilered"":0,""num_whileblue"":0,""num_blue"":1,""num_good_moves"":7}","[415.07142857142856,407.1808016640799,0.2,415.07142857142856,407.1808016640799,105.8,415.07142857142856,407.1808016640799,206.8,410.57142857142856,414.6808016640799,307.4,410.57142857142856,414.6808016640799,414,410.57142857142856,414.6808016640799,516.5,409.07142857142856,416.1808016640799,617.8,655.0714285714286,128.18080166407992,721.2,739.0714285714286,51.68080166407994,821.2,742.0714285714286,50.18080166407994,923.8,742.0714285714286,50.18080166407994,1028,742.0714285714286,50.18080166407994,1128.1,742.0714285714286,50.18080166407994,1232.5,742.0714285714286,50.18080166407994,1333.9,743.5714285714286,53.18080166407994,1434,643.0714285714286,179.18080166407992,1534.8,482.57142857142856,276.6808016640799,1636.6,449.57142857142856,302.1808016640799,1741.2,449.57142857142856,302.1808016640799,1844.6,449.57142857142856,302.1808016640799,1946.7,449.57142857142856,302.1808016640799,2052.7,449.57142857142856,302.1808016640799,2154,449.57142857142856,302.1808016640799,2258.7,449.57142857142856,302.1808016640799,2369.6,449.57142857142856,302.1808016640799,2485.4,449.57142857142856,302.1808016640799,2588.5,449.57142857142856,302.1808016640799,2688.8,449.57142857142856,302.1808016640799,2789,449.57142857142856,302.1808016640799,2891.7,449.57142857142856,302.1808016640799,2991.9,449.57142857142856,302.1808016640799,3097.1,449.57142857142856,302.1808016640799,3197.9,449.57142857142856,302.1808016640799,3301.4,449.57142857142856,302.1808016640799,3402.6,449.57142857142856,302.1808016640799,3518.9,449.57142857142856,302.1808016640799,3619.4,449.57142857142856,302.1808016640799,3735.8,449.57142857142856,302.1808016640799,3837,449.57142857142856,302.1808016640799,3937.9,449.57142857142856,302.1808016640799,4039.3,449.57142857142856,302.1808016640799,4142.6,449.57142857142856,302.1808016640799,4254.2,449.57142857142856,302.1808016640799,4357,449.57142857142856,302.1808016640799,4459.3,449.57142857142856,302.1808016640799,4560.6,449.57142857142856,302.1808016640799,4661.1,449.57142857142856,302.1808016640799,4761.6,449.57142857142856,302.1808016640799,4867.5,449.57142857142856,302.1808016640799,4967.9]","[1512.5,1512.5,1000,0,512.5,""smooth"",""up"",""up"",""good_move"",4880,3366.4,2925,1513.6,441.4,""smooth"",""up"",""up"",""good_move"",11105.6,6225.4,2539.7,8117.4,448.5,""oops"",""right"",""right"",""good_move"",14243.7,3137.3,2529.8,11106.4,607.5,""smooth"",""up"",""up"",""good_move"",17177.7,2933.8,2455.7,14243.9,478.1,""oops"",""right"",""left"",""bad_move"",19991.5,2813.4,2337.8,17178.1,475.6,""smooth"",""right"",""right"",""good_move"",22691.1,2698.8,2363.4,19992.3,335.4,""smooth"",""right"",""right"",""good_move"",25596.8,2905,2452.8,22691.8,452.2,""oops"",""right"",""right"",""good_move""]"
"4901","","<div style=""width:500px;"">
  <p>What determined the result of this run?</p>
  </div>","100","html-slider-response","64","910338","0.0-7.0-1.10","186","1","2025-08-06 11:20:00","36c45c0696341be0efffe67d72a12abb","41.150.224.121","Mozilla/5.0 (Windows NT 10.0; Win64; x64) AppleWebKit/537.36 (KHTML, like Gecko) Chrome/138.0.0.0 Safari/537.36","WebKit","Chrome","138.0.0.0","Windows","10.0","https://app.prolific.com/","en-US,en;q=0.9","6785052a054e7c96c09f69cd","6877649eabb845cf142cd221","68933a521c997de08755de6d","1","6785052a054e7c96c09f69cd","1","2025-08-06T11:35:14.390Z","","","","AttribQ","","","","","","","","","","","50","","","","","","","","","","","","","","","","","","","","","","","","","","",""
"16179","","<div style=""width:500px;"">
  <p>How much control did you have over the ball?</p>
  </div>","100","html-slider-response","65","926518","0.0-7.0-2.10","186","1","2025-08-06 11:20:00","36c45c0696341be0efffe67d72a12abb","41.150.224.121","Mozilla/5.0 (Windows NT 10.0; Win64; x64) AppleWebKit/537.36 (KHTML, like Gecko) Chrome/138.0.0.0 Safari/537.36","WebKit","Chrome","138.0.0.0","Windows","10.0","https://app.prolific.com/","en-US,en;q=0.9","6785052a054e7c96c09f69cd","6877649eabb845cf142cd221","68933a521c997de08755de6d","1","6785052a054e7c96c09f69cd","1","2025-08-06T11:35:30.571Z","","","","ControlQ","","","","","","","","","","","50","","","","","","","","","","","","","","","","","","","","","","","","","","",""
"6103","","<div style=""width:500px;"">
  <p>How would you describe your current emotional state?</p>
  </div>","0","html-slider-response","66","932623","0.0-7.0-3.10","186","1","2025-08-06 11:20:00","36c45c0696341be0efffe67d72a12abb","41.150.224.121","Mozilla/5.0 (Windows NT 10.0; Win64; x64) AppleWebKit/537.36 (KHTML, like Gecko) Chrome/138.0.0.0 Safari/537.36","WebKit","Chrome","138.0.0.0","Windows","10.0","https://app.prolific.com/","en-US,en;q=0.9","6785052a054e7c96c09f69cd","6877649eabb845cf142cd221","68933a521c997de08755de6d","1","6785052a054e7c96c09f69cd","1","2025-08-06T11:35:36.676Z","","","","StressQ","","","","","","","","","","","50","","","","","","","","","","","","","","","","","","","","","","","","","","",""
"3279","","<div style=""width:500px;"">
  <p>What best describes how you currently feel?</p>
  </div>","100","html-slider-response","67","935904","0.0-7.0-4.10","186","1","2025-08-06 11:20:00","36c45c0696341be0efffe67d72a12abb","41.150.224.121","Mozilla/5.0 (Windows NT 10.0; Win64; x64) AppleWebKit/537.36 (KHTML, like Gecko) Chrome/138.0.0.0 Safari/537.36","WebKit","Chrome","138.0.0.0","Windows","10.0","https://app.prolific.com/","en-US,en;q=0.9","6785052a054e7c96c09f69cd","6877649eabb845cf142cd221","68933a521c997de08755de6d","1","6785052a054e7c96c09f69cd","1","2025-08-06T11:35:39.956Z","","","","MotivationQ","","","","","","","","","","","50","","","","","","","","","","","","","","","","","","","","","","","","","","",""
"","","","","ctl-task-cpt","68","987164","0.0-7.0-0.11","186","1","2025-08-06 11:20:00","36c45c0696341be0efffe67d72a12abb","41.150.224.121","Mozilla/5.0 (Windows NT 10.0; Win64; x64) AppleWebKit/537.36 (KHTML, like Gecko) Chrome/138.0.0.0 Safari/537.36","WebKit","Chrome","138.0.0.0","Windows","10.0","https://app.prolific.com/","en-US,en;q=0.9","6785052a054e7c96c09f69cd","6877649eabb845cf142cd221","68933a521c997de08755de6d","1","6785052a054e7c96c09f69cd","1","2025-08-06T11:36:31.216Z","","","","","","","","","","","","","","","","win-only","1","g1:NE,g2:SW","0.7","12","0","940084","14107","19113.2","48245","1","4","4","6","2","4","4","16","12","0.12121212121212122","1881.1","3000","895","[""down"",""left""]","{""num_key_presses"":6,""num_perfect"":4,""num_errors"":0,""num_randdir"":2,""num_randdir_good_moves"":2,""num_whilered"":0,""num_whileblue"":0,""num_blue"":3,""num_good_moves"":6}","[418.07142857142856,407.1808016640799,0.4,418.07142857142856,407.1808016640799,100.9,418.07142857142856,407.1808016640799,218.7,418.07142857142856,407.1808016640799,322.1,418.07142857142856,407.1808016640799,426.4,418.07142857142856,407.1808016640799,528.2,418.07142857142856,407.1808016640799,629.4,418.07142857142856,407.1808016640799,733.3,418.07142857142856,407.1808016640799,844.7,418.07142857142856,407.1808016640799,946.4,293.57142857142856,557.1808016640799,1048,98.57142857142857,743.1808016640799,1149.2,82.07142857142857,746.1808016640799,1256.3,76.07142857142857,746.1808016640799,1357.7,76.07142857142857,746.1808016640799,1464.8,76.07142857142857,746.1808016640799,1566.1,76.07142857142857,746.1808016640799,1669.9,76.07142857142857,746.1808016640799,1779.1,76.07142857142857,746.1808016640799,1880.6,76.07142857142857,746.1808016640799,1984,76.07142857142857,746.1808016640799,2087.6,76.07142857142857,746.1808016640799,2197.7,49.07142857142857,702.6808016640799,2297.7,-192.42857142857144,557.1808016640799,2398.4,-201.42857142857144,540.6808016640799,2498.8,-202.92857142857144,539.1808016640799,2600,-202.92857142857144,539.1808016640799,2701.1,-202.92857142857144,539.1808016640799,2806.3,-202.92857142857144,539.1808016640799,2913.1,-202.92857142857144,539.1808016640799,3013.8,-202.92857142857144,539.1808016640799,3114.4,-202.92857142857144,539.1808016640799,3220.6,-202.92857142857144,539.1808016640799,3322.4,-202.92857142857144,539.1808016640799,3432.9,-202.92857142857144,539.1808016640799,3535.4,-202.92857142857144,539.1808016640799,3648.6,-202.92857142857144,539.1808016640799,3748.9,-202.92857142857144,539.1808016640799,3849.1,-202.92857142857144,539.1808016640799,3958.1,-202.92857142857144,539.1808016640799,4064.6,-202.92857142857144,539.1808016640799,4166.4,-202.92857142857144,539.1808016640799,4271.1,-202.92857142857144,539.1808016640799,4384.3,-202.92857142857144,539.1808016640799,4492.7,-202.92857142857144,539.1808016640799,4595.3,-202.92857142857144,539.1808016640799,4700,-202.92857142857144,539.1808016640799,4806.4,-202.92857142857144,539.1808016640799,4911]","[1524.5,1524.5,1000,0,524.5,""smooth"",""left"",""left"",""good_move"",9139.4,7614.5,3233.6,5357.4,548.4,""oops"",""down"",""down"",""good_move"",20752.5,11612.5,3191.9,17076.5,484.1,""smooth"",""left"",""left"",""good_move"",23958.4,3204.4,2649.6,20754,554.8,""smooth"",""down"",""down"",""good_move"",26489.1,2530.5,1892.4,23958.7,638,""oops"",""left"",""down"",""good_move"",28996.3,2507,1995.8,26489.4,511.2,""smooth"",""left"",""left"",""good_move""]"
"9164","","<div style=""width:500px;"">
  <p>What determined the result of this run?</p>
  </div>","100","html-slider-response","69","996331","0.0-7.0-1.11","186","1","2025-08-06 11:20:00","36c45c0696341be0efffe67d72a12abb","41.150.224.121","Mozilla/5.0 (Windows NT 10.0; Win64; x64) AppleWebKit/537.36 (KHTML, like Gecko) Chrome/138.0.0.0 Safari/537.36","WebKit","Chrome","138.0.0.0","Windows","10.0","https://app.prolific.com/","en-US,en;q=0.9","6785052a054e7c96c09f69cd","6877649eabb845cf142cd221","68933a521c997de08755de6d","1","6785052a054e7c96c09f69cd","1","2025-08-06T11:36:40.383Z","","","","AttribQ","","","","","","","","","","","50","","","","","","","","","","","","","","","","","","","","","","","","","","",""
"5136","","<div style=""width:500px;"">
  <p>How much control did you have over the ball?</p>
  </div>","100","html-slider-response","70","1001473","0.0-7.0-2.11","186","1","2025-08-06 11:20:00","36c45c0696341be0efffe67d72a12abb","41.150.224.121","Mozilla/5.0 (Windows NT 10.0; Win64; x64) AppleWebKit/537.36 (KHTML, like Gecko) Chrome/138.0.0.0 Safari/537.36","WebKit","Chrome","138.0.0.0","Windows","10.0","https://app.prolific.com/","en-US,en;q=0.9","6785052a054e7c96c09f69cd","6877649eabb845cf142cd221","68933a521c997de08755de6d","1","6785052a054e7c96c09f69cd","1","2025-08-06T11:36:45.525Z","","","","ControlQ","","","","","","","","","","","50","","","","","","","","","","","","","","","","","","","","","","","","","","",""
"4032","","<div style=""width:500px;"">
  <p>How would you describe your current emotional state?</p>
  </div>","0","html-slider-response","71","1005510","0.0-7.0-3.11","186","1","2025-08-06 11:20:00","36c45c0696341be0efffe67d72a12abb","41.150.224.121","Mozilla/5.0 (Windows NT 10.0; Win64; x64) AppleWebKit/537.36 (KHTML, like Gecko) Chrome/138.0.0.0 Safari/537.36","WebKit","Chrome","138.0.0.0","Windows","10.0","https://app.prolific.com/","en-US,en;q=0.9","6785052a054e7c96c09f69cd","6877649eabb845cf142cd221","68933a521c997de08755de6d","1","6785052a054e7c96c09f69cd","1","2025-08-06T11:36:49.563Z","","","","StressQ","","","","","","","","","","","50","","","","","","","","","","","","","","","","","","","","","","","","","","",""
"4550","","<div style=""width:500px;"">
  <p>What best describes how you currently feel?</p>
  </div>","100","html-slider-response","72","1010066","0.0-7.0-4.11","186","1","2025-08-06 11:20:00","36c45c0696341be0efffe67d72a12abb","41.150.224.121","Mozilla/5.0 (Windows NT 10.0; Win64; x64) AppleWebKit/537.36 (KHTML, like Gecko) Chrome/138.0.0.0 Safari/537.36","WebKit","Chrome","138.0.0.0","Windows","10.0","https://app.prolific.com/","en-US,en;q=0.9","6785052a054e7c96c09f69cd","6877649eabb845cf142cd221","68933a521c997de08755de6d","1","6785052a054e7c96c09f69cd","1","2025-08-06T11:36:54.118Z","","","","MotivationQ","","","","","","","","","","","50","","","","","","","","","","","","","","","","","","","","","","","","","","",""
"","","","","ctl-task-cpt","73","1056609","0.0-7.0-0.12","186","1","2025-08-06 11:20:00","36c45c0696341be0efffe67d72a12abb","41.150.224.121","Mozilla/5.0 (Windows NT 10.0; Win64; x64) AppleWebKit/537.36 (KHTML, like Gecko) Chrome/138.0.0.0 Safari/537.36","WebKit","Chrome","138.0.0.0","Windows","10.0","https://app.prolific.com/","en-US,en;q=0.9","6785052a054e7c96c09f69cd","6877649eabb845cf142cd221","68933a521c997de08755de6d","1","6785052a054e7c96c09f69cd","1","2025-08-06T11:37:40.662Z","","","","","","","","","","","","","","","","win-only","2","g1:SE,g2:NW","0.8","13","0","1014249.2","2439.7","7441.7","43507.1","1","4","4","6","2","-4","-4","12","16","0.09090909090909091","1514.4","3000","-2070","[""left"",""up""]","{""num_key_presses"":7,""num_perfect"":5,""num_errors"":0,""num_randdir"":2,""num_randdir_good_moves"":1,""num_whilered"":0,""num_whileblue"":0,""num_blue"":4,""num_good_moves"":6}","[413.57142857142856,416.1808016640799,0.3,413.57142857142856,416.1808016640799,122.2,413.57142857142856,416.1808016640799,228.3,413.57142857142856,416.1808016640799,340.8,413.57142857142856,416.1808016640799,451.8,413.57142857142856,416.1808016640799,557.1,337.07142857142856,420.6808016640799,657.1,221.57142857142856,332.1808016640799,758,53.57142857142857,194.18080166407992,861.9,-24.42857142857143,86.18080166407994,962.2,-31.92857142857143,72.68080166407994,1068,-24.42857142857143,62.18080166407994,1171.1,-0.4285714285714306,65.18080166407994,1278.1,62.57142857142857,71.18080166407994,1387.5,62.57142857142857,71.18080166407994,1519.3,62.57142857142857,71.18080166407994,1652.2,62.57142857142857,71.18080166407994,1756.2,-42.42857142857143,167.18080166407992,1902.7,-81.42857142857143,252.68080166407992,2009.7,-84.42857142857143,339.6808016640799,2116.3,-84.42857142857143,339.6808016640799,2222.4,-81.42857142857143,344.1808016640799,2336.2,-75.42857142857143,344.1808016640799,2441.6,-75.42857142857143,344.1808016640799,2575.2,-75.42857142857143,344.1808016640799,2676.2,-75.42857142857143,344.1808016640799,2795.3,-75.42857142857143,344.1808016640799,2902.2,-75.42857142857143,344.1808016640799,3006.2,-75.42857142857143,344.1808016640799,3106.8,-75.42857142857143,344.1808016640799,3209.1,-75.42857142857143,344.1808016640799,3310.9,-75.42857142857143,344.1808016640799,3414,-75.42857142857143,344.1808016640799,3536.8,-75.42857142857143,344.1808016640799,3666.6,-75.42857142857143,344.1808016640799,3767.3,-75.42857142857143,344.1808016640799,3872.8,-75.42857142857143,344.1808016640799,3973.5,-75.42857142857143,344.1808016640799,4076.6,-75.42857142857143,344.1808016640799,4177.4,-75.42857142857143,344.1808016640799,4300.5,-75.42857142857143,344.1808016640799,4437.8,-75.42857142857143,344.1808016640799,4542.6,-75.42857142857143,344.1808016640799,4647.5,-75.42857142857143,344.1808016640799,4759,-75.42857142857143,344.1808016640799,4879,-75.42857142857143,344.1808016640799,4988.7]","[1527.2,1527.2,1000,0,527.3,""smooth"",""left"",""left"",""good_move"",4154.2,2625.7,1277.6,1528.5,1348.1,""smooth"",""up"",""up"",""good_move"",6962.4,2807.2,2382.3,4155.3,424.9,""smooth"",""left"",""left"",""good_move"",12836.7,5873.5,2363.1,9981.8,491.8,""oops"",""up"",""right"",""bad_move"",19185.3,6348.5,2493.8,16076.9,614.6,""smooth"",""up"",""up"",""good_move"",22415.6,3230.1,2255.1,19185.6,975,""smooth"",""left"",""left"",""good_move"",32745.2,10327.5,2163.1,29265,1317.1,""oops"",""up"",""up"",""good_move""]"
"8736","","<div style=""width:500px;"">
  <p>What determined the result of this run?</p>
  </div>","0","html-slider-response","74","1065347","0.0-7.0-1.12","186","1","2025-08-06 11:20:00","36c45c0696341be0efffe67d72a12abb","41.150.224.121","Mozilla/5.0 (Windows NT 10.0; Win64; x64) AppleWebKit/537.36 (KHTML, like Gecko) Chrome/138.0.0.0 Safari/537.36","WebKit","Chrome","138.0.0.0","Windows","10.0","https://app.prolific.com/","en-US,en;q=0.9","6785052a054e7c96c09f69cd","6877649eabb845cf142cd221","68933a521c997de08755de6d","1","6785052a054e7c96c09f69cd","1","2025-08-06T11:37:49.399Z","","","","AttribQ","","","","","","","","","","","50","","","","","","","","","","","","","","","","","","","","","","","","","","",""
"5488","","<div style=""width:500px;"">
  <p>How much control did you have over the ball?</p>
  </div>","100","html-slider-response","75","1070836","0.0-7.0-2.12","186","1","2025-08-06 11:20:00","36c45c0696341be0efffe67d72a12abb","41.150.224.121","Mozilla/5.0 (Windows NT 10.0; Win64; x64) AppleWebKit/537.36 (KHTML, like Gecko) Chrome/138.0.0.0 Safari/537.36","WebKit","Chrome","138.0.0.0","Windows","10.0","https://app.prolific.com/","en-US,en;q=0.9","6785052a054e7c96c09f69cd","6877649eabb845cf142cd221","68933a521c997de08755de6d","1","6785052a054e7c96c09f69cd","1","2025-08-06T11:37:54.889Z","","","","ControlQ","","","","","","","","","","","50","","","","","","","","","","","","","","","","","","","","","","","","","","",""
"7461","","<div style=""width:500px;"">
  <p>How would you describe your current emotional state?</p>
  </div>","0","html-slider-response","76","1078300","0.0-7.0-3.12","186","1","2025-08-06 11:20:00","36c45c0696341be0efffe67d72a12abb","41.150.224.121","Mozilla/5.0 (Windows NT 10.0; Win64; x64) AppleWebKit/537.36 (KHTML, like Gecko) Chrome/138.0.0.0 Safari/537.36","WebKit","Chrome","138.0.0.0","Windows","10.0","https://app.prolific.com/","en-US,en;q=0.9","6785052a054e7c96c09f69cd","6877649eabb845cf142cd221","68933a521c997de08755de6d","1","6785052a054e7c96c09f69cd","1","2025-08-06T11:38:02.352Z","","","","StressQ","","","","","","","","","","","50","","","","","","","","","","","","","","","","","","","","","","","","","","",""
"3896","","<div style=""width:500px;"">
  <p>What best describes how you currently feel?</p>
  </div>","100","html-slider-response","77","1082202","0.0-7.0-4.12","186","1","2025-08-06 11:20:00","36c45c0696341be0efffe67d72a12abb","41.150.224.121","Mozilla/5.0 (Windows NT 10.0; Win64; x64) AppleWebKit/537.36 (KHTML, like Gecko) Chrome/138.0.0.0 Safari/537.36","WebKit","Chrome","138.0.0.0","Windows","10.0","https://app.prolific.com/","en-US,en;q=0.9","6785052a054e7c96c09f69cd","6877649eabb845cf142cd221","68933a521c997de08755de6d","1","6785052a054e7c96c09f69cd","1","2025-08-06T11:38:06.255Z","","","","MotivationQ","","","","","","","","","","","50","","","","","","","","","","","","","","","","","","","","","","","","","","",""
