"rt","response_timestamp","stimulus","response","trial_type","trial_index","time_elapsed","internal_node_id","run_id","condition","recorded_at","source_code_version","ip","user_agent","device","browser","browser_version","platform","platform_version","referer","accept_language","PROLIFIC_PID","STUDY_ID","SESSION_ID","BATCH","prolific_id","batch","realtime","success","question_order","question_id","eventType","responses","item_order","radio_event_ids","radio_event_times","key_event_times","mouse_event_times","straightlining","zigzagging","honeypot","view_history","slider_start","which_type","canvas_config","goals_layout","control_level","trial_number","tutorial_trial_number","trial_start_time","phase1_start_time","phase2_start_time","phase3_start_time","goal_1_value","goal_1_distance","goal_2_value","goal_2_distance","goal_selected","outcome","outcome_total","participant_final_score","participant_initial_score","participant_final_score_prop","goal_choice_rt","allocated_time","allocated_time_remaining","goal_direction","counts","mouse_movements","key_presses"
"3083","1753961022166","<p style='font-size:40px;line-height:1.25'><strong>Welcome to the experiment!</strong></p><p style='font-size:1.1em;line-height:1.25'>Thank you for participanting in our experiment again! You will be asked to play the Dysfunctional Ball Game again. We will briefly recap the rules before we start.</p><p style='font-size:1.1em;line-height:1.25'>Press <strong>Next</strong> to continue.</p>","0","custom-html-button-response","0","3090","0.0-0.0","109","1","2025-07-31 11:23:32","36c45c0696341be0efffe67d72a12abb","216.120.189.118","Mozilla/5.0 (Windows NT 10.0; Win64; x64) AppleWebKit/537.36 (KHTML, like Gecko) Chrome/138.0.0.0 Safari/537.36","WebKit","Chrome","138.0.0.0","Windows","10.0","https://app.prolific.com/","en-US,en;q=0.9","6786c32f329b1d694103f225","683dba9a53627eb9ab41b36a","688b52170ec5da1e4cb0b05a","0","6786c32f329b1d694103f225","0","2025-07-31T11:23:42.169Z","","","","","","","","","","","","","","","","","","","","","","","","","","","","","","","","","","","","","","","","","",""
"3674","","","","fullscreen","1","7792","0.0-1.0","109","1","2025-07-31 11:23:32","36c45c0696341be0efffe67d72a12abb","216.120.189.118","Mozilla/5.0 (Windows NT 10.0; Win64; x64) AppleWebKit/537.36 (KHTML, like Gecko) Chrome/138.0.0.0 Safari/537.36","WebKit","Chrome","138.0.0.0","Windows","10.0","https://app.prolific.com/","en-US,en;q=0.9","6786c32f329b1d694103f225","683dba9a53627eb9ab41b36a","688b52170ec5da1e4cb0b05a","0","6786c32f329b1d694103f225","0","","true","","","","","","","","","","","","","","","","","","","","","","","","","","","","","","","","","","","","","","","","",""
"4722","1753961031594"," <p style='font-size:1.1em;line-height:1.25'>Thank you for closing all other tabs.</p><p style='font-size:1.1em;line-height:1.25'>We will now invite you to fill in some questionnaires, before starting the game.<br>This will take about 5 minutes.<br></p><p style='font-size:1.1em;line-height:1.25'>Press the <strong>Next</strong> button to continue.</p>","0","custom-html-button-response","2","12517","0.0-2.0","109","1","2025-07-31 11:23:32","36c45c0696341be0efffe67d72a12abb","216.120.189.118","Mozilla/5.0 (Windows NT 10.0; Win64; x64) AppleWebKit/537.36 (KHTML, like Gecko) Chrome/138.0.0.0 Safari/537.36","WebKit","Chrome","138.0.0.0","Windows","10.0","https://app.prolific.com/","en-US,en;q=0.9","6786c32f329b1d694103f225","683dba9a53627eb9ab41b36a","688b52170ec5da1e4cb0b05a","0","6786c32f329b1d694103f225","0","2025-07-31T11:23:51.595Z","","","","","","","","","","","","","","","","","","","","","","","","","","","","","","","","","","","","","","","","","",""
"6295","","","{""assigned_sex"":""female""}","survey-multi-choice","3","18816","0.0-3.0-0.0","109","1","2025-07-31 11:23:32","36c45c0696341be0efffe67d72a12abb","216.120.189.118","Mozilla/5.0 (Windows NT 10.0; Win64; x64) AppleWebKit/537.36 (KHTML, like Gecko) Chrome/138.0.0.0 Safari/537.36","WebKit","Chrome","138.0.0.0","Windows","10.0","https://app.prolific.com/","en-US,en;q=0.9","6786c32f329b1d694103f225","683dba9a53627eb9ab41b36a","688b52170ec5da1e4cb0b05a","0","6786c32f329b1d694103f225","0","","","[0]","0","demographics","","","","","","","","","","","","","","","","","","","","","","","","","","","","","","","","","","","","","",""
"15188","1753961053084","<p style='font-size:1.1em;line-height:1.25'>In the following, we will perform a baseline assessment. This means that we will ask you a few questions relating to your experiences over the past month.<br></p><p style='font-size:1.1em;line-height:1.25'>Press the <strong>Next</strong> button to continue.</p>","0","custom-html-button-response","4","34007","0.0-4.0-0.0","109","1","2025-07-31 11:23:32","36c45c0696341be0efffe67d72a12abb","216.120.189.118","Mozilla/5.0 (Windows NT 10.0; Win64; x64) AppleWebKit/537.36 (KHTML, like Gecko) Chrome/138.0.0.0 Safari/537.36","WebKit","Chrome","138.0.0.0","Windows","10.0","https://app.prolific.com/","en-US,en;q=0.9","6786c32f329b1d694103f225","683dba9a53627eb9ab41b36a","688b52170ec5da1e4cb0b05a","0","6786c32f329b1d694103f225","0","2025-07-31T11:24:13.086Z","","","","","","","","","","","","","","","","","","","","","","","","","","","","","","","","","","","","","","","","","",""
"56718.30000000028","","","","survey-template","5","90735","0.0-4.0-1.0","109","1","2025-07-31 11:23:32","36c45c0696341be0efffe67d72a12abb","216.120.189.118","Mozilla/5.0 (Windows NT 10.0; Win64; x64) AppleWebKit/537.36 (KHTML, like Gecko) Chrome/138.0.0.0 Safari/537.36","WebKit","Chrome","138.0.0.0","Windows","10.0","https://app.prolific.com/","en-US,en;q=0.9","6786c32f329b1d694103f225","683dba9a53627eb9ab41b36a","688b52170ec5da1e4cb0b05a","0","6786c32f329b1d694103f225","0","2025-07-31T11:25:09.813Z","","","","pss","{""Q01"":""2"",""Q02"":""2"",""Q03"":""2"",""Q04"":""1"",""Q05"":""2"",""Q06"":""2"",""Q07"":""3"",""Q08"":""3"",""Q09"":""2"",""Q10"":""2""}","[0,1,2,3,4,5,6,7,8,9]","[""Q01"",""Q01"",""Q02"",""Q03"",""Q04"",""Q05"",""Q06"",""Q07"",""Q08"",""Q09"",""Q10""]","[5090.4000000003725,8595,15604.80000000028,17822,21835,27391.600000000093,34973,38440.40000000037,44185.700000000186,49320.700000000186,53550.60000000009]","[]","[0.20000000018626451,5090.4000000003725,6811.600000000093,8595,12801.80000000028,15604.80000000028,17822,21835,27391.600000000093,34973,38440.40000000037,44185.700000000186,49320.700000000186,53550.60000000009,56710.5]","0.7","0.4444444444444444","0","","","","","","","","","","","","","","","","","","","","","","","","","","","","",""
"3859","1753961113676","<p style='font-size:1.1em;line-height:1.25'>Thank you for your answers! Now we will ask you a few more questions relating to your feelings in the last 24 hours.<br></p><p style='font-size:1.1em;line-height:1.25'>Press the <strong>Next</strong> button to continue.</p>","0","custom-html-button-response","6","94598","0.0-4.0-2.0","109","1","2025-07-31 11:23:32","36c45c0696341be0efffe67d72a12abb","216.120.189.118","Mozilla/5.0 (Windows NT 10.0; Win64; x64) AppleWebKit/537.36 (KHTML, like Gecko) Chrome/138.0.0.0 Safari/537.36","WebKit","Chrome","138.0.0.0","Windows","10.0","https://app.prolific.com/","en-US,en;q=0.9","6786c32f329b1d694103f225","683dba9a53627eb9ab41b36a","688b52170ec5da1e4cb0b05a","0","6786c32f329b1d694103f225","0","2025-07-31T11:25:13.677Z","","","","","","","","","","","","","","","","","","","","","","","","","","","","","","","","","","","","","","","","","",""
"55074.10000000009","","","","survey-template","7","149686","0.0-4.0-3.0","109","1","2025-07-31 11:23:32","36c45c0696341be0efffe67d72a12abb","216.120.189.118","Mozilla/5.0 (Windows NT 10.0; Win64; x64) AppleWebKit/537.36 (KHTML, like Gecko) Chrome/138.0.0.0 Safari/537.36","WebKit","Chrome","138.0.0.0","Windows","10.0","https://app.prolific.com/","en-US,en;q=0.9","6786c32f329b1d694103f225","683dba9a53627eb9ab41b36a","688b52170ec5da1e4cb0b05a","0","6786c32f329b1d694103f225","0","2025-07-31T11:26:08.764Z","","","","drsp","{""Q01"":""0"",""Q02"":""0"",""Q03"":""0"",""Q04"":""1"",""Q05"":""3"",""Q06"":""3"",""Q07"":""2"",""Q08"":""1"",""Q09"":""1"",""Q10"":""1"",""Q11"":""2"",""Q12"":""0"",""Q13"":""5"",""Q14"":""0"",""Q15"":""2"",""Q16"":""2"",""Q17"":""0"",""Q18"":""1"",""Q19"":""2"",""Q20"":""1"",""Q21"":""1"",""Q22"":""1""}","[0,1,2,3,4,5,6,7,8,9,10,11,12,13,14,15,16,17,18,19,20,21]","[""Q01"",""Q02"",""Q03"",""Q04"",""Q05"",""Q06"",""Q07"",""Q08"",""Q09"",""Q10"",""Q11"",""Q12"",""Q13"",""Q14"",""Q15"",""Q16"",""Q17"",""Q18"",""Q19"",""Q20"",""Q21"",""Q22""]","[3688.600000000093,4960.700000000186,6173.100000000093,7471.5,10606.100000000093,11792.30000000028,15396,17334.600000000093,20173.600000000093,22481.30000000028,24010.30000000028,28023,31016.80000000028,33514.5,35310.30000000028,37195.5,41287.60000000009,44355.89999999991,46917,49057.89999999991,51606.200000000186,52803.700000000186]","[]","[0.10000000009313226,3688.600000000093,4960.700000000186,6173.100000000093,7471.5,9255,10606.100000000093,11792.30000000028,15396,17334.600000000093,20173.600000000093,22481.30000000028,24010.30000000028,28023,31016.80000000028,33514.5,35310.30000000028,37195.5,41287.60000000009,44355.89999999991,46917,49057.89999999991,51606.200000000186,52803.700000000186,55058.89999999991]","0.36363636363636365","0.42857142857142855","0","","","","","","","","","","","","","","","","","","","","","","","","","","","","",""
"16415.700000000186","","","","survey-template","8","166107","0.0-4.0-4.0","109","1","2025-07-31 11:23:32","36c45c0696341be0efffe67d72a12abb","216.120.189.118","Mozilla/5.0 (Windows NT 10.0; Win64; x64) AppleWebKit/537.36 (KHTML, like Gecko) Chrome/138.0.0.0 Safari/537.36","WebKit","Chrome","138.0.0.0","Windows","10.0","https://app.prolific.com/","en-US,en;q=0.9","6786c32f329b1d694103f225","683dba9a53627eb9ab41b36a","688b52170ec5da1e4cb0b05a","0","6786c32f329b1d694103f225","0","2025-07-31T11:26:25.185Z","","","","stress","{""Q01"":""1"",""Q02"":""5"",""Q03"":""1""}","[0,1,2]","[""Q01"",""Q02"",""Q03""]","[4181.700000000186,6463.100000000093,14832.30000000028]","[]","[4181.700000000186,6463.100000000093,14832.30000000028,16413.100000000093]","0.6666666666666666","1","0","","","","","","","","","","","","","","","","","","","","","","","","","","","","",""
"17543","","","","instructions","9","183652","0.0-5.0-0.0","109","1","2025-07-31 11:23:32","36c45c0696341be0efffe67d72a12abb","216.120.189.118","Mozilla/5.0 (Windows NT 10.0; Win64; x64) AppleWebKit/537.36 (KHTML, like Gecko) Chrome/138.0.0.0 Safari/537.36","WebKit","Chrome","138.0.0.0","Windows","10.0","https://app.prolific.com/","en-US,en;q=0.9","6786c32f329b1d694103f225","683dba9a53627eb9ab41b36a","688b52170ec5da1e4cb0b05a","0","6786c32f329b1d694103f225","0","","","","","","","","","","","","","","","[{""page_index"":0,""viewing_time"":17542}]","","","","","","","","","","","","","","","","","","","","","","","","","","","",""
"14913","","<p>Before you start with this game please answer the following three questions yourself. </p>
  <p>Through this game, we measure several aspects of your cognitive performance, such as reaction times, multi-tasking capabilities </p>
  <p>and the ability to assess the situation you are in.</p>
  <p></p>
  <p><b>How good do you usually are in such tasks?</b></p>","93","html-slider-response","10","198569","0.0-6.0-0.0","109","1","2025-07-31 11:23:32","36c45c0696341be0efffe67d72a12abb","216.120.189.118","Mozilla/5.0 (Windows NT 10.0; Win64; x64) AppleWebKit/537.36 (KHTML, like Gecko) Chrome/138.0.0.0 Safari/537.36","WebKit","Chrome","138.0.0.0","Windows","10.0","https://app.prolific.com/","en-US,en;q=0.9","6786c32f329b1d694103f225","683dba9a53627eb9ab41b36a","688b52170ec5da1e4cb0b05a","0","6786c32f329b1d694103f225","0","2025-07-31T11:26:57.647Z","","","","PreSkillQ","","","","","","","","","","","50","","","","","","","","","","","","","","","","","","","","","","","","","","",""
"29355","","<div style=""width:500px;"">
  <p>How well do you think you will perform in this task compared to other participants?</p>
  </div>","87","html-slider-response","11","227927","0.0-6.0-1.0","109","1","2025-07-31 11:23:32","36c45c0696341be0efffe67d72a12abb","216.120.189.118","Mozilla/5.0 (Windows NT 10.0; Win64; x64) AppleWebKit/537.36 (KHTML, like Gecko) Chrome/138.0.0.0 Safari/537.36","WebKit","Chrome","138.0.0.0","Windows","10.0","https://app.prolific.com/","en-US,en;q=0.9","6786c32f329b1d694103f225","683dba9a53627eb9ab41b36a","688b52170ec5da1e4cb0b05a","0","6786c32f329b1d694103f225","0","2025-07-31T11:27:27.005Z","","","","PrePerfQ","","","","","","","","","","","50","","","","","","","","","","","","","","","","","","","","","","","","","","",""
"7439","","<div style=""width:500px;"">
  <p>What best describes how you currently feel?</p>
  </div>","82","html-slider-response","12","235368","0.0-6.0-2.0","109","1","2025-07-31 11:23:32","36c45c0696341be0efffe67d72a12abb","216.120.189.118","Mozilla/5.0 (Windows NT 10.0; Win64; x64) AppleWebKit/537.36 (KHTML, like Gecko) Chrome/138.0.0.0 Safari/537.36","WebKit","Chrome","138.0.0.0","Windows","10.0","https://app.prolific.com/","en-US,en;q=0.9","6786c32f329b1d694103f225","683dba9a53627eb9ab41b36a","688b52170ec5da1e4cb0b05a","0","6786c32f329b1d694103f225","0","2025-07-31T11:27:34.447Z","","","","PreMotivationQ","","","","","","","","","","","50","","","","","","","","","","","","","","","","","","","","","","","","","","",""
"","","","","ctl-task-cpt","13","277323","0.0-7.0-0.0","109","1","2025-07-31 11:23:32","36c45c0696341be0efffe67d72a12abb","216.120.189.118","Mozilla/5.0 (Windows NT 10.0; Win64; x64) AppleWebKit/537.36 (KHTML, like Gecko) Chrome/138.0.0.0 Safari/537.36","WebKit","Chrome","138.0.0.0","Windows","10.0","https://app.prolific.com/","en-US,en;q=0.9","6786c32f329b1d694103f225","683dba9a53627eb9ab41b36a","688b52170ec5da1e4cb0b05a","0","6786c32f329b1d694103f225","0","2025-07-31T11:28:16.401Z","","","","","","","","","","","","","","","","win-only","1","g1:NE,g2:SW","1","1","0","241619.1","3755.8","8761.3","38944.3","1","4","8","6","2","8","8","8","0","0.06060606060606061","5005.4","3000","640","[""down"",""left""]","{""num_key_presses"":6,""num_perfect"":6,""num_errors"":0,""num_randdir"":0,""num_randdir_good_moves"":0,""num_whilered"":0,""num_whileblue"":0,""num_blue"":4,""num_good_moves"":6}","[296.2570844066903,296.0008118944219,2.7,296.2570844066903,296.0008118944219,107,296.2570844066903,296.0008118944219,210.6,296.2570844066903,296.0008118944219,312.3,296.2570844066903,296.0008118944219,416,296.2570844066903,296.0008118944219,524.4,296.2570844066903,296.0008118944219,625,296.2570844066903,296.0008118944219,725.6,296.2570844066903,296.0008118944219,830.9,296.2570844066903,296.0008118944219,939,296.2570844066903,296.0008118944219,1040.5,296.2570844066903,296.0008118944219,1141,296.2570844066903,296.0008118944219,1246.5,296.2570844066903,296.0008118944219,1354.7,296.2570844066903,296.0008118944219,1455.5,296.2570844066903,296.0008118944219,1556.1,296.2570844066903,296.0008118944219,1657,296.2570844066903,296.0008118944219,1760.6,296.2570844066903,296.0008118944219,1867.3,296.2570844066903,296.0008118944219,1970.8,296.2570844066903,296.0008118944219,2074.6,296.2570844066903,296.0008118944219,2176,296.2570844066903,296.0008118944219,2276.9,296.2570844066903,296.0008118944219,2380.4,296.2570844066903,296.0008118944219,2480.4,296.2570844066903,296.0008118944219,2580.8,296.2570844066903,296.0008118944219,2680.9,296.2570844066903,296.0008118944219,2794,296.2570844066903,296.0008118944219,2895.1,296.2570844066903,296.0008118944219,2995.6,296.2570844066903,296.0008118944219,3103.6,296.2570844066903,296.0008118944219,3206,296.2570844066903,296.0008118944219,3306.6,296.2570844066903,296.0008118944219,3410.4,296.2570844066903,296.0008118944219,3511.5,296.2570844066903,296.0008118944219,3618,296.2570844066903,296.0008118944219,3718.1,296.2570844066903,296.0008118944219,3821.7,296.2570844066903,296.0008118944219,3925.7,296.2570844066903,296.0008118944219,4027.4,296.2570844066903,296.0008118944219,4130.4,296.2570844066903,296.0008118944219,4231.1,296.2570844066903,296.0008118944219,4336.7,296.2570844066903,296.0008118944219,4441.3,296.2570844066903,296.0008118944219,4545.6,296.2570844066903,296.0008118944219,4645.7,296.2570844066903,296.0008118944219,4753.7,296.2570844066903,296.0008118944219,4854,296.2570844066903,296.0008118944219,4955.3]","[5400.3,5400.3,2877.6,2011.7,511,""smooth"",""down"",""down"",""good_move"",8036.7,2629.4,2225.3,5407.3,404.2,""smooth"",""down"",""down"",""good_move"",14867.1,6829.2,2381.8,12000.4,484.9,""smooth"",""down"",""down"",""good_move"",24338.9,9471.2,2085.8,21835.2,417.9,""smooth"",""left"",""left"",""good_move"",27240.6,2900.6,2489.6,24340,411,""smooth"",""left"",""left"",""good_move"",30068,2826.2,2436.9,27241.8,389.3,""smooth"",""left"",""left"",""good_move""]"
"6631","","<div style=""width:500px;"">
  <p>What determined the result of this run?</p>
  </div>","100","html-slider-response","14","283957","0.0-7.0-1.0","109","1","2025-07-31 11:23:32","36c45c0696341be0efffe67d72a12abb","216.120.189.118","Mozilla/5.0 (Windows NT 10.0; Win64; x64) AppleWebKit/537.36 (KHTML, like Gecko) Chrome/138.0.0.0 Safari/537.36","WebKit","Chrome","138.0.0.0","Windows","10.0","https://app.prolific.com/","en-US,en;q=0.9","6786c32f329b1d694103f225","683dba9a53627eb9ab41b36a","688b52170ec5da1e4cb0b05a","0","6786c32f329b1d694103f225","0","2025-07-31T11:28:23.036Z","","","","AttribQ","","","","","","","","","","","50","","","","","","","","","","","","","","","","","","","","","","","","","","",""
"5204","","<div style=""width:500px;"">
  <p>How much control did you have over the ball?</p>
  </div>","100","html-slider-response","15","289169","0.0-7.0-2.0","109","1","2025-07-31 11:23:32","36c45c0696341be0efffe67d72a12abb","216.120.189.118","Mozilla/5.0 (Windows NT 10.0; Win64; x64) AppleWebKit/537.36 (KHTML, like Gecko) Chrome/138.0.0.0 Safari/537.36","WebKit","Chrome","138.0.0.0","Windows","10.0","https://app.prolific.com/","en-US,en;q=0.9","6786c32f329b1d694103f225","683dba9a53627eb9ab41b36a","688b52170ec5da1e4cb0b05a","0","6786c32f329b1d694103f225","0","2025-07-31T11:28:28.247Z","","","","ControlQ","","","","","","","","","","","50","","","","","","","","","","","","","","","","","","","","","","","","","","",""
"9578","","<div style=""width:500px;"">
  <p>How would you describe your current emotional state?</p>
  </div>","0","html-slider-response","16","298749","0.0-7.0-3.0","109","1","2025-07-31 11:23:32","36c45c0696341be0efffe67d72a12abb","216.120.189.118","Mozilla/5.0 (Windows NT 10.0; Win64; x64) AppleWebKit/537.36 (KHTML, like Gecko) Chrome/138.0.0.0 Safari/537.36","WebKit","Chrome","138.0.0.0","Windows","10.0","https://app.prolific.com/","en-US,en;q=0.9","6786c32f329b1d694103f225","683dba9a53627eb9ab41b36a","688b52170ec5da1e4cb0b05a","0","6786c32f329b1d694103f225","0","2025-07-31T11:28:37.827Z","","","","StressQ","","","","","","","","","","","50","","","","","","","","","","","","","","","","","","","","","","","","","","",""
"3911","","<div style=""width:500px;"">
  <p>What best describes how you currently feel?</p>
  </div>","100","html-slider-response","17","302663","0.0-7.0-4.0","109","1","2025-07-31 11:23:32","36c45c0696341be0efffe67d72a12abb","216.120.189.118","Mozilla/5.0 (Windows NT 10.0; Win64; x64) AppleWebKit/537.36 (KHTML, like Gecko) Chrome/138.0.0.0 Safari/537.36","WebKit","Chrome","138.0.0.0","Windows","10.0","https://app.prolific.com/","en-US,en;q=0.9","6786c32f329b1d694103f225","683dba9a53627eb9ab41b36a","688b52170ec5da1e4cb0b05a","0","6786c32f329b1d694103f225","0","2025-07-31T11:28:41.741Z","","","","MotivationQ","","","","","","","","","","","50","","","","","","","","","","","","","","","","","","","","","","","","","","",""
"","","","","ctl-task-cpt","18","329937","0.0-7.0-0.1","109","1","2025-07-31 11:23:32","36c45c0696341be0efffe67d72a12abb","216.120.189.118","Mozilla/5.0 (Windows NT 10.0; Win64; x64) AppleWebKit/537.36 (KHTML, like Gecko) Chrome/138.0.0.0 Safari/537.36","WebKit","Chrome","138.0.0.0","Windows","10.0","https://app.prolific.com/","en-US,en;q=0.9","6786c32f329b1d694103f225","683dba9a53627eb9ab41b36a","688b52170ec5da1e4cb0b05a","0","6786c32f329b1d694103f225","0","2025-07-31T11:29:09.015Z","","","","","","","","","","","","","","","","win-only","1","g1:NE,g2:SW","0.9","2","0","308910.2","3351.8","8358.5","24264.1","1","4","4","6","1","1","0","8","8","0.06060606060606061","5006.6","3000","420","[""up"",""right""]","{""num_key_presses"":5,""num_perfect"":4,""num_errors"":1,""num_randdir"":0,""num_randdir_good_moves"":0,""num_whilered"":0,""num_whileblue"":0,""num_blue"":1,""num_good_moves"":4}","[291.85708431132286,290.5008117752126,0.9,291.85708431132286,290.5008117752126,103.6,291.85708431132286,290.5008117752126,205.6,291.85708431132286,290.5008117752126,309.1,291.85708431132286,290.5008117752126,409.8,291.85708431132286,290.5008117752126,524.8,291.85708431132286,290.5008117752126,625.1,291.85708431132286,290.5008117752126,729.9,291.85708431132286,290.5008117752126,831.5,291.85708431132286,290.5008117752126,932,291.85708431132286,290.5008117752126,1036,291.85708431132286,290.5008117752126,1137.4,291.85708431132286,290.5008117752126,1237.7,291.85708431132286,290.5008117752126,1342.2,291.85708431132286,290.5008117752126,1445.2,291.85708431132286,290.5008117752126,1547.9,291.85708431132286,290.5008117752126,1650.3,291.85708431132286,290.5008117752126,1751.3,291.85708431132286,290.5008117752126,1856.1,291.85708431132286,290.5008117752126,1967,291.85708431132286,290.5008117752126,2071.4,291.85708431132286,290.5008117752126,2172.4,291.85708431132286,290.5008117752126,2274.9,291.85708431132286,290.5008117752126,2374.9,291.85708431132286,290.5008117752126,2480.3,291.85708431132286,290.5008117752126,2588.4,291.85708431132286,290.5008117752126,2689.4,291.85708431132286,290.5008117752126,2790.3,291.85708431132286,290.5008117752126,2897.9,291.85708431132286,290.5008117752126,2999,291.85708431132286,290.5008117752126,3100.3,291.85708431132286,290.5008117752126,3205.1,291.85708431132286,290.5008117752126,3309.7,291.85708431132286,290.5008117752126,3411.1,291.85708431132286,290.5008117752126,3514.5,291.85708431132286,290.5008117752126,3620.1,291.85708431132286,290.5008117752126,3724.5,291.85708431132286,290.5008117752126,3830.3,291.85708431132286,290.5008117752126,3935,291.85708431132286,290.5008117752126,4047.7,291.85708431132286,290.5008117752126,4151.4,291.85708431132286,290.5008117752126,4254.9,291.85708431132286,290.5008117752126,4360.3,291.85708431132286,290.5008117752126,4466.8,291.85708431132286,290.5008117752126,4570.3,291.85708431132286,290.5008117752126,4672,291.85708431132286,290.5008117752126,4775.6,291.85708431132286,290.5008117752126,4885.4,291.85708431132286,290.5008117752126,4989.1]","[2400,2400,1000,0,1400.1,""smooth"",""right"",""right"",""good_move"",4531.2,2129.7,1428,2401.5,701.7,""smooth"",""right"",""right"",""good_move"",8698.8,4166.1,1715.7,7997.9,-1014.8,""error"",""-"",""-"",""no_move"",12776.1,4076.1,2254.6,9700.3,821.2,""smooth"",""up"",""up"",""good_move"",15777.4,3000.2,2646.3,12777.2,353.9,""smooth"",""up"",""up"",""good_move""]"
"3833","","<div style=""width:500px;"">
  <p>What determined the result of this run?</p>
  </div>","98","html-slider-response","19","333772","0.0-7.0-1.1","109","1","2025-07-31 11:23:32","36c45c0696341be0efffe67d72a12abb","216.120.189.118","Mozilla/5.0 (Windows NT 10.0; Win64; x64) AppleWebKit/537.36 (KHTML, like Gecko) Chrome/138.0.0.0 Safari/537.36","WebKit","Chrome","138.0.0.0","Windows","10.0","https://app.prolific.com/","en-US,en;q=0.9","6786c32f329b1d694103f225","683dba9a53627eb9ab41b36a","688b52170ec5da1e4cb0b05a","0","6786c32f329b1d694103f225","0","2025-07-31T11:29:12.851Z","","","","AttribQ","","","","","","","","","","","50","","","","","","","","","","","","","","","","","","","","","","","","","","",""
"4025","","<div style=""width:500px;"">
  <p>How much control did you have over the ball?</p>
  </div>","100","html-slider-response","20","337799","0.0-7.0-2.1","109","1","2025-07-31 11:23:32","36c45c0696341be0efffe67d72a12abb","216.120.189.118","Mozilla/5.0 (Windows NT 10.0; Win64; x64) AppleWebKit/537.36 (KHTML, like Gecko) Chrome/138.0.0.0 Safari/537.36","WebKit","Chrome","138.0.0.0","Windows","10.0","https://app.prolific.com/","en-US,en;q=0.9","6786c32f329b1d694103f225","683dba9a53627eb9ab41b36a","688b52170ec5da1e4cb0b05a","0","6786c32f329b1d694103f225","0","2025-07-31T11:29:16.878Z","","","","ControlQ","","","","","","","","","","","50","","","","","","","","","","","","","","","","","","","","","","","","","","",""
"3756","","<div style=""width:500px;"">
  <p>How would you describe your current emotional state?</p>
  </div>","0","html-slider-response","21","341558","0.0-7.0-3.1","109","1","2025-07-31 11:23:32","36c45c0696341be0efffe67d72a12abb","216.120.189.118","Mozilla/5.0 (Windows NT 10.0; Win64; x64) AppleWebKit/537.36 (KHTML, like Gecko) Chrome/138.0.0.0 Safari/537.36","WebKit","Chrome","138.0.0.0","Windows","10.0","https://app.prolific.com/","en-US,en;q=0.9","6786c32f329b1d694103f225","683dba9a53627eb9ab41b36a","688b52170ec5da1e4cb0b05a","0","6786c32f329b1d694103f225","0","2025-07-31T11:29:20.636Z","","","","StressQ","","","","","","","","","","","50","","","","","","","","","","","","","","","","","","","","","","","","","","",""
"3730","","<div style=""width:500px;"">
  <p>What best describes how you currently feel?</p>
  </div>","100","html-slider-response","22","345292","0.0-7.0-4.1","109","1","2025-07-31 11:23:32","36c45c0696341be0efffe67d72a12abb","216.120.189.118","Mozilla/5.0 (Windows NT 10.0; Win64; x64) AppleWebKit/537.36 (KHTML, like Gecko) Chrome/138.0.0.0 Safari/537.36","WebKit","Chrome","138.0.0.0","Windows","10.0","https://app.prolific.com/","en-US,en;q=0.9","6786c32f329b1d694103f225","683dba9a53627eb9ab41b36a","688b52170ec5da1e4cb0b05a","0","6786c32f329b1d694103f225","0","2025-07-31T11:29:24.370Z","","","","MotivationQ","","","","","","","","","","","50","","","","","","","","","","","","","","","","","","","","","","","","","","",""
"","","","","ctl-task-cpt","23","364450","0.0-7.0-0.2","109","1","2025-07-31 11:23:32","36c45c0696341be0efffe67d72a12abb","216.120.189.118","Mozilla/5.0 (Windows NT 10.0; Win64; x64) AppleWebKit/537.36 (KHTML, like Gecko) Chrome/138.0.0.0 Safari/537.36","WebKit","Chrome","138.0.0.0","Windows","10.0","https://app.prolific.com/","en-US,en;q=0.9","6786c32f329b1d694103f225","683dba9a53627eb9ab41b36a","688b52170ec5da1e4cb0b05a","0","6786c32f329b1d694103f225","0","2025-07-31T11:29:43.528Z","","","","","","","","","","","","","","","","win-only","2","g1:SE,g2:NW","0.8","3","0","351542.1","1690.7","6692.2","16125.6","1","4","8","6","1","1","0","8","8","0.06060606060606061","5001.5","3000","2210","[""down"",""right""]","{""num_key_presses"":4,""num_perfect"":3,""num_errors"":1,""num_randdir"":0,""num_randdir_good_moves"":0,""num_whilered"":0,""num_whileblue"":1,""num_blue"":1,""num_good_moves"":4}","[292.9570843351647,296.0008118944219,1.4,292.9570843351647,296.0008118944219,101.5,292.9570843351647,296.0008118944219,216.3,292.9570843351647,296.0008118944219,320.6,292.9570843351647,296.0008118944219,422.8,292.9570843351647,296.0008118944219,523.6,292.9570843351647,296.0008118944219,632,292.9570843351647,296.0008118944219,735.3,292.9570843351647,296.0008118944219,841.6,292.9570843351647,296.0008118944219,943.9,292.9570843351647,296.0008118944219,1051.4,292.9570843351647,296.0008118944219,1152.3,292.9570843351647,296.0008118944219,1252.6,292.9570843351647,296.0008118944219,1365.5,292.9570843351647,296.0008118944219,1465.7,292.9570843351647,296.0008118944219,1574,292.9570843351647,296.0008118944219,1676,292.9570843351647,296.0008118944219,1777.8,292.9570843351647,296.0008118944219,1880,292.9570843351647,296.0008118944219,1986.1,292.9570843351647,296.0008118944219,2094.6,292.9570843351647,296.0008118944219,2200.6,292.9570843351647,296.0008118944219,2303.4,292.9570843351647,296.0008118944219,2406.5,292.9570843351647,296.0008118944219,2506.9,292.9570843351647,296.0008118944219,2607.2,292.9570843351647,296.0008118944219,2710.4,292.9570843351647,296.0008118944219,2811.2,292.9570843351647,296.0008118944219,2917.1,292.9570843351647,296.0008118944219,3022.7,292.9570843351647,296.0008118944219,3131.1,292.9570843351647,296.0008118944219,3231.3,292.9570843351647,296.0008118944219,3335.1,292.9570843351647,296.0008118944219,3436.2,292.9570843351647,296.0008118944219,3536.7,292.9570843351647,296.0008118944219,3648.1,292.9570843351647,296.0008118944219,3748.9,292.9570843351647,296.0008118944219,3850.2,292.9570843351647,296.0008118944219,3951.3,292.9570843351647,296.0008118944219,4056.9,292.9570843351647,296.0008118944219,4163,292.9570843351647,296.0008118944219,4263.1,292.9570843351647,296.0008118944219,4368.3,292.9570843351647,296.0008118944219,4469.9,292.9570843351647,296.0008118944219,4579.3,292.9570843351647,296.0008118944219,4681.9,292.9570843351647,296.0008118944219,4784.8,292.9570843351647,296.0008118944219,4886.7,292.9570843351647,296.0008118944219,4993.3]","[1364.8,1364.8,1000,0,364.8,""smooth"",""right"",""right"",""good_move"",3940,2568.8,2163.7,1371.2,405.1,""smooth"",""right"",""right"",""good_move"",6571.9,2630.5,2268.4,3941.4,362.1,""smooth"",""down"",""down"",""good_move"",9314.7,2740.1,2406.1,6574.7,333.9,""while_blue"",""down"",""down"",""good_move""]"
"5177","","<div style=""width:500px;"">
  <p>What determined the result of this run?</p>
  </div>","100","html-slider-response","24","369631","0.0-7.0-1.2","109","1","2025-07-31 11:23:32","36c45c0696341be0efffe67d72a12abb","216.120.189.118","Mozilla/5.0 (Windows NT 10.0; Win64; x64) AppleWebKit/537.36 (KHTML, like Gecko) Chrome/138.0.0.0 Safari/537.36","WebKit","Chrome","138.0.0.0","Windows","10.0","https://app.prolific.com/","en-US,en;q=0.9","6786c32f329b1d694103f225","683dba9a53627eb9ab41b36a","688b52170ec5da1e4cb0b05a","0","6786c32f329b1d694103f225","0","2025-07-31T11:29:48.709Z","","","","AttribQ","","","","","","","","","","","50","","","","","","","","","","","","","","","","","","","","","","","","","","",""
"4966","","<div style=""width:500px;"">
  <p>How much control did you have over the ball?</p>
  </div>","94","html-slider-response","25","374601","0.0-7.0-2.2","109","1","2025-07-31 11:23:32","36c45c0696341be0efffe67d72a12abb","216.120.189.118","Mozilla/5.0 (Windows NT 10.0; Win64; x64) AppleWebKit/537.36 (KHTML, like Gecko) Chrome/138.0.0.0 Safari/537.36","WebKit","Chrome","138.0.0.0","Windows","10.0","https://app.prolific.com/","en-US,en;q=0.9","6786c32f329b1d694103f225","683dba9a53627eb9ab41b36a","688b52170ec5da1e4cb0b05a","0","6786c32f329b1d694103f225","0","2025-07-31T11:29:53.680Z","","","","ControlQ","","","","","","","","","","","50","","","","","","","","","","","","","","","","","","","","","","","","","","",""
"3323","","<div style=""width:500px;"">
  <p>How would you describe your current emotional state?</p>
  </div>","0","html-slider-response","26","377928","0.0-7.0-3.2","109","1","2025-07-31 11:23:32","36c45c0696341be0efffe67d72a12abb","216.120.189.118","Mozilla/5.0 (Windows NT 10.0; Win64; x64) AppleWebKit/537.36 (KHTML, like Gecko) Chrome/138.0.0.0 Safari/537.36","WebKit","Chrome","138.0.0.0","Windows","10.0","https://app.prolific.com/","en-US,en;q=0.9","6786c32f329b1d694103f225","683dba9a53627eb9ab41b36a","688b52170ec5da1e4cb0b05a","0","6786c32f329b1d694103f225","0","2025-07-31T11:29:57.006Z","","","","StressQ","","","","","","","","","","","50","","","","","","","","","","","","","","","","","","","","","","","","","","",""
"4312","","<div style=""width:500px;"">
  <p>What best describes how you currently feel?</p>
  </div>","100","html-slider-response","27","382244","0.0-7.0-4.2","109","1","2025-07-31 11:23:32","36c45c0696341be0efffe67d72a12abb","216.120.189.118","Mozilla/5.0 (Windows NT 10.0; Win64; x64) AppleWebKit/537.36 (KHTML, like Gecko) Chrome/138.0.0.0 Safari/537.36","WebKit","Chrome","138.0.0.0","Windows","10.0","https://app.prolific.com/","en-US,en;q=0.9","6786c32f329b1d694103f225","683dba9a53627eb9ab41b36a","688b52170ec5da1e4cb0b05a","0","6786c32f329b1d694103f225","0","2025-07-31T11:30:01.322Z","","","","MotivationQ","","","","","","","","","","","50","","","","","","","","","","","","","","","","","","","","","","","","","","",""
"","","","","ctl-task-cpt","28","409244","0.0-7.0-0.3","109","1","2025-07-31 11:23:32","36c45c0696341be0efffe67d72a12abb","216.120.189.118","Mozilla/5.0 (Windows NT 10.0; Win64; x64) AppleWebKit/537.36 (KHTML, like Gecko) Chrome/138.0.0.0 Safari/537.36","WebKit","Chrome","138.0.0.0","Windows","10.0","https://app.prolific.com/","en-US,en;q=0.9","6786c32f329b1d694103f225","683dba9a53627eb9ab41b36a","688b52170ec5da1e4cb0b05a","0","6786c32f329b1d694103f225","0","2025-07-31T11:30:28.322Z","","","","","","","","","","","","","","","","win-only","3","g1:SW,g2:NE","0.7","4","0","388495.2","1545.5","6563.8","23977.6","1","4","4","6","1","1","1","9","8","0.06818181818181818","5018.3","3000","2050","[""down"",""left""]","{""num_key_presses"":4,""num_perfect"":4,""num_errors"":0,""num_randdir"":0,""num_randdir_good_moves"":0,""num_whilered"":0,""num_whileblue"":0,""num_blue"":2,""num_good_moves"":4}","[287.45708421595543,293.80081184673816,0.7,287.45708421595543,293.80081184673816,101.9,287.45708421595543,293.80081184673816,213,287.45708421595543,293.80081184673816,317.6,287.45708421595543,293.80081184673816,420,287.45708421595543,293.80081184673816,520.3,287.45708421595543,293.80081184673816,623.4,287.45708421595543,293.80081184673816,733,287.45708421595543,293.80081184673816,835.7,287.45708421595543,293.80081184673816,937.8,287.45708421595543,293.80081184673816,1045.6,287.45708421595543,293.80081184673816,1168.2,287.45708421595543,293.80081184673816,1274.2,287.45708421595543,293.80081184673816,1381.7,287.45708421595543,293.80081184673816,1485.1,287.45708421595543,293.80081184673816,1589.5,287.45708421595543,293.80081184673816,1697.9,287.45708421595543,293.80081184673816,1800.1,287.45708421595543,293.80081184673816,1905.2,287.45708421595543,293.80081184673816,2012.3,287.45708421595543,293.80081184673816,2117.4,287.45708421595543,293.80081184673816,2231.7,287.45708421595543,293.80081184673816,2339.7,287.45708421595543,293.80081184673816,2442.6,287.45708421595543,293.80081184673816,2543.8,287.45708421595543,293.80081184673816,2648.7,287.45708421595543,293.80081184673816,2752.1,287.45708421595543,293.80081184673816,2856,287.45708421595543,293.80081184673816,2960,287.45708421595543,293.80081184673816,3060.1,287.45708421595543,293.80081184673816,3160.5,287.45708421595543,293.80081184673816,3264,287.45708421595543,293.80081184673816,3381,287.45708421595543,293.80081184673816,3486.1,287.45708421595543,293.80081184673816,3586.5,287.45708421595543,293.80081184673816,3695,287.45708421595543,293.80081184673816,3800.4,287.45708421595543,293.80081184673816,3915.4,287.45708421595543,293.80081184673816,4026,287.45708421595543,293.80081184673816,4132,287.45708421595543,293.80081184673816,4234.2,287.45708421595543,293.80081184673816,4339.4,287.45708421595543,293.80081184673816,4440.6,287.45708421595543,293.80081184673816,4544.1,287.45708421595543,293.80081184673816,4650.8,287.45708421595543,293.80081184673816,4759.8,287.45708421595543,293.80081184673816,4865.3,287.45708421595543,293.80081184673816,4970.6]","[1392.1,1392.1,1000,0,392.1,""smooth"",""down"",""down"",""good_move"",4046.8,2650.1,2212,1396.7,438.1,""smooth"",""down"",""down"",""good_move"",9969.9,5921.9,2070.6,7462.7,436.7,""smooth"",""left"",""left"",""good_move"",17229.6,7258.6,2690.7,14130.2,408.8,""smooth"",""left"",""left"",""good_move""]"
"3253","","<div style=""width:500px;"">
  <p>What determined the result of this run?</p>
  </div>","100","html-slider-response","29","412500","0.0-7.0-1.3","109","1","2025-07-31 11:23:32","36c45c0696341be0efffe67d72a12abb","216.120.189.118","Mozilla/5.0 (Windows NT 10.0; Win64; x64) AppleWebKit/537.36 (KHTML, like Gecko) Chrome/138.0.0.0 Safari/537.36","WebKit","Chrome","138.0.0.0","Windows","10.0","https://app.prolific.com/","en-US,en;q=0.9","6786c32f329b1d694103f225","683dba9a53627eb9ab41b36a","688b52170ec5da1e4cb0b05a","0","6786c32f329b1d694103f225","0","2025-07-31T11:30:31.578Z","","","","AttribQ","","","","","","","","","","","50","","","","","","","","","","","","","","","","","","","","","","","","","","",""
"2786","","<div style=""width:500px;"">
  <p>How much control did you have over the ball?</p>
  </div>","100","html-slider-response","30","415289","0.0-7.0-2.3","109","1","2025-07-31 11:23:32","36c45c0696341be0efffe67d72a12abb","216.120.189.118","Mozilla/5.0 (Windows NT 10.0; Win64; x64) AppleWebKit/537.36 (KHTML, like Gecko) Chrome/138.0.0.0 Safari/537.36","WebKit","Chrome","138.0.0.0","Windows","10.0","https://app.prolific.com/","en-US,en;q=0.9","6786c32f329b1d694103f225","683dba9a53627eb9ab41b36a","688b52170ec5da1e4cb0b05a","0","6786c32f329b1d694103f225","0","2025-07-31T11:30:34.368Z","","","","ControlQ","","","","","","","","","","","50","","","","","","","","","","","","","","","","","","","","","","","","","","",""
"3020","","<div style=""width:500px;"">
  <p>How would you describe your current emotional state?</p>
  </div>","0","html-slider-response","31","418314","0.0-7.0-3.3","109","1","2025-07-31 11:23:32","36c45c0696341be0efffe67d72a12abb","216.120.189.118","Mozilla/5.0 (Windows NT 10.0; Win64; x64) AppleWebKit/537.36 (KHTML, like Gecko) Chrome/138.0.0.0 Safari/537.36","WebKit","Chrome","138.0.0.0","Windows","10.0","https://app.prolific.com/","en-US,en;q=0.9","6786c32f329b1d694103f225","683dba9a53627eb9ab41b36a","688b52170ec5da1e4cb0b05a","0","6786c32f329b1d694103f225","0","2025-07-31T11:30:37.392Z","","","","StressQ","","","","","","","","","","","50","","","","","","","","","","","","","","","","","","","","","","","","","","",""
"5266","","<div style=""width:500px;"">
  <p>What best describes how you currently feel?</p>
  </div>","70","html-slider-response","32","423585","0.0-7.0-4.3","109","1","2025-07-31 11:23:32","36c45c0696341be0efffe67d72a12abb","216.120.189.118","Mozilla/5.0 (Windows NT 10.0; Win64; x64) AppleWebKit/537.36 (KHTML, like Gecko) Chrome/138.0.0.0 Safari/537.36","WebKit","Chrome","138.0.0.0","Windows","10.0","https://app.prolific.com/","en-US,en;q=0.9","6786c32f329b1d694103f225","683dba9a53627eb9ab41b36a","688b52170ec5da1e4cb0b05a","0","6786c32f329b1d694103f225","0","2025-07-31T11:30:42.663Z","","","","MotivationQ","","","","","","","","","","","50","","","","","","","","","","","","","","","","","","","","","","","","","","",""
"","","","","ctl-task-cpt","33","461113","0.0-7.0-0.4","109","1","2025-07-31 11:23:32","36c45c0696341be0efffe67d72a12abb","216.120.189.118","Mozilla/5.0 (Windows NT 10.0; Win64; x64) AppleWebKit/537.36 (KHTML, like Gecko) Chrome/138.0.0.0 Safari/537.36","WebKit","Chrome","138.0.0.0","Windows","10.0","https://app.prolific.com/","en-US,en;q=0.9","6786c32f329b1d694103f225","683dba9a53627eb9ab41b36a","688b52170ec5da1e4cb0b05a","0","6786c32f329b1d694103f225","0","2025-07-31T11:31:20.191Z","","","","","","","","","","","","","","","","win-only","1","g1:NE,g2:SW","0.6","5","0","429838.7","1277.3","6281.9","34495.3","1","4","8","6","2","8","8","17","9","0.12878787878787878","5004.6","3000","1760","[""down"",""left""]","{""num_key_presses"":6,""num_perfect"":3,""num_errors"":0,""num_randdir"":3,""num_randdir_good_moves"":3,""num_whilered"":0,""num_whileblue"":0,""num_blue"":3,""num_good_moves"":6}","[288.5570842397973,300.4008119897893,2,288.5570842397973,300.4008119897893,106,288.5570842397973,300.4008119897893,210.9,288.5570842397973,300.4008119897893,328.6,288.5570842397973,300.4008119897893,433.1,288.5570842397973,300.4008119897893,536.2,288.5570842397973,300.4008119897893,638.5,288.5570842397973,300.4008119897893,742.5,288.5570842397973,300.4008119897893,846.9,288.5570842397973,300.4008119897893,949.5,288.5570842397973,300.4008119897893,1059.4,288.5570842397973,300.4008119897893,1173,288.5570842397973,300.4008119897893,1279.1,288.5570842397973,300.4008119897893,1381.8,288.5570842397973,300.4008119897893,1490,288.5570842397973,300.4008119897893,1597,288.5570842397973,300.4008119897893,1701.9,288.5570842397973,300.4008119897893,1805.4,288.5570842397973,300.4008119897893,1912.9,288.5570842397973,300.4008119897893,2013.4,288.5570842397973,300.4008119897893,2120.3,288.5570842397973,300.4008119897893,2227.7,288.5570842397973,300.4008119897893,2333.2,288.5570842397973,300.4008119897893,2436.2,288.5570842397973,300.4008119897893,2541.6,288.5570842397973,300.4008119897893,2646.5,288.5570842397973,300.4008119897893,2749.8,288.5570842397973,300.4008119897893,2853.8,288.5570842397973,300.4008119897893,2962.3,288.5570842397973,300.4008119897893,3062.5,288.5570842397973,300.4008119897893,3166.9,288.5570842397973,300.4008119897893,3276.9,288.5570842397973,300.4008119897893,3379.1,288.5570842397973,300.4008119897893,3487.7,288.5570842397973,300.4008119897893,3590,288.5570842397973,300.4008119897893,3703.9,288.5570842397973,300.4008119897893,3805.3,288.5570842397973,300.4008119897893,3911.6,288.5570842397973,300.4008119897893,4016.1,288.5570842397973,300.4008119897893,4125.8,288.5570842397973,300.4008119897893,4229.5,288.5570842397973,300.4008119897893,4333.1,288.5570842397973,300.4008119897893,4435.4,288.5570842397973,300.4008119897893,4538.2,288.5570842397973,300.4008119897893,4647.4,288.5570842397973,300.4008119897893,4754.1,288.5570842397973,300.4008119897893,4854.6,288.5570842397973,300.4008119897893,4954.7]","[1540.6,1540.6,1000,0,540.6,""oops"",""down"",""left"",""good_move"",4411.2,2856.5,2447.9,1554.8,408.5,""smooth"",""down"",""down"",""good_move"",14616.2,10200.1,2869.9,11341.4,404.9,""smooth"",""down"",""down"",""good_move"",22022.7,7405.7,3119,18473.3,430.4,""oops"",""down"",""down"",""good_move"",25373.9,3338,2880.7,22035.9,457.3,""smooth"",""left"",""left"",""good_move"",27956.9,2581.9,2095.8,25375.2,486,""oops"",""left"",""left"",""good_move""]"
"3793","","<div style=""width:500px;"">
  <p>What determined the result of this run?</p>
  </div>","100","html-slider-response","34","464909","0.0-7.0-1.4","109","1","2025-07-31 11:23:32","36c45c0696341be0efffe67d72a12abb","216.120.189.118","Mozilla/5.0 (Windows NT 10.0; Win64; x64) AppleWebKit/537.36 (KHTML, like Gecko) Chrome/138.0.0.0 Safari/537.36","WebKit","Chrome","138.0.0.0","Windows","10.0","https://app.prolific.com/","en-US,en;q=0.9","6786c32f329b1d694103f225","683dba9a53627eb9ab41b36a","688b52170ec5da1e4cb0b05a","0","6786c32f329b1d694103f225","0","2025-07-31T11:31:23.988Z","","","","AttribQ","","","","","","","","","","","50","","","","","","","","","","","","","","","","","","","","","","","","","","",""
"3495","","<div style=""width:500px;"">
  <p>How much control did you have over the ball?</p>
  </div>","100","html-slider-response","35","468409","0.0-7.0-2.4","109","1","2025-07-31 11:23:32","36c45c0696341be0efffe67d72a12abb","216.120.189.118","Mozilla/5.0 (Windows NT 10.0; Win64; x64) AppleWebKit/537.36 (KHTML, like Gecko) Chrome/138.0.0.0 Safari/537.36","WebKit","Chrome","138.0.0.0","Windows","10.0","https://app.prolific.com/","en-US,en;q=0.9","6786c32f329b1d694103f225","683dba9a53627eb9ab41b36a","688b52170ec5da1e4cb0b05a","0","6786c32f329b1d694103f225","0","2025-07-31T11:31:27.487Z","","","","ControlQ","","","","","","","","","","","50","","","","","","","","","","","","","","","","","","","","","","","","","","",""
"3359","","<div style=""width:500px;"">
  <p>How would you describe your current emotional state?</p>
  </div>","0","html-slider-response","36","471772","0.0-7.0-3.4","109","1","2025-07-31 11:23:32","36c45c0696341be0efffe67d72a12abb","216.120.189.118","Mozilla/5.0 (Windows NT 10.0; Win64; x64) AppleWebKit/537.36 (KHTML, like Gecko) Chrome/138.0.0.0 Safari/537.36","WebKit","Chrome","138.0.0.0","Windows","10.0","https://app.prolific.com/","en-US,en;q=0.9","6786c32f329b1d694103f225","683dba9a53627eb9ab41b36a","688b52170ec5da1e4cb0b05a","0","6786c32f329b1d694103f225","0","2025-07-31T11:31:30.850Z","","","","StressQ","","","","","","","","","","","50","","","","","","","","","","","","","","","","","","","","","","","","","","",""
"3819","","<div style=""width:500px;"">
  <p>What best describes how you currently feel?</p>
  </div>","100","html-slider-response","37","475595","0.0-7.0-4.4","109","1","2025-07-31 11:23:32","36c45c0696341be0efffe67d72a12abb","216.120.189.118","Mozilla/5.0 (Windows NT 10.0; Win64; x64) AppleWebKit/537.36 (KHTML, like Gecko) Chrome/138.0.0.0 Safari/537.36","WebKit","Chrome","138.0.0.0","Windows","10.0","https://app.prolific.com/","en-US,en;q=0.9","6786c32f329b1d694103f225","683dba9a53627eb9ab41b36a","688b52170ec5da1e4cb0b05a","0","6786c32f329b1d694103f225","0","2025-07-31T11:31:34.674Z","","","","MotivationQ","","","","","","","","","","","50","","","","","","","","","","","","","","","","","","","","","","","","","","",""
"","","","","ctl-task-cpt","38","517916","0.0-7.0-0.5","109","1","2025-07-31 11:23:32","36c45c0696341be0efffe67d72a12abb","216.120.189.118","Mozilla/5.0 (Windows NT 10.0; Win64; x64) AppleWebKit/537.36 (KHTML, like Gecko) Chrome/138.0.0.0 Safari/537.36","WebKit","Chrome","138.0.0.0","Windows","10.0","https://app.prolific.com/","en-US,en;q=0.9","6786c32f329b1d694103f225","683dba9a53627eb9ab41b36a","688b52170ec5da1e4cb0b05a","0","6786c32f329b1d694103f225","0","2025-07-31T11:32:16.994Z","","","","","","","","","","","","","","","","win-only","0","g1:NW,g2:SE","0.5","6","0","481847.5","2746","7752.9","39297.3","1","4","4","6","2","4","4","21","17","0.1590909090909091","5006.9","3000","1080","[""down"",""right""]","{""num_key_presses"":10,""num_perfect"":5,""num_errors"":0,""num_randdir"":5,""num_randdir_good_moves"":3,""num_whilered"":0,""num_whileblue"":0,""num_blue"":1,""num_good_moves"":8}","[294.0570843590066,288.30081172752887,3.3,294.0570843590066,288.30081172752887,109.7,294.0570843590066,288.30081172752887,211.2,294.0570843590066,288.30081172752887,314,294.0570843590066,288.30081172752887,420,294.0570843590066,288.30081172752887,521.9,294.0570843590066,288.30081172752887,630.9,294.0570843590066,288.30081172752887,731.1,294.0570843590066,288.30081172752887,842.1,294.0570843590066,288.30081172752887,946.3,294.0570843590066,288.30081172752887,1046.9,294.0570843590066,288.30081172752887,1148.7,294.0570843590066,288.30081172752887,1253.6,294.0570843590066,288.30081172752887,1362.5,294.0570843590066,288.30081172752887,1469.6,294.0570843590066,288.30081172752887,1580.2,294.0570843590066,288.30081172752887,1680.3,294.0570843590066,288.30081172752887,1786,294.0570843590066,288.30081172752887,1886.5,294.0570843590066,288.30081172752887,1994.9,294.0570843590066,288.30081172752887,2101.7,294.0570843590066,288.30081172752887,2209,294.0570843590066,288.30081172752887,2309.9,294.0570843590066,288.30081172752887,2416.3,294.0570843590066,288.30081172752887,2516.7,294.0570843590066,288.30081172752887,2624,294.0570843590066,288.30081172752887,2731.5,294.0570843590066,288.30081172752887,2832,294.0570843590066,288.30081172752887,2935.3,294.0570843590066,288.30081172752887,3051.3,294.0570843590066,288.30081172752887,3158.9,294.0570843590066,288.30081172752887,3263.4,294.0570843590066,288.30081172752887,3377.8,294.0570843590066,288.30081172752887,3478.5,294.0570843590066,288.30081172752887,3585.1,294.0570843590066,288.30081172752887,3685.3,294.0570843590066,288.30081172752887,3792.6,294.0570843590066,288.30081172752887,3895.9,294.0570843590066,288.30081172752887,3998.4,294.0570843590066,288.30081172752887,4103.5,294.0570843590066,288.30081172752887,4214.4,294.0570843590066,288.30081172752887,4322.5,294.0570843590066,288.30081172752887,4430.1,294.0570843590066,288.30081172752887,4531.2,294.0570843590066,288.30081172752887,4636.1,294.0570843590066,288.30081172752887,4740.9,294.0570843590066,288.30081172752887,4870,294.0570843590066,288.30081172752887,4984.2]","[5076.6,5076.6,2585.7,2007.3,483.6,""smooth"",""right"",""right"",""good_move"",7977.1,2897.4,2400.9,5079.7,496.5,""smooth"",""right"",""right"",""good_move"",10569,2581.9,2065.4,7987.1,516.5,""smooth"",""right"",""right"",""good_move"",13434.6,2864.3,2349.2,10570.4,515,""smooth"",""down"",""down"",""good_move"",15993.9,2557.5,2060.1,13436.4,497.4,""smooth"",""down"",""down"",""good_move"",18894.5,2889.6,2372.9,16004.9,516.7,""oops"",""down"",""left"",""bad_move"",22388.7,3486.6,3092.2,18902.1,394.4,""oops"",""right"",""up"",""bad_move"",25612.3,3220.9,2817.2,22391.5,403.6,""oops"",""down"",""down"",""good_move"",28441.9,2824.8,2444.2,25617.2,380.5,""oops"",""down"",""right"",""good_move"",31303.5,2850.7,2442.2,28452.9,408.4,""oops"",""down"",""down"",""good_move""]"
"3732","","<div style=""width:500px;"">
  <p>What determined the result of this run?</p>
  </div>","100","html-slider-response","39","521650","0.0-7.0-1.5","109","1","2025-07-31 11:23:32","36c45c0696341be0efffe67d72a12abb","216.120.189.118","Mozilla/5.0 (Windows NT 10.0; Win64; x64) AppleWebKit/537.36 (KHTML, like Gecko) Chrome/138.0.0.0 Safari/537.36","WebKit","Chrome","138.0.0.0","Windows","10.0","https://app.prolific.com/","en-US,en;q=0.9","6786c32f329b1d694103f225","683dba9a53627eb9ab41b36a","688b52170ec5da1e4cb0b05a","0","6786c32f329b1d694103f225","0","2025-07-31T11:32:20.729Z","","","","AttribQ","","","","","","","","","","","50","","","","","","","","","","","","","","","","","","","","","","","","","","",""
"3580","","<div style=""width:500px;"">
  <p>How much control did you have over the ball?</p>
  </div>","100","html-slider-response","40","525235","0.0-7.0-2.5","109","1","2025-07-31 11:23:32","36c45c0696341be0efffe67d72a12abb","216.120.189.118","Mozilla/5.0 (Windows NT 10.0; Win64; x64) AppleWebKit/537.36 (KHTML, like Gecko) Chrome/138.0.0.0 Safari/537.36","WebKit","Chrome","138.0.0.0","Windows","10.0","https://app.prolific.com/","en-US,en;q=0.9","6786c32f329b1d694103f225","683dba9a53627eb9ab41b36a","688b52170ec5da1e4cb0b05a","0","6786c32f329b1d694103f225","0","2025-07-31T11:32:24.313Z","","","","ControlQ","","","","","","","","","","","50","","","","","","","","","","","","","","","","","","","","","","","","","","",""
"3204","","<div style=""width:500px;"">
  <p>How would you describe your current emotional state?</p>
  </div>","0","html-slider-response","41","528442","0.0-7.0-3.5","109","1","2025-07-31 11:23:32","36c45c0696341be0efffe67d72a12abb","216.120.189.118","Mozilla/5.0 (Windows NT 10.0; Win64; x64) AppleWebKit/537.36 (KHTML, like Gecko) Chrome/138.0.0.0 Safari/537.36","WebKit","Chrome","138.0.0.0","Windows","10.0","https://app.prolific.com/","en-US,en;q=0.9","6786c32f329b1d694103f225","683dba9a53627eb9ab41b36a","688b52170ec5da1e4cb0b05a","0","6786c32f329b1d694103f225","0","2025-07-31T11:32:27.520Z","","","","StressQ","","","","","","","","","","","50","","","","","","","","","","","","","","","","","","","","","","","","","","",""
"3768","","<div style=""width:500px;"">
  <p>What best describes how you currently feel?</p>
  </div>","100","html-slider-response","42","532214","0.0-7.0-4.5","109","1","2025-07-31 11:23:32","36c45c0696341be0efffe67d72a12abb","216.120.189.118","Mozilla/5.0 (Windows NT 10.0; Win64; x64) AppleWebKit/537.36 (KHTML, like Gecko) Chrome/138.0.0.0 Safari/537.36","WebKit","Chrome","138.0.0.0","Windows","10.0","https://app.prolific.com/","en-US,en;q=0.9","6786c32f329b1d694103f225","683dba9a53627eb9ab41b36a","688b52170ec5da1e4cb0b05a","0","6786c32f329b1d694103f225","0","2025-07-31T11:32:31.292Z","","","","MotivationQ","","","","","","","","","","","50","","","","","","","","","","","","","","","","","","","","","","","","","","",""
"","","","","ctl-task-cpt","43","556019","0.0-7.0-0.6","109","1","2025-07-31 11:23:32","36c45c0696341be0efffe67d72a12abb","216.120.189.118","Mozilla/5.0 (Windows NT 10.0; Win64; x64) AppleWebKit/537.36 (KHTML, like Gecko) Chrome/138.0.0.0 Safari/537.36","WebKit","Chrome","138.0.0.0","Windows","10.0","https://app.prolific.com/","en-US,en;q=0.9","6786c32f329b1d694103f225","683dba9a53627eb9ab41b36a","688b52170ec5da1e4cb0b05a","0","6786c32f329b1d694103f225","0","2025-07-31T11:32:55.097Z","","","","","","","","","","","","","","","","win-only","2","g1:SE,g2:NW","0.4","7","0","538464.6","1805.7","6815.8","20770.9","1","4","8","6","1","1","1","22","21","0.16666666666666666","5010.1","3000","2365","[""down"",""right""]","{""num_key_presses"":4,""num_perfect"":2,""num_errors"":0,""num_randdir"":2,""num_randdir_good_moves"":2,""num_whilered"":0,""num_whileblue"":0,""num_blue"":1,""num_good_moves"":4}","[294.0570843590066,288.30081172752887,2.6,294.0570843590066,288.30081172752887,107.4,294.0570843590066,288.30081172752887,218.2,294.0570843590066,288.30081172752887,328,294.0570843590066,288.30081172752887,435,294.0570843590066,288.30081172752887,538.1,294.0570843590066,288.30081172752887,639.2,294.0570843590066,288.30081172752887,746,294.0570843590066,288.30081172752887,851.9,294.0570843590066,288.30081172752887,954.3,294.0570843590066,288.30081172752887,1061.5,294.0570843590066,288.30081172752887,1171.6,294.0570843590066,288.30081172752887,1272.9,294.0570843590066,288.30081172752887,1387.3,294.0570843590066,288.30081172752887,1496.2,294.0570843590066,288.30081172752887,1600.5,294.0570843590066,288.30081172752887,1719.1,294.0570843590066,288.30081172752887,1823.7,294.0570843590066,288.30081172752887,1924.6,294.0570843590066,288.30081172752887,2030.1,294.0570843590066,288.30081172752887,2137.6,294.0570843590066,288.30081172752887,2248.8,294.0570843590066,288.30081172752887,2360.9,294.0570843590066,288.30081172752887,2472.1,294.0570843590066,288.30081172752887,2581.4,294.0570843590066,288.30081172752887,2684.4,294.0570843590066,288.30081172752887,2786.5,294.0570843590066,288.30081172752887,2886.6,294.0570843590066,288.30081172752887,2998.1,294.0570843590066,288.30081172752887,3110.8,294.0570843590066,288.30081172752887,3215.9,294.0570843590066,288.30081172752887,3327.1,294.0570843590066,288.30081172752887,3431.3,294.0570843590066,288.30081172752887,3541.2,294.0570843590066,288.30081172752887,3657.9,294.0570843590066,288.30081172752887,3770.9,294.0570843590066,288.30081172752887,3870.9,294.0570843590066,288.30081172752887,3988.3,294.0570843590066,288.30081172752887,4099.3,294.0570843590066,288.30081172752887,4201.3,294.0570843590066,288.30081172752887,4307.5,294.0570843590066,288.30081172752887,4409.2,294.0570843590066,288.30081172752887,4522.7,294.0570843590066,288.30081172752887,4633.7,294.0570843590066,288.30081172752887,4738.4,294.0570843590066,288.30081172752887,4840.3,294.0570843590066,288.30081172752887,4950.1]","[4621.5,4621.5,2113.5,2016.9,491.1,""smooth"",""right"",""right"",""good_move"",7222.7,2590.1,2140,4632.6,450.1,""smooth"",""right"",""right"",""good_move"",10313.3,3078.2,2601.5,7235.2,476.6,""oops"",""down"",""down"",""good_move"",13613.7,3296.9,2849.1,10316.8,447.8,""oops"",""down"",""down"",""good_move""]"
"3966","","<div style=""width:500px;"">
  <p>What determined the result of this run?</p>
  </div>","100","html-slider-response","44","559988","0.0-7.0-1.6","109","1","2025-07-31 11:23:32","36c45c0696341be0efffe67d72a12abb","216.120.189.118","Mozilla/5.0 (Windows NT 10.0; Win64; x64) AppleWebKit/537.36 (KHTML, like Gecko) Chrome/138.0.0.0 Safari/537.36","WebKit","Chrome","138.0.0.0","Windows","10.0","https://app.prolific.com/","en-US,en;q=0.9","6786c32f329b1d694103f225","683dba9a53627eb9ab41b36a","688b52170ec5da1e4cb0b05a","0","6786c32f329b1d694103f225","0","2025-07-31T11:32:59.066Z","","","","AttribQ","","","","","","","","","","","50","","","","","","","","","","","","","","","","","","","","","","","","","","",""
"3145","","<div style=""width:500px;"">
  <p>How much control did you have over the ball?</p>
  </div>","99","html-slider-response","45","563136","0.0-7.0-2.6","109","1","2025-07-31 11:23:32","36c45c0696341be0efffe67d72a12abb","216.120.189.118","Mozilla/5.0 (Windows NT 10.0; Win64; x64) AppleWebKit/537.36 (KHTML, like Gecko) Chrome/138.0.0.0 Safari/537.36","WebKit","Chrome","138.0.0.0","Windows","10.0","https://app.prolific.com/","en-US,en;q=0.9","6786c32f329b1d694103f225","683dba9a53627eb9ab41b36a","688b52170ec5da1e4cb0b05a","0","6786c32f329b1d694103f225","0","2025-07-31T11:33:02.215Z","","","","ControlQ","","","","","","","","","","","50","","","","","","","","","","","","","","","","","","","","","","","","","","",""
"4338","","<div style=""width:500px;"">
  <p>How would you describe your current emotional state?</p>
  </div>","0","html-slider-response","46","567479","0.0-7.0-3.6","109","1","2025-07-31 11:23:32","36c45c0696341be0efffe67d72a12abb","216.120.189.118","Mozilla/5.0 (Windows NT 10.0; Win64; x64) AppleWebKit/537.36 (KHTML, like Gecko) Chrome/138.0.0.0 Safari/537.36","WebKit","Chrome","138.0.0.0","Windows","10.0","https://app.prolific.com/","en-US,en;q=0.9","6786c32f329b1d694103f225","683dba9a53627eb9ab41b36a","688b52170ec5da1e4cb0b05a","0","6786c32f329b1d694103f225","0","2025-07-31T11:33:06.557Z","","","","StressQ","","","","","","","","","","","50","","","","","","","","","","","","","","","","","","","","","","","","","","",""
"2648","","<div style=""width:500px;"">
  <p>What best describes how you currently feel?</p>
  </div>","98","html-slider-response","47","570131","0.0-7.0-4.6","109","1","2025-07-31 11:23:32","36c45c0696341be0efffe67d72a12abb","216.120.189.118","Mozilla/5.0 (Windows NT 10.0; Win64; x64) AppleWebKit/537.36 (KHTML, like Gecko) Chrome/138.0.0.0 Safari/537.36","WebKit","Chrome","138.0.0.0","Windows","10.0","https://app.prolific.com/","en-US,en;q=0.9","6786c32f329b1d694103f225","683dba9a53627eb9ab41b36a","688b52170ec5da1e4cb0b05a","0","6786c32f329b1d694103f225","0","2025-07-31T11:33:09.209Z","","","","MotivationQ","","","","","","","","","","","50","","","","","","","","","","","","","","","","","","","","","","","","","","",""
"","","","","ctl-task-cpt","48","662254","0.0-7.0-0.7","109","1","2025-07-31 11:23:32","36c45c0696341be0efffe67d72a12abb","216.120.189.118","Mozilla/5.0 (Windows NT 10.0; Win64; x64) AppleWebKit/537.36 (KHTML, like Gecko) Chrome/138.0.0.0 Safari/537.36","WebKit","Chrome","138.0.0.0","Windows","10.0","https://app.prolific.com/","en-US,en;q=0.9","6786c32f329b1d694103f225","683dba9a53627eb9ab41b36a","688b52170ec5da1e4cb0b05a","0","6786c32f329b1d694103f225","0","2025-07-31T11:34:41.332Z","","","","","","","","","","","","","","","","win-only","2","g1:SE,g2:NW","0.3","8","0","576382.8","1788.5","6791","89103.1","1","4","4","6","2","-4","-4","18","22","0.13636363636363635","5002.5","3000","-915","[""left"",""up""]","{""num_key_presses"":18,""num_perfect"":5,""num_errors"":0,""num_randdir"":13,""num_randdir_good_moves"":6,""num_whilered"":0,""num_whileblue"":0,""num_blue"":7,""num_good_moves"":11}","[290.757084287481,298.2008119421056,1,290.757084287481,298.2008119421056,106.5,290.757084287481,298.2008119421056,207,290.757084287481,298.2008119421056,328.8,290.757084287481,298.2008119421056,436.6,290.757084287481,298.2008119421056,543.9,290.757084287481,298.2008119421056,655.2,290.757084287481,298.2008119421056,766.3,290.757084287481,298.2008119421056,866.3,290.757084287481,298.2008119421056,967.2,290.757084287481,298.2008119421056,1069.3,290.757084287481,298.2008119421056,1179.3,290.757084287481,298.2008119421056,1287.2,290.757084287481,298.2008119421056,1400,290.757084287481,298.2008119421056,1501.6,290.757084287481,298.2008119421056,1613.2,290.757084287481,298.2008119421056,1717.4,290.757084287481,298.2008119421056,1831.7,290.757084287481,298.2008119421056,1937.5,290.757084287481,298.2008119421056,2037.7,290.757084287481,298.2008119421056,2144.7,290.757084287481,298.2008119421056,2252.2,290.757084287481,298.2008119421056,2356,290.757084287481,298.2008119421056,2460,290.757084287481,298.2008119421056,2560.2,290.757084287481,298.2008119421056,2661,290.757084287481,298.2008119421056,2770.7,290.757084287481,298.2008119421056,2874.5,290.757084287481,298.2008119421056,2983,290.757084287481,298.2008119421056,3091.2,290.757084287481,298.2008119421056,3197.8,290.757084287481,298.2008119421056,3311.7,290.757084287481,298.2008119421056,3411.7,290.757084287481,298.2008119421056,3516.3,290.757084287481,298.2008119421056,3617.4,290.757084287481,298.2008119421056,3718.2,290.757084287481,298.2008119421056,3826.7,290.757084287481,298.2008119421056,3928.4,290.757084287481,298.2008119421056,4043.3,290.757084287481,298.2008119421056,4154.4,290.757084287481,298.2008119421056,4256,290.757084287481,298.2008119421056,4360.2,290.757084287481,298.2008119421056,4469.5,290.757084287481,298.2008119421056,4579.5,290.757084287481,298.2008119421056,4693.3,290.757084287481,298.2008119421056,4794.1,290.757084287481,298.2008119421056,4910.5]","[1913,1913,1000,0,913,""smooth"",""up"",""up"",""good_move"",11406.1,9489.6,2156,8594.5,655.6,""smooth"",""up"",""up"",""good_move"",14958.7,3551.4,2671.6,11407.3,879.8,""oops"",""up"",""left"",""good_move"",17713,2752.2,2303.8,14960.9,448.4,""oops"",""up"",""right"",""bad_move"",20009.9,2287,1846.1,17722.9,440.9,""oops"",""up"",""right"",""bad_move"",23625.2,3613.9,3020.1,20011.5,593.7,""smooth"",""up"",""up"",""good_move"",27260.9,3634.1,3033.7,23626.9,600.3,""oops"",""left"",""down"",""bad_move"",31053.3,3785.4,3370.2,27267.9,415.2,""oops"",""left"",""down"",""bad_move"",34982,3926.6,3490.8,31055.4,435.8,""oops"",""left"",""left"",""good_move"",38228.9,3235.5,2686.8,34993.5,548.7,""oops"",""left"",""up"",""good_move"",41500,3261.5,2776.8,38238.5,484.7,""oops"",""left"",""up"",""good_move"",44848.6,3345.5,2153,41503.1,1192.5,""oops"",""left"",""right"",""bad_move"",51682.6,6829.7,2732.1,48491.6,458.9,""oops"",""left"",""right"",""bad_move"",56936.6,5253,1864.8,54642.1,429.7,""oops"",""left"",""left"",""good_move"",63323.1,6382.8,2408.6,60522.7,391.8,""oops"",""left"",""left"",""good_move"",66637.1,3313,2333.9,63324.1,979.1,""smooth"",""left"",""left"",""good_move"",69821.8,3183.5,2316.8,66638.4,866.6,""smooth"",""left"",""left"",""good_move"",79895.9,10072.9,1861.1,77654.8,380,""oops"",""left"",""down"",""bad_move""]"
"4064","","<div style=""width:500px;"">
  <p>What determined the result of this run?</p>
  </div>","85","html-slider-response","49","666321","0.0-7.0-1.7","109","1","2025-07-31 11:23:32","36c45c0696341be0efffe67d72a12abb","216.120.189.118","Mozilla/5.0 (Windows NT 10.0; Win64; x64) AppleWebKit/537.36 (KHTML, like Gecko) Chrome/138.0.0.0 Safari/537.36","WebKit","Chrome","138.0.0.0","Windows","10.0","https://app.prolific.com/","en-US,en;q=0.9","6786c32f329b1d694103f225","683dba9a53627eb9ab41b36a","688b52170ec5da1e4cb0b05a","0","6786c32f329b1d694103f225","0","2025-07-31T11:34:45.399Z","","","","AttribQ","","","","","","","","","","","50","","","","","","","","","","","","","","","","","","","","","","","","","","",""
"3700","","<div style=""width:500px;"">
  <p>How much control did you have over the ball?</p>
  </div>","64","html-slider-response","50","670025","0.0-7.0-2.7","109","1","2025-07-31 11:23:32","36c45c0696341be0efffe67d72a12abb","216.120.189.118","Mozilla/5.0 (Windows NT 10.0; Win64; x64) AppleWebKit/537.36 (KHTML, like Gecko) Chrome/138.0.0.0 Safari/537.36","WebKit","Chrome","138.0.0.0","Windows","10.0","https://app.prolific.com/","en-US,en;q=0.9","6786c32f329b1d694103f225","683dba9a53627eb9ab41b36a","688b52170ec5da1e4cb0b05a","0","6786c32f329b1d694103f225","0","2025-07-31T11:34:49.103Z","","","","ControlQ","","","","","","","","","","","50","","","","","","","","","","","","","","","","","","","","","","","","","","",""
"3400","","<div style=""width:500px;"">
  <p>How would you describe your current emotional state?</p>
  </div>","50","html-slider-response","51","673430","0.0-7.0-3.7","109","1","2025-07-31 11:23:32","36c45c0696341be0efffe67d72a12abb","216.120.189.118","Mozilla/5.0 (Windows NT 10.0; Win64; x64) AppleWebKit/537.36 (KHTML, like Gecko) Chrome/138.0.0.0 Safari/537.36","WebKit","Chrome","138.0.0.0","Windows","10.0","https://app.prolific.com/","en-US,en;q=0.9","6786c32f329b1d694103f225","683dba9a53627eb9ab41b36a","688b52170ec5da1e4cb0b05a","0","6786c32f329b1d694103f225","0","2025-07-31T11:34:52.508Z","","","","StressQ","","","","","","","","","","","50","","","","","","","","","","","","","","","","","","","","","","","","","","",""
"2046","","<div style=""width:500px;"">
  <p>What best describes how you currently feel?</p>
  </div>","50","html-slider-response","52","675479","0.0-7.0-4.7","109","1","2025-07-31 11:23:32","36c45c0696341be0efffe67d72a12abb","216.120.189.118","Mozilla/5.0 (Windows NT 10.0; Win64; x64) AppleWebKit/537.36 (KHTML, like Gecko) Chrome/138.0.0.0 Safari/537.36","WebKit","Chrome","138.0.0.0","Windows","10.0","https://app.prolific.com/","en-US,en;q=0.9","6786c32f329b1d694103f225","683dba9a53627eb9ab41b36a","688b52170ec5da1e4cb0b05a","0","6786c32f329b1d694103f225","0","2025-07-31T11:34:54.558Z","","","","MotivationQ","","","","","","","","","","","50","","","","","","","","","","","","","","","","","","","","","","","","","","",""
"","","","","ctl-task-cpt","53","746420","0.0-7.0-0.8","109","1","2025-07-31 11:23:32","36c45c0696341be0efffe67d72a12abb","216.120.189.118","Mozilla/5.0 (Windows NT 10.0; Win64; x64) AppleWebKit/537.36 (KHTML, like Gecko) Chrome/138.0.0.0 Safari/537.36","WebKit","Chrome","138.0.0.0","Windows","10.0","https://app.prolific.com/","en-US,en;q=0.9","6786c32f329b1d694103f225","683dba9a53627eb9ab41b36a","688b52170ec5da1e4cb0b05a","0","6786c32f329b1d694103f225","0","2025-07-31T11:36:05.498Z","","","","","","","","","","","","","","","","win-only","3","g1:SW,g2:NE","0.4","9","0","681729.8","1235.6","6253.3","67913.7","1","4","4","6","2","4","3","21","18","0.1590909090909091","5017.7","3000","350","[""up"",""right""]","{""num_key_presses"":11,""num_perfect"":4,""num_errors"":1,""num_randdir"":6,""num_randdir_good_moves"":4,""num_whilered"":0,""num_whileblue"":0,""num_blue"":6,""num_good_moves"":8}","[288.5570842397973,292.7008118228963,1,288.5570842397973,292.7008118228963,109.7,288.5570842397973,292.7008118228963,211.2,288.5570842397973,292.7008118228963,311.7,288.5570842397973,292.7008118228963,428.3,288.5570842397973,292.7008118228963,555,288.5570842397973,292.7008118228963,674.3,288.5570842397973,292.7008118228963,796.1,288.5570842397973,292.7008118228963,904.9,288.5570842397973,292.7008118228963,1005.5,288.5570842397973,292.7008118228963,1128.9,288.5570842397973,292.7008118228963,1244.5,288.5570842397973,292.7008118228963,1351.3,288.5570842397973,292.7008118228963,1452.8,288.5570842397973,292.7008118228963,1555.4,288.5570842397973,292.7008118228963,1660.2,288.5570842397973,292.7008118228963,1761.9,288.5570842397973,292.7008118228963,1862.7,288.5570842397973,292.7008118228963,1967.6,288.5570842397973,292.7008118228963,2072.5,288.5570842397973,292.7008118228963,2177.4,288.5570842397973,292.7008118228963,2292.9,288.5570842397973,292.7008118228963,2402.5,288.5570842397973,292.7008118228963,2502.8,288.5570842397973,292.7008118228963,2606,288.5570842397973,292.7008118228963,2708.3,288.5570842397973,292.7008118228963,2823.7,288.5570842397973,292.7008118228963,2941.8,288.5570842397973,292.7008118228963,3065.2,288.5570842397973,292.7008118228963,3167.1,288.5570842397973,292.7008118228963,3267.7,288.5570842397973,292.7008118228963,3369.4,288.5570842397973,292.7008118228963,3469.6,288.5570842397973,292.7008118228963,3577.8,288.5570842397973,292.7008118228963,3684.6,288.5570842397973,292.7008118228963,3787.2,288.5570842397973,292.7008118228963,3888.4,288.5570842397973,292.7008118228963,3991.8,288.5570842397973,292.7008118228963,4093.3,288.5570842397973,292.7008118228963,4198.7,288.5570842397973,292.7008118228963,4314,288.5570842397973,292.7008118228963,4417.5,288.5570842397973,292.7008118228963,4524.3,288.5570842397973,292.7008118228963,4636.7,288.5570842397973,292.7008118228963,4740.8,288.5570842397973,292.7008118228963,4845.9,288.5570842397973,292.7008118228963,4955.5]","[1395.9,1395.9,1000,0,395.9,""oops"",""up"",""left"",""bad_move"",4826.5,3429,2733.9,1397.5,695.1,""smooth"",""up"",""up"",""good_move"",18135.8,13307.9,2026.9,17508.7,-1399.8,""error"",""-"",""-"",""no_move"",29325.1,11188,2731.6,25960,633.5,""oops"",""up"",""down"",""bad_move"",38388.7,9061.1,2949.2,32651.3,2788.2,""oops"",""up"",""up"",""good_move"",42319.8,3922.1,3425.4,38397.7,496.7,""oops"",""up"",""right"",""good_move"",45409.2,3085.2,2476.3,42324,608.9,""smooth"",""up"",""up"",""good_move"",51388.9,5978.4,2599.2,45410.6,3379.1,""smooth"",""up"",""up"",""good_move"",55161.3,3771.6,2570.6,51389.9,1200.9,""oops"",""right"",""right"",""good_move"",58480.5,3317.7,2546.2,55162.8,771.5,""oops"",""right"",""right"",""good_move"",61173.1,2691,2238.3,58482.1,452.7,""smooth"",""right"",""right"",""good_move""]"
"4665","","<div style=""width:500px;"">
  <p>What determined the result of this run?</p>
  </div>","97","html-slider-response","54","751087","0.0-7.0-1.8","109","1","2025-07-31 11:23:32","36c45c0696341be0efffe67d72a12abb","216.120.189.118","Mozilla/5.0 (Windows NT 10.0; Win64; x64) AppleWebKit/537.36 (KHTML, like Gecko) Chrome/138.0.0.0 Safari/537.36","WebKit","Chrome","138.0.0.0","Windows","10.0","https://app.prolific.com/","en-US,en;q=0.9","6786c32f329b1d694103f225","683dba9a53627eb9ab41b36a","688b52170ec5da1e4cb0b05a","0","6786c32f329b1d694103f225","0","2025-07-31T11:36:10.165Z","","","","AttribQ","","","","","","","","","","","50","","","","","","","","","","","","","","","","","","","","","","","","","","",""
"3317","","<div style=""width:500px;"">
  <p>How much control did you have over the ball?</p>
  </div>","96","html-slider-response","55","754407","0.0-7.0-2.8","109","1","2025-07-31 11:23:32","36c45c0696341be0efffe67d72a12abb","216.120.189.118","Mozilla/5.0 (Windows NT 10.0; Win64; x64) AppleWebKit/537.36 (KHTML, like Gecko) Chrome/138.0.0.0 Safari/537.36","WebKit","Chrome","138.0.0.0","Windows","10.0","https://app.prolific.com/","en-US,en;q=0.9","6786c32f329b1d694103f225","683dba9a53627eb9ab41b36a","688b52170ec5da1e4cb0b05a","0","6786c32f329b1d694103f225","0","2025-07-31T11:36:13.486Z","","","","ControlQ","","","","","","","","","","","50","","","","","","","","","","","","","","","","","","","","","","","","","","",""
"5655","","<div style=""width:500px;"">
  <p>How would you describe your current emotional state?</p>
  </div>","4","html-slider-response","56","760066","0.0-7.0-3.8","109","1","2025-07-31 11:23:32","36c45c0696341be0efffe67d72a12abb","216.120.189.118","Mozilla/5.0 (Windows NT 10.0; Win64; x64) AppleWebKit/537.36 (KHTML, like Gecko) Chrome/138.0.0.0 Safari/537.36","WebKit","Chrome","138.0.0.0","Windows","10.0","https://app.prolific.com/","en-US,en;q=0.9","6786c32f329b1d694103f225","683dba9a53627eb9ab41b36a","688b52170ec5da1e4cb0b05a","0","6786c32f329b1d694103f225","0","2025-07-31T11:36:19.144Z","","","","StressQ","","","","","","","","","","","50","","","","","","","","","","","","","","","","","","","","","","","","","","",""
"3447","","<div style=""width:500px;"">
  <p>What best describes how you currently feel?</p>
  </div>","50","html-slider-response","57","763517","0.0-7.0-4.8","109","1","2025-07-31 11:23:32","36c45c0696341be0efffe67d72a12abb","216.120.189.118","Mozilla/5.0 (Windows NT 10.0; Win64; x64) AppleWebKit/537.36 (KHTML, like Gecko) Chrome/138.0.0.0 Safari/537.36","WebKit","Chrome","138.0.0.0","Windows","10.0","https://app.prolific.com/","en-US,en;q=0.9","6786c32f329b1d694103f225","683dba9a53627eb9ab41b36a","688b52170ec5da1e4cb0b05a","0","6786c32f329b1d694103f225","0","2025-07-31T11:36:22.595Z","","","","MotivationQ","","","","","","","","","","","50","","","","","","","","","","","","","","","","","","","","","","","","","","",""
"","","","","ctl-task-cpt","58","815405","0.0-7.0-0.9","109","1","2025-07-31 11:23:32","36c45c0696341be0efffe67d72a12abb","216.120.189.118","Mozilla/5.0 (Windows NT 10.0; Win64; x64) AppleWebKit/537.36 (KHTML, like Gecko) Chrome/138.0.0.0 Safari/537.36","WebKit","Chrome","138.0.0.0","Windows","10.0","https://app.prolific.com/","en-US,en;q=0.9","6786c32f329b1d694103f225","683dba9a53627eb9ab41b36a","688b52170ec5da1e4cb0b05a","0","6786c32f329b1d694103f225","0","2025-07-31T11:37:14.484Z","","","","","","","","","","","","","","","","win-only","3","g1:SW,g2:NE","0.5","10","0","769767.9","2198.3","7201.1","48867.4","1","4","8","6","2","8","8","29","21","0.2196969696969697","5002.8","3000","1555","[""up"",""right""]","{""num_key_presses"":12,""num_perfect"":7,""num_errors"":0,""num_randdir"":5,""num_randdir_good_moves"":2,""num_whilered"":0,""num_whileblue"":0,""num_blue"":1,""num_good_moves"":9}","[295.15708438284844,296.0008118944219,3.6,295.15708438284844,296.0008118944219,116.9,295.15708438284844,296.0008118944219,221.5,295.15708438284844,296.0008118944219,333.7,295.15708438284844,296.0008118944219,443.3,295.15708438284844,296.0008118944219,545.6,295.15708438284844,296.0008118944219,649.1,295.15708438284844,296.0008118944219,754.6,295.15708438284844,296.0008118944219,855.6,295.15708438284844,296.0008118944219,957,295.15708438284844,296.0008118944219,1069.7,295.15708438284844,296.0008118944219,1179.6,295.15708438284844,296.0008118944219,1286.2,295.15708438284844,296.0008118944219,1399.7,295.15708438284844,296.0008118944219,1503,295.15708438284844,296.0008118944219,1611,295.15708438284844,296.0008118944219,1711,295.15708438284844,296.0008118944219,1812.7,295.15708438284844,296.0008118944219,1916,295.15708438284844,296.0008118944219,2024.8,295.15708438284844,296.0008118944219,2128.5,295.15708438284844,296.0008118944219,2231.1,295.15708438284844,296.0008118944219,2340,295.15708438284844,296.0008118944219,2446.4,295.15708438284844,296.0008118944219,2552.6,295.15708438284844,296.0008118944219,2660.1,295.15708438284844,296.0008118944219,2767.3,295.15708438284844,296.0008118944219,2879.3,295.15708438284844,296.0008118944219,2989.3,295.15708438284844,296.0008118944219,3100.4,295.15708438284844,296.0008118944219,3222.4,295.15708438284844,296.0008118944219,3337,295.15708438284844,296.0008118944219,3447.8,295.15708438284844,296.0008118944219,3565.9,295.15708438284844,296.0008118944219,3682.5,295.15708438284844,296.0008118944219,3802.6,295.15708438284844,296.0008118944219,3917.5,295.15708438284844,296.0008118944219,4020.3,295.15708438284844,296.0008118944219,4126.7,295.15708438284844,296.0008118944219,4228.9,295.15708438284844,296.0008118944219,4342.5,295.15708438284844,296.0008118944219,4444.2,295.15708438284844,296.0008118944219,4563.7,295.15708438284844,296.0008118944219,4664.3,295.15708438284844,296.0008118944219,4781.5,295.15708438284844,296.0008118944219,4881.6]","[1429.5,1429.5,1000,0,429.5,""oops"",""right"",""down"",""bad_move"",3864.2,2427.1,1898,1437.1,529.1,""oops"",""up"",""up"",""good_move"",7160.9,3294.2,2620.8,3866.8,673.3,""smooth"",""up"",""up"",""good_move"",10879.4,3717.3,1822,7162.2,1895.2,""smooth"",""up"",""up"",""good_move"",15103.5,4222.8,2369.6,10880.8,1853.1,""oops"",""up"",""right"",""good_move"",17676.5,2566.1,2085.5,15110.4,480.6,""smooth"",""up"",""up"",""good_move"",22011.2,4333.5,1915.5,17677.7,2418,""oops"",""right"",""left"",""bad_move"",25428,3414.3,3004.9,22013.7,409.4,""smooth"",""right"",""right"",""good_move"",28140.3,2705.4,2142.9,25435,562.6,""smooth"",""right"",""right"",""good_move"",31793.6,3651.6,3173.8,28142,477.8,""oops"",""right"",""down"",""bad_move"",34828.6,3014.7,2195.2,31814,819.4,""smooth"",""right"",""right"",""good_move"",41224,6393.7,3013.9,37755.9,454.2,""smooth"",""up"",""up"",""good_move""]"
"4766","","<div style=""width:500px;"">
  <p>What determined the result of this run?</p>
  </div>","100","html-slider-response","59","820174","0.0-7.0-1.9","109","1","2025-07-31 11:23:32","36c45c0696341be0efffe67d72a12abb","216.120.189.118","Mozilla/5.0 (Windows NT 10.0; Win64; x64) AppleWebKit/537.36 (KHTML, like Gecko) Chrome/138.0.0.0 Safari/537.36","WebKit","Chrome","138.0.0.0","Windows","10.0","https://app.prolific.com/","en-US,en;q=0.9","6786c32f329b1d694103f225","683dba9a53627eb9ab41b36a","688b52170ec5da1e4cb0b05a","0","6786c32f329b1d694103f225","0","2025-07-31T11:37:19.252Z","","","","AttribQ","","","","","","","","","","","50","","","","","","","","","","","","","","","","","","","","","","","","","","",""
"8444","","<div style=""width:500px;"">
  <p>How much control did you have over the ball?</p>
  </div>","99","html-slider-response","60","828621","0.0-7.0-2.9","109","1","2025-07-31 11:23:32","36c45c0696341be0efffe67d72a12abb","216.120.189.118","Mozilla/5.0 (Windows NT 10.0; Win64; x64) AppleWebKit/537.36 (KHTML, like Gecko) Chrome/138.0.0.0 Safari/537.36","WebKit","Chrome","138.0.0.0","Windows","10.0","https://app.prolific.com/","en-US,en;q=0.9","6786c32f329b1d694103f225","683dba9a53627eb9ab41b36a","688b52170ec5da1e4cb0b05a","0","6786c32f329b1d694103f225","0","2025-07-31T11:37:27.699Z","","","","ControlQ","","","","","","","","","","","50","","","","","","","","","","","","","","","","","","","","","","","","","","",""
"5661","","<div style=""width:500px;"">
  <p>How would you describe your current emotional state?</p>
  </div>","0","html-slider-response","61","834289","0.0-7.0-3.9","109","1","2025-07-31 11:23:32","36c45c0696341be0efffe67d72a12abb","216.120.189.118","Mozilla/5.0 (Windows NT 10.0; Win64; x64) AppleWebKit/537.36 (KHTML, like Gecko) Chrome/138.0.0.0 Safari/537.36","WebKit","Chrome","138.0.0.0","Windows","10.0","https://app.prolific.com/","en-US,en;q=0.9","6786c32f329b1d694103f225","683dba9a53627eb9ab41b36a","688b52170ec5da1e4cb0b05a","0","6786c32f329b1d694103f225","0","2025-07-31T11:37:33.368Z","","","","StressQ","","","","","","","","","","","50","","","","","","","","","","","","","","","","","","","","","","","","","","",""
"3180","","<div style=""width:500px;"">
  <p>What best describes how you currently feel?</p>
  </div>","95","html-slider-response","62","837473","0.0-7.0-4.9","109","1","2025-07-31 11:23:32","36c45c0696341be0efffe67d72a12abb","216.120.189.118","Mozilla/5.0 (Windows NT 10.0; Win64; x64) AppleWebKit/537.36 (KHTML, like Gecko) Chrome/138.0.0.0 Safari/537.36","WebKit","Chrome","138.0.0.0","Windows","10.0","https://app.prolific.com/","en-US,en;q=0.9","6786c32f329b1d694103f225","683dba9a53627eb9ab41b36a","688b52170ec5da1e4cb0b05a","0","6786c32f329b1d694103f225","0","2025-07-31T11:37:36.552Z","","","","MotivationQ","","","","","","","","","","","50","","","","","","","","","","","","","","","","","","","","","","","","","","",""
"","","","","ctl-task-cpt","63","884349","0.0-7.0-0.10","109","1","2025-07-31 11:23:32","36c45c0696341be0efffe67d72a12abb","216.120.189.118","Mozilla/5.0 (Windows NT 10.0; Win64; x64) AppleWebKit/537.36 (KHTML, like Gecko) Chrome/138.0.0.0 Safari/537.36","WebKit","Chrome","138.0.0.0","Windows","10.0","https://app.prolific.com/","en-US,en;q=0.9","6786c32f329b1d694103f225","683dba9a53627eb9ab41b36a","688b52170ec5da1e4cb0b05a","0","6786c32f329b1d694103f225","0","2025-07-31T11:38:23.427Z","","","","","","","","","","","","","","","","win-only","1","g1:NE,g2:SW","0.6","11","0","843723.6","1736.5","6749.3","43850.3","1","4","4","6","1","1","1","30","29","0.22727272727272727","5012.8","3000","1760","[""up"",""right""]","{""num_key_presses"":10,""num_perfect"":6,""num_errors"":0,""num_randdir"":4,""num_randdir_good_moves"":1,""num_whilered"":0,""num_whileblue"":0,""num_blue"":1,""num_good_moves"":7}","[292.9570843351647,297.10081191826373,9.4,292.9570843351647,297.10081191826373,122,292.9570843351647,297.10081191826373,241.2,292.9570843351647,297.10081191826373,353.1,292.9570843351647,297.10081191826373,472,292.9570843351647,297.10081191826373,579.7,292.9570843351647,297.10081191826373,698.9,292.9570843351647,297.10081191826373,817,292.9570843351647,297.10081191826373,934.3,292.9570843351647,297.10081191826373,1050.5,292.9570843351647,297.10081191826373,1163.8,292.9570843351647,297.10081191826373,1276.2,292.9570843351647,297.10081191826373,1383.5,292.9570843351647,297.10081191826373,1500.8,292.9570843351647,297.10081191826373,1615.7,292.9570843351647,297.10081191826373,1729.3,292.9570843351647,297.10081191826373,1846.3,292.9570843351647,297.10081191826373,1958.3,292.9570843351647,297.10081191826373,2066.8,292.9570843351647,297.10081191826373,2184.1,292.9570843351647,297.10081191826373,2286.8,292.9570843351647,297.10081191826373,2412.9,292.9570843351647,297.10081191826373,2545.9,292.9570843351647,297.10081191826373,2672.5,292.9570843351647,297.10081191826373,2778,292.9570843351647,297.10081191826373,2893.7,292.9570843351647,297.10081191826373,2996.7,292.9570843351647,297.10081191826373,3105,292.9570843351647,297.10081191826373,3206,292.9570843351647,297.10081191826373,3309.1,292.9570843351647,297.10081191826373,3414.6,292.9570843351647,297.10081191826373,3547.8,292.9570843351647,297.10081191826373,3672.4,292.9570843351647,297.10081191826373,3796.9,292.9570843351647,297.10081191826373,3898.9,292.9570843351647,297.10081191826373,4007.5,292.9570843351647,297.10081191826373,4117.1,292.9570843351647,297.10081191826373,4229.6,292.9570843351647,297.10081191826373,4357.2,292.9570843351647,297.10081191826373,4460.4,292.9570843351647,297.10081191826373,4568.3,292.9570843351647,297.10081191826373,4668.6,292.9570843351647,297.10081191826373,4779.8,292.9570843351647,297.10081191826373,4884.3,292.9570843351647,297.10081191826373,4985.2]","[1456.3,1456.3,1000,0,456.3,""oops"",""down"",""left"",""bad_move"",6434.5,4974.6,2869.3,1459.9,2105.3,""smooth"",""up"",""up"",""good_move"",10247.7,3810.6,1745.2,6437.1,2065.4,""oops"",""up"",""up"",""good_move"",13880.7,3623.2,2451.3,10257.5,1171.9,""oops"",""right"",""left"",""bad_move"",18393.1,4511.2,2352.4,13882.1,2158.7,""oops"",""right"",""down"",""bad_move"",21709.1,3314.3,2881,18394.9,433.2,""smooth"",""right"",""right"",""good_move"",27615.4,5904.9,1934,25179.5,501.9,""smooth"",""right"",""right"",""good_move"",31036.3,3420.1,2920.4,27616.4,499.6,""smooth"",""right"",""right"",""good_move"",34115.5,3077.6,2523.9,31037.9,553.7,""smooth"",""right"",""right"",""good_move"",36769.4,2639,2196.2,34130.4,442.9,""smooth"",""up"",""up"",""good_move""]"
"3420","","<div style=""width:500px;"">
  <p>What determined the result of this run?</p>
  </div>","100","html-slider-response","64","887772","0.0-7.0-1.10","109","1","2025-07-31 11:23:32","36c45c0696341be0efffe67d72a12abb","216.120.189.118","Mozilla/5.0 (Windows NT 10.0; Win64; x64) AppleWebKit/537.36 (KHTML, like Gecko) Chrome/138.0.0.0 Safari/537.36","WebKit","Chrome","138.0.0.0","Windows","10.0","https://app.prolific.com/","en-US,en;q=0.9","6786c32f329b1d694103f225","683dba9a53627eb9ab41b36a","688b52170ec5da1e4cb0b05a","0","6786c32f329b1d694103f225","0","2025-07-31T11:38:26.850Z","","","","AttribQ","","","","","","","","","","","50","","","","","","","","","","","","","","","","","","","","","","","","","","",""
"3026","","<div style=""width:500px;"">
  <p>How much control did you have over the ball?</p>
  </div>","100","html-slider-response","65","890803","0.0-7.0-2.10","109","1","2025-07-31 11:23:32","36c45c0696341be0efffe67d72a12abb","216.120.189.118","Mozilla/5.0 (Windows NT 10.0; Win64; x64) AppleWebKit/537.36 (KHTML, like Gecko) Chrome/138.0.0.0 Safari/537.36","WebKit","Chrome","138.0.0.0","Windows","10.0","https://app.prolific.com/","en-US,en;q=0.9","6786c32f329b1d694103f225","683dba9a53627eb9ab41b36a","688b52170ec5da1e4cb0b05a","0","6786c32f329b1d694103f225","0","2025-07-31T11:38:29.881Z","","","","ControlQ","","","","","","","","","","","50","","","","","","","","","","","","","","","","","","","","","","","","","","",""
"7815","","<div style=""width:500px;"">
  <p>How would you describe your current emotional state?</p>
  </div>","50","html-slider-response","66","898622","0.0-7.0-3.10","109","1","2025-07-31 11:23:32","36c45c0696341be0efffe67d72a12abb","216.120.189.118","Mozilla/5.0 (Windows NT 10.0; Win64; x64) AppleWebKit/537.36 (KHTML, like Gecko) Chrome/138.0.0.0 Safari/537.36","WebKit","Chrome","138.0.0.0","Windows","10.0","https://app.prolific.com/","en-US,en;q=0.9","6786c32f329b1d694103f225","683dba9a53627eb9ab41b36a","688b52170ec5da1e4cb0b05a","0","6786c32f329b1d694103f225","0","2025-07-31T11:38:37.700Z","","","","StressQ","","","","","","","","","","","50","","","","","","","","","","","","","","","","","","","","","","","","","","",""
"9587","","<div style=""width:500px;"">
  <p>What best describes how you currently feel?</p>
  </div>","50","html-slider-response","67","908213","0.0-7.0-4.10","109","1","2025-07-31 11:23:32","36c45c0696341be0efffe67d72a12abb","216.120.189.118","Mozilla/5.0 (Windows NT 10.0; Win64; x64) AppleWebKit/537.36 (KHTML, like Gecko) Chrome/138.0.0.0 Safari/537.36","WebKit","Chrome","138.0.0.0","Windows","10.0","https://app.prolific.com/","en-US,en;q=0.9","6786c32f329b1d694103f225","683dba9a53627eb9ab41b36a","688b52170ec5da1e4cb0b05a","0","6786c32f329b1d694103f225","0","2025-07-31T11:38:47.291Z","","","","MotivationQ","","","","","","","","","","","50","","","","","","","","","","","","","","","","","","","","","","","","","","",""
"","","","","ctl-task-cpt","68","955853","0.0-7.0-0.11","109","1","2025-07-31 11:23:32","36c45c0696341be0efffe67d72a12abb","216.120.189.118","Mozilla/5.0 (Windows NT 10.0; Win64; x64) AppleWebKit/537.36 (KHTML, like Gecko) Chrome/138.0.0.0 Safari/537.36","WebKit","Chrome","138.0.0.0","Windows","10.0","https://app.prolific.com/","en-US,en;q=0.9","6786c32f329b1d694103f225","683dba9a53627eb9ab41b36a","688b52170ec5da1e4cb0b05a","0","6786c32f329b1d694103f225","0","2025-07-31T11:39:34.931Z","","","","","","","","","","","","","","","","win-only","2","g1:SE,g2:NW","0.7","12","0","914466.6","2666.9","7670","44602.8","1","4","8","6","2","8","8","38","30","0.2878787878787879","5003.1","3000","2035","[""left"",""up""]","{""num_key_presses"":8,""num_perfect"":7,""num_errors"":0,""num_randdir"":1,""num_randdir_good_moves"":0,""num_whilered"":0,""num_whileblue"":0,""num_blue"":1,""num_good_moves"":7}","[290.757084287481,292.7008118228963,2.8,290.757084287481,292.7008118228963,104.1,290.757084287481,292.7008118228963,226.5,290.757084287481,292.7008118228963,353.3,290.757084287481,292.7008118228963,478,290.757084287481,292.7008118228963,599.6,290.757084287481,292.7008118228963,718.2,290.757084287481,292.7008118228963,849.4,290.757084287481,292.7008118228963,972.4,290.757084287481,292.7008118228963,1094.1,290.757084287481,292.7008118228963,1215.6,290.757084287481,292.7008118228963,1337.9,290.757084287481,292.7008118228963,1455.4,290.757084287481,292.7008118228963,1570.3,290.757084287481,292.7008118228963,1693.9,290.757084287481,292.7008118228963,1808.7,290.757084287481,292.7008118228963,1930.9,290.757084287481,292.7008118228963,2053.2,290.757084287481,292.7008118228963,2157,290.757084287481,292.7008118228963,2279.6,290.757084287481,292.7008118228963,2405.3,290.757084287481,292.7008118228963,2531.2,290.757084287481,292.7008118228963,2647.8,290.757084287481,292.7008118228963,2769.8,290.757084287481,292.7008118228963,2887.6,290.757084287481,292.7008118228963,3007.2,290.757084287481,292.7008118228963,3108.7,290.757084287481,292.7008118228963,3237.4,290.757084287481,292.7008118228963,3342.6,290.757084287481,292.7008118228963,3469.7,290.757084287481,292.7008118228963,3590,290.757084287481,292.7008118228963,3698.5,290.757084287481,292.7008118228963,3811.7,290.757084287481,292.7008118228963,3924.6,290.757084287481,292.7008118228963,4029.7,290.757084287481,292.7008118228963,4134,290.757084287481,292.7008118228963,4241.8,290.757084287481,292.7008118228963,4349.6,290.757084287481,292.7008118228963,4460.5,290.757084287481,292.7008118228963,4576.5,290.757084287481,292.7008118228963,4684.3,290.757084287481,292.7008118228963,4802,290.757084287481,292.7008118228963,4916.7]","[1369.6,1369.6,1000,0,369.7,""smooth"",""up"",""up"",""good_move"",5858.3,4478.2,2576,1380.1,1902.2,""smooth"",""up"",""up"",""good_move"",9949.2,4089.1,2781.9,5860.1,1307.2,""oops"",""up"",""down"",""bad_move"",13694.8,3742.4,2446.7,9952.4,1295.7,""smooth"",""up"",""up"",""good_move"",18990,5283.3,2567,13706.7,2716.3,""smooth"",""up"",""up"",""good_move"",23827.9,4831.1,1733.5,18996.9,3097.5,""smooth"",""left"",""left"",""good_move"",27901.9,4072.5,2621.2,23829.4,1451.4,""smooth"",""left"",""left"",""good_move"",36397.2,8493.5,3040.6,32874.6,482,""smooth"",""left"",""left"",""good_move""]"
"21229","","<div style=""width:500px;"">
  <p>What determined the result of this run?</p>
  </div>","99","html-slider-response","69","977084","0.0-7.0-1.11","109","1","2025-07-31 11:23:32","36c45c0696341be0efffe67d72a12abb","216.120.189.118","Mozilla/5.0 (Windows NT 10.0; Win64; x64) AppleWebKit/537.36 (KHTML, like Gecko) Chrome/138.0.0.0 Safari/537.36","WebKit","Chrome","138.0.0.0","Windows","10.0","https://app.prolific.com/","en-US,en;q=0.9","6786c32f329b1d694103f225","683dba9a53627eb9ab41b36a","688b52170ec5da1e4cb0b05a","0","6786c32f329b1d694103f225","0","2025-07-31T11:39:56.162Z","","","","AttribQ","","","","","","","","","","","50","","","","","","","","","","","","","","","","","","","","","","","","","","",""
"3198","","<div style=""width:500px;"">
  <p>How much control did you have over the ball?</p>
  </div>","99","html-slider-response","70","980285","0.0-7.0-2.11","109","1","2025-07-31 11:23:32","36c45c0696341be0efffe67d72a12abb","216.120.189.118","Mozilla/5.0 (Windows NT 10.0; Win64; x64) AppleWebKit/537.36 (KHTML, like Gecko) Chrome/138.0.0.0 Safari/537.36","WebKit","Chrome","138.0.0.0","Windows","10.0","https://app.prolific.com/","en-US,en;q=0.9","6786c32f329b1d694103f225","683dba9a53627eb9ab41b36a","688b52170ec5da1e4cb0b05a","0","6786c32f329b1d694103f225","0","2025-07-31T11:39:59.363Z","","","","ControlQ","","","","","","","","","","","50","","","","","","","","","","","","","","","","","","","","","","","","","","",""
"3385","","<div style=""width:500px;"">
  <p>How would you describe your current emotional state?</p>
  </div>","50","html-slider-response","71","983673","0.0-7.0-3.11","109","1","2025-07-31 11:23:32","36c45c0696341be0efffe67d72a12abb","216.120.189.118","Mozilla/5.0 (Windows NT 10.0; Win64; x64) AppleWebKit/537.36 (KHTML, like Gecko) Chrome/138.0.0.0 Safari/537.36","WebKit","Chrome","138.0.0.0","Windows","10.0","https://app.prolific.com/","en-US,en;q=0.9","6786c32f329b1d694103f225","683dba9a53627eb9ab41b36a","688b52170ec5da1e4cb0b05a","0","6786c32f329b1d694103f225","0","2025-07-31T11:40:02.751Z","","","","StressQ","","","","","","","","","","","50","","","","","","","","","","","","","","","","","","","","","","","","","","",""
"4315","","<div style=""width:500px;"">
  <p>What best describes how you currently feel?</p>
  </div>","50","html-slider-response","72","987991","0.0-7.0-4.11","109","1","2025-07-31 11:23:32","36c45c0696341be0efffe67d72a12abb","216.120.189.118","Mozilla/5.0 (Windows NT 10.0; Win64; x64) AppleWebKit/537.36 (KHTML, like Gecko) Chrome/138.0.0.0 Safari/537.36","WebKit","Chrome","138.0.0.0","Windows","10.0","https://app.prolific.com/","en-US,en;q=0.9","6786c32f329b1d694103f225","683dba9a53627eb9ab41b36a","688b52170ec5da1e4cb0b05a","0","6786c32f329b1d694103f225","0","2025-07-31T11:40:07.069Z","","","","MotivationQ","","","","","","","","","","","50","","","","","","","","","","","","","","","","","","","","","","","","","","",""
"","","","","ctl-task-cpt","73","1051190","0.0-7.0-0.12","109","1","2025-07-31 11:23:32","36c45c0696341be0efffe67d72a12abb","216.120.189.118","Mozilla/5.0 (Windows NT 10.0; Win64; x64) AppleWebKit/537.36 (KHTML, like Gecko) Chrome/138.0.0.0 Safari/537.36","WebKit","Chrome","138.0.0.0","Windows","10.0","https://app.prolific.com/","en-US,en;q=0.9","6786c32f329b1d694103f225","683dba9a53627eb9ab41b36a","688b52170ec5da1e4cb0b05a","0","6786c32f329b1d694103f225","0","2025-07-31T11:41:10.268Z","","","","","","","","","","","","","","","","win-only","3","g1:SW,g2:NE","0.8","13","0","994240.8","1475.9","6495.8","60151.6","1","4","4","6","2","4","4","42","38","0.3181818181818182","5019.8","3000","1990","[""up"",""right""]","{""num_key_presses"":10,""num_perfect"":8,""num_errors"":0,""num_randdir"":2,""num_randdir_good_moves"":0,""num_whilered"":0,""num_whileblue"":0,""num_blue"":5,""num_good_moves"":8}","[295.15708438284844,293.80081184673816,1.9,295.15708438284844,293.80081184673816,103.3,295.15708438284844,293.80081184673816,225.2,295.15708438284844,293.80081184673816,338.8,295.15708438284844,293.80081184673816,438.8,295.15708438284844,293.80081184673816,578.9,295.15708438284844,293.80081184673816,701.1,295.15708438284844,293.80081184673816,827.6,295.15708438284844,293.80081184673816,927.8,295.15708438284844,293.80081184673816,1032.3,295.15708438284844,293.80081184673816,1157.1,295.15708438284844,293.80081184673816,1277.7,295.15708438284844,293.80081184673816,1401.1,295.15708438284844,293.80081184673816,1517.5,295.15708438284844,293.80081184673816,1639.9,295.15708438284844,293.80081184673816,1755.4,295.15708438284844,293.80081184673816,1871.9,295.15708438284844,293.80081184673816,1990.8,295.15708438284844,293.80081184673816,2096,295.15708438284844,293.80081184673816,2217.1,295.15708438284844,293.80081184673816,2340.3,295.15708438284844,293.80081184673816,2459.6,295.15708438284844,293.80081184673816,2579.7,295.15708438284844,293.80081184673816,2698.8,295.15708438284844,293.80081184673816,2825.4,295.15708438284844,293.80081184673816,2947.6,295.15708438284844,293.80081184673816,3068.5,295.15708438284844,293.80081184673816,3187.3,295.15708438284844,293.80081184673816,3315.5,295.15708438284844,293.80081184673816,3442.6,295.15708438284844,293.80081184673816,3567.2,295.15708438284844,293.80081184673816,3687.9,295.15708438284844,293.80081184673816,3813.6,295.15708438284844,293.80081184673816,3935.8,295.15708438284844,293.80081184673816,4055.4,295.15708438284844,293.80081184673816,4160.2,295.15708438284844,293.80081184673816,4286.5,295.15708438284844,293.80081184673816,4414.5,295.15708438284844,293.80081184673816,4542.9,295.15708438284844,293.80081184673816,4663.9,295.15708438284844,293.80081184673816,4794.4,295.15708438284844,293.80081184673816,4917.9]","[12008.7,12008.7,2820.9,8674.5,513.3,""smooth"",""right"",""right"",""good_move"",15563.1,3552.6,2981.7,12010.5,570.9,""smooth"",""right"",""right"",""good_move"",18608.9,3043.3,2572.8,15565.7,470.4,""oops"",""right"",""left"",""bad_move"",23952.6,5342.2,3008.1,18610.4,2334.1,""smooth"",""right"",""right"",""good_move"",30210.1,6256,2205.7,27516.6,487.8,""smooth"",""right"",""right"",""good_move"",33184.2,2972.8,2401.6,30211.4,571.2,""smooth"",""up"",""up"",""good_move"",40479.7,7286.4,2078.7,37923.1,477.9,""oops"",""up"",""left"",""bad_move"",45154.5,4673.8,2816.3,40480.7,1857.5,""smooth"",""right"",""right"",""good_move"",47429,2273.1,1640.4,45156,632.6,""smooth"",""up"",""up"",""good_move"",53278.9,5848.7,2910,47430.3,2938.7,""smooth"",""up"",""up"",""good_move""]"
"6151","","<div style=""width:500px;"">
  <p>What determined the result of this run?</p>
  </div>","100","html-slider-response","74","1057345","0.0-7.0-1.12","109","1","2025-07-31 11:23:32","36c45c0696341be0efffe67d72a12abb","216.120.189.118","Mozilla/5.0 (Windows NT 10.0; Win64; x64) AppleWebKit/537.36 (KHTML, like Gecko) Chrome/138.0.0.0 Safari/537.36","WebKit","Chrome","138.0.0.0","Windows","10.0","https://app.prolific.com/","en-US,en;q=0.9","6786c32f329b1d694103f225","683dba9a53627eb9ab41b36a","688b52170ec5da1e4cb0b05a","0","6786c32f329b1d694103f225","0","2025-07-31T11:41:16.424Z","","","","AttribQ","","","","","","","","","","","50","","","","","","","","","","","","","","","","","","","","","","","","","","",""
"4663","","<div style=""width:500px;"">
  <p>How much control did you have over the ball?</p>
  </div>","96","html-slider-response","75","1062012","0.0-7.0-2.12","109","1","2025-07-31 11:23:32","36c45c0696341be0efffe67d72a12abb","216.120.189.118","Mozilla/5.0 (Windows NT 10.0; Win64; x64) AppleWebKit/537.36 (KHTML, like Gecko) Chrome/138.0.0.0 Safari/537.36","WebKit","Chrome","138.0.0.0","Windows","10.0","https://app.prolific.com/","en-US,en;q=0.9","6786c32f329b1d694103f225","683dba9a53627eb9ab41b36a","688b52170ec5da1e4cb0b05a","0","6786c32f329b1d694103f225","0","2025-07-31T11:41:21.090Z","","","","ControlQ","","","","","","","","","","","50","","","","","","","","","","","","","","","","","","","","","","","","","","",""
"7715","","<div style=""width:500px;"">
  <p>How would you describe your current emotional state?</p>
  </div>","50","html-slider-response","76","1069730","0.0-7.0-3.12","109","1","2025-07-31 11:23:32","36c45c0696341be0efffe67d72a12abb","216.120.189.118","Mozilla/5.0 (Windows NT 10.0; Win64; x64) AppleWebKit/537.36 (KHTML, like Gecko) Chrome/138.0.0.0 Safari/537.36","WebKit","Chrome","138.0.0.0","Windows","10.0","https://app.prolific.com/","en-US,en;q=0.9","6786c32f329b1d694103f225","683dba9a53627eb9ab41b36a","688b52170ec5da1e4cb0b05a","0","6786c32f329b1d694103f225","0","2025-07-31T11:41:28.809Z","","","","StressQ","","","","","","","","","","","50","","","","","","","","","","","","","","","","","","","","","","","","","","",""
"2886","","<div style=""width:500px;"">
  <p>What best describes how you currently feel?</p>
  </div>","50","html-slider-response","77","1072622","0.0-7.0-4.12","109","1","2025-07-31 11:23:32","36c45c0696341be0efffe67d72a12abb","216.120.189.118","Mozilla/5.0 (Windows NT 10.0; Win64; x64) AppleWebKit/537.36 (KHTML, like Gecko) Chrome/138.0.0.0 Safari/537.36","WebKit","Chrome","138.0.0.0","Windows","10.0","https://app.prolific.com/","en-US,en;q=0.9","6786c32f329b1d694103f225","683dba9a53627eb9ab41b36a","688b52170ec5da1e4cb0b05a","0","6786c32f329b1d694103f225","0","2025-07-31T11:41:31.700Z","","","","MotivationQ","","","","","","","","","","","50","","","","","","","","","","","","","","","","","","","","","","","","","","",""
