"rt","response_timestamp","stimulus","response","trial_type","trial_index","time_elapsed","internal_node_id","run_id","condition","recorded_at","source_code_version","ip","user_agent","device","browser","browser_version","platform","platform_version","referer","accept_language","PROLIFIC_PID","STUDY_ID","SESSION_ID","BATCH","prolific_id","batch","realtime","success","question_order","question_id","eventType","responses","item_order","radio_event_ids","radio_event_times","key_event_times","mouse_event_times","straightlining","zigzagging","honeypot","view_history","slider_start","which_type","canvas_config","goals_layout","control_level","trial_number","tutorial_trial_number","trial_start_time","phase1_start_time","phase2_start_time","phase3_start_time","goal_1_value","goal_1_distance","goal_2_value","goal_2_distance","goal_selected","outcome","outcome_total","participant_final_score","participant_initial_score","participant_final_score_prop","goal_choice_rt","allocated_time","allocated_time_remaining","goal_direction","counts","mouse_movements","key_presses"
"171580","1753899121927","<p style='font-size:40px;line-height:1.25'><strong>Welcome to the experiment!</strong></p><p style='font-size:1.1em;line-height:1.25'>Thank you for participanting in our experiment again! You will be asked to play the Dysfunctional Ball Game again. We will briefly recap the rules before we start.</p><p style='font-size:1.1em;line-height:1.25'>Press <strong>Next</strong> to continue.</p>","0","custom-html-button-response","0","171586","0.0-0.0","76","1","2025-07-30 09:09:32","36c45c0696341be0efffe67d72a12abb","105.12.0.60","Mozilla/5.0 (Windows NT 10.0; Win64; x64) AppleWebKit/537.36 (KHTML, like Gecko) Chrome/138.0.0.0 Safari/537.36","WebKit","Chrome","138.0.0.0","Windows","10.0","https://app.prolific.com/","en-US,en;q=0.9","67895942fcb6400a74aebfca","687a19d2168e237449fb8af4","6889e01bea686771318410e3","0","67895942fcb6400a74aebfca","0","2025-07-30T18:12:01.932Z","","","","","","","","","","","","","","","","","","","","","","","","","","","","","","","","","","","","","","","","","",""
"146852","","","","fullscreen","1","319451","0.0-1.0","76","1","2025-07-30 09:09:32","36c45c0696341be0efffe67d72a12abb","105.12.0.60","Mozilla/5.0 (Windows NT 10.0; Win64; x64) AppleWebKit/537.36 (KHTML, like Gecko) Chrome/138.0.0.0 Safari/537.36","WebKit","Chrome","138.0.0.0","Windows","10.0","https://app.prolific.com/","en-US,en;q=0.9","67895942fcb6400a74aebfca","687a19d2168e237449fb8af4","6889e01bea686771318410e3","0","67895942fcb6400a74aebfca","0","","true","","","","","","","","","","","","","","","","","","","","","","","","","","","","","","","","","","","","","","","","",""
"3878","1753899273675"," <p style='font-size:1.1em;line-height:1.25'>Thank you for closing all other tabs.</p><p style='font-size:1.1em;line-height:1.25'>We will now invite you to fill in some questionnaires, before starting the game.<br>This will take about 5 minutes.<br></p><p style='font-size:1.1em;line-height:1.25'>Press the <strong>Next</strong> button to continue.</p>","0","custom-html-button-response","2","323331","0.0-2.0","76","1","2025-07-30 09:09:32","36c45c0696341be0efffe67d72a12abb","105.12.0.60","Mozilla/5.0 (Windows NT 10.0; Win64; x64) AppleWebKit/537.36 (KHTML, like Gecko) Chrome/138.0.0.0 Safari/537.36","WebKit","Chrome","138.0.0.0","Windows","10.0","https://app.prolific.com/","en-US,en;q=0.9","67895942fcb6400a74aebfca","687a19d2168e237449fb8af4","6889e01bea686771318410e3","0","67895942fcb6400a74aebfca","0","2025-07-30T18:14:33.676Z","","","","","","","","","","","","","","","","","","","","","","","","","","","","","","","","","","","","","","","","","",""
"5524","","","{""assigned_sex"":""intersex""}","survey-multi-choice","3","328860","0.0-3.0-0.0","76","1","2025-07-30 09:09:32","36c45c0696341be0efffe67d72a12abb","105.12.0.60","Mozilla/5.0 (Windows NT 10.0; Win64; x64) AppleWebKit/537.36 (KHTML, like Gecko) Chrome/138.0.0.0 Safari/537.36","WebKit","Chrome","138.0.0.0","Windows","10.0","https://app.prolific.com/","en-US,en;q=0.9","67895942fcb6400a74aebfca","687a19d2168e237449fb8af4","6889e01bea686771318410e3","0","67895942fcb6400a74aebfca","0","","","[0]","0","demographics","","","","","","","","","","","","","","","","","","","","","","","","","","","","","","","","","","","","","",""
"4645","1753899283852","<p style='font-size:1.1em;line-height:1.25'>In the following, we will perform a baseline assessment. This means that we will ask you a few questions relating to your experiences over the past month.<br></p><p style='font-size:1.1em;line-height:1.25'>Press the <strong>Next</strong> button to continue.</p>","0","custom-html-button-response","4","333508","0.0-4.0-0.0","76","1","2025-07-30 09:09:32","36c45c0696341be0efffe67d72a12abb","105.12.0.60","Mozilla/5.0 (Windows NT 10.0; Win64; x64) AppleWebKit/537.36 (KHTML, like Gecko) Chrome/138.0.0.0 Safari/537.36","WebKit","Chrome","138.0.0.0","Windows","10.0","https://app.prolific.com/","en-US,en;q=0.9","67895942fcb6400a74aebfca","687a19d2168e237449fb8af4","6889e01bea686771318410e3","0","67895942fcb6400a74aebfca","0","2025-07-30T18:14:43.853Z","","","","","","","","","","","","","","","","","","","","","","","","","","","","","","","","","","","","","","","","","",""
"87620.40000003576","","","","survey-template","5","421138","0.0-4.0-1.0","76","1","2025-07-30 09:09:32","36c45c0696341be0efffe67d72a12abb","105.12.0.60","Mozilla/5.0 (Windows NT 10.0; Win64; x64) AppleWebKit/537.36 (KHTML, like Gecko) Chrome/138.0.0.0 Safari/537.36","WebKit","Chrome","138.0.0.0","Windows","10.0","https://app.prolific.com/","en-US,en;q=0.9","67895942fcb6400a74aebfca","687a19d2168e237449fb8af4","6889e01bea686771318410e3","0","67895942fcb6400a74aebfca","0","2025-07-30T18:16:11.483Z","","","","pss","{""Q01"":""1"",""Q02"":""1"",""Q03"":""2"",""Q04"":""0"",""Q05"":""2"",""Q06"":""1"",""Q07"":""3"",""Q08"":""1"",""Q09"":""1"",""Q10"":""1""}","[0,1,2,3,4,5,6,7,8,9]","[""Q01"",""Q02"",""Q03"",""Q04"",""Q05"",""Q06"",""Q07"",""Q08"",""Q09"",""Q10""]","[4589.699999988079,9151.600000023842,11017.300000011921,13381,17737.100000023842,23909,27154.19999998808,80127.69999998808,83484.60000002384,85953.10000002384]","[]","[0.10000002384185791,4589.699999988079,9151.600000023842,11017.300000011921,13381,17737.100000023842,22555.5,23909,25883.100000023842,27154.19999998808,80127.69999998808,83484.60000002384,85953.10000002384,87615.10000002384]","0.6","0.2222222222222222","0","","","","","","","","","","","","","","","","","","","","","","","","","","","","",""
"4922","1753899376406","<p style='font-size:1.1em;line-height:1.25'>Thank you for your answers! Now we will ask you a few more questions relating to your feelings in the last 24 hours.<br></p><p style='font-size:1.1em;line-height:1.25'>Press the <strong>Next</strong> button to continue.</p>","0","custom-html-button-response","6","426061","0.0-4.0-2.0","76","1","2025-07-30 09:09:32","36c45c0696341be0efffe67d72a12abb","105.12.0.60","Mozilla/5.0 (Windows NT 10.0; Win64; x64) AppleWebKit/537.36 (KHTML, like Gecko) Chrome/138.0.0.0 Safari/537.36","WebKit","Chrome","138.0.0.0","Windows","10.0","https://app.prolific.com/","en-US,en;q=0.9","67895942fcb6400a74aebfca","687a19d2168e237449fb8af4","6889e01bea686771318410e3","0","67895942fcb6400a74aebfca","0","2025-07-30T18:16:16.406Z","","","","","","","","","","","","","","","","","","","","","","","","","","","","","","","","","","","","","","","","","",""
"47402.19999998808","","","","survey-template","7","473468","0.0-4.0-3.0","76","1","2025-07-30 09:09:32","36c45c0696341be0efffe67d72a12abb","105.12.0.60","Mozilla/5.0 (Windows NT 10.0; Win64; x64) AppleWebKit/537.36 (KHTML, like Gecko) Chrome/138.0.0.0 Safari/537.36","WebKit","Chrome","138.0.0.0","Windows","10.0","https://app.prolific.com/","en-US,en;q=0.9","67895942fcb6400a74aebfca","687a19d2168e237449fb8af4","6889e01bea686771318410e3","0","67895942fcb6400a74aebfca","0","2025-07-30T18:17:03.813Z","","","","drsp","{""Q01"":""0"",""Q02"":""0"",""Q03"":""0"",""Q04"":""0"",""Q05"":""1"",""Q06"":""1"",""Q07"":""1"",""Q08"":""0"",""Q09"":""0"",""Q10"":""0"",""Q11"":""1"",""Q12"":""0"",""Q13"":""0"",""Q14"":""0"",""Q15"":""1"",""Q16"":""1"",""Q17"":""0"",""Q18"":""0"",""Q19"":""0"",""Q20"":""1"",""Q21"":""1"",""Q22"":""1""}","[0,1,2,3,4,5,6,7,8,9,10,11,12,13,14,15,16,17,18,19,20,21]","[""Q01"",""Q02"",""Q03"",""Q04"",""Q05"",""Q06"",""Q07"",""Q08"",""Q09"",""Q10"",""Q11"",""Q12"",""Q13"",""Q14"",""Q15"",""Q16"",""Q17"",""Q18"",""Q19"",""Q20"",""Q21"",""Q22""]","[3898.699999988079,5322.300000011921,6943.600000023842,9394.400000035763,10912.600000023842,12078.699999988079,13325.300000011921,14783.199999988079,16287.300000011921,21015.19999998808,24176.400000035763,25449.600000023842,26839,28238.19999998808,31664.100000023842,33284.30000001192,37819.40000003576,39439.30000001192,40961.69999998808,42709.69999998808,43938.90000003576,45332.40000003576]","[]","[0,3898.699999988079,5322.300000011921,6943.600000023842,9394.400000035763,10912.600000023842,12078.699999988079,13325.300000011921,14783.199999988079,16287.300000011921,17778.19999998808,21015.19999998808,22711.400000035763,24176.400000035763,25449.600000023842,26839,28238.19999998808,29951,31664.100000023842,33284.30000001192,34758.90000003576,37819.40000003576,39439.30000001192,40961.69999998808,42709.69999998808,43938.90000003576,45332.40000003576,47390.19999998808]","0.5909090909090909","0.3333333333333333","0","","","","","","","","","","","","","","","","","","","","","","","","","","","","",""
"9762","","","","survey-template","8","483233","0.0-4.0-4.0","76","1","2025-07-30 09:09:32","36c45c0696341be0efffe67d72a12abb","105.12.0.60","Mozilla/5.0 (Windows NT 10.0; Win64; x64) AppleWebKit/537.36 (KHTML, like Gecko) Chrome/138.0.0.0 Safari/537.36","WebKit","Chrome","138.0.0.0","Windows","10.0","https://app.prolific.com/","en-US,en;q=0.9","67895942fcb6400a74aebfca","687a19d2168e237449fb8af4","6889e01bea686771318410e3","0","67895942fcb6400a74aebfca","0","2025-07-30T18:17:13.578Z","","","","stress","{""Q01"":""1"",""Q02"":""5"",""Q03"":""0""}","[0,1,2]","[""Q01"",""Q02"",""Q03""]","[4708.300000011921,6449.5,8065.800000011921]","[]","[4708.300000011921,6449.5,8065.800000011921,9759.5]","0.6666666666666666","0.5","0","","","","","","","","","","","","","","","","","","","","","","","","","","","","",""
"67488","","","","instructions","9","550723","0.0-5.0-0.0","76","1","2025-07-30 09:09:32","36c45c0696341be0efffe67d72a12abb","105.12.0.60","Mozilla/5.0 (Windows NT 10.0; Win64; x64) AppleWebKit/537.36 (KHTML, like Gecko) Chrome/138.0.0.0 Safari/537.36","WebKit","Chrome","138.0.0.0","Windows","10.0","https://app.prolific.com/","en-US,en;q=0.9","67895942fcb6400a74aebfca","687a19d2168e237449fb8af4","6889e01bea686771318410e3","0","67895942fcb6400a74aebfca","0","","","","","","","","","","","","","","","[{""page_index"":0,""viewing_time"":67487}]","","","","","","","","","","","","","","","","","","","","","","","","","","","",""
"7749","","<p>Before you start with this game please answer the following three questions yourself. </p>
  <p>Through this game, we measure several aspects of your cognitive performance, such as reaction times, multi-tasking capabilities </p>
  <p>and the ability to assess the situation you are in.</p>
  <p></p>
  <p><b>How good do you usually are in such tasks?</b></p>","74","html-slider-response","10","558479","0.0-6.0-0.0","76","1","2025-07-30 09:09:32","36c45c0696341be0efffe67d72a12abb","105.12.0.60","Mozilla/5.0 (Windows NT 10.0; Win64; x64) AppleWebKit/537.36 (KHTML, like Gecko) Chrome/138.0.0.0 Safari/537.36","WebKit","Chrome","138.0.0.0","Windows","10.0","https://app.prolific.com/","en-US,en;q=0.9","67895942fcb6400a74aebfca","687a19d2168e237449fb8af4","6889e01bea686771318410e3","0","67895942fcb6400a74aebfca","0","2025-07-30T18:18:28.824Z","","","","PreSkillQ","","","","","","","","","","","50","","","","","","","","","","","","","","","","","","","","","","","","","","",""
"7816","","<div style=""width:500px;"">
  <p>How well do you think you will perform in this task compared to other participants?</p>
  </div>","90","html-slider-response","11","566298","0.0-6.0-1.0","76","1","2025-07-30 09:09:32","36c45c0696341be0efffe67d72a12abb","105.12.0.60","Mozilla/5.0 (Windows NT 10.0; Win64; x64) AppleWebKit/537.36 (KHTML, like Gecko) Chrome/138.0.0.0 Safari/537.36","WebKit","Chrome","138.0.0.0","Windows","10.0","https://app.prolific.com/","en-US,en;q=0.9","67895942fcb6400a74aebfca","687a19d2168e237449fb8af4","6889e01bea686771318410e3","0","67895942fcb6400a74aebfca","0","2025-07-30T18:18:36.643Z","","","","PrePerfQ","","","","","","","","","","","50","","","","","","","","","","","","","","","","","","","","","","","","","","",""
"4623","","<div style=""width:500px;"">
  <p>What best describes how you currently feel?</p>
  </div>","76","html-slider-response","12","570923","0.0-6.0-2.0","76","1","2025-07-30 09:09:32","36c45c0696341be0efffe67d72a12abb","105.12.0.60","Mozilla/5.0 (Windows NT 10.0; Win64; x64) AppleWebKit/537.36 (KHTML, like Gecko) Chrome/138.0.0.0 Safari/537.36","WebKit","Chrome","138.0.0.0","Windows","10.0","https://app.prolific.com/","en-US,en;q=0.9","67895942fcb6400a74aebfca","687a19d2168e237449fb8af4","6889e01bea686771318410e3","0","67895942fcb6400a74aebfca","0","2025-07-30T18:18:41.268Z","","","","PreMotivationQ","","","","","","","","","","","50","","","","","","","","","","","","","","","","","","","","","","","","","","",""
"","","","","ctl-task-cpt","13","599275","0.0-7.0-0.0","76","1","2025-07-30 09:09:32","36c45c0696341be0efffe67d72a12abb","105.12.0.60","Mozilla/5.0 (Windows NT 10.0; Win64; x64) AppleWebKit/537.36 (KHTML, like Gecko) Chrome/138.0.0.0 Safari/537.36","WebKit","Chrome","138.0.0.0","Windows","10.0","https://app.prolific.com/","en-US,en;q=0.9","67895942fcb6400a74aebfca","687a19d2168e237449fb8af4","6889e01bea686771318410e3","0","67895942fcb6400a74aebfca","0","2025-07-30T18:19:09.620Z","","","","","","","","","","","","","","","","win-only","0","g1:NW,g2:SE","1","1","0","573930.3","4993.8","10003.1","25344","1","4","8","6","2","8","8","8","0","0.06060606060606061","3033.7","3000","765","[""down"",""right""]","{""num_key_presses"":6,""num_perfect"":6,""num_errors"":0,""num_randdir"":0,""num_randdir_good_moves"":0,""num_whilered"":0,""num_whileblue"":0,""num_blue"":0,""num_good_moves"":6}","[294.22232142857143,303.12857142857143,0.3,294.22232142857143,303.12857142857143,102.7,294.22232142857143,303.12857142857143,203,294.22232142857143,303.12857142857143,308.4,294.22232142857143,303.12857142857143,412.1,294.22232142857143,303.12857142857143,513.6,294.22232142857143,303.12857142857143,617,294.22232142857143,303.12857142857143,725.7,294.22232142857143,303.12857142857143,828,294.22232142857143,303.12857142857143,932.8,294.22232142857143,303.12857142857143,1032.9,294.22232142857143,303.12857142857143,1137.5,294.22232142857143,303.12857142857143,1237.9,294.22232142857143,303.12857142857143,1342.1,294.22232142857143,303.12857142857143,1447,294.22232142857143,303.12857142857143,1558.9,294.22232142857143,303.12857142857143,1663.3,294.22232142857143,303.12857142857143,1768.5,294.22232142857143,303.12857142857143,1874.3,294.22232142857143,303.12857142857143,1974.8,294.22232142857143,303.12857142857143,2074.8,294.22232142857143,303.12857142857143,2175,321.22232142857143,336.12857142857143,2275.3,483.22232142857143,478.12857142857143,2377.4,511.22232142857143,499.12857142857143,2477.4,529.2223214285714,511.12857142857143,2578.6,558.2223214285714,526.1285714285714,2682.6,572.2223214285714,534.1285714285714,2783.2,572.2223214285714,534.1285714285714,2883.4,572.2223214285714,534.1285714285714,2983.4,572.2223214285714,534.1285714285714,3083.7,572.2223214285714,534.1285714285714,3183.9,572.2223214285714,534.1285714285714,3283.9,572.2223214285714,534.1285714285714,3392.6,572.2223214285714,534.1285714285714,3493,572.2223214285714,534.1285714285714,3598.2,572.2223214285714,534.1285714285714,3698.4,572.2223214285714,534.1285714285714,3798.7,572.2223214285714,534.1285714285714,3908.2,572.2223214285714,534.1285714285714,4013.3,572.2223214285714,534.1285714285714,4118.3,572.2223214285714,534.1285714285714,4218.6,572.2223214285714,534.1285714285714,4323.9,572.2223214285714,534.1285714285714,4424.4,572.2223214285714,534.1285714285714,4527.2,572.2223214285714,534.1285714285714,4627.5,572.2223214285714,534.1285714285714,4732.4,572.2223214285714,534.1285714285714,4833.1,572.2223214285714,534.1285714285714,4940.9]","[1551.5,1551.4,1000,0.1,551.4,""smooth"",""down"",""down"",""good_move"",4429.7,2877.5,2330.4,1552.2,547.1,""smooth"",""down"",""down"",""good_move"",6645.5,2215.7,1870,4429.8,345.7,""smooth"",""down"",""down"",""good_move"",9379.6,2734,2303.6,6645.6,430.4,""smooth"",""right"",""right"",""good_move"",12627.3,3246.4,2876.9,9380.9,369.5,""smooth"",""right"",""right"",""good_move"",15235.7,2608.2,2232.3,12627.6,375.9,""smooth"",""right"",""right"",""good_move""]"
"4939","","<div style=""width:500px;"">
  <p>What determined the result of this run?</p>
  </div>","99","html-slider-response","14","604215","0.0-7.0-1.0","76","1","2025-07-30 09:09:32","36c45c0696341be0efffe67d72a12abb","105.12.0.60","Mozilla/5.0 (Windows NT 10.0; Win64; x64) AppleWebKit/537.36 (KHTML, like Gecko) Chrome/138.0.0.0 Safari/537.36","WebKit","Chrome","138.0.0.0","Windows","10.0","https://app.prolific.com/","en-US,en;q=0.9","67895942fcb6400a74aebfca","687a19d2168e237449fb8af4","6889e01bea686771318410e3","0","67895942fcb6400a74aebfca","0","2025-07-30T18:19:14.560Z","","","","AttribQ","","","","","","","","","","","50","","","","","","","","","","","","","","","","","","","","","","","","","","",""
"3465","","<div style=""width:500px;"">
  <p>How much control did you have over the ball?</p>
  </div>","96","html-slider-response","15","607681","0.0-7.0-2.0","76","1","2025-07-30 09:09:32","36c45c0696341be0efffe67d72a12abb","105.12.0.60","Mozilla/5.0 (Windows NT 10.0; Win64; x64) AppleWebKit/537.36 (KHTML, like Gecko) Chrome/138.0.0.0 Safari/537.36","WebKit","Chrome","138.0.0.0","Windows","10.0","https://app.prolific.com/","en-US,en;q=0.9","67895942fcb6400a74aebfca","687a19d2168e237449fb8af4","6889e01bea686771318410e3","0","67895942fcb6400a74aebfca","0","2025-07-30T18:19:18.027Z","","","","ControlQ","","","","","","","","","","","50","","","","","","","","","","","","","","","","","","","","","","","","","","",""
"4693","","<div style=""width:500px;"">
  <p>How would you describe your current emotional state?</p>
  </div>","0","html-slider-response","16","612377","0.0-7.0-3.0","76","1","2025-07-30 09:09:32","36c45c0696341be0efffe67d72a12abb","105.12.0.60","Mozilla/5.0 (Windows NT 10.0; Win64; x64) AppleWebKit/537.36 (KHTML, like Gecko) Chrome/138.0.0.0 Safari/537.36","WebKit","Chrome","138.0.0.0","Windows","10.0","https://app.prolific.com/","en-US,en;q=0.9","67895942fcb6400a74aebfca","687a19d2168e237449fb8af4","6889e01bea686771318410e3","0","67895942fcb6400a74aebfca","0","2025-07-30T18:19:22.722Z","","","","StressQ","","","","","","","","","","","50","","","","","","","","","","","","","","","","","","","","","","","","","","",""
"5074","","<div style=""width:500px;"">
  <p>What best describes how you currently feel?</p>
  </div>","100","html-slider-response","17","617453","0.0-7.0-4.0","76","1","2025-07-30 09:09:32","36c45c0696341be0efffe67d72a12abb","105.12.0.60","Mozilla/5.0 (Windows NT 10.0; Win64; x64) AppleWebKit/537.36 (KHTML, like Gecko) Chrome/138.0.0.0 Safari/537.36","WebKit","Chrome","138.0.0.0","Windows","10.0","https://app.prolific.com/","en-US,en;q=0.9","67895942fcb6400a74aebfca","687a19d2168e237449fb8af4","6889e01bea686771318410e3","0","67895942fcb6400a74aebfca","0","2025-07-30T18:19:27.798Z","","","","MotivationQ","","","","","","","","","","","50","","","","","","","","","","","","","","","","","","","","","","","","","","",""
"","","","","ctl-task-cpt","18","659653","0.0-7.0-0.1","76","1","2025-07-30 09:09:32","36c45c0696341be0efffe67d72a12abb","105.12.0.60","Mozilla/5.0 (Windows NT 10.0; Win64; x64) AppleWebKit/537.36 (KHTML, like Gecko) Chrome/138.0.0.0 Safari/537.36","WebKit","Chrome","138.0.0.0","Windows","10.0","https://app.prolific.com/","en-US,en;q=0.9","67895942fcb6400a74aebfca","687a19d2168e237449fb8af4","6889e01bea686771318410e3","0","67895942fcb6400a74aebfca","0","2025-07-30T18:20:09.998Z","","","","","","","","","","","","","","","","win-only","3","g1:SW,g2:NE","0.9","2","0","620457","3035","8036.2","39181.2","1","4","4","6","2","-4","-5","3","8","0.022727272727272728","1786.8","3000","-3000","[""up"",""right""]","{""num_key_presses"":8,""num_perfect"":6,""num_errors"":1,""num_randdir"":1,""num_randdir_good_moves"":0,""num_whilered"":0,""num_whileblue"":0,""num_blue"":2,""num_good_moves"":6}","[292.22232142857143,294.12857142857143,0.3,292.22232142857143,294.12857142857143,101.3,292.22232142857143,294.12857142857143,205.3,292.22232142857143,294.12857142857143,305.4,292.22232142857143,294.12857142857143,406.1,292.22232142857143,294.12857142857143,506.6,292.22232142857143,294.12857142857143,610.6,292.22232142857143,294.12857142857143,710.9,292.22232142857143,294.12857142857143,811.1,292.22232142857143,294.12857142857143,916.4,402.22232142857143,129.12857142857143,1020.3,465.22232142857143,47.128571428571426,1120.6,498.22232142857143,6.128571428571426,1222,508.22232142857143,-2.8714285714285737,1326.6,515.2223214285714,-1.8714285714285737,1430.3,530.2223214285714,19.128571428571426,1531.2,541.2223214285714,32.128571428571426,1636.1,541.2223214285714,32.128571428571426,1740.8,541.2223214285714,32.128571428571426,1841.5,541.2223214285714,32.128571428571426,1946.9,541.2223214285714,32.128571428571426,2050.7,541.2223214285714,32.128571428571426,2151.4,541.2223214285714,32.128571428571426,2256.2,541.2223214285714,32.128571428571426,2356.4,541.2223214285714,32.128571428571426,2456.5,541.2223214285714,32.128571428571426,2560.8,541.2223214285714,32.128571428571426,2666.5,541.2223214285714,32.128571428571426,2770.7,541.2223214285714,32.128571428571426,2871.2,541.2223214285714,32.128571428571426,2975.8,541.2223214285714,32.128571428571426,3075.9,541.2223214285714,32.128571428571426,3177.2,541.2223214285714,32.128571428571426,3280.6,541.2223214285714,32.128571428571426,3381.3,541.2223214285714,32.128571428571426,3486.2,541.2223214285714,32.128571428571426,3591.7,541.2223214285714,32.128571428571426,3695.9,541.2223214285714,32.128571428571426,3796.2,541.2223214285714,32.128571428571426,3902,541.2223214285714,32.128571428571426,4006.1,541.2223214285714,32.128571428571426,4106.1,541.2223214285714,32.128571428571426,4210.9,541.2223214285714,32.128571428571426,4311.5,541.2223214285714,32.128571428571426,4415.2,541.2223214285714,32.128571428571426,4516.1,541.2223214285714,32.128571428571426,4621.1,541.2223214285714,32.128571428571426,4725.4,541.2223214285714,32.128571428571426,4825.8,541.2223214285714,32.128571428571426,4926.1]","[893.3,893.3,1000,0,-106.7,""error"",""-"",""-"",""no_move"",5142.4,4248.8,2815.3,1895.3,431.8,""smooth"",""up"",""up"",""good_move"",11077.3,5934.1,2457.1,8210.3,409.9,""smooth"",""up"",""up"",""good_move"",17146.6,6069.1,2263.6,14525.3,357.7,""smooth"",""up"",""up"",""good_move"",20893,3746.3,3274,17146.7,472.3,""oops"",""right"",""left"",""bad_move"",23467.7,2574.3,2188.8,20893.5,385.4,""smooth"",""right"",""right"",""good_move"",26033.4,2565.2,2252,23468.3,313.1,""smooth"",""right"",""right"",""good_move"",29302.3,3268.7,2939.8,26033.6,328.9,""smooth"",""right"",""right"",""good_move""]"
"5239","","<div style=""width:500px;"">
  <p>What determined the result of this run?</p>
  </div>","30","html-slider-response","19","664893","0.0-7.0-1.1","76","1","2025-07-30 09:09:32","36c45c0696341be0efffe67d72a12abb","105.12.0.60","Mozilla/5.0 (Windows NT 10.0; Win64; x64) AppleWebKit/537.36 (KHTML, like Gecko) Chrome/138.0.0.0 Safari/537.36","WebKit","Chrome","138.0.0.0","Windows","10.0","https://app.prolific.com/","en-US,en;q=0.9","67895942fcb6400a74aebfca","687a19d2168e237449fb8af4","6889e01bea686771318410e3","0","67895942fcb6400a74aebfca","0","2025-07-30T18:20:15.238Z","","","","AttribQ","","","","","","","","","","","50","","","","","","","","","","","","","","","","","","","","","","","","","","",""
"3716","","<div style=""width:500px;"">
  <p>How much control did you have over the ball?</p>
  </div>","43","html-slider-response","20","668610","0.0-7.0-2.1","76","1","2025-07-30 09:09:32","36c45c0696341be0efffe67d72a12abb","105.12.0.60","Mozilla/5.0 (Windows NT 10.0; Win64; x64) AppleWebKit/537.36 (KHTML, like Gecko) Chrome/138.0.0.0 Safari/537.36","WebKit","Chrome","138.0.0.0","Windows","10.0","https://app.prolific.com/","en-US,en;q=0.9","67895942fcb6400a74aebfca","687a19d2168e237449fb8af4","6889e01bea686771318410e3","0","67895942fcb6400a74aebfca","0","2025-07-30T18:20:18.955Z","","","","ControlQ","","","","","","","","","","","50","","","","","","","","","","","","","","","","","","","","","","","","","","",""
"3384","","<div style=""width:500px;"">
  <p>How would you describe your current emotional state?</p>
  </div>","98","html-slider-response","21","671996","0.0-7.0-3.1","76","1","2025-07-30 09:09:32","36c45c0696341be0efffe67d72a12abb","105.12.0.60","Mozilla/5.0 (Windows NT 10.0; Win64; x64) AppleWebKit/537.36 (KHTML, like Gecko) Chrome/138.0.0.0 Safari/537.36","WebKit","Chrome","138.0.0.0","Windows","10.0","https://app.prolific.com/","en-US,en;q=0.9","67895942fcb6400a74aebfca","687a19d2168e237449fb8af4","6889e01bea686771318410e3","0","67895942fcb6400a74aebfca","0","2025-07-30T18:20:22.342Z","","","","StressQ","","","","","","","","","","","50","","","","","","","","","","","","","","","","","","","","","","","","","","",""
"3772","","<div style=""width:500px;"">
  <p>What best describes how you currently feel?</p>
  </div>","25","html-slider-response","22","675771","0.0-7.0-4.1","76","1","2025-07-30 09:09:32","36c45c0696341be0efffe67d72a12abb","105.12.0.60","Mozilla/5.0 (Windows NT 10.0; Win64; x64) AppleWebKit/537.36 (KHTML, like Gecko) Chrome/138.0.0.0 Safari/537.36","WebKit","Chrome","138.0.0.0","Windows","10.0","https://app.prolific.com/","en-US,en;q=0.9","67895942fcb6400a74aebfca","687a19d2168e237449fb8af4","6889e01bea686771318410e3","0","67895942fcb6400a74aebfca","0","2025-07-30T18:20:26.116Z","","","","MotivationQ","","","","","","","","","","","50","","","","","","","","","","","","","","","","","","","","","","","","","","",""
"","","","","ctl-task-cpt","23","710778","0.0-7.0-0.2","76","1","2025-07-30 09:09:32","36c45c0696341be0efffe67d72a12abb","105.12.0.60","Mozilla/5.0 (Windows NT 10.0; Win64; x64) AppleWebKit/537.36 (KHTML, like Gecko) Chrome/138.0.0.0 Safari/537.36","WebKit","Chrome","138.0.0.0","Windows","10.0","https://app.prolific.com/","en-US,en;q=0.9","67895942fcb6400a74aebfca","687a19d2168e237449fb8af4","6889e01bea686771318410e3","0","67895942fcb6400a74aebfca","0","2025-07-30T18:21:01.124Z","","","","","","","","","","","","","","","","win-only","0","g1:NW,g2:SE","0.8","3","0","678776.8","1438.5","6440.9","31986.5","1","4","8","6","2","8","8","11","3","0.08333333333333333","1740.3","3000","220","[""down"",""right""]","{""num_key_presses"":6,""num_perfect"":4,""num_errors"":0,""num_randdir"":2,""num_randdir_good_moves"":2,""num_whilered"":0,""num_whileblue"":0,""num_blue"":3,""num_good_moves"":6}","[297.22232142857143,302.12857142857143,0.1,297.22232142857143,302.12857142857143,102.2,297.22232142857143,302.12857142857143,207.7,297.22232142857143,302.12857142857143,313,297.22232142857143,302.12857142857143,417.5,297.22232142857143,302.12857142857143,522.1,297.22232142857143,302.12857142857143,627.3,297.22232142857143,302.12857142857143,727.3,297.22232142857143,302.12857142857143,832.1,300.22232142857143,304.12857142857143,932.6,451.22232142857143,428.12857142857143,1037.1,517.2223214285714,487.12857142857143,1142.4,528.2223214285714,495.12857142857143,1242.4,537.2223214285714,510.12857142857143,1342.8,553.2223214285714,536.1285714285714,1447.1,554.2223214285714,537.1285714285714,1547.2,554.2223214285714,537.1285714285714,1647.6,554.2223214285714,537.1285714285714,1752.7,554.2223214285714,537.1285714285714,1857.3,554.2223214285714,537.1285714285714,1958.1,554.2223214285714,537.1285714285714,2062.9,554.2223214285714,537.1285714285714,2167.4,554.2223214285714,537.1285714285714,2267.6,554.2223214285714,537.1285714285714,2372,554.2223214285714,537.1285714285714,2472.2,554.2223214285714,537.1285714285714,2572.9,554.2223214285714,537.1285714285714,2673.8,554.2223214285714,537.1285714285714,2776.9,554.2223214285714,537.1285714285714,2878.6,554.2223214285714,537.1285714285714,2982.2,554.2223214285714,537.1285714285714,3083.1,554.2223214285714,537.1285714285714,3187.8,554.2223214285714,537.1285714285714,3287.9,554.2223214285714,537.1285714285714,3391.9,554.2223214285714,537.1285714285714,3492,554.2223214285714,537.1285714285714,3592.6,554.2223214285714,537.1285714285714,3697.3,554.2223214285714,537.1285714285714,3798.4,554.2223214285714,537.1285714285714,3901.8,554.2223214285714,537.1285714285714,4002.3,554.2223214285714,537.1285714285714,4102.5,554.2223214285714,537.1285714285714,4207.6,554.2223214285714,537.1285714285714,4307.8,554.2223214285714,537.1285714285714,4412.1,554.2223214285714,537.1285714285714,4517.7,554.2223214285714,537.1285714285714,4618.1,554.2223214285714,537.1285714285714,4722.5,554.2223214285714,537.1285714285714,4822.9,554.2223214285714,537.1285714285714,4926.8]","[1423.9,1423.9,1000,0,423.9,""oops"",""down"",""down"",""good_move"",4006.2,2581.7,2166.1,1424.5,415.6,""smooth"",""down"",""down"",""good_move"",12719.1,8712.6,2338.5,9989.9,390.7,""oops"",""down"",""right"",""good_move"",19423.1,6703.8,2642.8,16010.1,770.2,""smooth"",""down"",""down"",""good_move"",22645.5,3222.3,2766.1,19423.3,456.2,""smooth"",""right"",""right"",""good_move"",25446.7,2800.8,2436.6,22646,364.2,""smooth"",""right"",""right"",""good_move""]"
"5067","","<div style=""width:500px;"">
  <p>What determined the result of this run?</p>
  </div>","100","html-slider-response","24","715847","0.0-7.0-1.2","76","1","2025-07-30 09:09:32","36c45c0696341be0efffe67d72a12abb","105.12.0.60","Mozilla/5.0 (Windows NT 10.0; Win64; x64) AppleWebKit/537.36 (KHTML, like Gecko) Chrome/138.0.0.0 Safari/537.36","WebKit","Chrome","138.0.0.0","Windows","10.0","https://app.prolific.com/","en-US,en;q=0.9","67895942fcb6400a74aebfca","687a19d2168e237449fb8af4","6889e01bea686771318410e3","0","67895942fcb6400a74aebfca","0","2025-07-30T18:21:06.192Z","","","","AttribQ","","","","","","","","","","","50","","","","","","","","","","","","","","","","","","","","","","","","","","",""
"5950","","<div style=""width:500px;"">
  <p>How much control did you have over the ball?</p>
  </div>","78","html-slider-response","25","721799","0.0-7.0-2.2","76","1","2025-07-30 09:09:32","36c45c0696341be0efffe67d72a12abb","105.12.0.60","Mozilla/5.0 (Windows NT 10.0; Win64; x64) AppleWebKit/537.36 (KHTML, like Gecko) Chrome/138.0.0.0 Safari/537.36","WebKit","Chrome","138.0.0.0","Windows","10.0","https://app.prolific.com/","en-US,en;q=0.9","67895942fcb6400a74aebfca","687a19d2168e237449fb8af4","6889e01bea686771318410e3","0","67895942fcb6400a74aebfca","0","2025-07-30T18:21:12.144Z","","","","ControlQ","","","","","","","","","","","50","","","","","","","","","","","","","","","","","","","","","","","","","","",""
"4269","","<div style=""width:500px;"">
  <p>How would you describe your current emotional state?</p>
  </div>","26","html-slider-response","26","726069","0.0-7.0-3.2","76","1","2025-07-30 09:09:32","36c45c0696341be0efffe67d72a12abb","105.12.0.60","Mozilla/5.0 (Windows NT 10.0; Win64; x64) AppleWebKit/537.36 (KHTML, like Gecko) Chrome/138.0.0.0 Safari/537.36","WebKit","Chrome","138.0.0.0","Windows","10.0","https://app.prolific.com/","en-US,en;q=0.9","67895942fcb6400a74aebfca","687a19d2168e237449fb8af4","6889e01bea686771318410e3","0","67895942fcb6400a74aebfca","0","2025-07-30T18:21:16.414Z","","","","StressQ","","","","","","","","","","","50","","","","","","","","","","","","","","","","","","","","","","","","","","",""
"2984","","<div style=""width:500px;"">
  <p>What best describes how you currently feel?</p>
  </div>","87","html-slider-response","27","729054","0.0-7.0-4.2","76","1","2025-07-30 09:09:32","36c45c0696341be0efffe67d72a12abb","105.12.0.60","Mozilla/5.0 (Windows NT 10.0; Win64; x64) AppleWebKit/537.36 (KHTML, like Gecko) Chrome/138.0.0.0 Safari/537.36","WebKit","Chrome","138.0.0.0","Windows","10.0","https://app.prolific.com/","en-US,en;q=0.9","67895942fcb6400a74aebfca","687a19d2168e237449fb8af4","6889e01bea686771318410e3","0","67895942fcb6400a74aebfca","0","2025-07-30T18:21:19.400Z","","","","MotivationQ","","","","","","","","","","","50","","","","","","","","","","","","","","","","","","","","","","","","","","",""
"","","","","ctl-task-cpt","28","758102","0.0-7.0-0.3","76","1","2025-07-30 09:09:32","36c45c0696341be0efffe67d72a12abb","105.12.0.60","Mozilla/5.0 (Windows NT 10.0; Win64; x64) AppleWebKit/537.36 (KHTML, like Gecko) Chrome/138.0.0.0 Safari/537.36","WebKit","Chrome","138.0.0.0","Windows","10.0","https://app.prolific.com/","en-US,en;q=0.9","67895942fcb6400a74aebfca","687a19d2168e237449fb8af4","6889e01bea686771318410e3","0","67895942fcb6400a74aebfca","0","2025-07-30T18:21:48.447Z","","","","","","","","","","","","","","","","win-only","3","g1:SW,g2:NE","0.7","4","0","732060.9","1364.6","6367","26026.5","1","4","4","6","2","4","3","14","11","0.10606060606060606","2235.8","3000","705","[""up"",""right""]","{""num_key_presses"":7,""num_perfect"":5,""num_errors"":1,""num_randdir"":1,""num_randdir_good_moves"":1,""num_whilered"":0,""num_whileblue"":0,""num_blue"":0,""num_good_moves"":6}","[292.22232142857143,295.12857142857143,0.2,292.22232142857143,295.12857142857143,101.6,292.22232142857143,295.12857142857143,206.4,292.22232142857143,295.12857142857143,310.9,292.22232142857143,295.12857142857143,411.4,292.22232142857143,295.12857142857143,518.6,292.22232142857143,295.12857142857143,621.6,292.22232142857143,295.12857142857143,722.3,292.22232142857143,295.12857142857143,827,292.22232142857143,295.12857142857143,931.3,292.22232142857143,295.12857142857143,1031.3,300.22232142857143,286.12857142857143,1136.6,528.2223214285714,45.128571428571426,1236.6,585.2223214285714,-10.871428571428574,1341.3,595.2223214285714,-20.871428571428574,1441.3,596.2223214285714,-20.871428571428574,1542.5,596.2223214285714,-20.871428571428574,1645.7,550.2223214285714,36.128571428571426,1745.7,532.2223214285714,59.128571428571426,1845.8,527.2223214285714,65.12857142857143,1946.1,525.2223214285714,69.12857142857143,2051.3,525.2223214285714,69.12857142857143,2156.8,525.2223214285714,69.12857142857143,2260.9,525.2223214285714,69.12857142857143,2366.5,525.2223214285714,69.12857142857143,2471.1,525.2223214285714,69.12857142857143,2572.3,525.2223214285714,69.12857142857143,2676.1,525.2223214285714,69.12857142857143,2776.6,525.2223214285714,69.12857142857143,2876.7,525.2223214285714,69.12857142857143,2981.5,525.2223214285714,69.12857142857143,3086.1,525.2223214285714,69.12857142857143,3191,525.2223214285714,69.12857142857143,3291.8,525.2223214285714,69.12857142857143,3398.2,525.2223214285714,69.12857142857143,3501.6,525.2223214285714,69.12857142857143,3607,525.2223214285714,69.12857142857143,3711.6,525.2223214285714,69.12857142857143,3812.5,525.2223214285714,69.12857142857143,3916.6,525.2223214285714,69.12857142857143,4021.5,525.2223214285714,69.12857142857143,4121.9,525.2223214285714,69.12857142857143,4225.8,525.2223214285714,69.12857142857143,4326.7,525.2223214285714,69.12857142857143,4426.9,525.2223214285714,69.12857142857143,4527.1,525.2223214285714,69.12857142857143,4631.1,525.2223214285714,69.12857142857143,4731.7,525.2223214285714,69.12857142857143,4836.2,525.2223214285714,69.12857142857143,4936.8]","[477.3,477.3,1000,0,-522.7,""error"",""-"",""-"",""no_move"",4786.2,4308.7,2886.2,1479.4,420.6,""smooth"",""right"",""right"",""good_move"",7980.5,3193.5,2597.9,4787,595.6,""oops"",""right"",""right"",""good_move"",10410.9,2430.1,2041.5,7980.8,388.6,""smooth"",""right"",""right"",""good_move"",12707.9,2296.8,1933.1,10411.1,363.7,""smooth"",""up"",""up"",""good_move"",16492,3783.4,3440.3,12708.7,343,""smooth"",""up"",""up"",""good_move"",19567.2,3075,2678.7,16492.3,396.2,""smooth"",""up"",""up"",""good_move""]"
"5826","","<div style=""width:500px;"">
  <p>What determined the result of this run?</p>
  </div>","96","html-slider-response","29","763929","0.0-7.0-1.3","76","1","2025-07-30 09:09:32","36c45c0696341be0efffe67d72a12abb","105.12.0.60","Mozilla/5.0 (Windows NT 10.0; Win64; x64) AppleWebKit/537.36 (KHTML, like Gecko) Chrome/138.0.0.0 Safari/537.36","WebKit","Chrome","138.0.0.0","Windows","10.0","https://app.prolific.com/","en-US,en;q=0.9","67895942fcb6400a74aebfca","687a19d2168e237449fb8af4","6889e01bea686771318410e3","0","67895942fcb6400a74aebfca","0","2025-07-30T18:21:54.274Z","","","","AttribQ","","","","","","","","","","","50","","","","","","","","","","","","","","","","","","","","","","","","","","",""
"5538","","<div style=""width:500px;"">
  <p>How much control did you have over the ball?</p>
  </div>","80","html-slider-response","30","769468","0.0-7.0-2.3","76","1","2025-07-30 09:09:32","36c45c0696341be0efffe67d72a12abb","105.12.0.60","Mozilla/5.0 (Windows NT 10.0; Win64; x64) AppleWebKit/537.36 (KHTML, like Gecko) Chrome/138.0.0.0 Safari/537.36","WebKit","Chrome","138.0.0.0","Windows","10.0","https://app.prolific.com/","en-US,en;q=0.9","67895942fcb6400a74aebfca","687a19d2168e237449fb8af4","6889e01bea686771318410e3","0","67895942fcb6400a74aebfca","0","2025-07-30T18:21:59.813Z","","","","ControlQ","","","","","","","","","","","50","","","","","","","","","","","","","","","","","","","","","","","","","","",""
"5503","","<div style=""width:500px;"">
  <p>How would you describe your current emotional state?</p>
  </div>","20","html-slider-response","31","774973","0.0-7.0-3.3","76","1","2025-07-30 09:09:32","36c45c0696341be0efffe67d72a12abb","105.12.0.60","Mozilla/5.0 (Windows NT 10.0; Win64; x64) AppleWebKit/537.36 (KHTML, like Gecko) Chrome/138.0.0.0 Safari/537.36","WebKit","Chrome","138.0.0.0","Windows","10.0","https://app.prolific.com/","en-US,en;q=0.9","67895942fcb6400a74aebfca","687a19d2168e237449fb8af4","6889e01bea686771318410e3","0","67895942fcb6400a74aebfca","0","2025-07-30T18:22:05.318Z","","","","StressQ","","","","","","","","","","","50","","","","","","","","","","","","","","","","","","","","","","","","","","",""
"4559","","<div style=""width:500px;"">
  <p>What best describes how you currently feel?</p>
  </div>","100","html-slider-response","32","779534","0.0-7.0-4.3","76","1","2025-07-30 09:09:32","36c45c0696341be0efffe67d72a12abb","105.12.0.60","Mozilla/5.0 (Windows NT 10.0; Win64; x64) AppleWebKit/537.36 (KHTML, like Gecko) Chrome/138.0.0.0 Safari/537.36","WebKit","Chrome","138.0.0.0","Windows","10.0","https://app.prolific.com/","en-US,en;q=0.9","67895942fcb6400a74aebfca","687a19d2168e237449fb8af4","6889e01bea686771318410e3","0","67895942fcb6400a74aebfca","0","2025-07-30T18:22:09.879Z","","","","MotivationQ","","","","","","","","","","","50","","","","","","","","","","","","","","","","","","","","","","","","","","",""
"","","","","ctl-task-cpt","33","821411","0.0-7.0-0.4","76","1","2025-07-30 09:09:32","36c45c0696341be0efffe67d72a12abb","105.12.0.60","Mozilla/5.0 (Windows NT 10.0; Win64; x64) AppleWebKit/537.36 (KHTML, like Gecko) Chrome/138.0.0.0 Safari/537.36","WebKit","Chrome","138.0.0.0","Windows","10.0","https://app.prolific.com/","en-US,en;q=0.9","67895942fcb6400a74aebfca","687a19d2168e237449fb8af4","6889e01bea686771318410e3","0","67895942fcb6400a74aebfca","0","2025-07-30T18:22:51.756Z","","","","","","","","","","","","","","","","win-only","0","g1:NW,g2:SE","0.6","5","0","782539.8","2139.2","7141.6","38856.6","1","4","8","6","2","-8","-9","5","14","0.03787878787878788","2050.5","3000","-2585","[""down"",""right""]","{""num_key_presses"":9,""num_perfect"":5,""num_errors"":1,""num_randdir"":3,""num_randdir_good_moves"":1,""num_whilered"":0,""num_whileblue"":1,""num_blue"":2,""num_good_moves"":7}","[301.22232142857143,294.12857142857143,0.3,301.22232142857143,294.12857142857143,102.9,301.22232142857143,294.12857142857143,203.1,301.22232142857143,294.12857142857143,307.8,301.22232142857143,294.12857142857143,412.3,301.22232142857143,294.12857142857143,520.3,301.22232142857143,294.12857142857143,621.8,301.22232142857143,294.12857142857143,722.3,301.22232142857143,294.12857142857143,827.5,301.22232142857143,294.12857142857143,927.7,301.22232142857143,294.12857142857143,1035.3,301.22232142857143,294.12857142857143,1136.6,412.22232142857143,328.12857142857143,1242.8,478.22232142857143,401.12857142857143,1342.8,495.22232142857143,464.12857142857143,1446.6,506.22232142857143,498.12857142857143,1546.8,526.2223214285714,528.1285714285714,1646.9,543.2223214285714,556.1285714285714,1752.5,545.2223214285714,559.1285714285714,1857.4,545.2223214285714,559.1285714285714,1969.1,545.2223214285714,559.1285714285714,2069.3,545.2223214285714,559.1285714285714,2170.5,545.2223214285714,559.1285714285714,2271,545.2223214285714,559.1285714285714,2371.8,545.2223214285714,559.1285714285714,2477.1,545.2223214285714,559.1285714285714,2584.5,545.2223214285714,559.1285714285714,2684.7,545.2223214285714,559.1285714285714,2786.7,545.2223214285714,559.1285714285714,2892.1,545.2223214285714,559.1285714285714,2992.3,545.2223214285714,559.1285714285714,3092.7,545.2223214285714,559.1285714285714,3194.7,545.2223214285714,559.1285714285714,3296.8,545.2223214285714,559.1285714285714,3401.1,545.2223214285714,559.1285714285714,3501.6,545.2223214285714,559.1285714285714,3602.5,545.2223214285714,559.1285714285714,3707.4,545.2223214285714,559.1285714285714,3817.6,545.2223214285714,559.1285714285714,3919.1,545.2223214285714,559.1285714285714,4020.2,545.2223214285714,559.1285714285714,4121.4,545.2223214285714,559.1285714285714,4222,545.2223214285714,559.1285714285714,4327.4,545.2223214285714,559.1285714285714,4435.5,545.2223214285714,559.1285714285714,4537,545.2223214285714,559.1285714285714,4639.2,545.2223214285714,559.1285714285714,4742,545.2223214285714,559.1285714285714,4851.2,545.2223214285714,559.1285714285714,4952.8]","[5264.4,5264.4,2872.3,2016.3,375.8,""smooth"",""down"",""down"",""good_move"",8582.1,3317.3,2858.9,5264.8,458.4,""oops"",""down"",""down"",""good_move"",11660.1,3077.7,2682.8,8582.4,394.9,""smooth"",""down"",""down"",""good_move"",14619.2,2958.8,2532.8,11660.4,426,""oops"",""right"",""up"",""bad_move"",17844.6,3225.1,2863.9,14619.5,361.2,""smooth"",""right"",""right"",""good_move"",20150.8,2305.9,1863.4,17844.9,442.5,""oops"",""right"",""left"",""bad_move"",23345.6,3194.4,2780.1,20151.2,414.3,""smooth"",""down"",""down"",""good_move"",26209.7,2863.9,2497.9,23345.8,366,""smooth"",""right"",""right"",""good_move"",29383,3172.9,2824.4,26210.2,348.4,""while_blue"",""right"",""right"",""good_move""]"
"5548","","<div style=""width:500px;"">
  <p>What determined the result of this run?</p>
  </div>","94","html-slider-response","34","826961","0.0-7.0-1.4","76","1","2025-07-30 09:09:32","36c45c0696341be0efffe67d72a12abb","105.12.0.60","Mozilla/5.0 (Windows NT 10.0; Win64; x64) AppleWebKit/537.36 (KHTML, like Gecko) Chrome/138.0.0.0 Safari/537.36","WebKit","Chrome","138.0.0.0","Windows","10.0","https://app.prolific.com/","en-US,en;q=0.9","67895942fcb6400a74aebfca","687a19d2168e237449fb8af4","6889e01bea686771318410e3","0","67895942fcb6400a74aebfca","0","2025-07-30T18:22:57.306Z","","","","AttribQ","","","","","","","","","","","50","","","","","","","","","","","","","","","","","","","","","","","","","","",""
"200820","","<div style=""width:500px;"">
  <p>How much control did you have over the ball?</p>
  </div>","88","html-slider-response","35","1027782","0.0-7.0-2.4","76","1","2025-07-30 09:09:32","36c45c0696341be0efffe67d72a12abb","105.12.0.60","Mozilla/5.0 (Windows NT 10.0; Win64; x64) AppleWebKit/537.36 (KHTML, like Gecko) Chrome/138.0.0.0 Safari/537.36","WebKit","Chrome","138.0.0.0","Windows","10.0","https://app.prolific.com/","en-US,en;q=0.9","67895942fcb6400a74aebfca","687a19d2168e237449fb8af4","6889e01bea686771318410e3","0","67895942fcb6400a74aebfca","0","2025-07-30T18:26:18.127Z","","","","ControlQ","","","","","","","","","","","50","","","","","","","","","","","","","","","","","","","","","","","","","","",""
"3822","","<div style=""width:500px;"">
  <p>How would you describe your current emotional state?</p>
  </div>","73","html-slider-response","36","1031605","0.0-7.0-3.4","76","1","2025-07-30 09:09:32","36c45c0696341be0efffe67d72a12abb","105.12.0.60","Mozilla/5.0 (Windows NT 10.0; Win64; x64) AppleWebKit/537.36 (KHTML, like Gecko) Chrome/138.0.0.0 Safari/537.36","WebKit","Chrome","138.0.0.0","Windows","10.0","https://app.prolific.com/","en-US,en;q=0.9","67895942fcb6400a74aebfca","687a19d2168e237449fb8af4","6889e01bea686771318410e3","0","67895942fcb6400a74aebfca","0","2025-07-30T18:26:21.950Z","","","","StressQ","","","","","","","","","","","50","","","","","","","","","","","","","","","","","","","","","","","","","","",""
"3574","","<div style=""width:500px;"">
  <p>What best describes how you currently feel?</p>
  </div>","78","html-slider-response","37","1035180","0.0-7.0-4.4","76","1","2025-07-30 09:09:32","36c45c0696341be0efffe67d72a12abb","105.12.0.60","Mozilla/5.0 (Windows NT 10.0; Win64; x64) AppleWebKit/537.36 (KHTML, like Gecko) Chrome/138.0.0.0 Safari/537.36","WebKit","Chrome","138.0.0.0","Windows","10.0","https://app.prolific.com/","en-US,en;q=0.9","67895942fcb6400a74aebfca","687a19d2168e237449fb8af4","6889e01bea686771318410e3","0","67895942fcb6400a74aebfca","0","2025-07-30T18:26:25.525Z","","","","MotivationQ","","","","","","","","","","","50","","","","","","","","","","","","","","","","","","","","","","","","","","",""
"","","","","ctl-task-cpt","38","1076777","0.0-7.0-0.5","76","1","2025-07-30 09:09:32","36c45c0696341be0efffe67d72a12abb","105.12.0.60","Mozilla/5.0 (Windows NT 10.0; Win64; x64) AppleWebKit/537.36 (KHTML, like Gecko) Chrome/138.0.0.0 Safari/537.36","WebKit","Chrome","138.0.0.0","Windows","10.0","https://app.prolific.com/","en-US,en;q=0.9","67895942fcb6400a74aebfca","687a19d2168e237449fb8af4","6889e01bea686771318410e3","0","67895942fcb6400a74aebfca","0","2025-07-30T18:27:07.122Z","","","","","","","","","","","","","","","","win-only","1","g1:NE,g2:SW","0.5","6","0","1038184.5","1491.5","6496.7","38576.3","1","4","4","6","2","-4","-5","0","5","0","1875.7","3000","-2755","[""down"",""left""]","{""num_key_presses"":8,""num_perfect"":4,""num_errors"":1,""num_randdir"":3,""num_randdir_good_moves"":0,""num_whilered"":0,""num_whileblue"":1,""num_blue"":3,""num_good_moves"":4}","[297.22232142857143,292.12857142857143,0.2,297.22232142857143,292.12857142857143,100.2,297.22232142857143,292.12857142857143,204.5,297.22232142857143,292.12857142857143,306.7,297.22232142857143,292.12857142857143,409,297.22232142857143,292.12857142857143,509.4,297.22232142857143,292.12857142857143,609.9,297.22232142857143,292.12857142857143,710.4,297.22232142857143,292.12857142857143,815.5,297.22232142857143,292.12857142857143,931.5,297.22232142857143,292.12857142857143,1036.9,279.22232142857143,311.12857142857143,1148.4,155.22232142857143,454.12857142857143,1251.3,106.22232142857143,491.12857142857143,1359.1,69.22232142857143,507.12857142857143,1464.7,57.222321428571426,516.1285714285714,1578.5,48.222321428571426,530.1285714285714,1679.5,48.222321428571426,530.1285714285714,1779.9,48.222321428571426,530.1285714285714,1884.4,48.222321428571426,530.1285714285714,1989.6,48.222321428571426,530.1285714285714,2089.6,48.222321428571426,530.1285714285714,2191.8,48.222321428571426,530.1285714285714,2295,48.222321428571426,530.1285714285714,2399.3,48.222321428571426,530.1285714285714,2501.7,48.222321428571426,530.1285714285714,2604.5,48.222321428571426,530.1285714285714,2709.4,48.222321428571426,530.1285714285714,2823,48.222321428571426,530.1285714285714,2924.6,48.222321428571426,530.1285714285714,3036.6,48.222321428571426,530.1285714285714,3137.1,48.222321428571426,530.1285714285714,3237.2,48.222321428571426,530.1285714285714,3339.2,48.222321428571426,530.1285714285714,3443.7,48.222321428571426,530.1285714285714,3550.2,48.222321428571426,530.1285714285714,3650.9,48.222321428571426,530.1285714285714,3756.4,48.222321428571426,530.1285714285714,3858.9,48.222321428571426,530.1285714285714,3959.3,48.222321428571426,530.1285714285714,4059.7,48.222321428571426,530.1285714285714,4159.9,48.222321428571426,530.1285714285714,4260,48.222321428571426,530.1285714285714,4364.9,48.222321428571426,530.1285714285714,4470.3,48.222321428571426,530.1285714285714,4572.7,48.222321428571426,530.1285714285714,4686.8,48.222321428571426,530.1285714285714,4789.5,48.222321428571426,530.1285714285714,4889.7,48.222321428571426,530.1285714285714,4994.2]","[4561.5,4561.5,2147.3,2004.3,409.9,""oops"",""down"",""right"",""bad_move"",7831.2,3269,2893.8,4562.2,375.2,""oops"",""down"",""right"",""bad_move"",10502.3,2670.9,2279.7,7831.4,391.2,""while_blue"",""down"",""up"",""bad_move"",13541.1,3038.5,2611.1,10502.6,427.4,""smooth"",""down"",""down"",""good_move"",16350.8,2809.5,2418.6,13541.3,390.9,""smooth"",""down"",""down"",""good_move"",23768.9,7417.9,2974.1,20394,400.8,""smooth"",""down"",""down"",""good_move"",26298.5,2529.3,2113.6,23769.2,415.7,""oops"",""down"",""up"",""bad_move"",28976.3,2677.3,2248.5,26299.1,428.8,""smooth"",""down"",""down"",""good_move""]"
"16017","","<div style=""width:500px;"">
  <p>What determined the result of this run?</p>
  </div>","91","html-slider-response","39","1092795","0.0-7.0-1.5","76","1","2025-07-30 09:09:32","36c45c0696341be0efffe67d72a12abb","105.12.0.60","Mozilla/5.0 (Windows NT 10.0; Win64; x64) AppleWebKit/537.36 (KHTML, like Gecko) Chrome/138.0.0.0 Safari/537.36","WebKit","Chrome","138.0.0.0","Windows","10.0","https://app.prolific.com/","en-US,en;q=0.9","67895942fcb6400a74aebfca","687a19d2168e237449fb8af4","6889e01bea686771318410e3","0","67895942fcb6400a74aebfca","0","2025-07-30T18:27:23.140Z","","","","AttribQ","","","","","","","","","","","50","","","","","","","","","","","","","","","","","","","","","","","","","","",""
"4833","","<div style=""width:500px;"">
  <p>How much control did you have over the ball?</p>
  </div>","30","html-slider-response","40","1097629","0.0-7.0-2.5","76","1","2025-07-30 09:09:32","36c45c0696341be0efffe67d72a12abb","105.12.0.60","Mozilla/5.0 (Windows NT 10.0; Win64; x64) AppleWebKit/537.36 (KHTML, like Gecko) Chrome/138.0.0.0 Safari/537.36","WebKit","Chrome","138.0.0.0","Windows","10.0","https://app.prolific.com/","en-US,en;q=0.9","67895942fcb6400a74aebfca","687a19d2168e237449fb8af4","6889e01bea686771318410e3","0","67895942fcb6400a74aebfca","0","2025-07-30T18:27:27.974Z","","","","ControlQ","","","","","","","","","","","50","","","","","","","","","","","","","","","","","","","","","","","","","","",""
"2824","","<div style=""width:500px;"">
  <p>How would you describe your current emotional state?</p>
  </div>","96","html-slider-response","41","1100454","0.0-7.0-3.5","76","1","2025-07-30 09:09:32","36c45c0696341be0efffe67d72a12abb","105.12.0.60","Mozilla/5.0 (Windows NT 10.0; Win64; x64) AppleWebKit/537.36 (KHTML, like Gecko) Chrome/138.0.0.0 Safari/537.36","WebKit","Chrome","138.0.0.0","Windows","10.0","https://app.prolific.com/","en-US,en;q=0.9","67895942fcb6400a74aebfca","687a19d2168e237449fb8af4","6889e01bea686771318410e3","0","67895942fcb6400a74aebfca","0","2025-07-30T18:27:30.799Z","","","","StressQ","","","","","","","","","","","50","","","","","","","","","","","","","","","","","","","","","","","","","","",""
"5390","","<div style=""width:500px;"">
  <p>What best describes how you currently feel?</p>
  </div>","12","html-slider-response","42","1105845","0.0-7.0-4.5","76","1","2025-07-30 09:09:32","36c45c0696341be0efffe67d72a12abb","105.12.0.60","Mozilla/5.0 (Windows NT 10.0; Win64; x64) AppleWebKit/537.36 (KHTML, like Gecko) Chrome/138.0.0.0 Safari/537.36","WebKit","Chrome","138.0.0.0","Windows","10.0","https://app.prolific.com/","en-US,en;q=0.9","67895942fcb6400a74aebfca","687a19d2168e237449fb8af4","6889e01bea686771318410e3","0","67895942fcb6400a74aebfca","0","2025-07-30T18:27:36.190Z","","","","MotivationQ","","","","","","","","","","","50","","","","","","","","","","","","","","","","","","","","","","","","","","",""
"","","","","ctl-task-cpt","43","1129234","0.0-7.0-0.6","76","1","2025-07-30 09:09:32","36c45c0696341be0efffe67d72a12abb","105.12.0.60","Mozilla/5.0 (Windows NT 10.0; Win64; x64) AppleWebKit/537.36 (KHTML, like Gecko) Chrome/138.0.0.0 Safari/537.36","WebKit","Chrome","138.0.0.0","Windows","10.0","https://app.prolific.com/","en-US,en;q=0.9","67895942fcb6400a74aebfca","687a19d2168e237449fb8af4","6889e01bea686771318410e3","0","67895942fcb6400a74aebfca","0","2025-07-30T18:27:59.579Z","","","","","","","","","","","","","","","","win-only","2","g1:SE,g2:NW","0.4","7","0","1108849.3","1686.9","6702","20366.2","1","4","8","6","1","1","1","1","0","0.007575757575757576","2644.3","3000","1395","[""down"",""right""]","{""num_key_presses"":4,""num_perfect"":2,""num_errors"":0,""num_randdir"":2,""num_randdir_good_moves"":2,""num_whilered"":0,""num_whileblue"":0,""num_blue"":1,""num_good_moves"":4}","[297.22232142857143,289.12857142857143,0.1,297.22232142857143,289.12857142857143,106.6,297.22232142857143,289.12857142857143,208.6,297.22232142857143,289.12857142857143,309.4,297.22232142857143,289.12857142857143,413.4,297.22232142857143,289.12857142857143,515,297.22232142857143,289.12857142857143,619.6,297.22232142857143,289.12857142857143,723.2,297.22232142857143,289.12857142857143,823.9,297.22232142857143,289.12857142857143,924.8,297.22232142857143,289.12857142857143,1029,297.22232142857143,289.12857142857143,1134.5,297.22232142857143,289.12857142857143,1238.4,296.22232142857143,289.12857142857143,1342.6,311.22232142857143,297.12857142857143,1443.7,398.22232142857143,381.12857142857143,1544.3,398.22232142857143,381.12857142857143,1644.6,398.22232142857143,381.12857142857143,1749.5,398.22232142857143,381.12857142857143,1854.3,434.22232142857143,413.12857142857143,1954.8,520.2223214285714,497.12857142857143,2055.1,535.2223214285714,523.1285714285714,2157.2,536.2223214285714,528.1285714285714,2259.2,544.2223214285714,550.1285714285714,2364.5,547.2223214285714,556.1285714285714,2464.6,547.2223214285714,556.1285714285714,2568.8,547.2223214285714,556.1285714285714,2669.2,547.2223214285714,556.1285714285714,2771.3,547.2223214285714,556.1285714285714,2871.9,547.2223214285714,556.1285714285714,2974.1,547.2223214285714,556.1285714285714,3076.6,547.2223214285714,556.1285714285714,3179,547.2223214285714,556.1285714285714,3284.4,547.2223214285714,556.1285714285714,3384.5,547.2223214285714,556.1285714285714,3488.9,547.2223214285714,556.1285714285714,3594.2,547.2223214285714,556.1285714285714,3694.3,547.2223214285714,556.1285714285714,3799,547.2223214285714,556.1285714285714,3899.8,547.2223214285714,556.1285714285714,4005.2,547.2223214285714,556.1285714285714,4109.5,547.2223214285714,556.1285714285714,4214.8,547.2223214285714,556.1285714285714,4319.8,547.2223214285714,556.1285714285714,4427.5,547.2223214285714,556.1285714285714,4529.5,547.2223214285714,556.1285714285714,4634.8,547.2223214285714,556.1285714285714,4739.3,547.2223214285714,556.1285714285714,4843.8,547.2223214285714,556.1285714285714,4946]","[1475.7,1475.7,1000,0,475.7,""smooth"",""down"",""down"",""good_move"",4691.8,3215.6,2779.6,1476.2,436,""smooth"",""down"",""down"",""good_move"",7690.6,2998.5,2328.3,4692.1,670.2,""oops"",""right"",""right"",""good_move"",13546.6,5855.7,1773,11320,453.6,""oops"",""right"",""right"",""good_move""]"
"12827","","<div style=""width:500px;"">
  <p>What determined the result of this run?</p>
  </div>","79","html-slider-response","44","1142062","0.0-7.0-1.6","76","1","2025-07-30 09:09:32","36c45c0696341be0efffe67d72a12abb","105.12.0.60","Mozilla/5.0 (Windows NT 10.0; Win64; x64) AppleWebKit/537.36 (KHTML, like Gecko) Chrome/138.0.0.0 Safari/537.36","WebKit","Chrome","138.0.0.0","Windows","10.0","https://app.prolific.com/","en-US,en;q=0.9","67895942fcb6400a74aebfca","687a19d2168e237449fb8af4","6889e01bea686771318410e3","0","67895942fcb6400a74aebfca","0","2025-07-30T18:28:12.407Z","","","","AttribQ","","","","","","","","","","","50","","","","","","","","","","","","","","","","","","","","","","","","","","",""
"3308","","<div style=""width:500px;"">
  <p>How much control did you have over the ball?</p>
  </div>","82","html-slider-response","45","1145373","0.0-7.0-2.6","76","1","2025-07-30 09:09:32","36c45c0696341be0efffe67d72a12abb","105.12.0.60","Mozilla/5.0 (Windows NT 10.0; Win64; x64) AppleWebKit/537.36 (KHTML, like Gecko) Chrome/138.0.0.0 Safari/537.36","WebKit","Chrome","138.0.0.0","Windows","10.0","https://app.prolific.com/","en-US,en;q=0.9","67895942fcb6400a74aebfca","687a19d2168e237449fb8af4","6889e01bea686771318410e3","0","67895942fcb6400a74aebfca","0","2025-07-30T18:28:15.718Z","","","","ControlQ","","","","","","","","","","","50","","","","","","","","","","","","","","","","","","","","","","","","","","",""
"3632","","<div style=""width:500px;"">
  <p>How would you describe your current emotional state?</p>
  </div>","20","html-slider-response","46","1149007","0.0-7.0-3.6","76","1","2025-07-30 09:09:32","36c45c0696341be0efffe67d72a12abb","105.12.0.60","Mozilla/5.0 (Windows NT 10.0; Win64; x64) AppleWebKit/537.36 (KHTML, like Gecko) Chrome/138.0.0.0 Safari/537.36","WebKit","Chrome","138.0.0.0","Windows","10.0","https://app.prolific.com/","en-US,en;q=0.9","67895942fcb6400a74aebfca","687a19d2168e237449fb8af4","6889e01bea686771318410e3","0","67895942fcb6400a74aebfca","0","2025-07-30T18:28:19.353Z","","","","StressQ","","","","","","","","","","","50","","","","","","","","","","","","","","","","","","","","","","","","","","",""
"2865","","<div style=""width:500px;"">
  <p>What best describes how you currently feel?</p>
  </div>","81","html-slider-response","47","1151874","0.0-7.0-4.6","76","1","2025-07-30 09:09:32","36c45c0696341be0efffe67d72a12abb","105.12.0.60","Mozilla/5.0 (Windows NT 10.0; Win64; x64) AppleWebKit/537.36 (KHTML, like Gecko) Chrome/138.0.0.0 Safari/537.36","WebKit","Chrome","138.0.0.0","Windows","10.0","https://app.prolific.com/","en-US,en;q=0.9","67895942fcb6400a74aebfca","687a19d2168e237449fb8af4","6889e01bea686771318410e3","0","67895942fcb6400a74aebfca","0","2025-07-30T18:28:22.219Z","","","","MotivationQ","","","","","","","","","","","50","","","","","","","","","","","","","","","","","","","","","","","","","","",""
"","","","","ctl-task-cpt","48","1195859","0.0-7.0-0.7","76","1","2025-07-30 09:09:32","36c45c0696341be0efffe67d72a12abb","105.12.0.60","Mozilla/5.0 (Windows NT 10.0; Win64; x64) AppleWebKit/537.36 (KHTML, like Gecko) Chrome/138.0.0.0 Safari/537.36","WebKit","Chrome","138.0.0.0","Windows","10.0","https://app.prolific.com/","en-US,en;q=0.9","67895942fcb6400a74aebfca","687a19d2168e237449fb8af4","6889e01bea686771318410e3","0","67895942fcb6400a74aebfca","0","2025-07-30T18:29:06.204Z","","","","","","","","","","","","","","","","win-only","3","g1:SW,g2:NE","0.3","8","0","1154879","1858.7","6861","40966.6","1","4","4","6","2","-4","-4","0","1","0","1857.7","3000","-2875","[""up"",""right""]","{""num_key_presses"":9,""num_perfect"":2,""num_errors"":0,""num_randdir"":7,""num_randdir_good_moves"":3,""num_whilered"":0,""num_whileblue"":0,""num_blue"":1,""num_good_moves"":5}","[302.22232142857143,303.12857142857143,0.1,302.22232142857143,303.12857142857143,102.4,302.22232142857143,303.12857142857143,207.9,302.22232142857143,303.12857142857143,309.8,302.22232142857143,303.12857142857143,412.5,302.22232142857143,303.12857142857143,515.2,302.22232142857143,303.12857142857143,617.7,302.22232142857143,303.12857142857143,723.3,302.22232142857143,303.12857142857143,823.8,302.22232142857143,303.12857142857143,927.5,302.22232142857143,303.12857142857143,1030.1,460.22232142857143,167.12857142857143,1131.7,530.2223214285714,114.12857142857143,1232.1,534.2223214285714,111.12857142857143,1332.4,551.2223214285714,94.12857142857143,1432.6,578.2223214285714,62.128571428571426,1537.1,578.2223214285714,60.128571428571426,1637.7,578.2223214285714,60.128571428571426,1738.3,578.2223214285714,60.128571428571426,1841.7,578.2223214285714,60.128571428571426,1944.7,578.2223214285714,60.128571428571426,2048,578.2223214285714,60.128571428571426,2152.1,578.2223214285714,60.128571428571426,2252.4,578.2223214285714,60.128571428571426,2357.9,578.2223214285714,60.128571428571426,2467.8,578.2223214285714,60.128571428571426,2572.6,578.2223214285714,60.128571428571426,2674.4,578.2223214285714,60.128571428571426,2780.5,578.2223214285714,60.128571428571426,2882.3,578.2223214285714,60.128571428571426,2987.5,578.2223214285714,60.128571428571426,3087.7,578.2223214285714,60.128571428571426,3194.3,578.2223214285714,60.128571428571426,3297,578.2223214285714,60.128571428571426,3397.2,578.2223214285714,60.128571428571426,3497.6,578.2223214285714,60.128571428571426,3602.8,578.2223214285714,60.128571428571426,3709.3,578.2223214285714,60.128571428571426,3812.6,578.2223214285714,60.128571428571426,3917.5,578.2223214285714,60.128571428571426,4022.6,578.2223214285714,60.128571428571426,4122.9,578.2223214285714,60.128571428571426,4229.9,578.2223214285714,60.128571428571426,4332.6,578.2223214285714,60.128571428571426,4432.6,578.2223214285714,60.128571428571426,4532.8,578.2223214285714,60.128571428571426,4632.9,578.2223214285714,60.128571428571426,4737.6,578.2223214285714,60.128571428571426,4842.4,578.2223214285714,60.128571428571426,4945.2]","[1427.1,1427.1,1000,0,427.1,""smooth"",""up"",""up"",""good_move"",4616.9,3189.4,2737,1427.5,452.4,""oops"",""up"",""down"",""bad_move"",7926.5,3309.2,2875.3,4617.3,433.9,""smooth"",""right"",""right"",""good_move"",10706.6,2779.6,2376.4,7927,403.2,""oops"",""right"",""right"",""good_move"",13857.4,3150.4,2814.8,10707,335.6,""oops"",""right"",""down"",""bad_move"",16958.2,3099.8,2750.6,13858.4,349.2,""oops"",""right"",""down"",""bad_move"",20203.9,3245.5,2894,16958.4,351.5,""oops"",""right"",""up"",""good_move"",24163.1,3958.9,3604,20204.2,354.9,""oops"",""right"",""up"",""good_move"",27449.9,3286.6,2899.3,24163.3,387.4,""oops"",""right"",""down"",""bad_move""]"
"11563","","<div style=""width:500px;"">
  <p>What determined the result of this run?</p>
  </div>","79","html-slider-response","49","1207423","0.0-7.0-1.7","76","1","2025-07-30 09:09:32","36c45c0696341be0efffe67d72a12abb","105.12.0.60","Mozilla/5.0 (Windows NT 10.0; Win64; x64) AppleWebKit/537.36 (KHTML, like Gecko) Chrome/138.0.0.0 Safari/537.36","WebKit","Chrome","138.0.0.0","Windows","10.0","https://app.prolific.com/","en-US,en;q=0.9","67895942fcb6400a74aebfca","687a19d2168e237449fb8af4","6889e01bea686771318410e3","0","67895942fcb6400a74aebfca","0","2025-07-30T18:29:17.768Z","","","","AttribQ","","","","","","","","","","","50","","","","","","","","","","","","","","","","","","","","","","","","","","",""
"3982","","<div style=""width:500px;"">
  <p>How much control did you have over the ball?</p>
  </div>","86","html-slider-response","50","1211407","0.0-7.0-2.7","76","1","2025-07-30 09:09:32","36c45c0696341be0efffe67d72a12abb","105.12.0.60","Mozilla/5.0 (Windows NT 10.0; Win64; x64) AppleWebKit/537.36 (KHTML, like Gecko) Chrome/138.0.0.0 Safari/537.36","WebKit","Chrome","138.0.0.0","Windows","10.0","https://app.prolific.com/","en-US,en;q=0.9","67895942fcb6400a74aebfca","687a19d2168e237449fb8af4","6889e01bea686771318410e3","0","67895942fcb6400a74aebfca","0","2025-07-30T18:29:21.752Z","","","","ControlQ","","","","","","","","","","","50","","","","","","","","","","","","","","","","","","","","","","","","","","",""
"5805","","<div style=""width:500px;"">
  <p>How would you describe your current emotional state?</p>
  </div>","80","html-slider-response","51","1217213","0.0-7.0-3.7","76","1","2025-07-30 09:09:32","36c45c0696341be0efffe67d72a12abb","105.12.0.60","Mozilla/5.0 (Windows NT 10.0; Win64; x64) AppleWebKit/537.36 (KHTML, like Gecko) Chrome/138.0.0.0 Safari/537.36","WebKit","Chrome","138.0.0.0","Windows","10.0","https://app.prolific.com/","en-US,en;q=0.9","67895942fcb6400a74aebfca","687a19d2168e237449fb8af4","6889e01bea686771318410e3","0","67895942fcb6400a74aebfca","0","2025-07-30T18:29:27.559Z","","","","StressQ","","","","","","","","","","","50","","","","","","","","","","","","","","","","","","","","","","","","","","",""
"3332","","<div style=""width:500px;"">
  <p>What best describes how you currently feel?</p>
  </div>","88","html-slider-response","52","1220547","0.0-7.0-4.7","76","1","2025-07-30 09:09:32","36c45c0696341be0efffe67d72a12abb","105.12.0.60","Mozilla/5.0 (Windows NT 10.0; Win64; x64) AppleWebKit/537.36 (KHTML, like Gecko) Chrome/138.0.0.0 Safari/537.36","WebKit","Chrome","138.0.0.0","Windows","10.0","https://app.prolific.com/","en-US,en;q=0.9","67895942fcb6400a74aebfca","687a19d2168e237449fb8af4","6889e01bea686771318410e3","0","67895942fcb6400a74aebfca","0","2025-07-30T18:29:30.892Z","","","","MotivationQ","","","","","","","","","","","50","","","","","","","","","","","","","","","","","","","","","","","","","","",""
"","","","","ctl-task-cpt","53","1245632","0.0-7.0-0.8","76","1","2025-07-30 09:09:32","36c45c0696341be0efffe67d72a12abb","105.12.0.60","Mozilla/5.0 (Windows NT 10.0; Win64; x64) AppleWebKit/537.36 (KHTML, like Gecko) Chrome/138.0.0.0 Safari/537.36","WebKit","Chrome","138.0.0.0","Windows","10.0","https://app.prolific.com/","en-US,en;q=0.9","67895942fcb6400a74aebfca","687a19d2168e237449fb8af4","6889e01bea686771318410e3","0","67895942fcb6400a74aebfca","0","2025-07-30T18:29:55.977Z","","","","","","","","","","","","","","","","win-only","1","g1:NE,g2:SW","0.4","9","0","1223552.4","2398.1","7404.6","22062.5","1","4","4","6","1","-1","-1","0","0","0","1570.6","3000","-2295","[""up"",""right""]","{""num_key_presses"":4,""num_perfect"":2,""num_errors"":0,""num_randdir"":2,""num_randdir_good_moves"":1,""num_whilered"":0,""num_whileblue"":0,""num_blue"":0,""num_good_moves"":3}","[293.22232142857143,299.12857142857143,0.3,293.22232142857143,299.12857142857143,102.9,293.22232142857143,299.12857142857143,208.2,293.22232142857143,299.12857142857143,308.8,293.22232142857143,299.12857142857143,412.3,293.22232142857143,299.12857142857143,513.3,293.22232142857143,299.12857142857143,616.8,293.22232142857143,299.12857142857143,718.3,345.22232142857143,244.12857142857143,824.2,468.22232142857143,120.12857142857143,928.7,492.22232142857143,96.12857142857143,1028.8,505.22232142857143,84.12857142857143,1132.2,511.22232142857143,76.12857142857143,1234.2,524.2223214285714,49.128571428571426,1338.4,526.2223214285714,48.128571428571426,1443.9,526.2223214285714,48.128571428571426,1550.9,526.2223214285714,48.128571428571426,1652.4,526.2223214285714,48.128571428571426,1753.1,526.2223214285714,48.128571428571426,1858,526.2223214285714,48.128571428571426,1958.1,526.2223214285714,48.128571428571426,2065,526.2223214285714,48.128571428571426,2167.8,526.2223214285714,48.128571428571426,2268,526.2223214285714,48.128571428571426,2368,526.2223214285714,48.128571428571426,2472.8,526.2223214285714,48.128571428571426,2572.8,526.2223214285714,48.128571428571426,2680.6,526.2223214285714,48.128571428571426,2782.8,526.2223214285714,48.128571428571426,2882.8,526.2223214285714,48.128571428571426,2987.8,526.2223214285714,48.128571428571426,3087.9,526.2223214285714,48.128571428571426,3194,526.2223214285714,48.128571428571426,3300.4,526.2223214285714,48.128571428571426,3402.3,526.2223214285714,48.128571428571426,3503.2,526.2223214285714,48.128571428571426,3608.4,526.2223214285714,48.128571428571426,3712.8,526.2223214285714,48.128571428571426,3818.5,526.2223214285714,48.128571428571426,3922.7,526.2223214285714,48.128571428571426,4030.6,526.2223214285714,48.128571428571426,4132.7,526.2223214285714,48.128571428571426,4232.8,526.2223214285714,48.128571428571426,4333.4,526.2223214285714,48.128571428571426,4438.7,526.2223214285714,48.128571428571426,4544.5,526.2223214285714,48.128571428571426,4647.6,526.2223214285714,48.128571428571426,4748.2,526.2223214285714,48.128571428571426,4850.2,526.2223214285714,48.128571428571426,4950.3]","[2968.1,2968.1,1000,0,1968.1,""oops"",""up"",""down"",""bad_move"",6488,3519.4,3169.5,2968.6,349.9,""smooth"",""up"",""up"",""good_move"",8787.6,2299.3,1942.8,6488.3,356.5,""smooth"",""up"",""up"",""good_move"",11675.8,2888,2581.7,8787.8,306.3,""oops"",""right"",""up"",""good_move""]"
"20203","","<div style=""width:500px;"">
  <p>What determined the result of this run?</p>
  </div>","80","html-slider-response","54","1265837","0.0-7.0-1.8","76","1","2025-07-30 09:09:32","36c45c0696341be0efffe67d72a12abb","105.12.0.60","Mozilla/5.0 (Windows NT 10.0; Win64; x64) AppleWebKit/537.36 (KHTML, like Gecko) Chrome/138.0.0.0 Safari/537.36","WebKit","Chrome","138.0.0.0","Windows","10.0","https://app.prolific.com/","en-US,en;q=0.9","67895942fcb6400a74aebfca","687a19d2168e237449fb8af4","6889e01bea686771318410e3","0","67895942fcb6400a74aebfca","0","2025-07-30T18:30:16.182Z","","","","AttribQ","","","","","","","","","","","50","","","","","","","","","","","","","","","","","","","","","","","","","","",""
"3421","","<div style=""width:500px;"">
  <p>How much control did you have over the ball?</p>
  </div>","80","html-slider-response","55","1269259","0.0-7.0-2.8","76","1","2025-07-30 09:09:32","36c45c0696341be0efffe67d72a12abb","105.12.0.60","Mozilla/5.0 (Windows NT 10.0; Win64; x64) AppleWebKit/537.36 (KHTML, like Gecko) Chrome/138.0.0.0 Safari/537.36","WebKit","Chrome","138.0.0.0","Windows","10.0","https://app.prolific.com/","en-US,en;q=0.9","67895942fcb6400a74aebfca","687a19d2168e237449fb8af4","6889e01bea686771318410e3","0","67895942fcb6400a74aebfca","0","2025-07-30T18:30:19.605Z","","","","ControlQ","","","","","","","","","","","50","","","","","","","","","","","","","","","","","","","","","","","","","","",""
"3021","","<div style=""width:500px;"">
  <p>How would you describe your current emotional state?</p>
  </div>","80","html-slider-response","56","1272281","0.0-7.0-3.8","76","1","2025-07-30 09:09:32","36c45c0696341be0efffe67d72a12abb","105.12.0.60","Mozilla/5.0 (Windows NT 10.0; Win64; x64) AppleWebKit/537.36 (KHTML, like Gecko) Chrome/138.0.0.0 Safari/537.36","WebKit","Chrome","138.0.0.0","Windows","10.0","https://app.prolific.com/","en-US,en;q=0.9","67895942fcb6400a74aebfca","687a19d2168e237449fb8af4","6889e01bea686771318410e3","0","67895942fcb6400a74aebfca","0","2025-07-30T18:30:22.627Z","","","","StressQ","","","","","","","","","","","50","","","","","","","","","","","","","","","","","","","","","","","","","","",""
"2749","","<div style=""width:500px;"">
  <p>What best describes how you currently feel?</p>
  </div>","70","html-slider-response","57","1275032","0.0-7.0-4.8","76","1","2025-07-30 09:09:32","36c45c0696341be0efffe67d72a12abb","105.12.0.60","Mozilla/5.0 (Windows NT 10.0; Win64; x64) AppleWebKit/537.36 (KHTML, like Gecko) Chrome/138.0.0.0 Safari/537.36","WebKit","Chrome","138.0.0.0","Windows","10.0","https://app.prolific.com/","en-US,en;q=0.9","67895942fcb6400a74aebfca","687a19d2168e237449fb8af4","6889e01bea686771318410e3","0","67895942fcb6400a74aebfca","0","2025-07-30T18:30:25.377Z","","","","MotivationQ","","","","","","","","","","","50","","","","","","","","","","","","","","","","","","","","","","","","","","",""
"","","","","ctl-task-cpt","58","1316897","0.0-7.0-0.9","76","1","2025-07-30 09:09:32","36c45c0696341be0efffe67d72a12abb","105.12.0.60","Mozilla/5.0 (Windows NT 10.0; Win64; x64) AppleWebKit/537.36 (KHTML, like Gecko) Chrome/138.0.0.0 Safari/537.36","WebKit","Chrome","138.0.0.0","Windows","10.0","https://app.prolific.com/","en-US,en;q=0.9","67895942fcb6400a74aebfca","687a19d2168e237449fb8af4","6889e01bea686771318410e3","0","67895942fcb6400a74aebfca","0","2025-07-30T18:31:07.243Z","","","","","","","","","","","","","","","","win-only","3","g1:SW,g2:NE","0.5","10","0","1278036.1","2670.6","7671.6","38840.6","1","4","8","6","2","-8","-8","0","0","0","2169.1","3000","-1905","[""up"",""right""]","{""num_key_presses"":8,""num_perfect"":4,""num_errors"":0,""num_randdir"":4,""num_randdir_good_moves"":2,""num_whilered"":0,""num_whileblue"":0,""num_blue"":2,""num_good_moves"":6}","[296.22232142857143,292.12857142857143,0.1,296.22232142857143,292.12857142857143,101.1,296.22232142857143,292.12857142857143,205.6,296.22232142857143,292.12857142857143,314.5,296.22232142857143,292.12857142857143,415.7,296.22232142857143,292.12857142857143,519.9,296.22232142857143,292.12857142857143,620.6,296.22232142857143,292.12857142857143,727.6,296.22232142857143,292.12857142857143,830.7,296.22232142857143,292.12857142857143,935.7,296.22232142857143,292.12857142857143,1049.4,296.22232142857143,292.12857142857143,1150.9,536.2223214285714,57.128571428571426,1250.9,620.2223214285714,-26.871428571428574,1365.9,622.2223214285714,-29.871428571428574,1471,622.2223214285714,-29.871428571428574,1585.4,610.2223214285714,-16.871428571428574,1691,576.2223214285714,26.128571428571426,1801.4,561.2223214285714,44.128571428571426,1904.7,561.2223214285714,44.128571428571426,2013.6,561.2223214285714,44.128571428571426,2114.5,561.2223214285714,44.128571428571426,2214.5,561.2223214285714,44.128571428571426,2317.1,561.2223214285714,44.128571428571426,2432,561.2223214285714,44.128571428571426,2534.7,561.2223214285714,44.128571428571426,2636.2,561.2223214285714,44.128571428571426,2740.9,561.2223214285714,44.128571428571426,2846,561.2223214285714,44.128571428571426,2948.8,561.2223214285714,44.128571428571426,3050,561.2223214285714,44.128571428571426,3150.6,561.2223214285714,44.128571428571426,3255,561.2223214285714,44.128571428571426,3363.5,561.2223214285714,44.128571428571426,3464,561.2223214285714,44.128571428571426,3565.7,561.2223214285714,44.128571428571426,3665.7,561.2223214285714,44.128571428571426,3769.6,561.2223214285714,44.128571428571426,3869.8,561.2223214285714,44.128571428571426,3970.2,561.2223214285714,44.128571428571426,4070.3,561.2223214285714,44.128571428571426,4171.5,561.2223214285714,44.128571428571426,4278.6,561.2223214285714,44.128571428571426,4379.5,561.2223214285714,44.128571428571426,4480.6,561.2223214285714,44.128571428571426,4585.5,561.2223214285714,44.128571428571426,4686.1,561.2223214285714,44.128571428571426,4790.3,561.2223214285714,44.128571428571426,4890.7,561.2223214285714,44.128571428571426,4995.6]","[1426.5,1426.5,1000,0,426.5,""oops"",""right"",""up"",""good_move"",8376.8,6950,2568.6,5394.6,413.6,""oops"",""right"",""down"",""bad_move"",11921.8,3544.5,3103.8,8377.3,440.7,""smooth"",""right"",""right"",""good_move"",13808.8,1886.5,1418.6,11922.3,467.9,""smooth"",""right"",""right"",""good_move"",20252.1,6443,2525.8,17304.2,422.1,""oops"",""right"",""down"",""bad_move"",23239.2,2986.7,2557.1,20252.5,429.6,""smooth"",""right"",""right"",""good_move"",26320.5,3080.8,2732.4,23239.8,348.3,""smooth"",""up"",""up"",""good_move"",28556.9,2236,1826.3,26320.9,409.7,""oops"",""up"",""up"",""good_move""]"
"6592","","<div style=""width:500px;"">
  <p>What determined the result of this run?</p>
  </div>","31","html-slider-response","59","1323491","0.0-7.0-1.9","76","1","2025-07-30 09:09:32","36c45c0696341be0efffe67d72a12abb","105.12.0.60","Mozilla/5.0 (Windows NT 10.0; Win64; x64) AppleWebKit/537.36 (KHTML, like Gecko) Chrome/138.0.0.0 Safari/537.36","WebKit","Chrome","138.0.0.0","Windows","10.0","https://app.prolific.com/","en-US,en;q=0.9","67895942fcb6400a74aebfca","687a19d2168e237449fb8af4","6889e01bea686771318410e3","0","67895942fcb6400a74aebfca","0","2025-07-30T18:31:13.836Z","","","","AttribQ","","","","","","","","","","","50","","","","","","","","","","","","","","","","","","","","","","","","","","",""
"3298","","<div style=""width:500px;"">
  <p>How much control did you have over the ball?</p>
  </div>","31","html-slider-response","60","1326790","0.0-7.0-2.9","76","1","2025-07-30 09:09:32","36c45c0696341be0efffe67d72a12abb","105.12.0.60","Mozilla/5.0 (Windows NT 10.0; Win64; x64) AppleWebKit/537.36 (KHTML, like Gecko) Chrome/138.0.0.0 Safari/537.36","WebKit","Chrome","138.0.0.0","Windows","10.0","https://app.prolific.com/","en-US,en;q=0.9","67895942fcb6400a74aebfca","687a19d2168e237449fb8af4","6889e01bea686771318410e3","0","67895942fcb6400a74aebfca","0","2025-07-30T18:31:17.135Z","","","","ControlQ","","","","","","","","","","","50","","","","","","","","","","","","","","","","","","","","","","","","","","",""
"3163","","<div style=""width:500px;"">
  <p>How would you describe your current emotional state?</p>
  </div>","87","html-slider-response","61","1329954","0.0-7.0-3.9","76","1","2025-07-30 09:09:32","36c45c0696341be0efffe67d72a12abb","105.12.0.60","Mozilla/5.0 (Windows NT 10.0; Win64; x64) AppleWebKit/537.36 (KHTML, like Gecko) Chrome/138.0.0.0 Safari/537.36","WebKit","Chrome","138.0.0.0","Windows","10.0","https://app.prolific.com/","en-US,en;q=0.9","67895942fcb6400a74aebfca","687a19d2168e237449fb8af4","6889e01bea686771318410e3","0","67895942fcb6400a74aebfca","0","2025-07-30T18:31:20.299Z","","","","StressQ","","","","","","","","","","","50","","","","","","","","","","","","","","","","","","","","","","","","","","",""
"2900","","<div style=""width:500px;"">
  <p>What best describes how you currently feel?</p>
  </div>","70","html-slider-response","62","1332856","0.0-7.0-4.9","76","1","2025-07-30 09:09:32","36c45c0696341be0efffe67d72a12abb","105.12.0.60","Mozilla/5.0 (Windows NT 10.0; Win64; x64) AppleWebKit/537.36 (KHTML, like Gecko) Chrome/138.0.0.0 Safari/537.36","WebKit","Chrome","138.0.0.0","Windows","10.0","https://app.prolific.com/","en-US,en;q=0.9","67895942fcb6400a74aebfca","687a19d2168e237449fb8af4","6889e01bea686771318410e3","0","67895942fcb6400a74aebfca","0","2025-07-30T18:31:23.201Z","","","","MotivationQ","","","","","","","","","","","50","","","","","","","","","","","","","","","","","","","","","","","","","","",""
"","","","","ctl-task-cpt","63","1381907","0.0-7.0-0.10","76","1","2025-07-30 09:09:32","36c45c0696341be0efffe67d72a12abb","105.12.0.60","Mozilla/5.0 (Windows NT 10.0; Win64; x64) AppleWebKit/537.36 (KHTML, like Gecko) Chrome/138.0.0.0 Safari/537.36","WebKit","Chrome","138.0.0.0","Windows","10.0","https://app.prolific.com/","en-US,en;q=0.9","67895942fcb6400a74aebfca","687a19d2168e237449fb8af4","6889e01bea686771318410e3","0","67895942fcb6400a74aebfca","0","2025-07-30T18:32:12.252Z","","","","","","","","","","","","","","","","win-only","2","g1:SE,g2:NW","0.6","11","0","1335860.9","1431.3","6436.8","46032.1","1","4","8","6","1","1","0","0","0","0","2080.2","3000","115","[""down"",""right""]","{""num_key_presses"":10,""num_perfect"":6,""num_errors"":1,""num_randdir"":3,""num_randdir_good_moves"":1,""num_whilered"":0,""num_whileblue"":1,""num_blue"":4,""num_good_moves"":7}","[298.22232142857143,291.12857142857143,0.2,298.22232142857143,291.12857142857143,104.9,298.22232142857143,291.12857142857143,217.6,298.22232142857143,291.12857142857143,318.9,298.22232142857143,291.12857142857143,420.2,298.22232142857143,291.12857142857143,533,298.22232142857143,291.12857142857143,633.8,298.22232142857143,291.12857142857143,734.9,298.22232142857143,291.12857142857143,835.1,298.22232142857143,291.12857142857143,949.1,298.22232142857143,291.12857142857143,1050.2,298.22232142857143,291.12857142857143,1154.9,298.22232142857143,291.12857142857143,1264.4,353.22232142857143,314.12857142857143,1364.8,498.22232142857143,409.12857142857143,1467.4,548.2223214285714,481.12857142857143,1570.2,557.2223214285714,510.12857142857143,1682.2,564.2223214285714,541.1285714285714,1784.9,564.2223214285714,552.1285714285714,1898.9,564.2223214285714,552.1285714285714,1998.9,564.2223214285714,552.1285714285714,2100.4,564.2223214285714,552.1285714285714,2215.2,564.2223214285714,552.1285714285714,2315.4,564.2223214285714,552.1285714285714,2419.5,564.2223214285714,552.1285714285714,2520,564.2223214285714,552.1285714285714,2632.3,564.2223214285714,552.1285714285714,2732.5,564.2223214285714,552.1285714285714,2832.6,564.2223214285714,552.1285714285714,2934.6,564.2223214285714,552.1285714285714,3037,564.2223214285714,552.1285714285714,3156,564.2223214285714,552.1285714285714,3263.9,564.2223214285714,552.1285714285714,3364.3,564.2223214285714,552.1285714285714,3468.4,564.2223214285714,552.1285714285714,3578,564.2223214285714,552.1285714285714,3682.3,564.2223214285714,552.1285714285714,3783,564.2223214285714,552.1285714285714,3884.8,564.2223214285714,552.1285714285714,4001.6,564.2223214285714,552.1285714285714,4105.1,564.2223214285714,552.1285714285714,4205.7,564.2223214285714,552.1285714285714,4317.3,564.2223214285714,552.1285714285714,4420.1,564.2223214285714,552.1285714285714,4525.8,564.2223214285714,552.1285714285714,4627,564.2223214285714,552.1285714285714,4732.7,564.2223214285714,552.1285714285714,4834.5,564.2223214285714,552.1285714285714,4937.6]","[5321.4,5321.4,2901.5,2011.4,408.5,""smooth"",""down"",""down"",""good_move"",8023.3,2701.1,2209.7,5322.2,491.4,""smooth"",""down"",""down"",""good_move"",10357.7,2334.1,1948.1,8023.6,386,""oops"",""right"",""right"",""good_move"",13341.9,2983.9,2580.7,10358,403.2,""while_blue"",""right"",""up"",""bad_move"",16635.8,3293.6,2860.2,13342.2,433.4,""smooth"",""right"",""right"",""good_move"",23652.1,7016,2986.5,20139.7,526,""oops"",""down"",""left"",""bad_move"",26533.7,2880.9,2484.3,23652.8,396.6,""oops"",""down"",""left"",""bad_move"",29840,3305.9,2886.3,26534.2,419.5,""smooth"",""right"",""right"",""good_move"",36427.4,6587.1,2369.5,33614,443.9,""smooth"",""right"",""right"",""good_move"",39504.8,3077.2,2646.8,36427.6,430.4,""smooth"",""down"",""down"",""good_move""]"
"5500","","<div style=""width:500px;"">
  <p>What determined the result of this run?</p>
  </div>","28","html-slider-response","64","1387408","0.0-7.0-1.10","76","1","2025-07-30 09:09:32","36c45c0696341be0efffe67d72a12abb","105.12.0.60","Mozilla/5.0 (Windows NT 10.0; Win64; x64) AppleWebKit/537.36 (KHTML, like Gecko) Chrome/138.0.0.0 Safari/537.36","WebKit","Chrome","138.0.0.0","Windows","10.0","https://app.prolific.com/","en-US,en;q=0.9","67895942fcb6400a74aebfca","687a19d2168e237449fb8af4","6889e01bea686771318410e3","0","67895942fcb6400a74aebfca","0","2025-07-30T18:32:17.753Z","","","","AttribQ","","","","","","","","","","","50","","","","","","","","","","","","","","","","","","","","","","","","","","",""
"2981","","<div style=""width:500px;"">
  <p>How much control did you have over the ball?</p>
  </div>","25","html-slider-response","65","1390391","0.0-7.0-2.10","76","1","2025-07-30 09:09:32","36c45c0696341be0efffe67d72a12abb","105.12.0.60","Mozilla/5.0 (Windows NT 10.0; Win64; x64) AppleWebKit/537.36 (KHTML, like Gecko) Chrome/138.0.0.0 Safari/537.36","WebKit","Chrome","138.0.0.0","Windows","10.0","https://app.prolific.com/","en-US,en;q=0.9","67895942fcb6400a74aebfca","687a19d2168e237449fb8af4","6889e01bea686771318410e3","0","67895942fcb6400a74aebfca","0","2025-07-30T18:32:20.736Z","","","","ControlQ","","","","","","","","","","","50","","","","","","","","","","","","","","","","","","","","","","","","","","",""
"3287","","<div style=""width:500px;"">
  <p>How would you describe your current emotional state?</p>
  </div>","85","html-slider-response","66","1393680","0.0-7.0-3.10","76","1","2025-07-30 09:09:32","36c45c0696341be0efffe67d72a12abb","105.12.0.60","Mozilla/5.0 (Windows NT 10.0; Win64; x64) AppleWebKit/537.36 (KHTML, like Gecko) Chrome/138.0.0.0 Safari/537.36","WebKit","Chrome","138.0.0.0","Windows","10.0","https://app.prolific.com/","en-US,en;q=0.9","67895942fcb6400a74aebfca","687a19d2168e237449fb8af4","6889e01bea686771318410e3","0","67895942fcb6400a74aebfca","0","2025-07-30T18:32:24.026Z","","","","StressQ","","","","","","","","","","","50","","","","","","","","","","","","","","","","","","","","","","","","","","",""
"3144","","<div style=""width:500px;"">
  <p>What best describes how you currently feel?</p>
  </div>","27","html-slider-response","67","1396827","0.0-7.0-4.10","76","1","2025-07-30 09:09:32","36c45c0696341be0efffe67d72a12abb","105.12.0.60","Mozilla/5.0 (Windows NT 10.0; Win64; x64) AppleWebKit/537.36 (KHTML, like Gecko) Chrome/138.0.0.0 Safari/537.36","WebKit","Chrome","138.0.0.0","Windows","10.0","https://app.prolific.com/","en-US,en;q=0.9","67895942fcb6400a74aebfca","687a19d2168e237449fb8af4","6889e01bea686771318410e3","0","67895942fcb6400a74aebfca","0","2025-07-30T18:32:27.172Z","","","","MotivationQ","","","","","","","","","","","50","","","","","","","","","","","","","","","","","","","","","","","","","","",""
"","","","","ctl-task-cpt","68","1431213","0.0-7.0-0.11","76","1","2025-07-30 09:09:32","36c45c0696341be0efffe67d72a12abb","105.12.0.60","Mozilla/5.0 (Windows NT 10.0; Win64; x64) AppleWebKit/537.36 (KHTML, like Gecko) Chrome/138.0.0.0 Safari/537.36","WebKit","Chrome","138.0.0.0","Windows","10.0","https://app.prolific.com/","en-US,en;q=0.9","67895942fcb6400a74aebfca","687a19d2168e237449fb8af4","6889e01bea686771318410e3","0","67895942fcb6400a74aebfca","0","2025-07-30T18:33:01.558Z","","","","","","","","","","","","","","","","win-only","1","g1:NE,g2:SW","0.7","12","0","1399832.4","1636.3","6641.5","31365.2","1","4","4","6","1","1","1","1","0","0.007575757575757576","2838.1","3000","1505","[""up"",""right""]","{""num_key_presses"":4,""num_perfect"":4,""num_errors"":0,""num_randdir"":0,""num_randdir_good_moves"":0,""num_whilered"":0,""num_whileblue"":0,""num_blue"":4,""num_good_moves"":4}","[292.22232142857143,292.12857142857143,0.3,292.22232142857143,292.12857142857143,109.4,292.22232142857143,292.12857142857143,209.8,292.22232142857143,292.12857142857143,310.4,292.22232142857143,292.12857142857143,426.1,292.22232142857143,292.12857142857143,529.6,292.22232142857143,292.12857142857143,638.3,306.22232142857143,266.12857142857143,742.1,321.22232142857143,249.12857142857143,844,329.22232142857143,244.12857142857143,944.1,332.22232142857143,244.12857142857143,1045.3,324.22232142857143,262.12857142857143,1153.8,320.22232142857143,268.12857142857143,1255.2,383.22232142857143,215.12857142857143,1358.5,483.22232142857143,138.12857142857143,1459.7,524.2223214285714,119.12857142857143,1560.1,528.2223214285714,117.12857142857143,1666.1,528.2223214285714,117.12857142857143,1770.2,528.2223214285714,109.12857142857143,1874.1,527.2223214285714,104.12857142857143,1975.2,527.2223214285714,104.12857142857143,2081.1,527.2223214285714,104.12857142857143,2186.1,527.2223214285714,104.12857142857143,2290.7,527.2223214285714,104.12857142857143,2394.3,543.2223214285714,55.128571428571426,2506,546.2223214285714,45.128571428571426,2609.9,546.2223214285714,45.128571428571426,2714.6,546.2223214285714,45.128571428571426,2816.5,546.2223214285714,45.128571428571426,2917.6,546.2223214285714,45.128571428571426,3020.4,546.2223214285714,45.128571428571426,3125.2,546.2223214285714,45.128571428571426,3239.2,546.2223214285714,45.128571428571426,3340.2,546.2223214285714,45.128571428571426,3444.9,546.2223214285714,45.128571428571426,3545.3,546.2223214285714,45.128571428571426,3650.5,546.2223214285714,45.128571428571426,3752.8,546.2223214285714,45.128571428571426,3855.2,546.2223214285714,45.128571428571426,3959.1,546.2223214285714,45.128571428571426,4073.1,546.2223214285714,45.128571428571426,4175.2,546.2223214285714,45.128571428571426,4279.8,546.2223214285714,45.128571428571426,4385.7,546.2223214285714,45.128571428571426,4486,546.2223214285714,45.128571428571426,4589.4,546.2223214285714,45.128571428571426,4704.1,546.2223214285714,45.128571428571426,4805,546.2223214285714,45.128571428571426,4905.8]","[8352,8352,2242.9,5534.5,574.6,""smooth"",""up"",""up"",""good_move"",11597,3244.6,2780.4,8352.4,464.2,""smooth"",""up"",""up"",""good_move"",15298.5,3701.2,3227.5,11597.3,473.7,""smooth"",""right"",""right"",""good_move"",24629.7,9330.6,2891.2,21239.6,498.9,""smooth"",""right"",""right"",""good_move""]"
"16311","","<div style=""width:500px;"">
  <p>What determined the result of this run?</p>
  </div>","26","html-slider-response","69","1447525","0.0-7.0-1.11","76","1","2025-07-30 09:09:32","36c45c0696341be0efffe67d72a12abb","105.12.0.60","Mozilla/5.0 (Windows NT 10.0; Win64; x64) AppleWebKit/537.36 (KHTML, like Gecko) Chrome/138.0.0.0 Safari/537.36","WebKit","Chrome","138.0.0.0","Windows","10.0","https://app.prolific.com/","en-US,en;q=0.9","67895942fcb6400a74aebfca","687a19d2168e237449fb8af4","6889e01bea686771318410e3","0","67895942fcb6400a74aebfca","0","2025-07-30T18:33:17.871Z","","","","AttribQ","","","","","","","","","","","50","","","","","","","","","","","","","","","","","","","","","","","","","","",""
"3424","","<div style=""width:500px;"">
  <p>How much control did you have over the ball?</p>
  </div>","31","html-slider-response","70","1450951","0.0-7.0-2.11","76","1","2025-07-30 09:09:32","36c45c0696341be0efffe67d72a12abb","105.12.0.60","Mozilla/5.0 (Windows NT 10.0; Win64; x64) AppleWebKit/537.36 (KHTML, like Gecko) Chrome/138.0.0.0 Safari/537.36","WebKit","Chrome","138.0.0.0","Windows","10.0","https://app.prolific.com/","en-US,en;q=0.9","67895942fcb6400a74aebfca","687a19d2168e237449fb8af4","6889e01bea686771318410e3","0","67895942fcb6400a74aebfca","0","2025-07-30T18:33:21.297Z","","","","ControlQ","","","","","","","","","","","50","","","","","","","","","","","","","","","","","","","","","","","","","","",""
"11832","","<div style=""width:500px;"">
  <p>How would you describe your current emotional state?</p>
  </div>","81","html-slider-response","71","1462784","0.0-7.0-3.11","76","1","2025-07-30 09:09:32","36c45c0696341be0efffe67d72a12abb","105.12.0.60","Mozilla/5.0 (Windows NT 10.0; Win64; x64) AppleWebKit/537.36 (KHTML, like Gecko) Chrome/138.0.0.0 Safari/537.36","WebKit","Chrome","138.0.0.0","Windows","10.0","https://app.prolific.com/","en-US,en;q=0.9","67895942fcb6400a74aebfca","687a19d2168e237449fb8af4","6889e01bea686771318410e3","0","67895942fcb6400a74aebfca","0","2025-07-30T18:33:33.129Z","","","","StressQ","","","","","","","","","","","50","","","","","","","","","","","","","","","","","","","","","","","","","","",""
"8619","","<div style=""width:500px;"">
  <p>What best describes how you currently feel?</p>
  </div>","78","html-slider-response","72","1471406","0.0-7.0-4.11","76","1","2025-07-30 09:09:32","36c45c0696341be0efffe67d72a12abb","105.12.0.60","Mozilla/5.0 (Windows NT 10.0; Win64; x64) AppleWebKit/537.36 (KHTML, like Gecko) Chrome/138.0.0.0 Safari/537.36","WebKit","Chrome","138.0.0.0","Windows","10.0","https://app.prolific.com/","en-US,en;q=0.9","67895942fcb6400a74aebfca","687a19d2168e237449fb8af4","6889e01bea686771318410e3","0","67895942fcb6400a74aebfca","0","2025-07-30T18:33:41.751Z","","","","MotivationQ","","","","","","","","","","","50","","","","","","","","","","","","","","","","","","","","","","","","","","",""
"","","","","ctl-task-cpt","73","1499832","0.0-7.0-0.12","76","1","2025-07-30 09:09:32","36c45c0696341be0efffe67d72a12abb","105.12.0.60","Mozilla/5.0 (Windows NT 10.0; Win64; x64) AppleWebKit/537.36 (KHTML, like Gecko) Chrome/138.0.0.0 Safari/537.36","WebKit","Chrome","138.0.0.0","Windows","10.0","https://app.prolific.com/","en-US,en;q=0.9","67895942fcb6400a74aebfca","687a19d2168e237449fb8af4","6889e01bea686771318410e3","0","67895942fcb6400a74aebfca","0","2025-07-30T18:34:10.177Z","","","","","","","","","","","","","","","","win-only","2","g1:SE,g2:NW","0.8","13","0","1474409.6","1793.9","6797","25395.7","1","4","4","6","1","1","1","2","1","0.015151515151515152","1873.9","3000","1085","[""down"",""right""]","{""num_key_presses"":6,""num_perfect"":4,""num_errors"":0,""num_randdir"":2,""num_randdir_good_moves"":1,""num_whilered"":0,""num_whileblue"":0,""num_blue"":1,""num_good_moves"":5}","[293.22232142857143,290.12857142857143,0.3,293.22232142857143,290.12857142857143,106.1,293.22232142857143,290.12857142857143,206.9,293.22232142857143,290.12857142857143,317.5,293.22232142857143,290.12857142857143,423.2,293.22232142857143,290.12857142857143,536.4,293.22232142857143,290.12857142857143,638.3,293.22232142857143,290.12857142857143,752.2,293.22232142857143,290.12857142857143,856.3,293.22232142857143,290.12857142857143,957.9,295.22232142857143,292.12857142857143,1059.2,405.22232142857143,410.12857142857143,1164.3,471.22232142857143,481.12857142857143,1269.2,484.22232142857143,491.12857142857143,1375.8,497.22232142857143,503.12857142857143,1482.3,512.2223214285714,527.1285714285714,1583.6,514.2223214285714,531.1285714285714,1688.2,514.2223214285714,531.1285714285714,1798.4,514.2223214285714,531.1285714285714,1902.2,514.2223214285714,531.1285714285714,2003.6,514.2223214285714,531.1285714285714,2113.8,514.2223214285714,531.1285714285714,2219.2,514.2223214285714,531.1285714285714,2321.9,514.2223214285714,531.1285714285714,2424.2,514.2223214285714,531.1285714285714,2534.2,514.2223214285714,531.1285714285714,2636.3,514.2223214285714,531.1285714285714,2737,514.2223214285714,531.1285714285714,2839,514.2223214285714,531.1285714285714,2946.6,514.2223214285714,531.1285714285714,3050.1,514.2223214285714,531.1285714285714,3152.9,514.2223214285714,531.1285714285714,3256.9,514.2223214285714,531.1285714285714,3363.7,514.2223214285714,531.1285714285714,3466.6,514.2223214285714,531.1285714285714,3566.7,514.2223214285714,531.1285714285714,3669.9,514.2223214285714,531.1285714285714,3772.6,514.2223214285714,531.1285714285714,3881.9,514.2223214285714,531.1285714285714,3987.8,514.2223214285714,531.1285714285714,4089.7,514.2223214285714,531.1285714285714,4193.1,514.2223214285714,531.1285714285714,4297.4,514.2223214285714,531.1285714285714,4398.1,514.2223214285714,531.1285714285714,4503.8,514.2223214285714,531.1285714285714,4606.8,514.2223214285714,531.1285714285714,4707,514.2223214285714,531.1285714285714,4819,514.2223214285714,531.1285714285714,4921.3]","[5292.5,5292.5,2747.7,2014,530.8,""smooth"",""down"",""down"",""good_move"",7746.4,2453.3,1917.1,5293.1,536.2,""oops"",""down"",""down"",""good_move"",10841.9,3095.3,2586,7746.6,509.3,""smooth"",""right"",""right"",""good_move"",13500.1,2657.7,2150.8,10842.4,506.9,""oops"",""right"",""up"",""bad_move"",16108.3,2605.8,2214.1,13502.5,391.7,""smooth"",""right"",""right"",""good_move"",18439.5,2331,1916.7,16108.5,414.3,""smooth"",""down"",""down"",""good_move""]"
"4165","","<div style=""width:500px;"">
  <p>What determined the result of this run?</p>
  </div>","92","html-slider-response","74","1503998","0.0-7.0-1.12","76","1","2025-07-30 09:09:32","36c45c0696341be0efffe67d72a12abb","105.12.0.60","Mozilla/5.0 (Windows NT 10.0; Win64; x64) AppleWebKit/537.36 (KHTML, like Gecko) Chrome/138.0.0.0 Safari/537.36","WebKit","Chrome","138.0.0.0","Windows","10.0","https://app.prolific.com/","en-US,en;q=0.9","67895942fcb6400a74aebfca","687a19d2168e237449fb8af4","6889e01bea686771318410e3","0","67895942fcb6400a74aebfca","0","2025-07-30T18:34:14.343Z","","","","AttribQ","","","","","","","","","","","50","","","","","","","","","","","","","","","","","","","","","","","","","","",""
"3447","","<div style=""width:500px;"">
  <p>How much control did you have over the ball?</p>
  </div>","77","html-slider-response","75","1507446","0.0-7.0-2.12","76","1","2025-07-30 09:09:32","36c45c0696341be0efffe67d72a12abb","105.12.0.60","Mozilla/5.0 (Windows NT 10.0; Win64; x64) AppleWebKit/537.36 (KHTML, like Gecko) Chrome/138.0.0.0 Safari/537.36","WebKit","Chrome","138.0.0.0","Windows","10.0","https://app.prolific.com/","en-US,en;q=0.9","67895942fcb6400a74aebfca","687a19d2168e237449fb8af4","6889e01bea686771318410e3","0","67895942fcb6400a74aebfca","0","2025-07-30T18:34:17.791Z","","","","ControlQ","","","","","","","","","","","50","","","","","","","","","","","","","","","","","","","","","","","","","","",""
"4594","","<div style=""width:500px;"">
  <p>How would you describe your current emotional state?</p>
  </div>","50","html-slider-response","76","1512041","0.0-7.0-3.12","76","1","2025-07-30 09:09:32","36c45c0696341be0efffe67d72a12abb","105.12.0.60","Mozilla/5.0 (Windows NT 10.0; Win64; x64) AppleWebKit/537.36 (KHTML, like Gecko) Chrome/138.0.0.0 Safari/537.36","WebKit","Chrome","138.0.0.0","Windows","10.0","https://app.prolific.com/","en-US,en;q=0.9","67895942fcb6400a74aebfca","687a19d2168e237449fb8af4","6889e01bea686771318410e3","0","67895942fcb6400a74aebfca","0","2025-07-30T18:34:22.386Z","","","","StressQ","","","","","","","","","","","50","","","","","","","","","","","","","","","","","","","","","","","","","","",""
"2727","","<div style=""width:500px;"">
  <p>What best describes how you currently feel?</p>
  </div>","50","html-slider-response","77","1514769","0.0-7.0-4.12","76","1","2025-07-30 09:09:32","36c45c0696341be0efffe67d72a12abb","105.12.0.60","Mozilla/5.0 (Windows NT 10.0; Win64; x64) AppleWebKit/537.36 (KHTML, like Gecko) Chrome/138.0.0.0 Safari/537.36","WebKit","Chrome","138.0.0.0","Windows","10.0","https://app.prolific.com/","en-US,en;q=0.9","67895942fcb6400a74aebfca","687a19d2168e237449fb8af4","6889e01bea686771318410e3","0","67895942fcb6400a74aebfca","0","2025-07-30T18:34:25.114Z","","","","MotivationQ","","","","","","","","","","","50","","","","","","","","","","","","","","","","","","","","","","","","","","",""
