"rt","response_timestamp","stimulus","response","trial_type","trial_index","time_elapsed","internal_node_id","run_id","condition","recorded_at","source_code_version","ip","user_agent","device","browser","browser_version","platform","platform_version","referer","accept_language","PROLIFIC_PID","STUDY_ID","SESSION_ID","BATCH","prolific_id","batch","realtime","success","question_order","question_id","eventType","responses","item_order","radio_event_ids","radio_event_times","key_event_times","mouse_event_times","straightlining","zigzagging","honeypot","view_history","slider_start","which_type","canvas_config","goals_layout","control_level","trial_number","tutorial_trial_number","trial_start_time","phase1_start_time","phase2_start_time","phase3_start_time","goal_1_value","goal_1_distance","goal_2_value","goal_2_distance","goal_selected","outcome","outcome_total","participant_final_score","participant_initial_score","participant_final_score_prop","goal_choice_rt","allocated_time","allocated_time_remaining","goal_direction","counts","mouse_movements","key_presses"
"10468","1753870005795","<p style='font-size:40px;line-height:1.25'><strong>Welcome to the experiment!</strong></p><p style='font-size:1.1em;line-height:1.25'>Thank you for participanting in our experiment again! You will be asked to play the Dysfunctional Ball Game again. We will briefly recap the rules before we start.</p><p style='font-size:1.1em;line-height:1.25'>Press <strong>Next</strong> to continue.</p>","0","custom-html-button-response","0","11063","0.0-0.0","88","1","2025-07-30 10:16:49","36c45c0696341be0efffe67d72a12abb","41.13.106.26","Mozilla/5.0 (Windows NT 10.0; Win64; x64) AppleWebKit/537.36 (KHTML, like Gecko) Chrome/138.0.0.0 Safari/537.36","WebKit","Chrome","138.0.0.0","Windows","10.0","https://app.prolific.com/","en-ZA,en-AU;q=0.9,en-GB;q=0.8,en-US;q=0.7,en;q=0.6,st;q=0.5,et;q=0.4","678f8c443d3e97127a5e529b","687a360dabe5252b5ada7185","6889ee9ddecb21c1527627ad","0","678f8c443d3e97127a5e529b","0","2025-07-30T10:06:45.797Z","","","","","","","","","","","","","","","","","","","","","","","","","","","","","","","","","","","","","","","","","",""
"48235","","","","fullscreen","1","60366","0.0-1.0","88","1","2025-07-30 10:16:49","36c45c0696341be0efffe67d72a12abb","41.13.106.26","Mozilla/5.0 (Windows NT 10.0; Win64; x64) AppleWebKit/537.36 (KHTML, like Gecko) Chrome/138.0.0.0 Safari/537.36","WebKit","Chrome","138.0.0.0","Windows","10.0","https://app.prolific.com/","en-ZA,en-AU;q=0.9,en-GB;q=0.8,en-US;q=0.7,en;q=0.6,st;q=0.5,et;q=0.4","678f8c443d3e97127a5e529b","687a360dabe5252b5ada7185","6889ee9ddecb21c1527627ad","0","678f8c443d3e97127a5e529b","0","","true","","","","","","","","","","","","","","","","","","","","","","","","","","","","","","","","","","","","","","","","",""
"56925","1753870112026"," <p style='font-size:1.1em;line-height:1.25'>Thank you for closing all other tabs.</p><p style='font-size:1.1em;line-height:1.25'>We will now invite you to fill in some questionnaires, before starting the game.<br>This will take about 5 minutes.<br></p><p style='font-size:1.1em;line-height:1.25'>Press the <strong>Next</strong> button to continue.</p>","0","custom-html-button-response","2","117293","0.0-2.0","88","1","2025-07-30 10:16:49","36c45c0696341be0efffe67d72a12abb","41.13.106.26","Mozilla/5.0 (Windows NT 10.0; Win64; x64) AppleWebKit/537.36 (KHTML, like Gecko) Chrome/138.0.0.0 Safari/537.36","WebKit","Chrome","138.0.0.0","Windows","10.0","https://app.prolific.com/","en-ZA,en-AU;q=0.9,en-GB;q=0.8,en-US;q=0.7,en;q=0.6,st;q=0.5,et;q=0.4","678f8c443d3e97127a5e529b","687a360dabe5252b5ada7185","6889ee9ddecb21c1527627ad","0","678f8c443d3e97127a5e529b","0","2025-07-30T10:08:32.028Z","","","","","","","","","","","","","","","","","","","","","","","","","","","","","","","","","","","","","","","","","",""
"6344","","","{""assigned_sex"":""female""}","survey-multi-choice","3","123834","0.0-3.0-0.0","88","1","2025-07-30 10:16:49","36c45c0696341be0efffe67d72a12abb","41.13.106.26","Mozilla/5.0 (Windows NT 10.0; Win64; x64) AppleWebKit/537.36 (KHTML, like Gecko) Chrome/138.0.0.0 Safari/537.36","WebKit","Chrome","138.0.0.0","Windows","10.0","https://app.prolific.com/","en-ZA,en-AU;q=0.9,en-GB;q=0.8,en-US;q=0.7,en;q=0.6,st;q=0.5,et;q=0.4","678f8c443d3e97127a5e529b","687a360dabe5252b5ada7185","6889ee9ddecb21c1527627ad","0","678f8c443d3e97127a5e529b","0","","","[0]","0","demographics","","","","","","","","","","","","","","","","","","","","","","","","","","","","","","","","","","","","","",""
"5939","1753870124508","<p style='font-size:1.1em;line-height:1.25'>In the following, we will perform a baseline assessment. This means that we will ask you a few questions relating to your experiences over the past month.<br></p><p style='font-size:1.1em;line-height:1.25'>Press the <strong>Next</strong> button to continue.</p>","0","custom-html-button-response","4","129774","0.0-4.0-0.0","88","1","2025-07-30 10:16:49","36c45c0696341be0efffe67d72a12abb","41.13.106.26","Mozilla/5.0 (Windows NT 10.0; Win64; x64) AppleWebKit/537.36 (KHTML, like Gecko) Chrome/138.0.0.0 Safari/537.36","WebKit","Chrome","138.0.0.0","Windows","10.0","https://app.prolific.com/","en-ZA,en-AU;q=0.9,en-GB;q=0.8,en-US;q=0.7,en;q=0.6,st;q=0.5,et;q=0.4","678f8c443d3e97127a5e529b","687a360dabe5252b5ada7185","6889ee9ddecb21c1527627ad","0","678f8c443d3e97127a5e529b","0","2025-07-30T10:08:44.508Z","","","","","","","","","","","","","","","","","","","","","","","","","","","","","","","","","","","","","","","","","",""
"114486","","","","survey-template","5","244398","0.0-4.0-1.0","88","1","2025-07-30 10:16:49","36c45c0696341be0efffe67d72a12abb","41.13.106.26","Mozilla/5.0 (Windows NT 10.0; Win64; x64) AppleWebKit/537.36 (KHTML, like Gecko) Chrome/138.0.0.0 Safari/537.36","WebKit","Chrome","138.0.0.0","Windows","10.0","https://app.prolific.com/","en-ZA,en-AU;q=0.9,en-GB;q=0.8,en-US;q=0.7,en;q=0.6,st;q=0.5,et;q=0.4","678f8c443d3e97127a5e529b","687a360dabe5252b5ada7185","6889ee9ddecb21c1527627ad","0","678f8c443d3e97127a5e529b","0","2025-07-30T10:10:39.132Z","","","","pss","{""Q01"":""2"",""Q02"":""0"",""Q03"":""1"",""Q04"":""0"",""Q05"":""0"",""Q06"":""1"",""Q07"":""0"",""Q08"":""0"",""Q09"":""1"",""Q10"":""0""}","[0,1,2,3,4,5,6,7,8,9]","[""Q01"",""Q02"",""Q02"",""Q03"",""Q04"",""Q05"",""Q06"",""Q07"",""Q08"",""Q09"",""Q10""]","[13632.200000047684,21206.900000035763,25747.80000001192,42477.80000001192,60866.700000047684,65820.90000003576,73043.20000004768,87028.90000003576,92703.20000004768,103533.60000002384,112750.60000002384]","[]","[0.30000001192092896,13632.200000047684,21206.900000035763,25747.80000001192,42477.80000001192,60866.700000047684,65820.90000003576,73043.20000004768,87028.90000003576,92703.20000004768,103533.60000002384,112750.60000002384,114481.20000004768]","0.4","0.2222222222222222","0","","","","","","","","","","","","","","","","","","","","","","","","","","","","",""
"3133","1753870242266","<p style='font-size:1.1em;line-height:1.25'>Thank you for your answers! Now we will ask you a few more questions relating to your feelings in the last 24 hours.<br></p><p style='font-size:1.1em;line-height:1.25'>Press the <strong>Next</strong> button to continue.</p>","0","custom-html-button-response","6","247536","0.0-4.0-2.0","88","1","2025-07-30 10:16:49","36c45c0696341be0efffe67d72a12abb","41.13.106.26","Mozilla/5.0 (Windows NT 10.0; Win64; x64) AppleWebKit/537.36 (KHTML, like Gecko) Chrome/138.0.0.0 Safari/537.36","WebKit","Chrome","138.0.0.0","Windows","10.0","https://app.prolific.com/","en-ZA,en-AU;q=0.9,en-GB;q=0.8,en-US;q=0.7,en;q=0.6,st;q=0.5,et;q=0.4","678f8c443d3e97127a5e529b","687a360dabe5252b5ada7185","6889ee9ddecb21c1527627ad","0","678f8c443d3e97127a5e529b","0","2025-07-30T10:10:42.270Z","","","","","","","","","","","","","","","","","","","","","","","","","","","","","","","","","","","","","","","","","",""
"126807.69999998808","","","","survey-template","7","374353","0.0-4.0-3.0","88","1","2025-07-30 10:16:49","36c45c0696341be0efffe67d72a12abb","41.13.106.26","Mozilla/5.0 (Windows NT 10.0; Win64; x64) AppleWebKit/537.36 (KHTML, like Gecko) Chrome/138.0.0.0 Safari/537.36","WebKit","Chrome","138.0.0.0","Windows","10.0","https://app.prolific.com/","en-ZA,en-AU;q=0.9,en-GB;q=0.8,en-US;q=0.7,en;q=0.6,st;q=0.5,et;q=0.4","678f8c443d3e97127a5e529b","687a360dabe5252b5ada7185","6889ee9ddecb21c1527627ad","0","678f8c443d3e97127a5e529b","0","2025-07-30T10:12:49.088Z","","","","drsp","{""Q01"":""0"",""Q02"":""0"",""Q03"":""0"",""Q04"":""1"",""Q05"":""0"",""Q06"":""0"",""Q07"":""0"",""Q08"":""2"",""Q09"":""0"",""Q10"":""0"",""Q11"":""1"",""Q12"":""1"",""Q13"":""5"",""Q14"":""3"",""Q15"":""4"",""Q16"":""1"",""Q17"":""0"",""Q18"":""0"",""Q19"":""2"",""Q20"":""1"",""Q21"":""0"",""Q22"":""1""}","[0,1,2,3,4,5,6,7,8,9,10,11,12,13,14,15,16,17,18,19,20,21]","[""Q01"",""Q02"",""Q03"",""Q04"",""Q05"",""Q07"",""Q08"",""Q09"",""Q10"",""Q11"",""Q12"",""Q13"",""Q14"",""Q15"",""Q16"",""Q17"",""Q18"",""Q19"",""Q19"",""Q20"",""Q21"",""Q22"",""Q06""]","[5783.899999976158,7698.699999988079,9366.899999976158,13547.5,15901.199999988079,20249,25029.80000001192,33804.09999996424,35912.09999996424,38814.59999996424,44349,49105.09999996424,53098.5,59510.89999997616,73678.89999997616,75377.39999997616,76495,80422.09999996424,83277.30000001192,91711.69999998808,98229,102292.69999998808,119589.5]","[]","[0,5783.899999976158,7698.699999988079,9366.899999976158,13547.5,15901.199999988079,18676.5,20249,25029.80000001192,33804.09999996424,35912.09999996424,38814.59999996424,44349,49105.09999996424,53098.5,59510.89999997616,73678.89999997616,75377.39999997616,76495,80422.09999996424,83277.30000001192,91711.69999998808,98229,102292.69999998808,104011.89999997616,119589.5,126790.69999998808]","0.5","0.38095238095238093","0","","","","","","","","","","","","","","","","","","","","","","","","","","","","",""
"28630.400000035763","","","","survey-template","8","402988","0.0-4.0-4.0","88","1","2025-07-30 10:16:49","36c45c0696341be0efffe67d72a12abb","41.13.106.26","Mozilla/5.0 (Windows NT 10.0; Win64; x64) AppleWebKit/537.36 (KHTML, like Gecko) Chrome/138.0.0.0 Safari/537.36","WebKit","Chrome","138.0.0.0","Windows","10.0","https://app.prolific.com/","en-ZA,en-AU;q=0.9,en-GB;q=0.8,en-US;q=0.7,en;q=0.6,st;q=0.5,et;q=0.4","678f8c443d3e97127a5e529b","687a360dabe5252b5ada7185","6889ee9ddecb21c1527627ad","0","678f8c443d3e97127a5e529b","0","2025-07-30T10:13:17.722Z","","","","stress","{""Q01"":""0"",""Q02"":""0"",""Q03"":""0""}","[0,1,2]","[""Q01"",""Q03"",""Q02"",""Q02""]","[14643.900000035763,19268.200000047684,23786.600000023842,25758.900000035763]","[]","[12225.800000011921,14643.900000035763,16168.200000047684,19268.200000047684,21011.600000023842,23786.600000023842,25758.900000035763,28627.400000035763]","0.6666666666666666","1","0","","","","","","","","","","","","","","","","","","","","","","","","","","","","",""
"68734","","","","instructions","9","471726","0.0-5.0-0.0","88","1","2025-07-30 10:16:49","36c45c0696341be0efffe67d72a12abb","41.13.106.26","Mozilla/5.0 (Windows NT 10.0; Win64; x64) AppleWebKit/537.36 (KHTML, like Gecko) Chrome/138.0.0.0 Safari/537.36","WebKit","Chrome","138.0.0.0","Windows","10.0","https://app.prolific.com/","en-ZA,en-AU;q=0.9,en-GB;q=0.8,en-US;q=0.7,en;q=0.6,st;q=0.5,et;q=0.4","678f8c443d3e97127a5e529b","687a360dabe5252b5ada7185","6889ee9ddecb21c1527627ad","0","678f8c443d3e97127a5e529b","0","","","","","","","","","","","","","","","[{""page_index"":0,""viewing_time"":68733}]","","","","","","","","","","","","","","","","","","","","","","","","","","","",""
"20679","","<p>Before you start with this game please answer the following three questions yourself. </p>
  <p>Through this game, we measure several aspects of your cognitive performance, such as reaction times, multi-tasking capabilities </p>
  <p>and the ability to assess the situation you are in.</p>
  <p></p>
  <p><b>How good do you usually are in such tasks?</b></p>","100","html-slider-response","10","492410","0.0-6.0-0.0","88","1","2025-07-30 10:16:49","36c45c0696341be0efffe67d72a12abb","41.13.106.26","Mozilla/5.0 (Windows NT 10.0; Win64; x64) AppleWebKit/537.36 (KHTML, like Gecko) Chrome/138.0.0.0 Safari/537.36","WebKit","Chrome","138.0.0.0","Windows","10.0","https://app.prolific.com/","en-ZA,en-AU;q=0.9,en-GB;q=0.8,en-US;q=0.7,en;q=0.6,st;q=0.5,et;q=0.4","678f8c443d3e97127a5e529b","687a360dabe5252b5ada7185","6889ee9ddecb21c1527627ad","0","678f8c443d3e97127a5e529b","0","2025-07-30T10:14:47.145Z","","","","PreSkillQ","","","","","","","","","","","50","","","","","","","","","","","","","","","","","","","","","","","","","","",""
"7421","","<div style=""width:500px;"">
  <p>How well do you think you will perform in this task compared to other participants?</p>
  </div>","100","html-slider-response","11","499835","0.0-6.0-1.0","88","1","2025-07-30 10:16:49","36c45c0696341be0efffe67d72a12abb","41.13.106.26","Mozilla/5.0 (Windows NT 10.0; Win64; x64) AppleWebKit/537.36 (KHTML, like Gecko) Chrome/138.0.0.0 Safari/537.36","WebKit","Chrome","138.0.0.0","Windows","10.0","https://app.prolific.com/","en-ZA,en-AU;q=0.9,en-GB;q=0.8,en-US;q=0.7,en;q=0.6,st;q=0.5,et;q=0.4","678f8c443d3e97127a5e529b","687a360dabe5252b5ada7185","6889ee9ddecb21c1527627ad","0","678f8c443d3e97127a5e529b","0","2025-07-30T10:14:54.569Z","","","","PrePerfQ","","","","","","","","","","","50","","","","","","","","","","","","","","","","","","","","","","","","","","",""
"13144","","<div style=""width:500px;"">
  <p>What best describes how you currently feel?</p>
  </div>","100","html-slider-response","12","512982","0.0-6.0-2.0","88","1","2025-07-30 10:16:49","36c45c0696341be0efffe67d72a12abb","41.13.106.26","Mozilla/5.0 (Windows NT 10.0; Win64; x64) AppleWebKit/537.36 (KHTML, like Gecko) Chrome/138.0.0.0 Safari/537.36","WebKit","Chrome","138.0.0.0","Windows","10.0","https://app.prolific.com/","en-ZA,en-AU;q=0.9,en-GB;q=0.8,en-US;q=0.7,en;q=0.6,st;q=0.5,et;q=0.4","678f8c443d3e97127a5e529b","687a360dabe5252b5ada7185","6889ee9ddecb21c1527627ad","0","678f8c443d3e97127a5e529b","0","2025-07-30T10:15:07.716Z","","","","PreMotivationQ","","","","","","","","","","","50","","","","","","","","","","","","","","","","","","","","","","","","","","",""
"","","","","ctl-task-cpt","13","541440","0.0-7.0-0.0","88","1","2025-07-30 10:16:49","36c45c0696341be0efffe67d72a12abb","41.13.106.26","Mozilla/5.0 (Windows NT 10.0; Win64; x64) AppleWebKit/537.36 (KHTML, like Gecko) Chrome/138.0.0.0 Safari/537.36","WebKit","Chrome","138.0.0.0","Windows","10.0","https://app.prolific.com/","en-ZA,en-AU;q=0.9,en-GB;q=0.8,en-US;q=0.7,en;q=0.6,st;q=0.5,et;q=0.4","678f8c443d3e97127a5e529b","687a360dabe5252b5ada7185","6889ee9ddecb21c1527627ad","0","678f8c443d3e97127a5e529b","0","2025-07-30T10:15:36.174Z","","","","","","","","","","","","","","","","win-only","3","g1:SW,g2:NE","1","1","0","548521.6","7928.3","12932.3","25447.4","1","4","8","6","1","1","1","1","0","0.007575757575757576","5003.8","3000","1500","[""down"",""left""]","{""num_key_presses"":4,""num_perfect"":4,""num_errors"":0,""num_randdir"":0,""num_randdir_good_moves"":0,""num_whilered"":0,""num_whileblue"":0,""num_blue"":0,""num_good_moves"":4}","[301.22232142857143,294.12857142857143,0.6,301.22232142857143,294.12857142857143,104,301.22232142857143,294.12857142857143,210.1,301.22232142857143,294.12857142857143,311.4,301.22232142857143,294.12857142857143,415.1,301.22232142857143,294.12857142857143,520.1,301.22232142857143,294.12857142857143,627,301.22232142857143,294.12857142857143,727.3,301.22232142857143,294.12857142857143,835.9,301.22232142857143,294.12857142857143,937.9,301.22232142857143,294.12857142857143,1043.1,301.22232142857143,294.12857142857143,1143.8,301.22232142857143,294.12857142857143,1252,301.22232142857143,294.12857142857143,1352.7,301.22232142857143,294.12857142857143,1458.7,301.22232142857143,294.12857142857143,1560.5,301.22232142857143,294.12857142857143,1673.9,301.22232142857143,294.12857142857143,1777,301.22232142857143,294.12857142857143,1878,301.22232142857143,294.12857142857143,1979,301.22232142857143,294.12857142857143,2088.8,301.22232142857143,294.12857142857143,2196.2,301.22232142857143,294.12857142857143,2301.5,301.22232142857143,294.12857142857143,2404.5,301.22232142857143,294.12857142857143,2505.8,301.22232142857143,294.12857142857143,2610.4,301.22232142857143,294.12857142857143,2710.5,301.22232142857143,294.12857142857143,2863.4,301.22232142857143,294.12857142857143,2973.7,301.22232142857143,294.12857142857143,3082.4,301.22232142857143,294.12857142857143,3188.6,301.22232142857143,294.12857142857143,3289.3,301.22232142857143,294.12857142857143,3391.4,301.22232142857143,294.12857142857143,3493.7,301.22232142857143,294.12857142857143,3594.6,301.22232142857143,294.12857142857143,3694.6,301.22232142857143,294.12857142857143,3795,301.22232142857143,294.12857142857143,3904.5,301.22232142857143,294.12857142857143,4010.9,301.22232142857143,294.12857142857143,4116.5,301.22232142857143,294.12857142857143,4222.8,301.22232142857143,294.12857142857143,4352.6,301.22232142857143,294.12857142857143,4456.8,301.22232142857143,294.12857142857143,4557.3,301.22232142857143,294.12857142857143,4659.3,301.22232142857143,294.12857142857143,4767.5,301.22232142857143,294.12857142857143,4873.8,301.22232142857143,294.12857142857143,4978]","[2029.9,2029.8,1000,0.1,1029.9,""smooth"",""down"",""down"",""good_move"",5716.9,3686,3185.8,2031,500.1,""smooth"",""down"",""down"",""good_move"",8292.2,2574.6,2111.9,5717.7,462.7,""smooth"",""left"",""left"",""good_move"",12366.9,4073.5,3376.5,8293.4,697,""smooth"",""left"",""left"",""good_move""]"
"5901","","<div style=""width:500px;"">
  <p>What determined the result of this run?</p>
  </div>","100","html-slider-response","14","547343","0.0-7.0-1.0","88","1","2025-07-30 10:16:49","36c45c0696341be0efffe67d72a12abb","41.13.106.26","Mozilla/5.0 (Windows NT 10.0; Win64; x64) AppleWebKit/537.36 (KHTML, like Gecko) Chrome/138.0.0.0 Safari/537.36","WebKit","Chrome","138.0.0.0","Windows","10.0","https://app.prolific.com/","en-ZA,en-AU;q=0.9,en-GB;q=0.8,en-US;q=0.7,en;q=0.6,st;q=0.5,et;q=0.4","678f8c443d3e97127a5e529b","687a360dabe5252b5ada7185","6889ee9ddecb21c1527627ad","0","678f8c443d3e97127a5e529b","0","2025-07-30T10:15:42.080Z","","","","AttribQ","","","","","","","","","","","50","","","","","","","","","","","","","","","","","","","","","","","","","","",""
"5044","","<div style=""width:500px;"">
  <p>How much control did you have over the ball?</p>
  </div>","100","html-slider-response","15","552395","0.0-7.0-2.0","88","1","2025-07-30 10:16:49","36c45c0696341be0efffe67d72a12abb","41.13.106.26","Mozilla/5.0 (Windows NT 10.0; Win64; x64) AppleWebKit/537.36 (KHTML, like Gecko) Chrome/138.0.0.0 Safari/537.36","WebKit","Chrome","138.0.0.0","Windows","10.0","https://app.prolific.com/","en-ZA,en-AU;q=0.9,en-GB;q=0.8,en-US;q=0.7,en;q=0.6,st;q=0.5,et;q=0.4","678f8c443d3e97127a5e529b","687a360dabe5252b5ada7185","6889ee9ddecb21c1527627ad","0","678f8c443d3e97127a5e529b","0","2025-07-30T10:15:47.129Z","","","","ControlQ","","","","","","","","","","","50","","","","","","","","","","","","","","","","","","","","","","","","","","",""
"4994","","<div style=""width:500px;"">
  <p>How would you describe your current emotional state?</p>
  </div>","0","html-slider-response","16","557392","0.0-7.0-3.0","88","1","2025-07-30 10:16:49","36c45c0696341be0efffe67d72a12abb","41.13.106.26","Mozilla/5.0 (Windows NT 10.0; Win64; x64) AppleWebKit/537.36 (KHTML, like Gecko) Chrome/138.0.0.0 Safari/537.36","WebKit","Chrome","138.0.0.0","Windows","10.0","https://app.prolific.com/","en-ZA,en-AU;q=0.9,en-GB;q=0.8,en-US;q=0.7,en;q=0.6,st;q=0.5,et;q=0.4","678f8c443d3e97127a5e529b","687a360dabe5252b5ada7185","6889ee9ddecb21c1527627ad","0","678f8c443d3e97127a5e529b","0","2025-07-30T10:15:52.126Z","","","","StressQ","","","","","","","","","","","50","","","","","","","","","","","","","","","","","","","","","","","","","","",""
"5913","","<div style=""width:500px;"">
  <p>What best describes how you currently feel?</p>
  </div>","100","html-slider-response","17","563308","0.0-7.0-4.0","88","1","2025-07-30 10:16:49","36c45c0696341be0efffe67d72a12abb","41.13.106.26","Mozilla/5.0 (Windows NT 10.0; Win64; x64) AppleWebKit/537.36 (KHTML, like Gecko) Chrome/138.0.0.0 Safari/537.36","WebKit","Chrome","138.0.0.0","Windows","10.0","https://app.prolific.com/","en-ZA,en-AU;q=0.9,en-GB;q=0.8,en-US;q=0.7,en;q=0.6,st;q=0.5,et;q=0.4","678f8c443d3e97127a5e529b","687a360dabe5252b5ada7185","6889ee9ddecb21c1527627ad","0","678f8c443d3e97127a5e529b","0","2025-07-30T10:15:58.042Z","","","","MotivationQ","","","","","","","","","","","50","","","","","","","","","","","","","","","","","","","","","","","","","","",""
"","","","","ctl-task-cpt","18","593610","0.0-7.0-0.1","88","1","2025-07-30 10:16:49","36c45c0696341be0efffe67d72a12abb","41.13.106.26","Mozilla/5.0 (Windows NT 10.0; Win64; x64) AppleWebKit/537.36 (KHTML, like Gecko) Chrome/138.0.0.0 Safari/537.36","WebKit","Chrome","138.0.0.0","Windows","10.0","https://app.prolific.com/","en-ZA,en-AU;q=0.9,en-GB;q=0.8,en-US;q=0.7,en;q=0.6,st;q=0.5,et;q=0.4","678f8c443d3e97127a5e529b","687a360dabe5252b5ada7185","6889ee9ddecb21c1527627ad","0","678f8c443d3e97127a5e529b","0","2025-07-30T10:16:28.344Z","","","","","","","","","","","","","","","","win-only","1","g1:NE,g2:SW","0.9","2","0","598846.9","4137.6","9149","27290.1","1","4","4","6","1","1","1","2","1","0.015151515151515152","5011.4","3000","1370","[""up"",""right""]","{""num_key_presses"":6,""num_perfect"":5,""num_errors"":0,""num_randdir"":1,""num_randdir_good_moves"":0,""num_whilered"":0,""num_whileblue"":0,""num_blue"":0,""num_good_moves"":5}","[293.22232142857143,297.12857142857143,1.6,293.22232142857143,297.12857142857143,128.6,293.22232142857143,297.12857142857143,231.2,293.22232142857143,297.12857142857143,342.5,293.22232142857143,297.12857142857143,444.6,293.22232142857143,297.12857142857143,550,293.22232142857143,297.12857142857143,656.2,293.22232142857143,297.12857142857143,761.6,293.22232142857143,297.12857142857143,865.9,293.22232142857143,297.12857142857143,967.8,293.22232142857143,297.12857142857143,1073,293.22232142857143,297.12857142857143,1174.9,293.22232142857143,297.12857142857143,1289.4,293.22232142857143,297.12857142857143,1390.5,293.22232142857143,297.12857142857143,1518.3,293.22232142857143,297.12857142857143,1618.4,293.22232142857143,297.12857142857143,1719.1,293.22232142857143,297.12857142857143,1820.5,293.22232142857143,297.12857142857143,1923.7,293.22232142857143,297.12857142857143,2025.1,293.22232142857143,297.12857142857143,2130.4,293.22232142857143,297.12857142857143,2235.2,293.22232142857143,297.12857142857143,2336.7,293.22232142857143,297.12857142857143,2442.6,293.22232142857143,297.12857142857143,2546.7,293.22232142857143,297.12857142857143,2650.6,293.22232142857143,297.12857142857143,2756.4,293.22232142857143,297.12857142857143,2860.6,293.22232142857143,297.12857142857143,2971.9,293.22232142857143,297.12857142857143,3074.4,293.22232142857143,297.12857142857143,3184.5,293.22232142857143,297.12857142857143,3303.7,293.22232142857143,297.12857142857143,3406,293.22232142857143,297.12857142857143,3510.9,293.22232142857143,297.12857142857143,3622.2,293.22232142857143,297.12857142857143,3724.1,293.22232142857143,297.12857142857143,3836.7,293.22232142857143,297.12857142857143,3938.3,293.22232142857143,297.12857142857143,4039.3,293.22232142857143,297.12857142857143,4139.4,293.22232142857143,297.12857142857143,4251.8,293.22232142857143,297.12857142857143,4356.4,293.22232142857143,297.12857142857143,4463.1,293.22232142857143,297.12857142857143,4564.6,293.22232142857143,297.12857142857143,4674,293.22232142857143,297.12857142857143,4778.5,293.22232142857143,297.12857142857143,4878.8,293.22232142857143,297.12857142857143,4987.1]","[1503.5,1503.5,1000,0.1,503.5,""smooth"",""right"",""right"",""good_move"",4889.6,3382.5,2973.1,1507.2,409.4,""oops"",""right"",""down"",""bad_move"",8020.8,3130.3,2624.3,4890.6,505.9,""smooth"",""right"",""right"",""good_move"",11635.4,3613.9,3168.9,8021.5,445,""smooth"",""up"",""up"",""good_move"",14722.3,3085.9,2613.7,11636.5,472.1,""smooth"",""up"",""up"",""good_move"",18015.9,3292.8,2875.7,14723.2,417,""smooth"",""up"",""up"",""good_move""]"
"6964","","<div style=""width:500px;"">
  <p>What determined the result of this run?</p>
  </div>","100","html-slider-response","19","600576","0.0-7.0-1.1","88","1","2025-07-30 10:16:49","36c45c0696341be0efffe67d72a12abb","41.13.106.26","Mozilla/5.0 (Windows NT 10.0; Win64; x64) AppleWebKit/537.36 (KHTML, like Gecko) Chrome/138.0.0.0 Safari/537.36","WebKit","Chrome","138.0.0.0","Windows","10.0","https://app.prolific.com/","en-ZA,en-AU;q=0.9,en-GB;q=0.8,en-US;q=0.7,en;q=0.6,st;q=0.5,et;q=0.4","678f8c443d3e97127a5e529b","687a360dabe5252b5ada7185","6889ee9ddecb21c1527627ad","0","678f8c443d3e97127a5e529b","0","2025-07-30T10:16:35.311Z","","","","AttribQ","","","","","","","","","","","50","","","","","","","","","","","","","","","","","","","","","","","","","","",""
"4613","","<div style=""width:500px;"">
  <p>How much control did you have over the ball?</p>
  </div>","100","html-slider-response","20","605193","0.0-7.0-2.1","88","1","2025-07-30 10:16:49","36c45c0696341be0efffe67d72a12abb","41.13.106.26","Mozilla/5.0 (Windows NT 10.0; Win64; x64) AppleWebKit/537.36 (KHTML, like Gecko) Chrome/138.0.0.0 Safari/537.36","WebKit","Chrome","138.0.0.0","Windows","10.0","https://app.prolific.com/","en-ZA,en-AU;q=0.9,en-GB;q=0.8,en-US;q=0.7,en;q=0.6,st;q=0.5,et;q=0.4","678f8c443d3e97127a5e529b","687a360dabe5252b5ada7185","6889ee9ddecb21c1527627ad","0","678f8c443d3e97127a5e529b","0","2025-07-30T10:16:39.928Z","","","","ControlQ","","","","","","","","","","","50","","","","","","","","","","","","","","","","","","","","","","","","","","",""
"4593","","<div style=""width:500px;"">
  <p>How would you describe your current emotional state?</p>
  </div>","0","html-slider-response","21","609791","0.0-7.0-3.1","88","1","2025-07-30 10:16:49","36c45c0696341be0efffe67d72a12abb","41.13.106.26","Mozilla/5.0 (Windows NT 10.0; Win64; x64) AppleWebKit/537.36 (KHTML, like Gecko) Chrome/138.0.0.0 Safari/537.36","WebKit","Chrome","138.0.0.0","Windows","10.0","https://app.prolific.com/","en-ZA,en-AU;q=0.9,en-GB;q=0.8,en-US;q=0.7,en;q=0.6,st;q=0.5,et;q=0.4","678f8c443d3e97127a5e529b","687a360dabe5252b5ada7185","6889ee9ddecb21c1527627ad","0","678f8c443d3e97127a5e529b","0","2025-07-30T10:16:44.525Z","","","","StressQ","","","","","","","","","","","50","","","","","","","","","","","","","","","","","","","","","","","","","","",""
"4255","","<div style=""width:500px;"">
  <p>What best describes how you currently feel?</p>
  </div>","100","html-slider-response","22","614050","0.0-7.0-4.1","88","1","2025-07-30 10:16:49","36c45c0696341be0efffe67d72a12abb","41.13.106.26","Mozilla/5.0 (Windows NT 10.0; Win64; x64) AppleWebKit/537.36 (KHTML, like Gecko) Chrome/138.0.0.0 Safari/537.36","WebKit","Chrome","138.0.0.0","Windows","10.0","https://app.prolific.com/","en-ZA,en-AU;q=0.9,en-GB;q=0.8,en-US;q=0.7,en;q=0.6,st;q=0.5,et;q=0.4","678f8c443d3e97127a5e529b","687a360dabe5252b5ada7185","6889ee9ddecb21c1527627ad","0","678f8c443d3e97127a5e529b","0","2025-07-30T10:16:48.784Z","","","","MotivationQ","","","","","","","","","","","50","","","","","","","","","","","","","","","","","","","","","","","","","","",""
"","","","","ctl-task-cpt","23","648960","0.0-7.0-0.2","88","1","2025-07-30 10:16:49","36c45c0696341be0efffe67d72a12abb","41.13.106.26","Mozilla/5.0 (Windows NT 10.0; Win64; x64) AppleWebKit/537.36 (KHTML, like Gecko) Chrome/138.0.0.0 Safari/537.36","WebKit","Chrome","138.0.0.0","Windows","10.0","https://app.prolific.com/","en-ZA,en-AU;q=0.9,en-GB;q=0.8,en-US;q=0.7,en;q=0.6,st;q=0.5,et;q=0.4","678f8c443d3e97127a5e529b","687a360dabe5252b5ada7185","6889ee9ddecb21c1527627ad","0","678f8c443d3e97127a5e529b","0","2025-07-30T10:17:23.694Z","","","","","","","","","","","","","","","","win-only","2","g1:SE,g2:NW","0.8","3","0","649588.4","1617","6622.5","31891.4","1","4","8","6","2","8","8","10","2","0.07575757575757576","5005.3","3000","545","[""left"",""up""]","{""num_key_presses"":6,""num_perfect"":5,""num_errors"":0,""num_randdir"":1,""num_randdir_good_moves"":1,""num_whilered"":0,""num_whileblue"":0,""num_blue"":2,""num_good_moves"":6}","[293.22232142857143,301.12857142857143,3.3,293.22232142857143,301.12857142857143,135.3,293.22232142857143,301.12857142857143,327.8,293.22232142857143,301.12857142857143,428.3,293.22232142857143,301.12857142857143,529.6,293.22232142857143,301.12857142857143,632.5,293.22232142857143,301.12857142857143,734.7,293.22232142857143,301.12857142857143,844.5,293.22232142857143,301.12857142857143,949.2,293.22232142857143,301.12857142857143,1053.6,293.22232142857143,301.12857142857143,1155.8,293.22232142857143,301.12857142857143,1265.9,293.22232142857143,301.12857142857143,1366.2,293.22232142857143,301.12857142857143,1471.4,293.22232142857143,301.12857142857143,1574.1,293.22232142857143,301.12857142857143,1676.3,293.22232142857143,301.12857142857143,1781.4,293.22232142857143,301.12857142857143,1883.4,293.22232142857143,301.12857142857143,1983.5,293.22232142857143,301.12857142857143,2088,293.22232142857143,301.12857142857143,2189,293.22232142857143,301.12857142857143,2293.6,293.22232142857143,301.12857142857143,2399.3,293.22232142857143,301.12857142857143,2504.4,293.22232142857143,301.12857142857143,2614.9,293.22232142857143,301.12857142857143,2721.8,293.22232142857143,301.12857142857143,2828.3,293.22232142857143,301.12857142857143,2932.4,293.22232142857143,301.12857142857143,3039.4,293.22232142857143,301.12857142857143,3148.5,293.22232142857143,301.12857142857143,3254.7,293.22232142857143,301.12857142857143,3371,293.22232142857143,301.12857142857143,3478.6,293.22232142857143,301.12857142857143,3583.1,293.22232142857143,301.12857142857143,3689.9,293.22232142857143,301.12857142857143,3800.2,293.22232142857143,301.12857142857143,3904.9,293.22232142857143,301.12857142857143,4011.4,293.22232142857143,301.12857142857143,4114.4,293.22232142857143,301.12857142857143,4224.2,293.22232142857143,301.12857142857143,4333.4,293.22232142857143,301.12857142857143,4438.5,293.22232142857143,301.12857142857143,4544.3,293.22232142857143,301.12857142857143,4650,293.22232142857143,301.12857142857143,4759.5,293.22232142857143,301.12857142857143,4866.3,293.22232142857143,301.12857142857143,4980.6]","[5997.3,5997.3,2434.7,2026.2,1536.4,""smooth"",""up"",""up"",""good_move"",9114.7,3116.2,2554.1,5998.5,562.1,""oops"",""up"",""left"",""good_move"",15640.5,6524.6,2240.9,12946.6,453,""smooth"",""left"",""left"",""good_move"",18912.3,3271.3,2779.2,15641,492.1,""smooth"",""left"",""left"",""good_move"",21803.5,2889.7,2467.9,18913.8,421.8,""smooth"",""up"",""up"",""good_move"",25127.7,3323.3,2911.7,21804.4,411.6,""smooth"",""up"",""up"",""good_move""]"
"3915","","<div style=""width:500px;"">
  <p>What determined the result of this run?</p>
  </div>","100","html-slider-response","24","652877","0.0-7.0-1.2","88","1","2025-07-30 10:16:49","36c45c0696341be0efffe67d72a12abb","41.13.106.26","Mozilla/5.0 (Windows NT 10.0; Win64; x64) AppleWebKit/537.36 (KHTML, like Gecko) Chrome/138.0.0.0 Safari/537.36","WebKit","Chrome","138.0.0.0","Windows","10.0","https://app.prolific.com/","en-ZA,en-AU;q=0.9,en-GB;q=0.8,en-US;q=0.7,en;q=0.6,st;q=0.5,et;q=0.4","678f8c443d3e97127a5e529b","687a360dabe5252b5ada7185","6889ee9ddecb21c1527627ad","0","678f8c443d3e97127a5e529b","0","2025-07-30T10:17:27.611Z","","","","AttribQ","","","","","","","","","","","50","","","","","","","","","","","","","","","","","","","","","","","","","","",""
"3495","","<div style=""width:500px;"">
  <p>How much control did you have over the ball?</p>
  </div>","100","html-slider-response","25","656375","0.0-7.0-2.2","88","1","2025-07-30 10:16:49","36c45c0696341be0efffe67d72a12abb","41.13.106.26","Mozilla/5.0 (Windows NT 10.0; Win64; x64) AppleWebKit/537.36 (KHTML, like Gecko) Chrome/138.0.0.0 Safari/537.36","WebKit","Chrome","138.0.0.0","Windows","10.0","https://app.prolific.com/","en-ZA,en-AU;q=0.9,en-GB;q=0.8,en-US;q=0.7,en;q=0.6,st;q=0.5,et;q=0.4","678f8c443d3e97127a5e529b","687a360dabe5252b5ada7185","6889ee9ddecb21c1527627ad","0","678f8c443d3e97127a5e529b","0","2025-07-30T10:17:31.109Z","","","","ControlQ","","","","","","","","","","","50","","","","","","","","","","","","","","","","","","","","","","","","","","",""
"3859","","<div style=""width:500px;"">
  <p>How would you describe your current emotional state?</p>
  </div>","0","html-slider-response","26","660238","0.0-7.0-3.2","88","1","2025-07-30 10:16:49","36c45c0696341be0efffe67d72a12abb","41.13.106.26","Mozilla/5.0 (Windows NT 10.0; Win64; x64) AppleWebKit/537.36 (KHTML, like Gecko) Chrome/138.0.0.0 Safari/537.36","WebKit","Chrome","138.0.0.0","Windows","10.0","https://app.prolific.com/","en-ZA,en-AU;q=0.9,en-GB;q=0.8,en-US;q=0.7,en;q=0.6,st;q=0.5,et;q=0.4","678f8c443d3e97127a5e529b","687a360dabe5252b5ada7185","6889ee9ddecb21c1527627ad","0","678f8c443d3e97127a5e529b","0","2025-07-30T10:17:34.972Z","","","","StressQ","","","","","","","","","","","50","","","","","","","","","","","","","","","","","","","","","","","","","","",""
"4761","","<div style=""width:500px;"">
  <p>What best describes how you currently feel?</p>
  </div>","100","html-slider-response","27","665003","0.0-7.0-4.2","88","1","2025-07-30 10:16:49","36c45c0696341be0efffe67d72a12abb","41.13.106.26","Mozilla/5.0 (Windows NT 10.0; Win64; x64) AppleWebKit/537.36 (KHTML, like Gecko) Chrome/138.0.0.0 Safari/537.36","WebKit","Chrome","138.0.0.0","Windows","10.0","https://app.prolific.com/","en-ZA,en-AU;q=0.9,en-GB;q=0.8,en-US;q=0.7,en;q=0.6,st;q=0.5,et;q=0.4","678f8c443d3e97127a5e529b","687a360dabe5252b5ada7185","6889ee9ddecb21c1527627ad","0","678f8c443d3e97127a5e529b","0","2025-07-30T10:17:39.737Z","","","","MotivationQ","","","","","","","","","","","50","","","","","","","","","","","","","","","","","","","","","","","","","","",""
"","","","","ctl-task-cpt","28","689938","0.0-7.0-0.3","88","1","2025-07-30 10:16:49","36c45c0696341be0efffe67d72a12abb","41.13.106.26","Mozilla/5.0 (Windows NT 10.0; Win64; x64) AppleWebKit/537.36 (KHTML, like Gecko) Chrome/138.0.0.0 Safari/537.36","WebKit","Chrome","138.0.0.0","Windows","10.0","https://app.prolific.com/","en-ZA,en-AU;q=0.9,en-GB;q=0.8,en-US;q=0.7,en;q=0.6,st;q=0.5,et;q=0.4","678f8c443d3e97127a5e529b","687a360dabe5252b5ada7185","6889ee9ddecb21c1527627ad","0","678f8c443d3e97127a5e529b","0","2025-07-30T10:18:04.672Z","","","","","","","","","","","","","","","","win-only","1","g1:NE,g2:SW","0.7","4","0","700541","2488.7","7499.6","21910.4","1","4","4","6","1","1","1","11","10","0.08333333333333333","5010.9","3000","1650","[""up"",""right""]","{""num_key_presses"":4,""num_perfect"":3,""num_errors"":0,""num_randdir"":1,""num_randdir_good_moves"":1,""num_whilered"":0,""num_whileblue"":0,""num_blue"":1,""num_good_moves"":4}","[296.22232142857143,296.12857142857143,0.6,296.22232142857143,296.12857142857143,329.1,296.22232142857143,296.12857142857143,437.2,296.22232142857143,296.12857142857143,538.3,296.22232142857143,296.12857142857143,643.1,296.22232142857143,296.12857142857143,748.6,296.22232142857143,296.12857142857143,860.3,296.22232142857143,296.12857142857143,964.4,296.22232142857143,296.12857142857143,1066.1,296.22232142857143,296.12857142857143,1166.5,296.22232142857143,296.12857142857143,1269.5,296.22232142857143,296.12857142857143,1377.2,296.22232142857143,296.12857142857143,1485.7,296.22232142857143,296.12857142857143,1592.9,296.22232142857143,296.12857142857143,1697.9,296.22232142857143,296.12857142857143,1802.5,296.22232142857143,296.12857142857143,1907.7,296.22232142857143,296.12857142857143,2010.7,296.22232142857143,296.12857142857143,2114.3,296.22232142857143,296.12857142857143,2219.2,296.22232142857143,296.12857142857143,2327.5,296.22232142857143,296.12857142857143,2433.7,296.22232142857143,296.12857142857143,2543.3,296.22232142857143,296.12857142857143,2648.8,296.22232142857143,296.12857142857143,2754.4,296.22232142857143,296.12857142857143,2866.5,296.22232142857143,296.12857142857143,2969.9,296.22232142857143,296.12857142857143,3076.9,296.22232142857143,296.12857142857143,3182.3,296.22232142857143,296.12857142857143,3293.4,296.22232142857143,296.12857142857143,3402.8,296.22232142857143,296.12857142857143,3509.2,296.22232142857143,296.12857142857143,3616.3,296.22232142857143,296.12857142857143,3726.8,296.22232142857143,296.12857142857143,3830.8,296.22232142857143,296.12857142857143,3935.4,296.22232142857143,296.12857142857143,4044.2,296.22232142857143,296.12857142857143,4152.8,296.22232142857143,296.12857142857143,4260.3,296.22232142857143,296.12857142857143,4366.5,296.22232142857143,296.12857142857143,4469.7,296.22232142857143,296.12857142857143,4576.9,296.22232142857143,296.12857142857143,4684.7,296.22232142857143,296.12857142857143,4792.6,296.22232142857143,296.12857142857143,4899.3]","[1655.7,1655.7,1000,0,655.7,""smooth"",""right"",""right"",""good_move"",8359.8,6703.4,2472.5,5410.8,476.5,""smooth"",""right"",""right"",""good_move"",11046.9,2685.7,2090.2,8361.2,595.5,""smooth"",""up"",""up"",""good_move"",14281.5,3233.7,2819.4,11047.8,414.3,""oops"",""up"",""up"",""good_move""]"
"3987","","<div style=""width:500px;"">
  <p>What determined the result of this run?</p>
  </div>","100","html-slider-response","29","693927","0.0-7.0-1.3","88","1","2025-07-30 10:16:49","36c45c0696341be0efffe67d72a12abb","41.13.106.26","Mozilla/5.0 (Windows NT 10.0; Win64; x64) AppleWebKit/537.36 (KHTML, like Gecko) Chrome/138.0.0.0 Safari/537.36","WebKit","Chrome","138.0.0.0","Windows","10.0","https://app.prolific.com/","en-ZA,en-AU;q=0.9,en-GB;q=0.8,en-US;q=0.7,en;q=0.6,st;q=0.5,et;q=0.4","678f8c443d3e97127a5e529b","687a360dabe5252b5ada7185","6889ee9ddecb21c1527627ad","0","678f8c443d3e97127a5e529b","0","2025-07-30T10:18:08.661Z","","","","AttribQ","","","","","","","","","","","50","","","","","","","","","","","","","","","","","","","","","","","","","","",""
"4324","","<div style=""width:500px;"">
  <p>How much control did you have over the ball?</p>
  </div>","100","html-slider-response","30","698252","0.0-7.0-2.3","88","1","2025-07-30 10:16:49","36c45c0696341be0efffe67d72a12abb","41.13.106.26","Mozilla/5.0 (Windows NT 10.0; Win64; x64) AppleWebKit/537.36 (KHTML, like Gecko) Chrome/138.0.0.0 Safari/537.36","WebKit","Chrome","138.0.0.0","Windows","10.0","https://app.prolific.com/","en-ZA,en-AU;q=0.9,en-GB;q=0.8,en-US;q=0.7,en;q=0.6,st;q=0.5,et;q=0.4","678f8c443d3e97127a5e529b","687a360dabe5252b5ada7185","6889ee9ddecb21c1527627ad","0","678f8c443d3e97127a5e529b","0","2025-07-30T10:18:12.986Z","","","","ControlQ","","","","","","","","","","","50","","","","","","","","","","","","","","","","","","","","","","","","","","",""
"4418","","<div style=""width:500px;"">
  <p>How would you describe your current emotional state?</p>
  </div>","0","html-slider-response","31","702672","0.0-7.0-3.3","88","1","2025-07-30 10:16:49","36c45c0696341be0efffe67d72a12abb","41.13.106.26","Mozilla/5.0 (Windows NT 10.0; Win64; x64) AppleWebKit/537.36 (KHTML, like Gecko) Chrome/138.0.0.0 Safari/537.36","WebKit","Chrome","138.0.0.0","Windows","10.0","https://app.prolific.com/","en-ZA,en-AU;q=0.9,en-GB;q=0.8,en-US;q=0.7,en;q=0.6,st;q=0.5,et;q=0.4","678f8c443d3e97127a5e529b","687a360dabe5252b5ada7185","6889ee9ddecb21c1527627ad","0","678f8c443d3e97127a5e529b","0","2025-07-30T10:18:17.407Z","","","","StressQ","","","","","","","","","","","50","","","","","","","","","","","","","","","","","","","","","","","","","","",""
"4072","","<div style=""width:500px;"">
  <p>What best describes how you currently feel?</p>
  </div>","100","html-slider-response","32","706747","0.0-7.0-4.3","88","1","2025-07-30 10:16:49","36c45c0696341be0efffe67d72a12abb","41.13.106.26","Mozilla/5.0 (Windows NT 10.0; Win64; x64) AppleWebKit/537.36 (KHTML, like Gecko) Chrome/138.0.0.0 Safari/537.36","WebKit","Chrome","138.0.0.0","Windows","10.0","https://app.prolific.com/","en-ZA,en-AU;q=0.9,en-GB;q=0.8,en-US;q=0.7,en;q=0.6,st;q=0.5,et;q=0.4","678f8c443d3e97127a5e529b","687a360dabe5252b5ada7185","6889ee9ddecb21c1527627ad","0","678f8c443d3e97127a5e529b","0","2025-07-30T10:18:21.481Z","","","","MotivationQ","","","","","","","","","","","50","","","","","","","","","","","","","","","","","","","","","","","","","","",""
"","","","","ctl-task-cpt","33","732095","0.0-7.0-0.4","88","1","2025-07-30 10:16:49","36c45c0696341be0efffe67d72a12abb","41.13.106.26","Mozilla/5.0 (Windows NT 10.0; Win64; x64) AppleWebKit/537.36 (KHTML, like Gecko) Chrome/138.0.0.0 Safari/537.36","WebKit","Chrome","138.0.0.0","Windows","10.0","https://app.prolific.com/","en-ZA,en-AU;q=0.9,en-GB;q=0.8,en-US;q=0.7,en;q=0.6,st;q=0.5,et;q=0.4","678f8c443d3e97127a5e529b","687a360dabe5252b5ada7185","6889ee9ddecb21c1527627ad","0","678f8c443d3e97127a5e529b","0","2025-07-30T10:18:46.829Z","","","","","","","","","","","","","","","","win-only","1","g1:NE,g2:SW","0.6","5","0","742286.2","1537.1","6559.7","22326.3","1","4","4","6","2","4","4","15","11","0.11363636363636363","5022.6","3000","1200","[""down"",""left""]","{""num_key_presses"":6,""num_perfect"":4,""num_errors"":0,""num_randdir"":2,""num_randdir_good_moves"":2,""num_whilered"":0,""num_whileblue"":0,""num_blue"":0,""num_good_moves"":6}","[296.22232142857143,302.12857142857143,0.5,296.22232142857143,302.12857142857143,103.7,296.22232142857143,302.12857142857143,204,296.22232142857143,302.12857142857143,309.6,296.22232142857143,302.12857142857143,414.2,296.22232142857143,302.12857142857143,514.5,296.22232142857143,302.12857142857143,620.5,296.22232142857143,302.12857142857143,724.5,296.22232142857143,302.12857142857143,832.1,296.22232142857143,302.12857142857143,942.2,296.22232142857143,302.12857142857143,1044.1,296.22232142857143,302.12857142857143,1154.3,296.22232142857143,302.12857142857143,1257.4,296.22232142857143,302.12857142857143,1357.4,296.22232142857143,302.12857142857143,1464.8,296.22232142857143,302.12857142857143,1564.8,296.22232142857143,302.12857142857143,1664.9,296.22232142857143,302.12857142857143,1765.6,296.22232142857143,302.12857142857143,1868.7,296.22232142857143,302.12857142857143,1973.4,296.22232142857143,302.12857142857143,2073.5,296.22232142857143,302.12857142857143,2182.6,296.22232142857143,302.12857142857143,2283.4,296.22232142857143,302.12857142857143,2389.9,296.22232142857143,302.12857142857143,2490.1,296.22232142857143,302.12857142857143,2590.5,296.22232142857143,302.12857142857143,2691,296.22232142857143,302.12857142857143,2794.7,296.22232142857143,302.12857142857143,2897.4,296.22232142857143,302.12857142857143,3004.8,296.22232142857143,302.12857142857143,3107,296.22232142857143,302.12857142857143,3214.8,296.22232142857143,302.12857142857143,3323.2,296.22232142857143,302.12857142857143,3423.3,296.22232142857143,302.12857142857143,3525.5,296.22232142857143,302.12857142857143,3630.2,296.22232142857143,302.12857142857143,3735.8,296.22232142857143,302.12857142857143,3839.8,296.22232142857143,302.12857142857143,3948.7,296.22232142857143,302.12857142857143,4050.7,296.22232142857143,302.12857142857143,4156.6,296.22232142857143,302.12857142857143,4264.1,296.22232142857143,302.12857142857143,4364.6,296.22232142857143,302.12857142857143,4464.8,296.22232142857143,302.12857142857143,4567.4,296.22232142857143,302.12857142857143,4674.1,296.22232142857143,302.12857142857143,4780.7,296.22232142857143,302.12857142857143,4885.9,296.22232142857143,302.12857142857143,4989.9]","[1588.4,1588.4,1000,0,588.4,""smooth"",""down"",""down"",""good_move"",4176.7,2587.6,2092.6,1589.1,495,""oops"",""down"",""down"",""good_move"",6548.1,2367.6,1916,4180.5,451.6,""oops"",""down"",""left"",""good_move"",9590.1,3040.5,2632.5,6549.6,408,""smooth"",""down"",""down"",""good_move"",12053.7,2462.6,2043.4,9591.1,419.2,""smooth"",""left"",""left"",""good_move"",15629.9,3575.6,3012.8,12054.3,562.8,""smooth"",""left"",""left"",""good_move""]"
"13226","","<div style=""width:500px;"">
  <p>What determined the result of this run?</p>
  </div>","100","html-slider-response","34","745322","0.0-7.0-1.4","88","1","2025-07-30 10:16:49","36c45c0696341be0efffe67d72a12abb","41.13.106.26","Mozilla/5.0 (Windows NT 10.0; Win64; x64) AppleWebKit/537.36 (KHTML, like Gecko) Chrome/138.0.0.0 Safari/537.36","WebKit","Chrome","138.0.0.0","Windows","10.0","https://app.prolific.com/","en-ZA,en-AU;q=0.9,en-GB;q=0.8,en-US;q=0.7,en;q=0.6,st;q=0.5,et;q=0.4","678f8c443d3e97127a5e529b","687a360dabe5252b5ada7185","6889ee9ddecb21c1527627ad","0","678f8c443d3e97127a5e529b","0","2025-07-30T10:19:00.056Z","","","","AttribQ","","","","","","","","","","","50","","","","","","","","","","","","","","","","","","","","","","","","","","",""
"3498","","<div style=""width:500px;"">
  <p>How much control did you have over the ball?</p>
  </div>","100","html-slider-response","35","748822","0.0-7.0-2.4","88","1","2025-07-30 10:16:49","36c45c0696341be0efffe67d72a12abb","41.13.106.26","Mozilla/5.0 (Windows NT 10.0; Win64; x64) AppleWebKit/537.36 (KHTML, like Gecko) Chrome/138.0.0.0 Safari/537.36","WebKit","Chrome","138.0.0.0","Windows","10.0","https://app.prolific.com/","en-ZA,en-AU;q=0.9,en-GB;q=0.8,en-US;q=0.7,en;q=0.6,st;q=0.5,et;q=0.4","678f8c443d3e97127a5e529b","687a360dabe5252b5ada7185","6889ee9ddecb21c1527627ad","0","678f8c443d3e97127a5e529b","0","2025-07-30T10:19:03.556Z","","","","ControlQ","","","","","","","","","","","50","","","","","","","","","","","","","","","","","","","","","","","","","","",""
"3768","","<div style=""width:500px;"">
  <p>How would you describe your current emotional state?</p>
  </div>","0","html-slider-response","36","752591","0.0-7.0-3.4","88","1","2025-07-30 10:16:49","36c45c0696341be0efffe67d72a12abb","41.13.106.26","Mozilla/5.0 (Windows NT 10.0; Win64; x64) AppleWebKit/537.36 (KHTML, like Gecko) Chrome/138.0.0.0 Safari/537.36","WebKit","Chrome","138.0.0.0","Windows","10.0","https://app.prolific.com/","en-ZA,en-AU;q=0.9,en-GB;q=0.8,en-US;q=0.7,en;q=0.6,st;q=0.5,et;q=0.4","678f8c443d3e97127a5e529b","687a360dabe5252b5ada7185","6889ee9ddecb21c1527627ad","0","678f8c443d3e97127a5e529b","0","2025-07-30T10:19:07.325Z","","","","StressQ","","","","","","","","","","","50","","","","","","","","","","","","","","","","","","","","","","","","","","",""
"3459","","<div style=""width:500px;"">
  <p>What best describes how you currently feel?</p>
  </div>","100","html-slider-response","37","756053","0.0-7.0-4.4","88","1","2025-07-30 10:16:49","36c45c0696341be0efffe67d72a12abb","41.13.106.26","Mozilla/5.0 (Windows NT 10.0; Win64; x64) AppleWebKit/537.36 (KHTML, like Gecko) Chrome/138.0.0.0 Safari/537.36","WebKit","Chrome","138.0.0.0","Windows","10.0","https://app.prolific.com/","en-ZA,en-AU;q=0.9,en-GB;q=0.8,en-US;q=0.7,en;q=0.6,st;q=0.5,et;q=0.4","678f8c443d3e97127a5e529b","687a360dabe5252b5ada7185","6889ee9ddecb21c1527627ad","0","678f8c443d3e97127a5e529b","0","2025-07-30T10:19:10.787Z","","","","MotivationQ","","","","","","","","","","","50","","","","","","","","","","","","","","","","","","","","","","","","","","",""
"","","","","ctl-task-cpt","38","806478","0.0-7.0-0.5","88","1","2025-07-30 10:16:49","36c45c0696341be0efffe67d72a12abb","41.13.106.26","Mozilla/5.0 (Windows NT 10.0; Win64; x64) AppleWebKit/537.36 (KHTML, like Gecko) Chrome/138.0.0.0 Safari/537.36","WebKit","Chrome","138.0.0.0","Windows","10.0","https://app.prolific.com/","en-ZA,en-AU;q=0.9,en-GB;q=0.8,en-US;q=0.7,en;q=0.6,st;q=0.5,et;q=0.4","678f8c443d3e97127a5e529b","687a360dabe5252b5ada7185","6889ee9ddecb21c1527627ad","0","678f8c443d3e97127a5e529b","0","2025-07-30T10:20:01.212Z","","","","","","","","","","","","","","","","win-only","2","g1:SE,g2:NW","0.5","6","0","791595.2","3063.8","8067.5","47398.3","1","4","8","6","2","-8","-8","7","15","0.05303030303030303","5003.7","3000","-2020","[""left"",""up""]","{""num_key_presses"":8,""num_perfect"":5,""num_errors"":0,""num_randdir"":3,""num_randdir_good_moves"":0,""num_whilered"":0,""num_whileblue"":0,""num_blue"":4,""num_good_moves"":5}","[299.22232142857143,287.12857142857143,0.6,299.22232142857143,287.12857142857143,101.9,299.22232142857143,287.12857142857143,204.8,299.22232142857143,287.12857142857143,313.1,299.22232142857143,287.12857142857143,417.1,299.22232142857143,287.12857142857143,517.3,299.22232142857143,287.12857142857143,629.4,299.22232142857143,287.12857142857143,734,299.22232142857143,287.12857142857143,837.1,299.22232142857143,287.12857142857143,943.2,299.22232142857143,287.12857142857143,1047.4,299.22232142857143,287.12857142857143,1154.1,299.22232142857143,287.12857142857143,1259.9,299.22232142857143,287.12857142857143,1363.8,299.22232142857143,287.12857142857143,1464,299.22232142857143,287.12857142857143,1564.4,299.22232142857143,287.12857142857143,1666.8,299.22232142857143,287.12857142857143,1783.1,299.22232142857143,287.12857142857143,1893.8,299.22232142857143,287.12857142857143,1995.8,299.22232142857143,287.12857142857143,2099.7,299.22232142857143,287.12857142857143,2206.4,299.22232142857143,287.12857142857143,2309.1,299.22232142857143,287.12857142857143,2411.6,299.22232142857143,287.12857142857143,2516.6,299.22232142857143,287.12857142857143,2623.3,299.22232142857143,287.12857142857143,2730.9,299.22232142857143,287.12857142857143,2840.9,299.22232142857143,287.12857142857143,2945.1,299.22232142857143,287.12857142857143,3046.6,299.22232142857143,287.12857142857143,3148.6,299.22232142857143,287.12857142857143,3250.2,299.22232142857143,287.12857142857143,3353.9,299.22232142857143,287.12857142857143,3465.1,299.22232142857143,287.12857142857143,3568.6,299.22232142857143,287.12857142857143,3680,299.22232142857143,287.12857142857143,3782.5,299.22232142857143,287.12857142857143,3887,299.22232142857143,287.12857142857143,3988.3,299.22232142857143,287.12857142857143,4092.4,299.22232142857143,287.12857142857143,4201.3,299.22232142857143,287.12857142857143,4304.8,299.22232142857143,287.12857142857143,4405.5,299.22232142857143,287.12857142857143,4507.1,299.22232142857143,287.12857142857143,4608.9,299.22232142857143,287.12857142857143,4714.6,299.22232142857143,287.12857142857143,4821.2,299.22232142857143,287.12857142857143,4926.7]","[1591.6,1591.6,1000,0,591.6,""smooth"",""left"",""left"",""good_move"",4153.6,2561.4,2145.7,1592.2,415.7,""smooth"",""left"",""left"",""good_move"",7389.8,3235.6,2862.9,4154.2,372.7,""smooth"",""left"",""left"",""good_move"",13307.5,5916.9,2404.8,10389.4,513.3,""smooth"",""up"",""up"",""good_move"",19640.1,6332,2837.8,16255.4,546.9,""oops"",""up"",""down"",""bad_move"",26484.8,6841.7,3304.2,22658.8,521.8,""smooth"",""up"",""up"",""good_move"",29872.9,3387.7,2576.8,26485.2,810.9,""oops"",""up"",""down"",""bad_move"",32950.3,3076.7,2520.4,29873.6,556.3,""oops"",""up"",""right"",""bad_move""]"
"8771","","<div style=""width:500px;"">
  <p>What determined the result of this run?</p>
  </div>","0","html-slider-response","39","815253","0.0-7.0-1.5","88","1","2025-07-30 10:16:49","36c45c0696341be0efffe67d72a12abb","41.13.106.26","Mozilla/5.0 (Windows NT 10.0; Win64; x64) AppleWebKit/537.36 (KHTML, like Gecko) Chrome/138.0.0.0 Safari/537.36","WebKit","Chrome","138.0.0.0","Windows","10.0","https://app.prolific.com/","en-ZA,en-AU;q=0.9,en-GB;q=0.8,en-US;q=0.7,en;q=0.6,st;q=0.5,et;q=0.4","678f8c443d3e97127a5e529b","687a360dabe5252b5ada7185","6889ee9ddecb21c1527627ad","0","678f8c443d3e97127a5e529b","0","2025-07-30T10:20:09.987Z","","","","AttribQ","","","","","","","","","","","50","","","","","","","","","","","","","","","","","","","","","","","","","","",""
"4306","","<div style=""width:500px;"">
  <p>How much control did you have over the ball?</p>
  </div>","18","html-slider-response","40","819560","0.0-7.0-2.5","88","1","2025-07-30 10:16:49","36c45c0696341be0efffe67d72a12abb","41.13.106.26","Mozilla/5.0 (Windows NT 10.0; Win64; x64) AppleWebKit/537.36 (KHTML, like Gecko) Chrome/138.0.0.0 Safari/537.36","WebKit","Chrome","138.0.0.0","Windows","10.0","https://app.prolific.com/","en-ZA,en-AU;q=0.9,en-GB;q=0.8,en-US;q=0.7,en;q=0.6,st;q=0.5,et;q=0.4","678f8c443d3e97127a5e529b","687a360dabe5252b5ada7185","6889ee9ddecb21c1527627ad","0","678f8c443d3e97127a5e529b","0","2025-07-30T10:20:14.294Z","","","","ControlQ","","","","","","","","","","","50","","","","","","","","","","","","","","","","","","","","","","","","","","",""
"6432","","<div style=""width:500px;"">
  <p>How would you describe your current emotional state?</p>
  </div>","0","html-slider-response","41","825993","0.0-7.0-3.5","88","1","2025-07-30 10:16:49","36c45c0696341be0efffe67d72a12abb","41.13.106.26","Mozilla/5.0 (Windows NT 10.0; Win64; x64) AppleWebKit/537.36 (KHTML, like Gecko) Chrome/138.0.0.0 Safari/537.36","WebKit","Chrome","138.0.0.0","Windows","10.0","https://app.prolific.com/","en-ZA,en-AU;q=0.9,en-GB;q=0.8,en-US;q=0.7,en;q=0.6,st;q=0.5,et;q=0.4","678f8c443d3e97127a5e529b","687a360dabe5252b5ada7185","6889ee9ddecb21c1527627ad","0","678f8c443d3e97127a5e529b","0","2025-07-30T10:20:20.727Z","","","","StressQ","","","","","","","","","","","50","","","","","","","","","","","","","","","","","","","","","","","","","","",""
"5578","","<div style=""width:500px;"">
  <p>What best describes how you currently feel?</p>
  </div>","100","html-slider-response","42","831572","0.0-7.0-4.5","88","1","2025-07-30 10:16:49","36c45c0696341be0efffe67d72a12abb","41.13.106.26","Mozilla/5.0 (Windows NT 10.0; Win64; x64) AppleWebKit/537.36 (KHTML, like Gecko) Chrome/138.0.0.0 Safari/537.36","WebKit","Chrome","138.0.0.0","Windows","10.0","https://app.prolific.com/","en-ZA,en-AU;q=0.9,en-GB;q=0.8,en-US;q=0.7,en;q=0.6,st;q=0.5,et;q=0.4","678f8c443d3e97127a5e529b","687a360dabe5252b5ada7185","6889ee9ddecb21c1527627ad","0","678f8c443d3e97127a5e529b","0","2025-07-30T10:20:26.306Z","","","","MotivationQ","","","","","","","","","","","50","","","","","","","","","","","","","","","","","","","","","","","","","","",""
"","","","","ctl-task-cpt","43","877706","0.0-7.0-0.6","88","1","2025-07-30 10:16:49","36c45c0696341be0efffe67d72a12abb","41.13.106.26","Mozilla/5.0 (Windows NT 10.0; Win64; x64) AppleWebKit/537.36 (KHTML, like Gecko) Chrome/138.0.0.0 Safari/537.36","WebKit","Chrome","138.0.0.0","Windows","10.0","https://app.prolific.com/","en-ZA,en-AU;q=0.9,en-GB;q=0.8,en-US;q=0.7,en;q=0.6,st;q=0.5,et;q=0.4","678f8c443d3e97127a5e529b","687a360dabe5252b5ada7185","6889ee9ddecb21c1527627ad","0","678f8c443d3e97127a5e529b","0","2025-07-30T10:21:12.440Z","","","","","","","","","","","","","","","","win-only","0","g1:NW,g2:SE","0.4","7","0","867106.6","2211.8","7213.3","43117.7","1","4","8","6","1","-1","-1","6","7","0.045454545454545456","5001.5","3000","-2000","[""left"",""up""]","{""num_key_presses"":8,""num_perfect"":3,""num_errors"":0,""num_randdir"":5,""num_randdir_good_moves"":1,""num_whilered"":0,""num_whileblue"":0,""num_blue"":3,""num_good_moves"":4}","[294.22232142857143,299.12857142857143,0.5,294.22232142857143,299.12857142857143,114.5,294.22232142857143,299.12857142857143,228.8,294.22232142857143,299.12857142857143,329.3,294.22232142857143,299.12857142857143,429.4,294.22232142857143,299.12857142857143,530,294.22232142857143,299.12857142857143,636.2,294.22232142857143,299.12857142857143,747.9,294.22232142857143,299.12857142857143,854.5,294.22232142857143,299.12857142857143,954.5,294.22232142857143,299.12857142857143,1064.4,294.22232142857143,299.12857142857143,1164.9,294.22232142857143,299.12857142857143,1281.2,294.22232142857143,299.12857142857143,1386.4,294.22232142857143,299.12857142857143,1494.1,294.22232142857143,299.12857142857143,1594.7,294.22232142857143,299.12857142857143,1699,294.22232142857143,299.12857142857143,1799.5,294.22232142857143,299.12857142857143,1904.8,294.22232142857143,299.12857142857143,2015.3,294.22232142857143,299.12857142857143,2120.3,294.22232142857143,299.12857142857143,2221.6,294.22232142857143,299.12857142857143,2325.2,294.22232142857143,299.12857142857143,2435.8,294.22232142857143,299.12857142857143,2536.1,294.22232142857143,299.12857142857143,2636.1,294.22232142857143,299.12857142857143,2740,294.22232142857143,299.12857142857143,2840.3,294.22232142857143,299.12857142857143,2945.8,294.22232142857143,299.12857142857143,3049.8,294.22232142857143,299.12857142857143,3151.7,294.22232142857143,299.12857142857143,3258.3,294.22232142857143,299.12857142857143,3358.8,294.22232142857143,299.12857142857143,3465.4,294.22232142857143,299.12857142857143,3566.6,294.22232142857143,299.12857142857143,3669.7,294.22232142857143,299.12857142857143,3778.2,294.22232142857143,299.12857142857143,3886.3,294.22232142857143,299.12857142857143,3986.3,294.22232142857143,299.12857142857143,4090.7,294.22232142857143,299.12857142857143,4193.8,294.22232142857143,299.12857142857143,4297.8,294.22232142857143,299.12857142857143,4403.4,294.22232142857143,299.12857142857143,4512.7,294.22232142857143,299.12857142857143,4614.4,294.22232142857143,299.12857142857143,4719.5,294.22232142857143,299.12857142857143,4830.8,294.22232142857143,299.12857142857143,4931.8]","[1579.1,1579.1,1000,0,579.1,""oops"",""left"",""down"",""bad_move"",4530.1,2950.3,2440.2,1579.9,510,""oops"",""up"",""right"",""bad_move"",7270.6,2739.5,2152.9,4531.1,586.6,""oops"",""left"",""down"",""bad_move"",17041.1,9769.8,2382,14166.3,492.8,""oops"",""left"",""down"",""bad_move"",20355.7,3314.1,2857.2,17041.6,456.9,""oops"",""left"",""up"",""good_move"",23390.3,3033.6,2457.3,20356.7,576.3,""smooth"",""up"",""up"",""good_move"",26638.5,3247.5,2424.7,23391,822.8,""smooth"",""up"",""up"",""good_move"",29997.5,3358.3,3043.6,26639.2,314.7,""smooth"",""up"",""up"",""good_move""]"
"4319","","<div style=""width:500px;"">
  <p>What determined the result of this run?</p>
  </div>","0","html-slider-response","44","882026","0.0-7.0-1.6","88","1","2025-07-30 10:16:49","36c45c0696341be0efffe67d72a12abb","41.13.106.26","Mozilla/5.0 (Windows NT 10.0; Win64; x64) AppleWebKit/537.36 (KHTML, like Gecko) Chrome/138.0.0.0 Safari/537.36","WebKit","Chrome","138.0.0.0","Windows","10.0","https://app.prolific.com/","en-ZA,en-AU;q=0.9,en-GB;q=0.8,en-US;q=0.7,en;q=0.6,st;q=0.5,et;q=0.4","678f8c443d3e97127a5e529b","687a360dabe5252b5ada7185","6889ee9ddecb21c1527627ad","0","678f8c443d3e97127a5e529b","0","2025-07-30T10:21:16.760Z","","","","AttribQ","","","","","","","","","","","50","","","","","","","","","","","","","","","","","","","","","","","","","","",""
"3781","","<div style=""width:500px;"">
  <p>How much control did you have over the ball?</p>
  </div>","0","html-slider-response","45","885809","0.0-7.0-2.6","88","1","2025-07-30 10:16:49","36c45c0696341be0efffe67d72a12abb","41.13.106.26","Mozilla/5.0 (Windows NT 10.0; Win64; x64) AppleWebKit/537.36 (KHTML, like Gecko) Chrome/138.0.0.0 Safari/537.36","WebKit","Chrome","138.0.0.0","Windows","10.0","https://app.prolific.com/","en-ZA,en-AU;q=0.9,en-GB;q=0.8,en-US;q=0.7,en;q=0.6,st;q=0.5,et;q=0.4","678f8c443d3e97127a5e529b","687a360dabe5252b5ada7185","6889ee9ddecb21c1527627ad","0","678f8c443d3e97127a5e529b","0","2025-07-30T10:21:20.543Z","","","","ControlQ","","","","","","","","","","","50","","","","","","","","","","","","","","","","","","","","","","","","","","",""
"6966","","<div style=""width:500px;"">
  <p>How would you describe your current emotional state?</p>
  </div>","8","html-slider-response","46","892777","0.0-7.0-3.6","88","1","2025-07-30 10:16:49","36c45c0696341be0efffe67d72a12abb","41.13.106.26","Mozilla/5.0 (Windows NT 10.0; Win64; x64) AppleWebKit/537.36 (KHTML, like Gecko) Chrome/138.0.0.0 Safari/537.36","WebKit","Chrome","138.0.0.0","Windows","10.0","https://app.prolific.com/","en-ZA,en-AU;q=0.9,en-GB;q=0.8,en-US;q=0.7,en;q=0.6,st;q=0.5,et;q=0.4","678f8c443d3e97127a5e529b","687a360dabe5252b5ada7185","6889ee9ddecb21c1527627ad","0","678f8c443d3e97127a5e529b","0","2025-07-30T10:21:27.512Z","","","","StressQ","","","","","","","","","","","50","","","","","","","","","","","","","","","","","","","","","","","","","","",""
"5451","","<div style=""width:500px;"">
  <p>What best describes how you currently feel?</p>
  </div>","94","html-slider-response","47","898230","0.0-7.0-4.6","88","1","2025-07-30 10:16:49","36c45c0696341be0efffe67d72a12abb","41.13.106.26","Mozilla/5.0 (Windows NT 10.0; Win64; x64) AppleWebKit/537.36 (KHTML, like Gecko) Chrome/138.0.0.0 Safari/537.36","WebKit","Chrome","138.0.0.0","Windows","10.0","https://app.prolific.com/","en-ZA,en-AU;q=0.9,en-GB;q=0.8,en-US;q=0.7,en;q=0.6,st;q=0.5,et;q=0.4","678f8c443d3e97127a5e529b","687a360dabe5252b5ada7185","6889ee9ddecb21c1527627ad","0","678f8c443d3e97127a5e529b","0","2025-07-30T10:21:32.964Z","","","","MotivationQ","","","","","","","","","","","50","","","","","","","","","","","","","","","","","","","","","","","","","","",""
"","","","","ctl-task-cpt","48","937620","0.0-7.0-0.7","88","1","2025-07-30 10:16:49","36c45c0696341be0efffe67d72a12abb","41.13.106.26","Mozilla/5.0 (Windows NT 10.0; Win64; x64) AppleWebKit/537.36 (KHTML, like Gecko) Chrome/138.0.0.0 Safari/537.36","WebKit","Chrome","138.0.0.0","Windows","10.0","https://app.prolific.com/","en-ZA,en-AU;q=0.9,en-GB;q=0.8,en-US;q=0.7,en;q=0.6,st;q=0.5,et;q=0.4","678f8c443d3e97127a5e529b","687a360dabe5252b5ada7185","6889ee9ddecb21c1527627ad","0","678f8c443d3e97127a5e529b","0","2025-07-30T10:22:12.355Z","","","","","","","","","","","","","","","","win-only","1","g1:NE,g2:SW","0.3","8","0","933763.8","1778.7","6783.3","36376.7","1","4","4","6","1","1","1","7","6","0.05303030303030303","5004.6","3000","670","[""up"",""right""]","{""num_key_presses"":8,""num_perfect"":2,""num_errors"":0,""num_randdir"":6,""num_randdir_good_moves"":4,""num_whilered"":0,""num_whileblue"":0,""num_blue"":2,""num_good_moves"":6}","[296.22232142857143,303.12857142857143,0.5,296.22232142857143,303.12857142857143,106,296.22232142857143,303.12857142857143,217.5,296.22232142857143,303.12857142857143,317.6,296.22232142857143,303.12857142857143,425.1,296.22232142857143,303.12857142857143,526.3,296.22232142857143,303.12857142857143,626.7,296.22232142857143,303.12857142857143,736.9,296.22232142857143,303.12857142857143,851.4,296.22232142857143,303.12857142857143,957.1,296.22232142857143,303.12857142857143,1066.7,296.22232142857143,303.12857142857143,1169.6,296.22232142857143,303.12857142857143,1284.4,296.22232142857143,303.12857142857143,1387,296.22232142857143,303.12857142857143,1493,296.22232142857143,303.12857142857143,1602.1,296.22232142857143,303.12857142857143,1703.7,296.22232142857143,303.12857142857143,1825.2,296.22232142857143,303.12857142857143,1934.4,296.22232142857143,303.12857142857143,2035.2,296.22232142857143,303.12857142857143,2137.4,296.22232142857143,303.12857142857143,2253.1,296.22232142857143,303.12857142857143,2388,296.22232142857143,303.12857142857143,2494,296.22232142857143,303.12857142857143,2600.9,296.22232142857143,303.12857142857143,2706.5,296.22232142857143,303.12857142857143,2807,296.22232142857143,303.12857142857143,2909.2,296.22232142857143,303.12857142857143,3019,296.22232142857143,303.12857142857143,3125.2,296.22232142857143,303.12857142857143,3229.8,296.22232142857143,303.12857142857143,3335.8,296.22232142857143,303.12857142857143,3444.1,296.22232142857143,303.12857142857143,3554.1,296.22232142857143,303.12857142857143,3669.8,296.22232142857143,303.12857142857143,3774.6,296.22232142857143,303.12857142857143,3876.6,296.22232142857143,303.12857142857143,3976.6,296.22232142857143,303.12857142857143,4077.1,296.22232142857143,303.12857142857143,4178.4,296.22232142857143,303.12857142857143,4286.8,296.22232142857143,303.12857142857143,4392.5,296.22232142857143,303.12857142857143,4493,296.22232142857143,303.12857142857143,4597.8,296.22232142857143,303.12857142857143,4705.6,296.22232142857143,303.12857142857143,4806.3,296.22232142857143,303.12857142857143,4910.1]","[7742.6,7742.6,2189.7,5066.7,486.2,""oops"",""right"",""up"",""good_move"",10679.7,2936.3,2514.1,7743.4,422.2,""oops"",""up"",""left"",""bad_move"",14131.6,3450.9,3047.3,10680.7,403.6,""oops"",""right"",""left"",""bad_move"",17550.5,3418.2,3033.5,14132.3,384.7,""oops"",""up"",""up"",""good_move"",20521.7,2969.9,2564.2,17551.8,405.7,""smooth"",""right"",""right"",""good_move"",22893.3,2370.6,1831.1,20522.7,539.6,""oops"",""right"",""right"",""good_move"",26804.2,3910,3386.4,22894.2,523.6,""oops"",""right"",""right"",""good_move"",29449.9,2644.9,2141.6,26805,503.3,""smooth"",""right"",""right"",""good_move""]"
"6713","","<div style=""width:500px;"">
  <p>What determined the result of this run?</p>
  </div>","100","html-slider-response","49","944335","0.0-7.0-1.7","88","1","2025-07-30 10:16:49","36c45c0696341be0efffe67d72a12abb","41.13.106.26","Mozilla/5.0 (Windows NT 10.0; Win64; x64) AppleWebKit/537.36 (KHTML, like Gecko) Chrome/138.0.0.0 Safari/537.36","WebKit","Chrome","138.0.0.0","Windows","10.0","https://app.prolific.com/","en-ZA,en-AU;q=0.9,en-GB;q=0.8,en-US;q=0.7,en;q=0.6,st;q=0.5,et;q=0.4","678f8c443d3e97127a5e529b","687a360dabe5252b5ada7185","6889ee9ddecb21c1527627ad","0","678f8c443d3e97127a5e529b","0","2025-07-30T10:22:19.069Z","","","","AttribQ","","","","","","","","","","","50","","","","","","","","","","","","","","","","","","","","","","","","","","",""
"3426","","<div style=""width:500px;"">
  <p>How much control did you have over the ball?</p>
  </div>","100","html-slider-response","50","947762","0.0-7.0-2.7","88","1","2025-07-30 10:16:49","36c45c0696341be0efffe67d72a12abb","41.13.106.26","Mozilla/5.0 (Windows NT 10.0; Win64; x64) AppleWebKit/537.36 (KHTML, like Gecko) Chrome/138.0.0.0 Safari/537.36","WebKit","Chrome","138.0.0.0","Windows","10.0","https://app.prolific.com/","en-ZA,en-AU;q=0.9,en-GB;q=0.8,en-US;q=0.7,en;q=0.6,st;q=0.5,et;q=0.4","678f8c443d3e97127a5e529b","687a360dabe5252b5ada7185","6889ee9ddecb21c1527627ad","0","678f8c443d3e97127a5e529b","0","2025-07-30T10:22:22.496Z","","","","ControlQ","","","","","","","","","","","50","","","","","","","","","","","","","","","","","","","","","","","","","","",""
"3310","","<div style=""width:500px;"">
  <p>How would you describe your current emotional state?</p>
  </div>","0","html-slider-response","51","951074","0.0-7.0-3.7","88","1","2025-07-30 10:16:49","36c45c0696341be0efffe67d72a12abb","41.13.106.26","Mozilla/5.0 (Windows NT 10.0; Win64; x64) AppleWebKit/537.36 (KHTML, like Gecko) Chrome/138.0.0.0 Safari/537.36","WebKit","Chrome","138.0.0.0","Windows","10.0","https://app.prolific.com/","en-ZA,en-AU;q=0.9,en-GB;q=0.8,en-US;q=0.7,en;q=0.6,st;q=0.5,et;q=0.4","678f8c443d3e97127a5e529b","687a360dabe5252b5ada7185","6889ee9ddecb21c1527627ad","0","678f8c443d3e97127a5e529b","0","2025-07-30T10:22:25.808Z","","","","StressQ","","","","","","","","","","","50","","","","","","","","","","","","","","","","","","","","","","","","","","",""
"2957","","<div style=""width:500px;"">
  <p>What best describes how you currently feel?</p>
  </div>","100","html-slider-response","52","954032","0.0-7.0-4.7","88","1","2025-07-30 10:16:49","36c45c0696341be0efffe67d72a12abb","41.13.106.26","Mozilla/5.0 (Windows NT 10.0; Win64; x64) AppleWebKit/537.36 (KHTML, like Gecko) Chrome/138.0.0.0 Safari/537.36","WebKit","Chrome","138.0.0.0","Windows","10.0","https://app.prolific.com/","en-ZA,en-AU;q=0.9,en-GB;q=0.8,en-US;q=0.7,en;q=0.6,st;q=0.5,et;q=0.4","678f8c443d3e97127a5e529b","687a360dabe5252b5ada7185","6889ee9ddecb21c1527627ad","0","678f8c443d3e97127a5e529b","0","2025-07-30T10:22:28.766Z","","","","MotivationQ","","","","","","","","","","","50","","","","","","","","","","","","","","","","","","","","","","","","","","",""
"","","","","ctl-task-cpt","53","1011249","0.0-7.0-0.8","88","1","2025-07-30 10:16:49","36c45c0696341be0efffe67d72a12abb","41.13.106.26","Mozilla/5.0 (Windows NT 10.0; Win64; x64) AppleWebKit/537.36 (KHTML, like Gecko) Chrome/138.0.0.0 Safari/537.36","WebKit","Chrome","138.0.0.0","Windows","10.0","https://app.prolific.com/","en-ZA,en-AU;q=0.9,en-GB;q=0.8,en-US;q=0.7,en;q=0.6,st;q=0.5,et;q=0.4","678f8c443d3e97127a5e529b","687a360dabe5252b5ada7185","6889ee9ddecb21c1527627ad","0","678f8c443d3e97127a5e529b","0","2025-07-30T10:23:25.983Z","","","","","","","","","","","","","","","","win-only","3","g1:SW,g2:NE","0.4","9","0","989565.4","2716.2","7731.4","54197.3","1","4","8","6","1","-1","-2","5","7","0.03787878787878788","5015.2","3000","-1875","[""down"",""left""]","{""num_key_presses"":11,""num_perfect"":4,""num_errors"":1,""num_randdir"":6,""num_randdir_good_moves"":2,""num_whilered"":0,""num_whileblue"":0,""num_blue"":3,""num_good_moves"":6}","[294.22232142857143,303.12857142857143,1.3,294.22232142857143,303.12857142857143,101.6,294.22232142857143,303.12857142857143,210.9,294.22232142857143,303.12857142857143,314.1,294.22232142857143,303.12857142857143,414.2,294.22232142857143,303.12857142857143,515.5,294.22232142857143,303.12857142857143,622,294.22232142857143,303.12857142857143,726.2,294.22232142857143,303.12857142857143,830.4,294.22232142857143,303.12857142857143,932.9,294.22232142857143,303.12857142857143,1037.9,294.22232142857143,303.12857142857143,1144.5,294.22232142857143,303.12857142857143,1244.6,294.22232142857143,303.12857142857143,1347.7,294.22232142857143,303.12857142857143,1448.5,294.22232142857143,303.12857142857143,1553,294.22232142857143,303.12857142857143,1654.5,294.22232142857143,303.12857142857143,1759,294.22232142857143,303.12857142857143,1859.7,294.22232142857143,303.12857142857143,1968.4,294.22232142857143,303.12857142857143,2080.1,294.22232142857143,303.12857142857143,2180.9,294.22232142857143,303.12857142857143,2291.1,294.22232142857143,303.12857142857143,2397.7,294.22232142857143,303.12857142857143,2497.8,294.22232142857143,303.12857142857143,2601.4,294.22232142857143,303.12857142857143,2704.3,294.22232142857143,303.12857142857143,2805.1,294.22232142857143,303.12857142857143,2909.5,294.22232142857143,303.12857142857143,3014,294.22232142857143,303.12857142857143,3115,294.22232142857143,303.12857142857143,3224.9,294.22232142857143,303.12857142857143,3325.8,294.22232142857143,303.12857142857143,3427.8,294.22232142857143,303.12857142857143,3533.4,294.22232142857143,303.12857142857143,3635.5,294.22232142857143,303.12857142857143,3735.9,294.22232142857143,303.12857142857143,3837.1,294.22232142857143,303.12857142857143,3939.7,294.22232142857143,303.12857142857143,4054.5,294.22232142857143,303.12857142857143,4160.7,294.22232142857143,303.12857142857143,4263.7,294.22232142857143,303.12857142857143,4366.9,294.22232142857143,303.12857142857143,4477.9,294.22232142857143,303.12857142857143,4581.4,294.22232142857143,303.12857142857143,4686.2,294.22232142857143,303.12857142857143,4789.8,294.22232142857143,303.12857142857143,4890.8,294.22232142857143,303.12857142857143,4997.1]","[3620.5,3620.5,1000,0,2620.5,""smooth"",""down"",""down"",""good_move"",6342.2,2721,2246.2,3621.2,474.8,""oops"",""down"",""right"",""bad_move"",8272.7,1929.6,2153.4,6343.1,-223.8,""error"",""-"",""-"",""no_move"",19623.5,11350.3,2578.5,16634.4,410.7,""smooth"",""left"",""left"",""good_move"",22741.8,3117.6,2546.7,19624.2,570.9,""oops"",""left"",""up"",""bad_move"",25886.9,3144.2,2759.6,22742.7,384.6,""oops"",""down"",""down"",""good_move"",29071.3,3183.4,2748.1,25887.9,435.3,""oops"",""down"",""right"",""bad_move"",31689.8,2617.6,2187.6,29072.2,430,""smooth"",""left"",""left"",""good_move"",38136.1,6444.8,2399.7,35280.9,455.5,""oops"",""left"",""right"",""bad_move"",40754.8,2618.3,2196.1,38136.5,422.2,""smooth"",""down"",""down"",""good_move"",44134.5,3378.6,2966.9,40755.9,411.7,""oops"",""left"",""left"",""good_move""]"
"8677","","<div style=""width:500px;"">
  <p>What determined the result of this run?</p>
  </div>","100","html-slider-response","54","1019928","0.0-7.0-1.8","88","1","2025-07-30 10:16:49","36c45c0696341be0efffe67d72a12abb","41.13.106.26","Mozilla/5.0 (Windows NT 10.0; Win64; x64) AppleWebKit/537.36 (KHTML, like Gecko) Chrome/138.0.0.0 Safari/537.36","WebKit","Chrome","138.0.0.0","Windows","10.0","https://app.prolific.com/","en-ZA,en-AU;q=0.9,en-GB;q=0.8,en-US;q=0.7,en;q=0.6,st;q=0.5,et;q=0.4","678f8c443d3e97127a5e529b","687a360dabe5252b5ada7185","6889ee9ddecb21c1527627ad","0","678f8c443d3e97127a5e529b","0","2025-07-30T10:23:34.662Z","","","","AttribQ","","","","","","","","","","","50","","","","","","","","","","","","","","","","","","","","","","","","","","",""
"6497","","<div style=""width:500px;"">
  <p>How much control did you have over the ball?</p>
  </div>","83","html-slider-response","55","1026427","0.0-7.0-2.8","88","1","2025-07-30 10:16:49","36c45c0696341be0efffe67d72a12abb","41.13.106.26","Mozilla/5.0 (Windows NT 10.0; Win64; x64) AppleWebKit/537.36 (KHTML, like Gecko) Chrome/138.0.0.0 Safari/537.36","WebKit","Chrome","138.0.0.0","Windows","10.0","https://app.prolific.com/","en-ZA,en-AU;q=0.9,en-GB;q=0.8,en-US;q=0.7,en;q=0.6,st;q=0.5,et;q=0.4","678f8c443d3e97127a5e529b","687a360dabe5252b5ada7185","6889ee9ddecb21c1527627ad","0","678f8c443d3e97127a5e529b","0","2025-07-30T10:23:41.161Z","","","","ControlQ","","","","","","","","","","","50","","","","","","","","","","","","","","","","","","","","","","","","","","",""
"3344","","<div style=""width:500px;"">
  <p>How would you describe your current emotional state?</p>
  </div>","0","html-slider-response","56","1029773","0.0-7.0-3.8","88","1","2025-07-30 10:16:49","36c45c0696341be0efffe67d72a12abb","41.13.106.26","Mozilla/5.0 (Windows NT 10.0; Win64; x64) AppleWebKit/537.36 (KHTML, like Gecko) Chrome/138.0.0.0 Safari/537.36","WebKit","Chrome","138.0.0.0","Windows","10.0","https://app.prolific.com/","en-ZA,en-AU;q=0.9,en-GB;q=0.8,en-US;q=0.7,en;q=0.6,st;q=0.5,et;q=0.4","678f8c443d3e97127a5e529b","687a360dabe5252b5ada7185","6889ee9ddecb21c1527627ad","0","678f8c443d3e97127a5e529b","0","2025-07-30T10:23:44.507Z","","","","StressQ","","","","","","","","","","","50","","","","","","","","","","","","","","","","","","","","","","","","","","",""
"4103","","<div style=""width:500px;"">
  <p>What best describes how you currently feel?</p>
  </div>","100","html-slider-response","57","1033877","0.0-7.0-4.8","88","1","2025-07-30 10:16:49","36c45c0696341be0efffe67d72a12abb","41.13.106.26","Mozilla/5.0 (Windows NT 10.0; Win64; x64) AppleWebKit/537.36 (KHTML, like Gecko) Chrome/138.0.0.0 Safari/537.36","WebKit","Chrome","138.0.0.0","Windows","10.0","https://app.prolific.com/","en-ZA,en-AU;q=0.9,en-GB;q=0.8,en-US;q=0.7,en;q=0.6,st;q=0.5,et;q=0.4","678f8c443d3e97127a5e529b","687a360dabe5252b5ada7185","6889ee9ddecb21c1527627ad","0","678f8c443d3e97127a5e529b","0","2025-07-30T10:23:48.611Z","","","","MotivationQ","","","","","","","","","","","50","","","","","","","","","","","","","","","","","","","","","","","","","","",""
"","","","","ctl-task-cpt","58","1064246","0.0-7.0-0.9","88","1","2025-07-30 10:16:49","36c45c0696341be0efffe67d72a12abb","41.13.106.26","Mozilla/5.0 (Windows NT 10.0; Win64; x64) AppleWebKit/537.36 (KHTML, like Gecko) Chrome/138.0.0.0 Safari/537.36","WebKit","Chrome","138.0.0.0","Windows","10.0","https://app.prolific.com/","en-ZA,en-AU;q=0.9,en-GB;q=0.8,en-US;q=0.7,en;q=0.6,st;q=0.5,et;q=0.4","678f8c443d3e97127a5e529b","687a360dabe5252b5ada7185","6889ee9ddecb21c1527627ad","0","678f8c443d3e97127a5e529b","0","2025-07-30T10:24:18.980Z","","","","","","","","","","","","","","","","win-only","3","g1:SW,g2:NE","0.5","10","0","1069409.5","1943.2","6959.4","27346.2","1","4","4","6","1","1","1","6","5","0.045454545454545456","5016.2","3000","1400","[""down"",""left""]","{""num_key_presses"":6,""num_perfect"":5,""num_errors"":0,""num_randdir"":1,""num_randdir_good_moves"":0,""num_whilered"":0,""num_whileblue"":0,""num_blue"":1,""num_good_moves"":5}","[297.22232142857143,304.12857142857143,0.4,297.22232142857143,304.12857142857143,118.6,297.22232142857143,304.12857142857143,220.6,297.22232142857143,304.12857142857143,332.6,297.22232142857143,304.12857142857143,443.6,297.22232142857143,304.12857142857143,544.4,297.22232142857143,304.12857142857143,646.9,297.22232142857143,304.12857142857143,747.3,290.22232142857143,312.12857142857143,854.9,284.22232142857143,318.12857142857143,965.1,276.22232142857143,326.12857142857143,1072,273.22232142857143,330.12857142857143,1173.8,273.22232142857143,330.12857142857143,1276.9,273.22232142857143,330.12857142857143,1379.4,273.22232142857143,330.12857142857143,1490,273.22232142857143,330.12857142857143,1591.1,273.22232142857143,330.12857142857143,1693.1,273.22232142857143,330.12857142857143,1803.2,273.22232142857143,330.12857142857143,1908.8,273.22232142857143,330.12857142857143,2026,273.22232142857143,330.12857142857143,2136.8,273.22232142857143,330.12857142857143,2239.1,273.22232142857143,330.12857142857143,2345.6,273.22232142857143,330.12857142857143,2449.3,273.22232142857143,330.12857142857143,2555.3,273.22232142857143,330.12857142857143,2657.3,273.22232142857143,330.12857142857143,2758.2,273.22232142857143,330.12857142857143,2860.7,273.22232142857143,330.12857142857143,2961.8,273.22232142857143,330.12857142857143,3067.7,273.22232142857143,330.12857142857143,3171.6,273.22232142857143,330.12857142857143,3273.4,273.22232142857143,330.12857142857143,3375.1,273.22232142857143,330.12857142857143,3478.7,273.22232142857143,330.12857142857143,3591.1,273.22232142857143,330.12857142857143,3702.6,273.22232142857143,330.12857142857143,3803.3,273.22232142857143,330.12857142857143,3913.3,273.22232142857143,330.12857142857143,4014.7,273.22232142857143,330.12857142857143,4127.8,273.22232142857143,330.12857142857143,4242.5,273.22232142857143,330.12857142857143,4343,273.22232142857143,330.12857142857143,4448.9,273.22232142857143,330.12857142857143,4553.5,273.22232142857143,330.12857142857143,4653.5,273.22232142857143,330.12857142857143,4753.5,273.22232142857143,330.12857142857143,4856.6,273.22232142857143,330.12857142857143,4957.5]","[5456.4,5456.4,3000,2012,444.4,""oops"",""down"",""up"",""bad_move"",8270.4,2813,2410.3,5457.4,402.7,""smooth"",""left"",""left"",""good_move"",11885.1,3613.4,3216.5,8271.7,396.9,""smooth"",""left"",""left"",""good_move"",14557.6,2671.6,2277,11886,394.6,""smooth"",""down"",""down"",""good_move"",17707,3148.4,2752.1,14558.7,396.3,""smooth"",""down"",""down"",""good_move"",20256.2,2548.1,2135.7,17708.2,412.3,""smooth"",""down"",""down"",""good_move""]"
"5671","","<div style=""width:500px;"">
  <p>What determined the result of this run?</p>
  </div>","100","html-slider-response","59","1069918","0.0-7.0-1.9","88","1","2025-07-30 10:16:49","36c45c0696341be0efffe67d72a12abb","41.13.106.26","Mozilla/5.0 (Windows NT 10.0; Win64; x64) AppleWebKit/537.36 (KHTML, like Gecko) Chrome/138.0.0.0 Safari/537.36","WebKit","Chrome","138.0.0.0","Windows","10.0","https://app.prolific.com/","en-ZA,en-AU;q=0.9,en-GB;q=0.8,en-US;q=0.7,en;q=0.6,st;q=0.5,et;q=0.4","678f8c443d3e97127a5e529b","687a360dabe5252b5ada7185","6889ee9ddecb21c1527627ad","0","678f8c443d3e97127a5e529b","0","2025-07-30T10:24:24.652Z","","","","AttribQ","","","","","","","","","","","50","","","","","","","","","","","","","","","","","","","","","","","","","","",""
"3154","","<div style=""width:500px;"">
  <p>How much control did you have over the ball?</p>
  </div>","100","html-slider-response","60","1073074","0.0-7.0-2.9","88","1","2025-07-30 10:16:49","36c45c0696341be0efffe67d72a12abb","41.13.106.26","Mozilla/5.0 (Windows NT 10.0; Win64; x64) AppleWebKit/537.36 (KHTML, like Gecko) Chrome/138.0.0.0 Safari/537.36","WebKit","Chrome","138.0.0.0","Windows","10.0","https://app.prolific.com/","en-ZA,en-AU;q=0.9,en-GB;q=0.8,en-US;q=0.7,en;q=0.6,st;q=0.5,et;q=0.4","678f8c443d3e97127a5e529b","687a360dabe5252b5ada7185","6889ee9ddecb21c1527627ad","0","678f8c443d3e97127a5e529b","0","2025-07-30T10:24:27.808Z","","","","ControlQ","","","","","","","","","","","50","","","","","","","","","","","","","","","","","","","","","","","","","","",""
"3843","","<div style=""width:500px;"">
  <p>How would you describe your current emotional state?</p>
  </div>","0","html-slider-response","61","1076918","0.0-7.0-3.9","88","1","2025-07-30 10:16:49","36c45c0696341be0efffe67d72a12abb","41.13.106.26","Mozilla/5.0 (Windows NT 10.0; Win64; x64) AppleWebKit/537.36 (KHTML, like Gecko) Chrome/138.0.0.0 Safari/537.36","WebKit","Chrome","138.0.0.0","Windows","10.0","https://app.prolific.com/","en-ZA,en-AU;q=0.9,en-GB;q=0.8,en-US;q=0.7,en;q=0.6,st;q=0.5,et;q=0.4","678f8c443d3e97127a5e529b","687a360dabe5252b5ada7185","6889ee9ddecb21c1527627ad","0","678f8c443d3e97127a5e529b","0","2025-07-30T10:24:31.652Z","","","","StressQ","","","","","","","","","","","50","","","","","","","","","","","","","","","","","","","","","","","","","","",""
"3429","","<div style=""width:500px;"">
  <p>What best describes how you currently feel?</p>
  </div>","100","html-slider-response","62","1080349","0.0-7.0-4.9","88","1","2025-07-30 10:16:49","36c45c0696341be0efffe67d72a12abb","41.13.106.26","Mozilla/5.0 (Windows NT 10.0; Win64; x64) AppleWebKit/537.36 (KHTML, like Gecko) Chrome/138.0.0.0 Safari/537.36","WebKit","Chrome","138.0.0.0","Windows","10.0","https://app.prolific.com/","en-ZA,en-AU;q=0.9,en-GB;q=0.8,en-US;q=0.7,en;q=0.6,st;q=0.5,et;q=0.4","678f8c443d3e97127a5e529b","687a360dabe5252b5ada7185","6889ee9ddecb21c1527627ad","0","678f8c443d3e97127a5e529b","0","2025-07-30T10:24:35.083Z","","","","MotivationQ","","","","","","","","","","","50","","","","","","","","","","","","","","","","","","","","","","","","","","",""
"","","","","ctl-task-cpt","63","1122841","0.0-7.0-0.10","88","1","2025-07-30 10:16:49","36c45c0696341be0efffe67d72a12abb","41.13.106.26","Mozilla/5.0 (Windows NT 10.0; Win64; x64) AppleWebKit/537.36 (KHTML, like Gecko) Chrome/138.0.0.0 Safari/537.36","WebKit","Chrome","138.0.0.0","Windows","10.0","https://app.prolific.com/","en-ZA,en-AU;q=0.9,en-GB;q=0.8,en-US;q=0.7,en;q=0.6,st;q=0.5,et;q=0.4","678f8c443d3e97127a5e529b","687a360dabe5252b5ada7185","6889ee9ddecb21c1527627ad","0","678f8c443d3e97127a5e529b","0","2025-07-30T10:25:17.575Z","","","","","","","","","","","","","","","","win-only","0","g1:NW,g2:SE","0.6","11","0","1115883.7","2298.8","7310.4","39476","1","4","8","6","2","8","8","14","6","0.10606060606060606","5011.5","3000","1400","[""down"",""right""]","{""num_key_presses"":6,""num_perfect"":4,""num_errors"":0,""num_randdir"":2,""num_randdir_good_moves"":2,""num_whilered"":0,""num_whileblue"":0,""num_blue"":4,""num_good_moves"":6}","[295.22232142857143,299.12857142857143,0.7,295.22232142857143,299.12857142857143,125.7,295.22232142857143,299.12857142857143,236.1,295.22232142857143,299.12857142857143,340.6,295.22232142857143,299.12857142857143,445.6,295.22232142857143,299.12857142857143,547.5,295.22232142857143,299.12857142857143,649.9,295.22232142857143,299.12857142857143,755.4,295.22232142857143,299.12857142857143,864.8,295.22232142857143,299.12857142857143,967.6,295.22232142857143,299.12857142857143,1069.7,295.22232142857143,299.12857142857143,1170.7,295.22232142857143,299.12857142857143,1274.3,295.22232142857143,299.12857142857143,1375.9,295.22232142857143,299.12857142857143,1484.4,295.22232142857143,299.12857142857143,1585.7,295.22232142857143,299.12857142857143,1686.7,295.22232142857143,299.12857142857143,1803,295.22232142857143,299.12857142857143,1903.8,295.22232142857143,299.12857142857143,2021.7,295.22232142857143,299.12857142857143,2141.4,295.22232142857143,299.12857142857143,2242.6,295.22232142857143,299.12857142857143,2344.4,295.22232142857143,299.12857142857143,2449,295.22232142857143,299.12857142857143,2571.1,295.22232142857143,299.12857142857143,2686.6,295.22232142857143,299.12857142857143,2790.4,295.22232142857143,299.12857142857143,2901.7,295.22232142857143,299.12857142857143,3002.2,295.22232142857143,299.12857142857143,3104.7,295.22232142857143,299.12857142857143,3209.2,295.22232142857143,299.12857142857143,3312.1,295.22232142857143,299.12857142857143,3420.6,295.22232142857143,299.12857142857143,3524.6,295.22232142857143,299.12857142857143,3627,295.22232142857143,299.12857142857143,3727.4,295.22232142857143,299.12857142857143,3828.6,295.22232142857143,299.12857142857143,3941.8,295.22232142857143,299.12857142857143,4047.3,295.22232142857143,299.12857142857143,4154.6,295.22232142857143,299.12857142857143,4260.5,295.22232142857143,299.12857142857143,4361.5,295.22232142857143,299.12857142857143,4461.7,295.22232142857143,299.12857142857143,4562.9,295.22232142857143,299.12857142857143,4666.3,295.22232142857143,299.12857142857143,4767.2,295.22232142857143,299.12857142857143,4876.5,295.22232142857143,299.12857142857143,4977]","[13128.5,13128.5,3231.6,9401.9,495,""oops"",""right"",""right"",""good_move"",15614.6,2456.2,1921.5,13158.4,534.7,""smooth"",""right"",""right"",""good_move"",18875,3259.5,2850.9,15615.5,408.6,""smooth"",""right"",""right"",""good_move"",21863.6,2988,2628.4,18875.8,359.5,""smooth"",""down"",""down"",""good_move"",25203.6,3339,2956.8,21864.6,382.2,""oops"",""down"",""down"",""good_move"",32027.6,6822.6,2902.6,28722.7,402.3,""smooth"",""down"",""down"",""good_move""]"
"3953","","<div style=""width:500px;"">
  <p>What determined the result of this run?</p>
  </div>","100","html-slider-response","64","1126796","0.0-7.0-1.10","88","1","2025-07-30 10:16:49","36c45c0696341be0efffe67d72a12abb","41.13.106.26","Mozilla/5.0 (Windows NT 10.0; Win64; x64) AppleWebKit/537.36 (KHTML, like Gecko) Chrome/138.0.0.0 Safari/537.36","WebKit","Chrome","138.0.0.0","Windows","10.0","https://app.prolific.com/","en-ZA,en-AU;q=0.9,en-GB;q=0.8,en-US;q=0.7,en;q=0.6,st;q=0.5,et;q=0.4","678f8c443d3e97127a5e529b","687a360dabe5252b5ada7185","6889ee9ddecb21c1527627ad","0","678f8c443d3e97127a5e529b","0","2025-07-30T10:25:21.530Z","","","","AttribQ","","","","","","","","","","","50","","","","","","","","","","","","","","","","","","","","","","","","","","",""
"3840","","<div style=""width:500px;"">
  <p>How much control did you have over the ball?</p>
  </div>","100","html-slider-response","65","1130639","0.0-7.0-2.10","88","1","2025-07-30 10:16:49","36c45c0696341be0efffe67d72a12abb","41.13.106.26","Mozilla/5.0 (Windows NT 10.0; Win64; x64) AppleWebKit/537.36 (KHTML, like Gecko) Chrome/138.0.0.0 Safari/537.36","WebKit","Chrome","138.0.0.0","Windows","10.0","https://app.prolific.com/","en-ZA,en-AU;q=0.9,en-GB;q=0.8,en-US;q=0.7,en;q=0.6,st;q=0.5,et;q=0.4","678f8c443d3e97127a5e529b","687a360dabe5252b5ada7185","6889ee9ddecb21c1527627ad","0","678f8c443d3e97127a5e529b","0","2025-07-30T10:25:25.373Z","","","","ControlQ","","","","","","","","","","","50","","","","","","","","","","","","","","","","","","","","","","","","","","",""
"3397","","<div style=""width:500px;"">
  <p>How would you describe your current emotional state?</p>
  </div>","0","html-slider-response","66","1134037","0.0-7.0-3.10","88","1","2025-07-30 10:16:49","36c45c0696341be0efffe67d72a12abb","41.13.106.26","Mozilla/5.0 (Windows NT 10.0; Win64; x64) AppleWebKit/537.36 (KHTML, like Gecko) Chrome/138.0.0.0 Safari/537.36","WebKit","Chrome","138.0.0.0","Windows","10.0","https://app.prolific.com/","en-ZA,en-AU;q=0.9,en-GB;q=0.8,en-US;q=0.7,en;q=0.6,st;q=0.5,et;q=0.4","678f8c443d3e97127a5e529b","687a360dabe5252b5ada7185","6889ee9ddecb21c1527627ad","0","678f8c443d3e97127a5e529b","0","2025-07-30T10:25:28.771Z","","","","StressQ","","","","","","","","","","","50","","","","","","","","","","","","","","","","","","","","","","","","","","",""
"3499","","<div style=""width:500px;"">
  <p>What best describes how you currently feel?</p>
  </div>","100","html-slider-response","67","1137537","0.0-7.0-4.10","88","1","2025-07-30 10:16:49","36c45c0696341be0efffe67d72a12abb","41.13.106.26","Mozilla/5.0 (Windows NT 10.0; Win64; x64) AppleWebKit/537.36 (KHTML, like Gecko) Chrome/138.0.0.0 Safari/537.36","WebKit","Chrome","138.0.0.0","Windows","10.0","https://app.prolific.com/","en-ZA,en-AU;q=0.9,en-GB;q=0.8,en-US;q=0.7,en;q=0.6,st;q=0.5,et;q=0.4","678f8c443d3e97127a5e529b","687a360dabe5252b5ada7185","6889ee9ddecb21c1527627ad","0","678f8c443d3e97127a5e529b","0","2025-07-30T10:25:32.271Z","","","","MotivationQ","","","","","","","","","","","50","","","","","","","","","","","","","","","","","","","","","","","","","","",""
"","","","","ctl-task-cpt","68","1173464","0.0-7.0-0.11","88","1","2025-07-30 10:16:49","36c45c0696341be0efffe67d72a12abb","41.13.106.26","Mozilla/5.0 (Windows NT 10.0; Win64; x64) AppleWebKit/537.36 (KHTML, like Gecko) Chrome/138.0.0.0 Safari/537.36","WebKit","Chrome","138.0.0.0","Windows","10.0","https://app.prolific.com/","en-ZA,en-AU;q=0.9,en-GB;q=0.8,en-US;q=0.7,en;q=0.6,st;q=0.5,et;q=0.4","678f8c443d3e97127a5e529b","687a360dabe5252b5ada7185","6889ee9ddecb21c1527627ad","0","678f8c443d3e97127a5e529b","0","2025-07-30T10:26:08.198Z","","","","","","","","","","","","","","","","win-only","0","g1:NW,g2:SE","0.7","12","0","1173069.8","1687.1","6689","32898.8","1","4","4","6","1","1","1","15","14","0.11363636363636363","5001.9","3000","975","[""left"",""up""]","{""num_key_presses"":8,""num_perfect"":6,""num_errors"":0,""num_randdir"":2,""num_randdir_good_moves"":0,""num_whilered"":0,""num_whileblue"":0,""num_blue"":1,""num_good_moves"":6}","[296.22232142857143,304.12857142857143,2.8,296.22232142857143,304.12857142857143,110.4,296.22232142857143,304.12857142857143,227,296.22232142857143,304.12857142857143,327.9,296.22232142857143,304.12857142857143,433.1,296.22232142857143,304.12857142857143,534.4,296.22232142857143,304.12857142857143,635.6,296.22232142857143,304.12857142857143,750.7,296.22232142857143,304.12857142857143,854.4,296.22232142857143,304.12857142857143,958.8,296.22232142857143,304.12857142857143,1062.1,296.22232142857143,304.12857142857143,1165.3,296.22232142857143,304.12857142857143,1276.2,296.22232142857143,304.12857142857143,1376.8,296.22232142857143,304.12857142857143,1481.1,296.22232142857143,304.12857142857143,1584.7,296.22232142857143,304.12857142857143,1686.1,296.22232142857143,304.12857142857143,1794.1,296.22232142857143,304.12857142857143,1897.8,296.22232142857143,304.12857142857143,1998.2,296.22232142857143,304.12857142857143,2103.9,296.22232142857143,304.12857142857143,2213.4,296.22232142857143,304.12857142857143,2319.9,296.22232142857143,304.12857142857143,2426.8,296.22232142857143,304.12857142857143,2531.3,296.22232142857143,304.12857142857143,2641.8,296.22232142857143,304.12857142857143,2745.9,296.22232142857143,304.12857142857143,2849,296.22232142857143,304.12857142857143,2950.6,296.22232142857143,304.12857142857143,3057.4,296.22232142857143,304.12857142857143,3163.1,296.22232142857143,304.12857142857143,3265.8,296.22232142857143,304.12857142857143,3369.8,296.22232142857143,304.12857142857143,3484,296.22232142857143,304.12857142857143,3584.6,296.22232142857143,304.12857142857143,3693.5,296.22232142857143,304.12857142857143,3796.5,296.22232142857143,304.12857142857143,3898.2,296.22232142857143,304.12857142857143,4006.7,296.22232142857143,304.12857142857143,4110.7,296.22232142857143,304.12857142857143,4212,296.22232142857143,304.12857142857143,4314.7,296.22232142857143,304.12857142857143,4415.9,296.22232142857143,304.12857142857143,4518.4,296.22232142857143,304.12857142857143,4624.9,296.22232142857143,304.12857142857143,4728.6,296.22232142857143,304.12857142857143,4829.5,296.22232142857143,304.12857142857143,4941.6]","[1482.6,1482.6,1000,0,482.6,""oops"",""left"",""down"",""bad_move"",4298.7,2815.2,2411,1483.5,404.2,""smooth"",""left"",""left"",""good_move"",6713.1,2413.5,1996.7,4299.6,416.8,""oops"",""left"",""down"",""bad_move"",9864.2,3150.4,2780.9,6713.8,369.5,""smooth"",""up"",""up"",""good_move"",12979.2,3114.2,2779,9865.2,335.1,""smooth"",""up"",""up"",""good_move"",15614.9,2634.9,2239.1,12980,395.8,""smooth"",""up"",""up"",""good_move"",23250.7,7634.9,2969.3,19823,458.5,""smooth"",""up"",""up"",""good_move"",26062.6,2802.9,2440,23259.7,362.9,""smooth"",""left"",""left"",""good_move""]"
"4009","","<div style=""width:500px;"">
  <p>What determined the result of this run?</p>
  </div>","100","html-slider-response","69","1177475","0.0-7.0-1.11","88","1","2025-07-30 10:16:49","36c45c0696341be0efffe67d72a12abb","41.13.106.26","Mozilla/5.0 (Windows NT 10.0; Win64; x64) AppleWebKit/537.36 (KHTML, like Gecko) Chrome/138.0.0.0 Safari/537.36","WebKit","Chrome","138.0.0.0","Windows","10.0","https://app.prolific.com/","en-ZA,en-AU;q=0.9,en-GB;q=0.8,en-US;q=0.7,en;q=0.6,st;q=0.5,et;q=0.4","678f8c443d3e97127a5e529b","687a360dabe5252b5ada7185","6889ee9ddecb21c1527627ad","0","678f8c443d3e97127a5e529b","0","2025-07-30T10:26:12.209Z","","","","AttribQ","","","","","","","","","","","50","","","","","","","","","","","","","","","","","","","","","","","","","","",""
"4718","","<div style=""width:500px;"">
  <p>How much control did you have over the ball?</p>
  </div>","100","html-slider-response","70","1182194","0.0-7.0-2.11","88","1","2025-07-30 10:16:49","36c45c0696341be0efffe67d72a12abb","41.13.106.26","Mozilla/5.0 (Windows NT 10.0; Win64; x64) AppleWebKit/537.36 (KHTML, like Gecko) Chrome/138.0.0.0 Safari/537.36","WebKit","Chrome","138.0.0.0","Windows","10.0","https://app.prolific.com/","en-ZA,en-AU;q=0.9,en-GB;q=0.8,en-US;q=0.7,en;q=0.6,st;q=0.5,et;q=0.4","678f8c443d3e97127a5e529b","687a360dabe5252b5ada7185","6889ee9ddecb21c1527627ad","0","678f8c443d3e97127a5e529b","0","2025-07-30T10:26:16.928Z","","","","ControlQ","","","","","","","","","","","50","","","","","","","","","","","","","","","","","","","","","","","","","","",""
"7760","","<div style=""width:500px;"">
  <p>How would you describe your current emotional state?</p>
  </div>","0","html-slider-response","71","1189956","0.0-7.0-3.11","88","1","2025-07-30 10:16:49","36c45c0696341be0efffe67d72a12abb","41.13.106.26","Mozilla/5.0 (Windows NT 10.0; Win64; x64) AppleWebKit/537.36 (KHTML, like Gecko) Chrome/138.0.0.0 Safari/537.36","WebKit","Chrome","138.0.0.0","Windows","10.0","https://app.prolific.com/","en-ZA,en-AU;q=0.9,en-GB;q=0.8,en-US;q=0.7,en;q=0.6,st;q=0.5,et;q=0.4","678f8c443d3e97127a5e529b","687a360dabe5252b5ada7185","6889ee9ddecb21c1527627ad","0","678f8c443d3e97127a5e529b","0","2025-07-30T10:26:24.690Z","","","","StressQ","","","","","","","","","","","50","","","","","","","","","","","","","","","","","","","","","","","","","","",""
"4881","","<div style=""width:500px;"">
  <p>What best describes how you currently feel?</p>
  </div>","100","html-slider-response","72","1194840","0.0-7.0-4.11","88","1","2025-07-30 10:16:49","36c45c0696341be0efffe67d72a12abb","41.13.106.26","Mozilla/5.0 (Windows NT 10.0; Win64; x64) AppleWebKit/537.36 (KHTML, like Gecko) Chrome/138.0.0.0 Safari/537.36","WebKit","Chrome","138.0.0.0","Windows","10.0","https://app.prolific.com/","en-ZA,en-AU;q=0.9,en-GB;q=0.8,en-US;q=0.7,en;q=0.6,st;q=0.5,et;q=0.4","678f8c443d3e97127a5e529b","687a360dabe5252b5ada7185","6889ee9ddecb21c1527627ad","0","678f8c443d3e97127a5e529b","0","2025-07-30T10:26:29.575Z","","","","MotivationQ","","","","","","","","","","","50","","","","","","","","","","","","","","","","","","","","","","","","","","",""
"","","","","ctl-task-cpt","73","1239288","0.0-7.0-0.12","88","1","2025-07-30 10:16:49","36c45c0696341be0efffe67d72a12abb","41.13.106.26","Mozilla/5.0 (Windows NT 10.0; Win64; x64) AppleWebKit/537.36 (KHTML, like Gecko) Chrome/138.0.0.0 Safari/537.36","WebKit","Chrome","138.0.0.0","Windows","10.0","https://app.prolific.com/","en-ZA,en-AU;q=0.9,en-GB;q=0.8,en-US;q=0.7,en;q=0.6,st;q=0.5,et;q=0.4","678f8c443d3e97127a5e529b","687a360dabe5252b5ada7185","6889ee9ddecb21c1527627ad","0","678f8c443d3e97127a5e529b","0","2025-07-30T10:27:14.022Z","","","","","","","","","","","","","","","","win-only","2","g1:SE,g2:NW","0.8","13","0","1230374.2","2525.2","7526.8","41412.2","1","4","4","6","2","4","4","19","15","0.14393939393939395","5001.6","3000","2085","[""left"",""up""]","{""num_key_presses"":6,""num_perfect"":5,""num_errors"":0,""num_randdir"":1,""num_randdir_good_moves"":1,""num_whilered"":0,""num_whileblue"":0,""num_blue"":4,""num_good_moves"":6}","[291.22232142857143,291.12857142857143,4.7,291.22232142857143,291.12857142857143,100.1,291.22232142857143,291.12857142857143,204.5,291.22232142857143,291.12857142857143,308.2,291.22232142857143,291.12857142857143,419.2,291.22232142857143,291.12857142857143,522.6,291.22232142857143,291.12857142857143,627,291.22232142857143,291.12857142857143,731.4,291.22232142857143,291.12857142857143,833.6,291.22232142857143,291.12857142857143,935.6,291.22232142857143,291.12857142857143,1038.3,291.22232142857143,291.12857142857143,1141.6,291.22232142857143,291.12857142857143,1242.5,291.22232142857143,291.12857142857143,1354.5,291.22232142857143,291.12857142857143,1457,291.22232142857143,291.12857142857143,1568.7,291.22232142857143,291.12857142857143,1683.2,291.22232142857143,291.12857142857143,1784.1,291.22232142857143,291.12857142857143,1889.8,291.22232142857143,291.12857142857143,1999.6,291.22232142857143,291.12857142857143,2100.7,291.22232142857143,291.12857142857143,2203.1,291.22232142857143,291.12857142857143,2306.8,291.22232142857143,291.12857142857143,2415.9,291.22232142857143,291.12857142857143,2518.3,291.22232142857143,291.12857142857143,2622.1,291.22232142857143,291.12857142857143,2729.4,291.22232142857143,291.12857142857143,2834.2,291.22232142857143,291.12857142857143,2938.5,291.22232142857143,291.12857142857143,3046.9,291.22232142857143,291.12857142857143,3150.1,291.22232142857143,291.12857142857143,3257.1,291.22232142857143,291.12857142857143,3363.3,291.22232142857143,291.12857142857143,3470.2,291.22232142857143,291.12857142857143,3571,291.22232142857143,291.12857142857143,3678.9,291.22232142857143,291.12857142857143,3780.9,291.22232142857143,291.12857142857143,3891.1,291.22232142857143,291.12857142857143,4000.4,291.22232142857143,291.12857142857143,4103.8,291.22232142857143,291.12857142857143,4211.8,291.22232142857143,291.12857142857143,4313.7,291.22232142857143,291.12857142857143,4419.7,291.22232142857143,291.12857142857143,4525,291.22232142857143,291.12857142857143,4636.3,291.22232142857143,291.12857142857143,4739.9,291.22232142857143,291.12857142857143,4840.2,291.22232142857143,291.12857142857143,4952]","[5710.2,5710.2,3196.7,2025.2,488.3,""smooth"",""left"",""left"",""good_move"",15919.9,10208.8,2239.4,13184.6,495.9,""smooth"",""left"",""left"",""good_move"",18863.6,2943.2,2257.6,15920.4,685.6,""smooth"",""left"",""left"",""good_move"",22467.6,3603.3,3153.2,18864.3,450.1,""smooth"",""up"",""up"",""good_move"",30080.8,7612,3155.9,26460.1,464.9,""smooth"",""up"",""up"",""good_move"",33543.2,3461.8,2860.9,30081.4,600.9,""oops"",""up"",""up"",""good_move""]"
"4467","","<div style=""width:500px;"">
  <p>What determined the result of this run?</p>
  </div>","100","html-slider-response","74","1243757","0.0-7.0-1.12","88","1","2025-07-30 10:16:49","36c45c0696341be0efffe67d72a12abb","41.13.106.26","Mozilla/5.0 (Windows NT 10.0; Win64; x64) AppleWebKit/537.36 (KHTML, like Gecko) Chrome/138.0.0.0 Safari/537.36","WebKit","Chrome","138.0.0.0","Windows","10.0","https://app.prolific.com/","en-ZA,en-AU;q=0.9,en-GB;q=0.8,en-US;q=0.7,en;q=0.6,st;q=0.5,et;q=0.4","678f8c443d3e97127a5e529b","687a360dabe5252b5ada7185","6889ee9ddecb21c1527627ad","0","678f8c443d3e97127a5e529b","0","2025-07-30T10:27:18.491Z","","","","AttribQ","","","","","","","","","","","50","","","","","","","","","","","","","","","","","","","","","","","","","","",""
"2788","","<div style=""width:500px;"">
  <p>How much control did you have over the ball?</p>
