"rt","response_timestamp","stimulus","response","trial_type","trial_index","time_elapsed","internal_node_id","run_id","condition","recorded_at","source_code_version","ip","user_agent","device","browser","browser_version","platform","platform_version","referer","accept_language","PROLIFIC_PID","STUDY_ID","SESSION_ID","BATCH","prolific_id","batch","realtime","success","question_order","question_id","eventType","responses","item_order","radio_event_ids","radio_event_times","key_event_times","mouse_event_times","straightlining","zigzagging","honeypot","view_history","slider_start","which_type","canvas_config","goals_layout","control_level","trial_number","tutorial_trial_number","trial_start_time","phase1_start_time","phase2_start_time","phase3_start_time","goal_1_value","goal_1_distance","goal_2_value","goal_2_distance","goal_selected","outcome","outcome_total","participant_final_score","participant_initial_score","participant_final_score_prop","goal_choice_rt","allocated_time","allocated_time_remaining","goal_direction","counts","mouse_movements","key_presses"
"99667","1754476239943","<p style='font-size:40px;line-height:1.25'><strong>Welcome to the experiment!</strong></p><p style='font-size:1.1em;line-height:1.25'>Thank you for participanting in our experiment again! You will be asked to play the Dysfunctional Ball Game again. We will briefly recap the rules before we start.</p><p style='font-size:1.1em;line-height:1.25'>Press <strong>Next</strong> to continue.</p>","0","custom-html-button-response","0","99672","0.0-0.0","178","1","2025-08-06 10:28:54","36c45c0696341be0efffe67d72a12abb","62.164.249.91","Mozilla/5.0 (Windows NT 10.0; Win64; x64) AppleWebKit/537.36 (KHTML, like Gecko) Chrome/132.0.0.0 Safari/537.36","WebKit","Chrome","132.0.0.0","Windows","10.0","https://app.prolific.com/","en-US,en;q=0.9","6792a60bf1238ae52e645ecb","6877649eabb845cf142cd221","68932e580d8c006629ebe99e","1","6792a60bf1238ae52e645ecb","1","2025-08-06T10:30:39.946Z","","","","","","","","","","","","","","","","","","","","","","","","","","","","","","","","","","","","","","","","","",""
"53676","","","","fullscreen","1","154363","0.0-1.0","178","1","2025-08-06 10:28:54","36c45c0696341be0efffe67d72a12abb","62.164.249.91","Mozilla/5.0 (Windows NT 10.0; Win64; x64) AppleWebKit/537.36 (KHTML, like Gecko) Chrome/132.0.0.0 Safari/537.36","WebKit","Chrome","132.0.0.0","Windows","10.0","https://app.prolific.com/","en-US,en;q=0.9","6792a60bf1238ae52e645ecb","6877649eabb845cf142cd221","68932e580d8c006629ebe99e","1","6792a60bf1238ae52e645ecb","1","","true","","","","","","","","","","","","","","","","","","","","","","","","","","","","","","","","","","","","","","","","",""
"2349","1754476296988"," <p style='font-size:1.1em;line-height:1.25'>Thank you for closing all other tabs.</p><p style='font-size:1.1em;line-height:1.25'>We will now invite you to fill in some questionnaires, before starting the game.<br>This will take about 5 minutes.<br></p><p style='font-size:1.1em;line-height:1.25'>Press the <strong>Next</strong> button to continue.</p>","0","custom-html-button-response","2","156715","0.0-2.0","178","1","2025-08-06 10:28:54","36c45c0696341be0efffe67d72a12abb","62.164.249.91","Mozilla/5.0 (Windows NT 10.0; Win64; x64) AppleWebKit/537.36 (KHTML, like Gecko) Chrome/132.0.0.0 Safari/537.36","WebKit","Chrome","132.0.0.0","Windows","10.0","https://app.prolific.com/","en-US,en;q=0.9","6792a60bf1238ae52e645ecb","6877649eabb845cf142cd221","68932e580d8c006629ebe99e","1","6792a60bf1238ae52e645ecb","1","2025-08-06T10:31:36.989Z","","","","","","","","","","","","","","","","","","","","","","","","","","","","","","","","","","","","","","","","","",""
"6028","","","{""assigned_sex"":""female""}","survey-multi-choice","3","162751","0.0-3.0-0.0","178","1","2025-08-06 10:28:54","36c45c0696341be0efffe67d72a12abb","62.164.249.91","Mozilla/5.0 (Windows NT 10.0; Win64; x64) AppleWebKit/537.36 (KHTML, like Gecko) Chrome/132.0.0.0 Safari/537.36","WebKit","Chrome","132.0.0.0","Windows","10.0","https://app.prolific.com/","en-US,en;q=0.9","6792a60bf1238ae52e645ecb","6877649eabb845cf142cd221","68932e580d8c006629ebe99e","1","6792a60bf1238ae52e645ecb","1","","","[0]","0","demographics","","","","","","","","","","","","","","","","","","","","","","","","","","","","","","","","","","","","","",""
"8342","1754476311369","<p style='font-size:1.1em;line-height:1.25'>In the following, we will perform a baseline assessment. This means that we will ask you a few questions relating to your experiences over the past month.<br></p><p style='font-size:1.1em;line-height:1.25'>Press the <strong>Next</strong> button to continue.</p>","0","custom-html-button-response","4","171096","0.0-4.0-0.0","178","1","2025-08-06 10:28:54","36c45c0696341be0efffe67d72a12abb","62.164.249.91","Mozilla/5.0 (Windows NT 10.0; Win64; x64) AppleWebKit/537.36 (KHTML, like Gecko) Chrome/132.0.0.0 Safari/537.36","WebKit","Chrome","132.0.0.0","Windows","10.0","https://app.prolific.com/","en-US,en;q=0.9","6792a60bf1238ae52e645ecb","6877649eabb845cf142cd221","68932e580d8c006629ebe99e","1","6792a60bf1238ae52e645ecb","1","2025-08-06T10:31:51.370Z","","","","","","","","","","","","","","","","","","","","","","","","","","","","","","","","","","","","","","","","","",""
"797542.8000001907","","","","survey-template","5","968648","0.0-4.0-1.0","178","1","2025-08-06 10:28:54","36c45c0696341be0efffe67d72a12abb","62.164.249.91","Mozilla/5.0 (Windows NT 10.0; Win64; x64) AppleWebKit/537.36 (KHTML, like Gecko) Chrome/132.0.0.0 Safari/537.36","WebKit","Chrome","132.0.0.0","Windows","10.0","https://app.prolific.com/","en-US,en;q=0.9","6792a60bf1238ae52e645ecb","6877649eabb845cf142cd221","68932e580d8c006629ebe99e","1","6792a60bf1238ae52e645ecb","1","2025-08-06T10:45:08.922Z","","","","pss","{""Q01"":""1"",""Q02"":""1"",""Q03"":""2"",""Q04"":""1"",""Q05"":""2"",""Q06"":""2"",""Q07"":""2"",""Q08"":""2"",""Q09"":""1"",""Q10"":""1""}","[0,1,2,3,4,5,6,7,8,9]","[""Q01"",""Q02"",""Q03"",""Q03"",""Q04"",""Q05"",""Q05"",""Q06"",""Q07"",""Q08"",""Q09"",""Q10"",""Q10"",""Q09""]","[6274.800000190735,14149.700000286102,740755.8000001907,742698.9000000954,746193.7000002861,750261.2000002861,759314.7000002861,762288.9000000954,764526.5,768021.5999999046,769461,774189.9000000954,785173.8000001907,787989.5999999046]","[]","[0.3000001907348633,6274.800000190735,14149.700000286102,740755.8000001907,742698.9000000954,746193.7000002861,750261.2000002861,759314.7000002861,762288.9000000954,764526.5,766629.5999999046,768021.5999999046,769461,774189.9000000954,785173.8000001907,787989.5999999046,797537.7000002861]","0.5","0.4444444444444444","0","","","","","","","","","","","","","","","","","","","","","","","","","","","","",""
"2962","1754477111887","<p style='font-size:1.1em;line-height:1.25'>Thank you for your answers! Now we will ask you a few more questions relating to your feelings in the last 24 hours.<br></p><p style='font-size:1.1em;line-height:1.25'>Press the <strong>Next</strong> button to continue.</p>","0","custom-html-button-response","6","971613","0.0-4.0-2.0","178","1","2025-08-06 10:28:54","36c45c0696341be0efffe67d72a12abb","62.164.249.91","Mozilla/5.0 (Windows NT 10.0; Win64; x64) AppleWebKit/537.36 (KHTML, like Gecko) Chrome/132.0.0.0 Safari/537.36","WebKit","Chrome","132.0.0.0","Windows","10.0","https://app.prolific.com/","en-US,en;q=0.9","6792a60bf1238ae52e645ecb","6877649eabb845cf142cd221","68932e580d8c006629ebe99e","1","6792a60bf1238ae52e645ecb","1","2025-08-06T10:45:11.888Z","","","","","","","","","","","","","","","","","","","","","","","","","","","","","","","","","","","","","","","","","",""
"47774.199999809265","","","","survey-template","7","1019399","0.0-4.0-3.0","178","1","2025-08-06 10:28:54","36c45c0696341be0efffe67d72a12abb","62.164.249.91","Mozilla/5.0 (Windows NT 10.0; Win64; x64) AppleWebKit/537.36 (KHTML, like Gecko) Chrome/132.0.0.0 Safari/537.36","WebKit","Chrome","132.0.0.0","Windows","10.0","https://app.prolific.com/","en-US,en;q=0.9","6792a60bf1238ae52e645ecb","6877649eabb845cf142cd221","68932e580d8c006629ebe99e","1","6792a60bf1238ae52e645ecb","1","2025-08-06T10:45:59.674Z","","","","drsp","{""Q01"":""1"",""Q02"":""1"",""Q03"":""1"",""Q04"":""1"",""Q05"":""1"",""Q06"":""1"",""Q07"":""2"",""Q08"":""2"",""Q09"":""1"",""Q10"":""1"",""Q11"":""1"",""Q12"":""1"",""Q13"":""5"",""Q14"":""3"",""Q15"":""1"",""Q16"":""1"",""Q17"":""2"",""Q18"":""1"",""Q19"":""1"",""Q20"":""1"",""Q21"":""1"",""Q22"":""1""}","[0,1,2,3,4,5,6,7,8,9,10,11,12,13,14,15,16,17,18,19,20,21]","[""Q01"",""Q02"",""Q03"",""Q04"",""Q05"",""Q06"",""Q07"",""Q07"",""Q08"",""Q09"",""Q10"",""Q11"",""Q12"",""Q13"",""Q14"",""Q15"",""Q16"",""Q17"",""Q18"",""Q19"",""Q20"",""Q21"",""Q22""]","[3177.9000000953674,5187.400000095367,6641.799999713898,7922.5,8996.099999904633,10171.799999713898,12792.599999904633,15996.400000095367,17192,19200.400000095367,20457.099999904633,22020.5,24496.900000095367,27056.299999713898,30811.5,34172.2999997139,35439.59999990463,38292.199999809265,39759.2999997139,41161.90000009537,42427.09999990463,44821.40000009537,46488.199999809265]","[]","[0.09999990463256836,3177.9000000953674,5187.400000095367,6641.799999713898,7922.5,8996.099999904633,10171.799999713898,12792.599999904633,15144.900000095367,15996.400000095367,17192,19200.400000095367,20457.099999904633,22020.5,24496.900000095367,27056.299999713898,30811.5,34172.2999997139,35439.59999990463,38292.199999809265,39759.2999997139,41161.90000009537,42427.09999990463,44057.5,44821.40000009537,46488.199999809265,47765]","0.7727272727272727","0.19047619047619047","0","","","","","","","","","","","","","","","","","","","","","","","","","","","","",""
"14395.5","","","","survey-template","8","1033799","0.0-4.0-4.0","178","1","2025-08-06 10:28:54","36c45c0696341be0efffe67d72a12abb","62.164.249.91","Mozilla/5.0 (Windows NT 10.0; Win64; x64) AppleWebKit/537.36 (KHTML, like Gecko) Chrome/132.0.0.0 Safari/537.36","WebKit","Chrome","132.0.0.0","Windows","10.0","https://app.prolific.com/","en-US,en;q=0.9","6792a60bf1238ae52e645ecb","6877649eabb845cf142cd221","68932e580d8c006629ebe99e","1","6792a60bf1238ae52e645ecb","1","2025-08-06T10:46:14.073Z","","","","stress","{""Q01"":""1"",""Q02"":""2"",""Q03"":""2""}","[0,1,2]","[""Q01"",""Q02"",""Q03""]","[2568.5,9839.900000095367,12632.699999809265]","[]","[2568.5,8656,9839.900000095367,12632.699999809265,14392.599999904633]","0.3333333333333333","0.5","0","","","","","","","","","","","","","","","","","","","","","","","","","","","","",""
"2008","","","","instructions","9","1035809","0.0-5.0-0.0","178","1","2025-08-06 10:28:54","36c45c0696341be0efffe67d72a12abb","62.164.249.91","Mozilla/5.0 (Windows NT 10.0; Win64; x64) AppleWebKit/537.36 (KHTML, like Gecko) Chrome/132.0.0.0 Safari/537.36","WebKit","Chrome","132.0.0.0","Windows","10.0","https://app.prolific.com/","en-US,en;q=0.9","6792a60bf1238ae52e645ecb","6877649eabb845cf142cd221","68932e580d8c006629ebe99e","1","6792a60bf1238ae52e645ecb","1","","","","","","","","","","","","","","","[{""page_index"":0,""viewing_time"":2007}]","","","","","","","","","","","","","","","","","","","","","","","","","","","",""
"6990","","<p>Before you start with this game please answer the following three questions yourself. </p>
  <p>Through this game, we measure several aspects of your cognitive performance, such as reaction times, multi-tasking capabilities </p>
  <p>and the ability to assess the situation you are in.</p>
  <p></p>
  <p><b>How good do you usually are in such tasks?</b></p>","69","html-slider-response","10","1042805","0.0-6.0-0.0","178","1","2025-08-06 10:28:54","36c45c0696341be0efffe67d72a12abb","62.164.249.91","Mozilla/5.0 (Windows NT 10.0; Win64; x64) AppleWebKit/537.36 (KHTML, like Gecko) Chrome/132.0.0.0 Safari/537.36","WebKit","Chrome","132.0.0.0","Windows","10.0","https://app.prolific.com/","en-US,en;q=0.9","6792a60bf1238ae52e645ecb","6877649eabb845cf142cd221","68932e580d8c006629ebe99e","1","6792a60bf1238ae52e645ecb","1","2025-08-06T10:46:23.079Z","","","","PreSkillQ","","","","","","","","","","","50","","","","","","","","","","","","","","","","","","","","","","","","","","",""
"3382","","<div style=""width:500px;"">
  <p>How well do you think you will perform in this task compared to other participants?</p>
  </div>","63","html-slider-response","11","1046189","0.0-6.0-1.0","178","1","2025-08-06 10:28:54","36c45c0696341be0efffe67d72a12abb","62.164.249.91","Mozilla/5.0 (Windows NT 10.0; Win64; x64) AppleWebKit/537.36 (KHTML, like Gecko) Chrome/132.0.0.0 Safari/537.36","WebKit","Chrome","132.0.0.0","Windows","10.0","https://app.prolific.com/","en-US,en;q=0.9","6792a60bf1238ae52e645ecb","6877649eabb845cf142cd221","68932e580d8c006629ebe99e","1","6792a60bf1238ae52e645ecb","1","2025-08-06T10:46:26.464Z","","","","PrePerfQ","","","","","","","","","","","50","","","","","","","","","","","","","","","","","","","","","","","","","","",""
"3109","","<div style=""width:500px;"">
  <p>What best describes how you currently feel?</p>
  </div>","100","html-slider-response","12","1049301","0.0-6.0-2.0","178","1","2025-08-06 10:28:54","36c45c0696341be0efffe67d72a12abb","62.164.249.91","Mozilla/5.0 (Windows NT 10.0; Win64; x64) AppleWebKit/537.36 (KHTML, like Gecko) Chrome/132.0.0.0 Safari/537.36","WebKit","Chrome","132.0.0.0","Windows","10.0","https://app.prolific.com/","en-US,en;q=0.9","6792a60bf1238ae52e645ecb","6877649eabb845cf142cd221","68932e580d8c006629ebe99e","1","6792a60bf1238ae52e645ecb","1","2025-08-06T10:46:29.576Z","","","","PreMotivationQ","","","","","","","","","","","50","","","","","","","","","","","","","","","","","","","","","","","","","","",""
"","","","","ctl-task-cpt","13","1067697","0.0-7.0-0.0","178","1","2025-08-06 10:28:54","36c45c0696341be0efffe67d72a12abb","62.164.249.91","Mozilla/5.0 (Windows NT 10.0; Win64; x64) AppleWebKit/537.36 (KHTML, like Gecko) Chrome/132.0.0.0 Safari/537.36","WebKit","Chrome","132.0.0.0","Windows","10.0","https://app.prolific.com/","en-US,en;q=0.9","6792a60bf1238ae52e645ecb","6877649eabb845cf142cd221","68932e580d8c006629ebe99e","1","6792a60bf1238ae52e645ecb","1","2025-08-06T10:46:47.972Z","","","","","","","","","","","","","","","","win-only","0","g1:NW,g2:SE","1","1","0","1056016.8","1828.6","6835","15373.2","1","4","8","6","1","1","1","1","0","0.007575757575757576","5006.3","3000","1885","[""left"",""up""]","{""num_key_presses"":4,""num_perfect"":4,""num_errors"":0,""num_randdir"":0,""num_randdir_good_moves"":0,""num_whilered"":0,""num_whileblue"":0,""num_blue"":0,""num_good_moves"":4}","[294.22232142857143,301.12857142857143,0.3,294.22232142857143,301.12857142857143,103.1,294.22232142857143,301.12857142857143,207.5,294.22232142857143,301.12857142857143,314.3,294.22232142857143,301.12857142857143,420.7,294.22232142857143,301.12857142857143,530.1,294.22232142857143,301.12857142857143,636.5,294.22232142857143,301.12857142857143,738.2,294.22232142857143,301.12857142857143,840.1,294.22232142857143,301.12857142857143,949.4,294.22232142857143,301.12857142857143,1064.9,294.22232142857143,301.12857142857143,1167.3,294.22232142857143,301.12857142857143,1273.4,294.22232142857143,301.12857142857143,1381.1,294.22232142857143,301.12857142857143,1489.4,294.22232142857143,301.12857142857143,1592.1,294.22232142857143,301.12857142857143,1700.1,294.22232142857143,301.12857142857143,1800.4,294.22232142857143,301.12857142857143,1910.2,294.22232142857143,301.12857142857143,2012.5,294.22232142857143,301.12857142857143,2115.8,294.22232142857143,301.12857142857143,2219.5,294.22232142857143,301.12857142857143,2330.8,294.22232142857143,301.12857142857143,2432.9,294.22232142857143,301.12857142857143,2535.6,294.22232142857143,301.12857142857143,2638.3,294.22232142857143,301.12857142857143,2740.2,294.22232142857143,301.12857142857143,2843.1,294.22232142857143,301.12857142857143,2948.1,294.22232142857143,301.12857142857143,3050,294.22232142857143,301.12857142857143,3160.5,294.22232142857143,301.12857142857143,3263.4,294.22232142857143,301.12857142857143,3365.8,294.22232142857143,301.12857142857143,3466.6,294.22232142857143,301.12857142857143,3569.9,294.22232142857143,301.12857142857143,3677.4,294.22232142857143,301.12857142857143,3785,294.22232142857143,301.12857142857143,3901.1,294.22232142857143,301.12857142857143,4007.9,294.22232142857143,301.12857142857143,4118.4,294.22232142857143,301.12857142857143,4228.8,294.22232142857143,301.12857142857143,4328.9,294.22232142857143,301.12857142857143,4431.9,294.22232142857143,301.12857142857143,4535.6,294.22232142857143,301.12857142857143,4639.2,294.22232142857143,301.12857142857143,4742.5,523.2223214285714,403.12857142857143,4846.7,543.2223214285714,505.12857142857143,4949.9]","[1415.6,1415.6,1000,0,415.7,""smooth"",""up"",""up"",""good_move"",3590.6,2173,1714.9,1417.7,458,""smooth"",""left"",""left"",""good_move"",6106.1,2511.7,2085.3,3594.4,426.4,""smooth"",""up"",""up"",""good_move"",8383,2274.7,1903.1,6108.5,371.7,""smooth"",""left"",""left"",""good_move""]"
"4923","","<div style=""width:500px;"">
  <p>What determined the result of this run?</p>
  </div>","100","html-slider-response","14","1072624","0.0-7.0-1.0","178","1","2025-08-06 10:28:54","36c45c0696341be0efffe67d72a12abb","62.164.249.91","Mozilla/5.0 (Windows NT 10.0; Win64; x64) AppleWebKit/537.36 (KHTML, like Gecko) Chrome/132.0.0.0 Safari/537.36","WebKit","Chrome","132.0.0.0","Windows","10.0","https://app.prolific.com/","en-US,en;q=0.9","6792a60bf1238ae52e645ecb","6877649eabb845cf142cd221","68932e580d8c006629ebe99e","1","6792a60bf1238ae52e645ecb","1","2025-08-06T10:46:52.898Z","","","","AttribQ","","","","","","","","","","","50","","","","","","","","","","","","","","","","","","","","","","","","","","",""
"3176","","<div style=""width:500px;"">
  <p>How much control did you have over the ball?</p>
  </div>","97","html-slider-response","15","1075803","0.0-7.0-2.0","178","1","2025-08-06 10:28:54","36c45c0696341be0efffe67d72a12abb","62.164.249.91","Mozilla/5.0 (Windows NT 10.0; Win64; x64) AppleWebKit/537.36 (KHTML, like Gecko) Chrome/132.0.0.0 Safari/537.36","WebKit","Chrome","132.0.0.0","Windows","10.0","https://app.prolific.com/","en-US,en;q=0.9","6792a60bf1238ae52e645ecb","6877649eabb845cf142cd221","68932e580d8c006629ebe99e","1","6792a60bf1238ae52e645ecb","1","2025-08-06T10:46:56.077Z","","","","ControlQ","","","","","","","","","","","50","","","","","","","","","","","","","","","","","","","","","","","","","","",""
"5870","","<div style=""width:500px;"">
  <p>How would you describe your current emotional state?</p>
  </div>","10","html-slider-response","16","1081676","0.0-7.0-3.0","178","1","2025-08-06 10:28:54","36c45c0696341be0efffe67d72a12abb","62.164.249.91","Mozilla/5.0 (Windows NT 10.0; Win64; x64) AppleWebKit/537.36 (KHTML, like Gecko) Chrome/132.0.0.0 Safari/537.36","WebKit","Chrome","132.0.0.0","Windows","10.0","https://app.prolific.com/","en-US,en;q=0.9","6792a60bf1238ae52e645ecb","6877649eabb845cf142cd221","68932e580d8c006629ebe99e","1","6792a60bf1238ae52e645ecb","1","2025-08-06T10:47:01.950Z","","","","StressQ","","","","","","","","","","","50","","","","","","","","","","","","","","","","","","","","","","","","","","",""
"4248","","<div style=""width:500px;"">
  <p>What best describes how you currently feel?</p>
  </div>","99","html-slider-response","17","1085927","0.0-7.0-4.0","178","1","2025-08-06 10:28:54","36c45c0696341be0efffe67d72a12abb","62.164.249.91","Mozilla/5.0 (Windows NT 10.0; Win64; x64) AppleWebKit/537.36 (KHTML, like Gecko) Chrome/132.0.0.0 Safari/537.36","WebKit","Chrome","132.0.0.0","Windows","10.0","https://app.prolific.com/","en-US,en;q=0.9","6792a60bf1238ae52e645ecb","6877649eabb845cf142cd221","68932e580d8c006629ebe99e","1","6792a60bf1238ae52e645ecb","1","2025-08-06T10:47:06.201Z","","","","MotivationQ","","","","","","","","","","","50","","","","","","","","","","","","","","","","","","","","","","","","","","",""
"","","","","ctl-task-cpt","18","1127756","0.0-7.0-0.1","178","1","2025-08-06 10:28:54","36c45c0696341be0efffe67d72a12abb","62.164.249.91","Mozilla/5.0 (Windows NT 10.0; Win64; x64) AppleWebKit/537.36 (KHTML, like Gecko) Chrome/132.0.0.0 Safari/537.36","WebKit","Chrome","132.0.0.0","Windows","10.0","https://app.prolific.com/","en-US,en;q=0.9","6792a60bf1238ae52e645ecb","6877649eabb845cf142cd221","68932e580d8c006629ebe99e","1","6792a60bf1238ae52e645ecb","1","2025-08-06T10:47:48.030Z","","","","","","","","","","","","","","","","win-only","3","g1:SW,g2:NE","0.9","2","0","1092636.2","1723","6732.6","38817.8","1","4","4","6","2","4","4","5","1","0.03787878787878788","1527.2","3000","1395","[""up"",""right""]","{""num_key_presses"":6,""num_perfect"":6,""num_errors"":0,""num_randdir"":0,""num_randdir_good_moves"":0,""num_whilered"":0,""num_whileblue"":0,""num_blue"":4,""num_good_moves"":6}","[297.22232142857143,298.12857142857143,0.5,297.22232142857143,298.12857142857143,101.2,297.22232142857143,298.12857142857143,206.2,297.22232142857143,298.12857142857143,308.7,297.22232142857143,298.12857142857143,410.2,299.22232142857143,300.12857142857143,517.1,145.22232142857143,513.1285714285714,621.1,156.22232142857143,479.12857142857143,727.5,458.22232142857143,155.12857142857143,829.1,514.2223214285714,119.12857142857143,945.1,514.2223214285714,119.12857142857143,1062.2,531.2223214285714,96.12857142857143,1164.8,548.2223214285714,75.12857142857143,1264.8,548.2223214285714,73.12857142857143,1370.4,548.2223214285714,73.12857142857143,1475.8,548.2223214285714,73.12857142857143,1590.4,548.2223214285714,73.12857142857143,1697.2,548.2223214285714,73.12857142857143,1798,548.2223214285714,73.12857142857143,1904.8,548.2223214285714,73.12857142857143,2005.7,548.2223214285714,73.12857142857143,2108.7,548.2223214285714,73.12857142857143,2214.8,548.2223214285714,73.12857142857143,2325.7,548.2223214285714,73.12857142857143,2438.8,548.2223214285714,73.12857142857143,2548.2,548.2223214285714,73.12857142857143,2661.1,548.2223214285714,73.12857142857143,2780.1,548.2223214285714,73.12857142857143,2884,548.2223214285714,73.12857142857143,2984.9,548.2223214285714,73.12857142857143,3095.3,548.2223214285714,73.12857142857143,3196,548.2223214285714,73.12857142857143,3300.5,548.2223214285714,73.12857142857143,3401.1,548.2223214285714,73.12857142857143,3509.9,548.2223214285714,73.12857142857143,3610.4,548.2223214285714,73.12857142857143,3710.9,548.2223214285714,73.12857142857143,3827.9,548.2223214285714,73.12857142857143,3929.8,548.2223214285714,73.12857142857143,4029.8,548.2223214285714,73.12857142857143,4133.4,548.2223214285714,73.12857142857143,4233.7,548.2223214285714,73.12857142857143,4335.1,548.2223214285714,73.12857142857143,4454.6,548.2223214285714,73.12857142857143,4558.7,548.2223214285714,73.12857142857143,4658.9,548.2223214285714,73.12857142857143,4759.3,548.2223214285714,73.12857142857143,4862.3,548.2223214285714,73.12857142857143,4976.4]","[8669.7,8669.7,2641.5,5592.5,435.7,""smooth"",""right"",""right"",""good_move"",11893.3,3220.4,2837.7,8673.1,382.6,""smooth"",""up"",""up"",""good_move"",14808.4,2912.1,2418.5,11896.4,493.6,""smooth"",""up"",""up"",""good_move"",17702.9,2893.2,2532.2,14809.7,361,""smooth"",""up"",""up"",""good_move"",24467.8,6764.1,2408.6,21548,511.3,""smooth"",""right"",""right"",""good_move"",31923.9,7455.2,3601.8,27888.2,433.9,""smooth"",""right"",""right"",""good_move""]"
"3086","","<div style=""width:500px;"">
  <p>What determined the result of this run?</p>
  </div>","95","html-slider-response","19","1130846","0.0-7.0-1.1","178","1","2025-08-06 10:28:54","36c45c0696341be0efffe67d72a12abb","62.164.249.91","Mozilla/5.0 (Windows NT 10.0; Win64; x64) AppleWebKit/537.36 (KHTML, like Gecko) Chrome/132.0.0.0 Safari/537.36","WebKit","Chrome","132.0.0.0","Windows","10.0","https://app.prolific.com/","en-US,en;q=0.9","6792a60bf1238ae52e645ecb","6877649eabb845cf142cd221","68932e580d8c006629ebe99e","1","6792a60bf1238ae52e645ecb","1","2025-08-06T10:47:51.120Z","","","","AttribQ","","","","","","","","","","","50","","","","","","","","","","","","","","","","","","","","","","","","","","",""
"3622","","<div style=""width:500px;"">
  <p>How much control did you have over the ball?</p>
  </div>","98","html-slider-response","20","1134474","0.0-7.0-2.1","178","1","2025-08-06 10:28:54","36c45c0696341be0efffe67d72a12abb","62.164.249.91","Mozilla/5.0 (Windows NT 10.0; Win64; x64) AppleWebKit/537.36 (KHTML, like Gecko) Chrome/132.0.0.0 Safari/537.36","WebKit","Chrome","132.0.0.0","Windows","10.0","https://app.prolific.com/","en-US,en;q=0.9","6792a60bf1238ae52e645ecb","6877649eabb845cf142cd221","68932e580d8c006629ebe99e","1","6792a60bf1238ae52e645ecb","1","2025-08-06T10:47:54.749Z","","","","ControlQ","","","","","","","","","","","50","","","","","","","","","","","","","","","","","","","","","","","","","","",""
"2834","","<div style=""width:500px;"">
  <p>How would you describe your current emotional state?</p>
  </div>","8","html-slider-response","21","1137313","0.0-7.0-3.1","178","1","2025-08-06 10:28:54","36c45c0696341be0efffe67d72a12abb","62.164.249.91","Mozilla/5.0 (Windows NT 10.0; Win64; x64) AppleWebKit/537.36 (KHTML, like Gecko) Chrome/132.0.0.0 Safari/537.36","WebKit","Chrome","132.0.0.0","Windows","10.0","https://app.prolific.com/","en-US,en;q=0.9","6792a60bf1238ae52e645ecb","6877649eabb845cf142cd221","68932e580d8c006629ebe99e","1","6792a60bf1238ae52e645ecb","1","2025-08-06T10:47:57.587Z","","","","StressQ","","","","","","","","","","","50","","","","","","","","","","","","","","","","","","","","","","","","","","",""
"4678","","<div style=""width:500px;"">
  <p>What best describes how you currently feel?</p>
  </div>","100","html-slider-response","22","1141994","0.0-7.0-4.1","178","1","2025-08-06 10:28:54","36c45c0696341be0efffe67d72a12abb","62.164.249.91","Mozilla/5.0 (Windows NT 10.0; Win64; x64) AppleWebKit/537.36 (KHTML, like Gecko) Chrome/132.0.0.0 Safari/537.36","WebKit","Chrome","132.0.0.0","Windows","10.0","https://app.prolific.com/","en-US,en;q=0.9","6792a60bf1238ae52e645ecb","6877649eabb845cf142cd221","68932e580d8c006629ebe99e","1","6792a60bf1238ae52e645ecb","1","2025-08-06T10:48:02.268Z","","","","MotivationQ","","","","","","","","","","","50","","","","","","","","","","","","","","","","","","","","","","","","","","",""
"","","","","ctl-task-cpt","23","1187296","0.0-7.0-0.2","178","1","2025-08-06 10:28:54","36c45c0696341be0efffe67d72a12abb","62.164.249.91","Mozilla/5.0 (Windows NT 10.0; Win64; x64) AppleWebKit/537.36 (KHTML, like Gecko) Chrome/132.0.0.0 Safari/537.36","WebKit","Chrome","132.0.0.0","Windows","10.0","https://app.prolific.com/","en-US,en;q=0.9","6792a60bf1238ae52e645ecb","6877649eabb845cf142cd221","68932e580d8c006629ebe99e","1","6792a60bf1238ae52e645ecb","1","2025-08-06T10:48:47.571Z","","","","","","","","","","","","","","","","win-only","2","g1:SE,g2:NW","0.8","3","0","1148711.5","1853.3","6858.3","42267","1","4","4","6","2","4","4","9","5","0.06818181818181818","1450.3","3000","875","[""left"",""up""]","{""num_key_presses"":8,""num_perfect"":7,""num_errors"":0,""num_randdir"":1,""num_randdir_good_moves"":0,""num_whilered"":0,""num_whileblue"":0,""num_blue"":4,""num_good_moves"":7}","[290.22232142857143,297.12857142857143,1.2,290.22232142857143,297.12857142857143,108.2,290.22232142857143,297.12857142857143,209.5,290.22232142857143,297.12857142857143,321.3,290.22232142857143,297.12857142857143,424.1,290.22232142857143,297.12857142857143,528.1,290.22232142857143,297.12857142857143,641.2,290.22232142857143,297.12857142857143,742.5,290.22232142857143,297.12857142857143,845.9,93.22232142857143,107.12857142857143,957,60.222321428571426,53.128571428571426,1058.2,57.222321428571426,48.128571428571426,1166.6,57.222321428571426,47.128571428571426,1269.4,57.222321428571426,47.128571428571426,1388.8,57.222321428571426,47.128571428571426,1515.2,57.222321428571426,47.128571428571426,1633.5,57.222321428571426,47.128571428571426,1737.2,57.222321428571426,47.128571428571426,1840,57.222321428571426,47.128571428571426,1940.3,57.222321428571426,47.128571428571426,2048.2,57.222321428571426,47.128571428571426,2148.4,57.222321428571426,47.128571428571426,2253.5,57.222321428571426,47.128571428571426,2357.2,57.222321428571426,47.128571428571426,2460.4,57.222321428571426,47.128571428571426,2565.1,57.222321428571426,47.128571428571426,2668.4,57.222321428571426,47.128571428571426,2770.6,57.222321428571426,47.128571428571426,2870.6,57.222321428571426,47.128571428571426,2975.5,57.222321428571426,47.128571428571426,3078.3,57.222321428571426,47.128571428571426,3181.8,57.222321428571426,47.128571428571426,3282.3,57.222321428571426,47.128571428571426,3385.9,57.222321428571426,47.128571428571426,3486,57.222321428571426,47.128571428571426,3594.1,57.222321428571426,47.128571428571426,3695,57.222321428571426,47.128571428571426,3797.6,57.222321428571426,47.128571428571426,3904,57.222321428571426,47.128571428571426,4005.2,57.222321428571426,47.128571428571426,4115.6,57.222321428571426,47.128571428571426,4215.9,57.222321428571426,47.128571428571426,4319.4,57.222321428571426,47.128571428571426,4427.2,57.222321428571426,47.128571428571426,4537,57.222321428571426,47.128571428571426,4659.6,57.222321428571426,47.128571428571426,4780.7,57.222321428571426,47.128571428571426,4886,57.222321428571426,47.128571428571426,4998]","[4703,4703,2211.2,2014.5,477.3,""smooth"",""up"",""up"",""good_move"",7454,2749.4,2330.5,4704.6,418.9,""smooth"",""left"",""left"",""good_move"",10469,3010.6,2595.9,7458.5,414.7,""smooth"",""up"",""up"",""good_move"",13325.1,2855.3,2354.7,10469.9,500.5,""smooth"",""left"",""left"",""good_move"",17100.2,3774.8,3325,13325.5,449.8,""smooth"",""up"",""up"",""good_move"",19005.1,1902.7,1434.9,17102.5,467.8,""oops"",""left"",""down"",""bad_move"",26003.9,6994.4,2969.7,22449.7,584.6,""smooth"",""up"",""up"",""good_move"",35221.7,9217,2274.1,32478.4,469.3,""smooth"",""left"",""left"",""good_move""]"
"3374","","<div style=""width:500px;"">
  <p>What determined the result of this run?</p>
  </div>","98","html-slider-response","24","1190681","0.0-7.0-1.2","178","1","2025-08-06 10:28:54","36c45c0696341be0efffe67d72a12abb","62.164.249.91","Mozilla/5.0 (Windows NT 10.0; Win64; x64) AppleWebKit/537.36 (KHTML, like Gecko) Chrome/132.0.0.0 Safari/537.36","WebKit","Chrome","132.0.0.0","Windows","10.0","https://app.prolific.com/","en-US,en;q=0.9","6792a60bf1238ae52e645ecb","6877649eabb845cf142cd221","68932e580d8c006629ebe99e","1","6792a60bf1238ae52e645ecb","1","2025-08-06T10:48:50.955Z","","","","AttribQ","","","","","","","","","","","50","","","","","","","","","","","","","","","","","","","","","","","","","","",""
"2537","","<div style=""width:500px;"">
  <p>How much control did you have over the ball?</p>
  </div>","97","html-slider-response","25","1193224","0.0-7.0-2.2","178","1","2025-08-06 10:28:54","36c45c0696341be0efffe67d72a12abb","62.164.249.91","Mozilla/5.0 (Windows NT 10.0; Win64; x64) AppleWebKit/537.36 (KHTML, like Gecko) Chrome/132.0.0.0 Safari/537.36","WebKit","Chrome","132.0.0.0","Windows","10.0","https://app.prolific.com/","en-US,en;q=0.9","6792a60bf1238ae52e645ecb","6877649eabb845cf142cd221","68932e580d8c006629ebe99e","1","6792a60bf1238ae52e645ecb","1","2025-08-06T10:48:53.499Z","","","","ControlQ","","","","","","","","","","","50","","","","","","","","","","","","","","","","","","","","","","","","","","",""
"2949","","<div style=""width:500px;"">
  <p>How would you describe your current emotional state?</p>
  </div>","3","html-slider-response","26","1196179","0.0-7.0-3.2","178","1","2025-08-06 10:28:54","36c45c0696341be0efffe67d72a12abb","62.164.249.91","Mozilla/5.0 (Windows NT 10.0; Win64; x64) AppleWebKit/537.36 (KHTML, like Gecko) Chrome/132.0.0.0 Safari/537.36","WebKit","Chrome","132.0.0.0","Windows","10.0","https://app.prolific.com/","en-US,en;q=0.9","6792a60bf1238ae52e645ecb","6877649eabb845cf142cd221","68932e580d8c006629ebe99e","1","6792a60bf1238ae52e645ecb","1","2025-08-06T10:48:56.454Z","","","","StressQ","","","","","","","","","","","50","","","","","","","","","","","","","","","","","","","","","","","","","","",""
"2590","","<div style=""width:500px;"">
  <p>What best describes how you currently feel?</p>
  </div>","100","html-slider-response","27","1198774","0.0-7.0-4.2","178","1","2025-08-06 10:28:54","36c45c0696341be0efffe67d72a12abb","62.164.249.91","Mozilla/5.0 (Windows NT 10.0; Win64; x64) AppleWebKit/537.36 (KHTML, like Gecko) Chrome/132.0.0.0 Safari/537.36","WebKit","Chrome","132.0.0.0","Windows","10.0","https://app.prolific.com/","en-US,en;q=0.9","6792a60bf1238ae52e645ecb","6877649eabb845cf142cd221","68932e580d8c006629ebe99e","1","6792a60bf1238ae52e645ecb","1","2025-08-06T10:48:59.048Z","","","","MotivationQ","","","","","","","","","","","50","","","","","","","","","","","","","","","","","","","","","","","","","","",""
"","","","","ctl-task-cpt","28","1251945","0.0-7.0-0.3","178","1","2025-08-06 10:28:54","36c45c0696341be0efffe67d72a12abb","62.164.249.91","Mozilla/5.0 (Windows NT 10.0; Win64; x64) AppleWebKit/537.36 (KHTML, like Gecko) Chrome/132.0.0.0 Safari/537.36","WebKit","Chrome","132.0.0.0","Windows","10.0","https://app.prolific.com/","en-US,en;q=0.9","6792a60bf1238ae52e645ecb","6877649eabb845cf142cd221","68932e580d8c006629ebe99e","1","6792a60bf1238ae52e645ecb","1","2025-08-06T10:49:52.219Z","","","","","","","","","","","","","","","","win-only","2","g1:SE,g2:NW","0.7","4","0","1205494.9","1666.3","6671.1","50147.1","1","4","8","6","2","8","8","17","9","0.12878787878787878","1313.3","3000","305","[""left"",""up""]","{""num_key_presses"":10,""num_perfect"":7,""num_errors"":0,""num_randdir"":3,""num_randdir_good_moves"":1,""num_whilered"":0,""num_whileblue"":0,""num_blue"":4,""num_good_moves"":8}","[297.22232142857143,300.12857142857143,2.2,297.22232142857143,300.12857142857143,102.5,297.22232142857143,300.12857142857143,227.9,297.22232142857143,300.12857142857143,330,297.22232142857143,300.12857142857143,434.9,297.22232142857143,300.12857142857143,545,151.22232142857143,154.12857142857143,651.1,141.22232142857143,125.12857142857143,758.5,141.22232142857143,125.12857142857143,865,141.22232142857143,125.12857142857143,965.2,97.22232142857143,91.12857142857143,1066.1,82.22232142857143,72.12857142857143,1167.4,82.22232142857143,72.12857142857143,1275.6,82.22232142857143,72.12857142857143,1379.5,82.22232142857143,72.12857142857143,1482.8,82.22232142857143,72.12857142857143,1585.1,82.22232142857143,72.12857142857143,1695.8,82.22232142857143,72.12857142857143,1797.2,82.22232142857143,72.12857142857143,1908,82.22232142857143,72.12857142857143,2016.1,82.22232142857143,72.12857142857143,2119.1,82.22232142857143,72.12857142857143,2219.9,82.22232142857143,72.12857142857143,2320.2,82.22232142857143,72.12857142857143,2424.3,82.22232142857143,72.12857142857143,2530.8,82.22232142857143,72.12857142857143,2633.2,82.22232142857143,72.12857142857143,2736.2,82.22232142857143,72.12857142857143,2847.4,82.22232142857143,72.12857142857143,2956.8,82.22232142857143,72.12857142857143,3068.1,82.22232142857143,72.12857142857143,3172.6,82.22232142857143,72.12857142857143,3274.7,82.22232142857143,72.12857142857143,3379.6,82.22232142857143,72.12857142857143,3494.9,82.22232142857143,72.12857142857143,3600.1,82.22232142857143,72.12857142857143,3703.2,82.22232142857143,72.12857142857143,3809.9,82.22232142857143,72.12857142857143,3916.1,82.22232142857143,72.12857142857143,4032.3,82.22232142857143,72.12857142857143,4137.3,82.22232142857143,72.12857142857143,4246.7,82.22232142857143,72.12857142857143,4368.3,82.22232142857143,72.12857142857143,4478.6,82.22232142857143,72.12857142857143,4582.2,82.22232142857143,72.12857142857143,4682.8,82.22232142857143,72.12857142857143,4787.9,82.22232142857143,72.12857142857143,4892.2,82.22232142857143,72.12857142857143,4997.1]","[1498.9,1498.9,1000,0,498.9,""oops"",""up"",""right"",""bad_move"",8282.9,6782.8,2730.4,5101.5,451.1,""smooth"",""up"",""up"",""good_move"",12604.7,4319.7,3859.4,8285,460.4,""smooth"",""left"",""left"",""good_move"",14941.9,2334.3,1853.3,12607.6,481,""smooth"",""up"",""up"",""good_move"",21869.4,6925.7,2964.2,18510.6,394.6,""smooth"",""left"",""left"",""good_move"",24516.7,2646.9,2189.5,21869.8,457.4,""oops"",""up"",""right"",""bad_move"",27098.8,2579.7,2082.8,24519.6,496.4,""oops"",""left"",""left"",""good_move"",29635.1,2534.7,2041.2,27100.4,493.5,""smooth"",""up"",""up"",""good_move"",37054,7418.6,2853.6,33731.3,469.1,""smooth"",""left"",""left"",""good_move"",43306,6250.1,2296.4,40400.7,608.9,""smooth"",""left"",""left"",""good_move""]"
"5219","","<div style=""width:500px;"">
  <p>What determined the result of this run?</p>
  </div>","96","html-slider-response","29","1257165","0.0-7.0-1.3","178","1","2025-08-06 10:28:54","36c45c0696341be0efffe67d72a12abb","62.164.249.91","Mozilla/5.0 (Windows NT 10.0; Win64; x64) AppleWebKit/537.36 (KHTML, like Gecko) Chrome/132.0.0.0 Safari/537.36","WebKit","Chrome","132.0.0.0","Windows","10.0","https://app.prolific.com/","en-US,en;q=0.9","6792a60bf1238ae52e645ecb","6877649eabb845cf142cd221","68932e580d8c006629ebe99e","1","6792a60bf1238ae52e645ecb","1","2025-08-06T10:49:57.439Z","","","","AttribQ","","","","","","","","","","","50","","","","","","","","","","","","","","","","","","","","","","","","","","",""
"3441","","<div style=""width:500px;"">
  <p>How much control did you have over the ball?</p>
  </div>","99","html-slider-response","30","1260608","0.0-7.0-2.3","178","1","2025-08-06 10:28:54","36c45c0696341be0efffe67d72a12abb","62.164.249.91","Mozilla/5.0 (Windows NT 10.0; Win64; x64) AppleWebKit/537.36 (KHTML, like Gecko) Chrome/132.0.0.0 Safari/537.36","WebKit","Chrome","132.0.0.0","Windows","10.0","https://app.prolific.com/","en-US,en;q=0.9","6792a60bf1238ae52e645ecb","6877649eabb845cf142cd221","68932e580d8c006629ebe99e","1","6792a60bf1238ae52e645ecb","1","2025-08-06T10:50:00.883Z","","","","ControlQ","","","","","","","","","","","50","","","","","","","","","","","","","","","","","","","","","","","","","","",""
"4333","","<div style=""width:500px;"">
  <p>How would you describe your current emotional state?</p>
  </div>","5","html-slider-response","31","1264948","0.0-7.0-3.3","178","1","2025-08-06 10:28:54","36c45c0696341be0efffe67d72a12abb","62.164.249.91","Mozilla/5.0 (Windows NT 10.0; Win64; x64) AppleWebKit/537.36 (KHTML, like Gecko) Chrome/132.0.0.0 Safari/537.36","WebKit","Chrome","132.0.0.0","Windows","10.0","https://app.prolific.com/","en-US,en;q=0.9","6792a60bf1238ae52e645ecb","6877649eabb845cf142cd221","68932e580d8c006629ebe99e","1","6792a60bf1238ae52e645ecb","1","2025-08-06T10:50:05.223Z","","","","StressQ","","","","","","","","","","","50","","","","","","","","","","","","","","","","","","","","","","","","","","",""
"2855","","<div style=""width:500px;"">
  <p>What best describes how you currently feel?</p>
  </div>","100","html-slider-response","32","1267809","0.0-7.0-4.3","178","1","2025-08-06 10:28:54","36c45c0696341be0efffe67d72a12abb","62.164.249.91","Mozilla/5.0 (Windows NT 10.0; Win64; x64) AppleWebKit/537.36 (KHTML, like Gecko) Chrome/132.0.0.0 Safari/537.36","WebKit","Chrome","132.0.0.0","Windows","10.0","https://app.prolific.com/","en-US,en;q=0.9","6792a60bf1238ae52e645ecb","6877649eabb845cf142cd221","68932e580d8c006629ebe99e","1","6792a60bf1238ae52e645ecb","1","2025-08-06T10:50:08.084Z","","","","MotivationQ","","","","","","","","","","","50","","","","","","","","","","","","","","","","","","","","","","","","","","",""
"","","","","ctl-task-cpt","33","1331927","0.0-7.0-0.4","178","1","2025-08-06 10:28:54","36c45c0696341be0efffe67d72a12abb","62.164.249.91","Mozilla/5.0 (Windows NT 10.0; Win64; x64) AppleWebKit/537.36 (KHTML, like Gecko) Chrome/132.0.0.0 Safari/537.36","WebKit","Chrome","132.0.0.0","Windows","10.0","https://app.prolific.com/","en-US,en;q=0.9","6792a60bf1238ae52e645ecb","6877649eabb845cf142cd221","68932e580d8c006629ebe99e","1","6792a60bf1238ae52e645ecb","1","2025-08-06T10:51:12.202Z","","","","","","","","","","","","","","","","win-only","1","g1:NE,g2:SW","0.6","5","0","1274530.3","2942.3","7956.6","61068.8","1","4","8","6","2","8","7","24","17","0.18181818181818182","1439","3000","90","[""down"",""left""]","{""num_key_presses"":13,""num_perfect"":8,""num_errors"":1,""num_randdir"":4,""num_randdir_good_moves"":1,""num_whilered"":0,""num_whileblue"":0,""num_blue"":4,""num_good_moves"":9}","[296.22232142857143,296.12857142857143,0.6,296.22232142857143,296.12857142857143,110.1,296.22232142857143,296.12857142857143,211,296.22232142857143,296.12857142857143,312.2,296.22232142857143,296.12857142857143,419.1,296.22232142857143,296.12857142857143,523.3,296.22232142857143,296.12857142857143,623.6,200.22232142857143,354.12857142857143,736.8,102.22232142857143,409.12857142857143,838,40.222321428571426,446.12857142857143,940,9.222321428571426,487.12857142857143,1042.3,17.222321428571426,515.1285714285714,1142.6,25.222321428571426,528.1285714285714,1248.3,25.222321428571426,528.1285714285714,1354.4,25.222321428571426,528.1285714285714,1466.2,25.222321428571426,528.1285714285714,1586.3,25.222321428571426,528.1285714285714,1696.8,25.222321428571426,528.1285714285714,1797.4,25.222321428571426,528.1285714285714,1899.2,25.222321428571426,528.1285714285714,2005.5,25.222321428571426,528.1285714285714,2108.5,25.222321428571426,528.1285714285714,2210.9,25.222321428571426,528.1285714285714,2324.9,25.222321428571426,528.1285714285714,2440.1,25.222321428571426,528.1285714285714,2557.2,25.222321428571426,528.1285714285714,2658.5,25.222321428571426,528.1285714285714,2762.4,25.222321428571426,528.1285714285714,2874.8,25.222321428571426,528.1285714285714,2987.4,25.222321428571426,528.1285714285714,3094.1,25.222321428571426,528.1285714285714,3202,25.222321428571426,528.1285714285714,3307.9,25.222321428571426,528.1285714285714,3409.2,25.222321428571426,528.1285714285714,3530.5,25.222321428571426,528.1285714285714,3636.4,25.222321428571426,528.1285714285714,3738.8,25.222321428571426,528.1285714285714,3862.3,25.222321428571426,528.1285714285714,3968.1,25.222321428571426,528.1285714285714,4069.9,25.222321428571426,528.1285714285714,4171.2,25.222321428571426,528.1285714285714,4278.8,25.222321428571426,528.1285714285714,4395.3,25.222321428571426,528.1285714285714,4498,25.222321428571426,528.1285714285714,4599.3,25.222321428571426,528.1285714285714,4704.2,25.222321428571426,528.1285714285714,4812.6,25.222321428571426,528.1285714285714,4914.3]","[1482.8,1482.8,1000,0,482.8,""smooth"",""down"",""down"",""good_move"",7892.2,6407.6,2535.3,4887.2,469.7,""oops"",""left"",""up"",""bad_move"",10073.7,2179.1,2366.3,7894.6,-187.1,""error"",""-"",""-"",""no_move"",18496.8,8421.3,3243.7,14763.4,489.8,""smooth"",""down"",""down"",""good_move"",21842.7,3343.2,2812.3,18499.7,530.8,""oops"",""left"",""up"",""bad_move"",24836.1,2992.1,2388.6,21844,603.5,""smooth"",""down"",""down"",""good_move"",28192.4,3355.4,2918.6,24837,436.8,""oops"",""left"",""left"",""good_move"",31480,3280.4,2801.9,28199.6,478.5,""smooth"",""down"",""down"",""good_move"",34395.1,2912.9,2443.8,31482.2,469.1,""smooth"",""left"",""left"",""good_move"",40959.9,6561.2,2605,37884.5,470.5,""smooth"",""down"",""down"",""good_move"",43342.5,2381.4,1921.2,40961.1,460.2,""oops"",""left"",""right"",""bad_move"",50101,6757.8,2548.5,47098.4,454.1,""smooth"",""left"",""left"",""good_move"",52919,2816.1,2398,50103,418.1,""smooth"",""left"",""left"",""good_move""]"
"196116","","<div style=""width:500px;"">
  <p>What determined the result of this run?</p>
  </div>","92","html-slider-response","34","1528049","0.0-7.0-1.4","178","1","2025-08-06 10:28:54","36c45c0696341be0efffe67d72a12abb","62.164.249.91","Mozilla/5.0 (Windows NT 10.0; Win64; x64) AppleWebKit/537.36 (KHTML, like Gecko) Chrome/132.0.0.0 Safari/537.36","WebKit","Chrome","132.0.0.0","Windows","10.0","https://app.prolific.com/","en-US,en;q=0.9","6792a60bf1238ae52e645ecb","6877649eabb845cf142cd221","68932e580d8c006629ebe99e","1","6792a60bf1238ae52e645ecb","1","2025-08-06T10:54:28.324Z","","","","AttribQ","","","","","","","","","","","50","","","","","","","","","","","","","","","","","","","","","","","","","","",""
"2913","","<div style=""width:500px;"">
  <p>How much control did you have over the ball?</p>
  </div>","86","html-slider-response","35","1530968","0.0-7.0-2.4","178","1","2025-08-06 10:28:54","36c45c0696341be0efffe67d72a12abb","62.164.249.91","Mozilla/5.0 (Windows NT 10.0; Win64; x64) AppleWebKit/537.36 (KHTML, like Gecko) Chrome/132.0.0.0 Safari/537.36","WebKit","Chrome","132.0.0.0","Windows","10.0","https://app.prolific.com/","en-US,en;q=0.9","6792a60bf1238ae52e645ecb","6877649eabb845cf142cd221","68932e580d8c006629ebe99e","1","6792a60bf1238ae52e645ecb","1","2025-08-06T10:54:31.243Z","","","","ControlQ","","","","","","","","","","","50","","","","","","","","","","","","","","","","","","","","","","","","","","",""
"3207","","<div style=""width:500px;"">
  <p>How would you describe your current emotional state?</p>
  </div>","21","html-slider-response","36","1534185","0.0-7.0-3.4","178","1","2025-08-06 10:28:54","36c45c0696341be0efffe67d72a12abb","62.164.249.91","Mozilla/5.0 (Windows NT 10.0; Win64; x64) AppleWebKit/537.36 (KHTML, like Gecko) Chrome/132.0.0.0 Safari/537.36","WebKit","Chrome","132.0.0.0","Windows","10.0","https://app.prolific.com/","en-US,en;q=0.9","6792a60bf1238ae52e645ecb","6877649eabb845cf142cd221","68932e580d8c006629ebe99e","1","6792a60bf1238ae52e645ecb","1","2025-08-06T10:54:34.460Z","","","","StressQ","","","","","","","","","","","50","","","","","","","","","","","","","","","","","","","","","","","","","","",""
"2555","","<div style=""width:500px;"">
  <p>What best describes how you currently feel?</p>
  </div>","100","html-slider-response","37","1536747","0.0-7.0-4.4","178","1","2025-08-06 10:28:54","36c45c0696341be0efffe67d72a12abb","62.164.249.91","Mozilla/5.0 (Windows NT 10.0; Win64; x64) AppleWebKit/537.36 (KHTML, like Gecko) Chrome/132.0.0.0 Safari/537.36","WebKit","Chrome","132.0.0.0","Windows","10.0","https://app.prolific.com/","en-US,en;q=0.9","6792a60bf1238ae52e645ecb","6877649eabb845cf142cd221","68932e580d8c006629ebe99e","1","6792a60bf1238ae52e645ecb","1","2025-08-06T10:54:37.021Z","","","","MotivationQ","","","","","","","","","","","50","","","","","","","","","","","","","","","","","","","","","","","","","","",""
"","","","","ctl-task-cpt","38","1562691","0.0-7.0-0.5","178","1","2025-08-06 10:28:54","36c45c0696341be0efffe67d72a12abb","62.164.249.91","Mozilla/5.0 (Windows NT 10.0; Win64; x64) AppleWebKit/537.36 (KHTML, like Gecko) Chrome/132.0.0.0 Safari/537.36","WebKit","Chrome","132.0.0.0","Windows","10.0","https://app.prolific.com/","en-US,en;q=0.9","6792a60bf1238ae52e645ecb","6877649eabb845cf142cd221","68932e580d8c006629ebe99e","1","6792a60bf1238ae52e645ecb","1","2025-08-06T10:55:02.966Z","","","","","","","","","","","","","","","","win-only","3","g1:SW,g2:NE","0.5","6","0","1543462.1","1308.1","6310.7","22913.8","1","4","4","6","2","4","4","28","24","0.21212121212121213","1327.2","3000","1595","[""up"",""right""]","{""num_key_presses"":6,""num_perfect"":5,""num_errors"":0,""num_randdir"":1,""num_randdir_good_moves"":1,""num_whilered"":0,""num_whileblue"":0,""num_blue"":0,""num_good_moves"":6}","[293.22232142857143,297.12857142857143,0.3,293.22232142857143,297.12857142857143,102.7,293.22232142857143,297.12857142857143,206.1,293.22232142857143,297.12857142857143,312.5,293.22232142857143,297.12857142857143,430.5,242.22232142857143,365.12857142857143,535.4,224.22232142857143,383.12857142857143,639.6,484.22232142857143,135.12857142857143,748.5,513.2223214285714,108.12857142857143,857.1,540.2223214285714,88.12857142857143,971.9,543.2223214285714,82.12857142857143,1085.9,543.2223214285714,81.12857142857143,1186.4,543.2223214285714,81.12857142857143,1312.2,543.2223214285714,81.12857142857143,1413.8,543.2223214285714,81.12857142857143,1539,543.2223214285714,81.12857142857143,1640,543.2223214285714,81.12857142857143,1754.6,543.2223214285714,81.12857142857143,1869.9,543.2223214285714,81.12857142857143,1976.9,543.2223214285714,81.12857142857143,2097,543.2223214285714,81.12857142857143,2213.1,543.2223214285714,81.12857142857143,2330,543.2223214285714,81.12857142857143,2435.4,543.2223214285714,81.12857142857143,2538.5,543.2223214285714,81.12857142857143,2639.5,543.2223214285714,81.12857142857143,2758.7,543.2223214285714,81.12857142857143,2867.5,543.2223214285714,81.12857142857143,2970.4,543.2223214285714,81.12857142857143,3073,543.2223214285714,81.12857142857143,3180.3,543.2223214285714,81.12857142857143,3283.1,543.2223214285714,81.12857142857143,3387.2,543.2223214285714,81.12857142857143,3489.8,543.2223214285714,81.12857142857143,3595.5,543.2223214285714,81.12857142857143,3711.2,543.2223214285714,81.12857142857143,3814.5,543.2223214285714,81.12857142857143,3919.5,543.2223214285714,81.12857142857143,4022,543.2223214285714,81.12857142857143,4126.4,543.2223214285714,81.12857142857143,4229.1,543.2223214285714,81.12857142857143,4332,543.2223214285714,81.12857142857143,4437,543.2223214285714,81.12857142857143,4548.6,543.2223214285714,81.12857142857143,4650,543.2223214285714,81.12857142857143,4758.4,543.2223214285714,81.12857142857143,4868.2,543.2223214285714,81.12857142857143,4976.5]","[1438.1,1438.2,1000,0,438.2,""oops"",""up"",""up"",""good_move"",4113.3,2673.9,2241.1,1439.4,432.8,""smooth"",""right"",""right"",""good_move"",7170.1,3052.4,2633.1,4117.8,419.3,""smooth"",""up"",""up"",""good_move"",10708.6,3537.8,3086.8,7170.9,450.9,""smooth"",""right"",""right"",""good_move"",13721.2,3011.1,2644.2,10710.1,366.9,""smooth"",""up"",""up"",""good_move"",16438,2715.8,2310.1,13722.2,405.7,""smooth"",""right"",""right"",""good_move""]"
"160602","","<div style=""width:500px;"">
  <p>What determined the result of this run?</p>
  </div>","96","html-slider-response","39","1723298","0.0-7.0-1.5","178","1","2025-08-06 10:28:54","36c45c0696341be0efffe67d72a12abb","62.164.249.91","Mozilla/5.0 (Windows NT 10.0; Win64; x64) AppleWebKit/537.36 (KHTML, like Gecko) Chrome/132.0.0.0 Safari/537.36","WebKit","Chrome","132.0.0.0","Windows","10.0","https://app.prolific.com/","en-US,en;q=0.9","6792a60bf1238ae52e645ecb","6877649eabb845cf142cd221","68932e580d8c006629ebe99e","1","6792a60bf1238ae52e645ecb","1","2025-08-06T10:57:43.572Z","","","","AttribQ","","","","","","","","","","","50","","","","","","","","","","","","","","","","","","","","","","","","","","",""
"2587","","<div style=""width:500px;"">
  <p>How much control did you have over the ball?</p>
  </div>","96","html-slider-response","40","1725888","0.0-7.0-2.5","178","1","2025-08-06 10:28:54","36c45c0696341be0efffe67d72a12abb","62.164.249.91","Mozilla/5.0 (Windows NT 10.0; Win64; x64) AppleWebKit/537.36 (KHTML, like Gecko) Chrome/132.0.0.0 Safari/537.36","WebKit","Chrome","132.0.0.0","Windows","10.0","https://app.prolific.com/","en-US,en;q=0.9","6792a60bf1238ae52e645ecb","6877649eabb845cf142cd221","68932e580d8c006629ebe99e","1","6792a60bf1238ae52e645ecb","1","2025-08-06T10:57:46.163Z","","","","ControlQ","","","","","","","","","","","50","","","","","","","","","","","","","","","","","","","","","","","","","","",""
"5286","","<div style=""width:500px;"">
  <p>How would you describe your current emotional state?</p>
  </div>","6","html-slider-response","41","1731180","0.0-7.0-3.5","178","1","2025-08-06 10:28:54","36c45c0696341be0efffe67d72a12abb","62.164.249.91","Mozilla/5.0 (Windows NT 10.0; Win64; x64) AppleWebKit/537.36 (KHTML, like Gecko) Chrome/132.0.0.0 Safari/537.36","WebKit","Chrome","132.0.0.0","Windows","10.0","https://app.prolific.com/","en-US,en;q=0.9","6792a60bf1238ae52e645ecb","6877649eabb845cf142cd221","68932e580d8c006629ebe99e","1","6792a60bf1238ae52e645ecb","1","2025-08-06T10:57:51.455Z","","","","StressQ","","","","","","","","","","","50","","","","","","","","","","","","","","","","","","","","","","","","","","",""
"4598","","<div style=""width:500px;"">
  <p>What best describes how you currently feel?</p>
  </div>","98","html-slider-response","42","1735782","0.0-7.0-4.5","178","1","2025-08-06 10:28:54","36c45c0696341be0efffe67d72a12abb","62.164.249.91","Mozilla/5.0 (Windows NT 10.0; Win64; x64) AppleWebKit/537.36 (KHTML, like Gecko) Chrome/132.0.0.0 Safari/537.36","WebKit","Chrome","132.0.0.0","Windows","10.0","https://app.prolific.com/","en-US,en;q=0.9","6792a60bf1238ae52e645ecb","6877649eabb845cf142cd221","68932e580d8c006629ebe99e","1","6792a60bf1238ae52e645ecb","1","2025-08-06T10:57:56.057Z","","","","MotivationQ","","","","","","","","","","","50","","","","","","","","","","","","","","","","","","","","","","","","","","",""
"","","","","ctl-task-cpt","43","1796304","0.0-7.0-0.6","178","1","2025-08-06 10:28:54","36c45c0696341be0efffe67d72a12abb","62.164.249.91","Mozilla/5.0 (Windows NT 10.0; Win64; x64) AppleWebKit/537.36 (KHTML, like Gecko) Chrome/132.0.0.0 Safari/537.36","WebKit","Chrome","132.0.0.0","Windows","10.0","https://app.prolific.com/","en-US,en;q=0.9","6792a60bf1238ae52e645ecb","6877649eabb845cf142cd221","68932e580d8c006629ebe99e","1","6792a60bf1238ae52e645ecb","1","2025-08-06T10:58:56.579Z","","","","","","","","","","","","","","","","win-only","3","g1:SW,g2:NE","0.4","7","0","1742499.1","3889.9","8892.2","57504","1","4","8","6","2","8","8","36","28","0.2727272727272727","1083.6","3000","640","[""up"",""right""]","{""num_key_presses"":10,""num_perfect"":4,""num_errors"":0,""num_randdir"":6,""num_randdir_good_moves"":4,""num_whilered"":0,""num_whileblue"":0,""num_blue"":6,""num_good_moves"":8}","[290.22232142857143,292.12857142857143,0.6,290.22232142857143,292.12857142857143,100.9,290.22232142857143,292.12857142857143,203.3,290.22232142857143,292.12857142857143,307.6,290.22232142857143,292.12857142857143,410.7,290.22232142857143,292.12857142857143,522.7,404.22232142857143,178.12857142857143,635.9,507.22232142857143,86.12857142857143,737.9,513.2223214285714,80.12857142857143,843.2,513.2223214285714,80.12857142857143,943.4,513.2223214285714,80.12857142857143,1054.9,513.2223214285714,80.12857142857143,1171.3,513.2223214285714,80.12857142857143,1276.6,513.2223214285714,80.12857142857143,1387.9,513.2223214285714,80.12857142857143,1499.9,513.2223214285714,80.12857142857143,1603.2,513.2223214285714,80.12857142857143,1713.4,513.2223214285714,80.12857142857143,1834.3,513.2223214285714,80.12857142857143,1936.6,513.2223214285714,80.12857142857143,2043,513.2223214285714,80.12857142857143,2150.6,513.2223214285714,80.12857142857143,2263.7,513.2223214285714,80.12857142857143,2377,513.2223214285714,80.12857142857143,2482.1,513.2223214285714,80.12857142857143,2588.9,513.2223214285714,80.12857142857143,2704.2,513.2223214285714,80.12857142857143,2807.9,513.2223214285714,80.12857142857143,2913.6,513.2223214285714,80.12857142857143,3024.7,513.2223214285714,80.12857142857143,3128.2,513.2223214285714,80.12857142857143,3228.8,513.2223214285714,80.12857142857143,3332.5,513.2223214285714,80.12857142857143,3438.3,513.2223214285714,80.12857142857143,3542.8,513.2223214285714,80.12857142857143,3646.4,513.2223214285714,80.12857142857143,3750.8,513.2223214285714,80.12857142857143,3853.7,513.2223214285714,80.12857142857143,3961.4,513.2223214285714,80.12857142857143,4070.7,513.2223214285714,80.12857142857143,4171.6,513.2223214285714,80.12857142857143,4275.7,513.2223214285714,80.12857142857143,4376.4,513.2223214285714,80.12857142857143,4481.7,513.2223214285714,80.12857142857143,4585.6,513.2223214285714,80.12857142857143,4695.8,513.2223214285714,80.12857142857143,4823.1,513.2223214285714,80.12857142857143,4928.9]","[8316.6,8316.7,2311.6,5550.7,454.4,""smooth"",""up"",""up"",""good_move"",11417,3099.7,2687.2,8317.3,412.5,""smooth"",""up"",""up"",""good_move"",17859.9,6440.6,2345.4,15091.1,423.4,""oops"",""up"",""down"",""bad_move"",20285.4,2424.2,1939.4,17861.2,484.8,""oops"",""right"",""down"",""bad_move"",26840.6,6554.3,2542.5,23886.7,411.4,""oops"",""right"",""up"",""good_move"",29848.1,3006.5,2563.6,26841.6,442.9,""oops"",""right"",""up"",""good_move"",36194.2,6344.4,2666.5,33151,376.7,""oops"",""right"",""up"",""good_move"",42893.3,6698.6,2379.9,40084.7,428.7,""smooth"",""right"",""right"",""good_move"",45471.1,2576.6,2137.2,42894.5,439.4,""smooth"",""right"",""right"",""good_move"",48458.8,2985.5,2602.7,45473.4,382.7,""oops"",""right"",""right"",""good_move""]"
"27536","","<div style=""width:500px;"">
  <p>What determined the result of this run?</p>
  </div>","97","html-slider-response","44","1823842","0.0-7.0-1.6","178","1","2025-08-06 10:28:54","36c45c0696341be0efffe67d72a12abb","62.164.249.91","Mozilla/5.0 (Windows NT 10.0; Win64; x64) AppleWebKit/537.36 (KHTML, like Gecko) Chrome/132.0.0.0 Safari/537.36","WebKit","Chrome","132.0.0.0","Windows","10.0","https://app.prolific.com/","en-US,en;q=0.9","6792a60bf1238ae52e645ecb","6877649eabb845cf142cd221","68932e580d8c006629ebe99e","1","6792a60bf1238ae52e645ecb","1","2025-08-06T10:59:24.117Z","","","","AttribQ","","","","","","","","","","","50","","","","","","","","","","","","","","","","","","","","","","","","","","",""
"2666","","<div style=""width:500px;"">
  <p>How much control did you have over the ball?</p>
  </div>","96","html-slider-response","45","1826512","0.0-7.0-2.6","178","1","2025-08-06 10:28:54","36c45c0696341be0efffe67d72a12abb","62.164.249.91","Mozilla/5.0 (Windows NT 10.0; Win64; x64) AppleWebKit/537.36 (KHTML, like Gecko) Chrome/132.0.0.0 Safari/537.36","WebKit","Chrome","132.0.0.0","Windows","10.0","https://app.prolific.com/","en-US,en;q=0.9","6792a60bf1238ae52e645ecb","6877649eabb845cf142cd221","68932e580d8c006629ebe99e","1","6792a60bf1238ae52e645ecb","1","2025-08-06T10:59:26.787Z","","","","ControlQ","","","","","","","","","","","50","","","","","","","","","","","","","","","","","","","","","","","","","","",""
"4941","","<div style=""width:500px;"">
  <p>How would you describe your current emotional state?</p>
  </div>","3","html-slider-response","46","1831460","0.0-7.0-3.6","178","1","2025-08-06 10:28:54","36c45c0696341be0efffe67d72a12abb","62.164.249.91","Mozilla/5.0 (Windows NT 10.0; Win64; x64) AppleWebKit/537.36 (KHTML, like Gecko) Chrome/132.0.0.0 Safari/537.36","WebKit","Chrome","132.0.0.0","Windows","10.0","https://app.prolific.com/","en-US,en;q=0.9","6792a60bf1238ae52e645ecb","6877649eabb845cf142cd221","68932e580d8c006629ebe99e","1","6792a60bf1238ae52e645ecb","1","2025-08-06T10:59:31.734Z","","","","StressQ","","","","","","","","","","","50","","","","","","","","","","","","","","","","","","","","","","","","","","",""
"6101","","<div style=""width:500px;"">
  <p>What best describes how you currently feel?</p>
  </div>","98","html-slider-response","47","1837562","0.0-7.0-4.6","178","1","2025-08-06 10:28:54","36c45c0696341be0efffe67d72a12abb","62.164.249.91","Mozilla/5.0 (Windows NT 10.0; Win64; x64) AppleWebKit/537.36 (KHTML, like Gecko) Chrome/132.0.0.0 Safari/537.36","WebKit","Chrome","132.0.0.0","Windows","10.0","https://app.prolific.com/","en-US,en;q=0.9","6792a60bf1238ae52e645ecb","6877649eabb845cf142cd221","68932e580d8c006629ebe99e","1","6792a60bf1238ae52e645ecb","1","2025-08-06T10:59:37.837Z","","","","MotivationQ","","","","","","","","","","","50","","","","","","","","","","","","","","","","","","","","","","","","","","",""
"","","","","ctl-task-cpt","48","1907313","0.0-7.0-0.7","178","1","2025-08-06 10:28:54","36c45c0696341be0efffe67d72a12abb","62.164.249.91","Mozilla/5.0 (Windows NT 10.0; Win64; x64) AppleWebKit/537.36 (KHTML, like Gecko) Chrome/132.0.0.0 Safari/537.36","WebKit","Chrome","132.0.0.0","Windows","10.0","https://app.prolific.com/","en-US,en;q=0.9","6792a60bf1238ae52e645ecb","6877649eabb845cf142cd221","68932e580d8c006629ebe99e","1","6792a60bf1238ae52e645ecb","1","2025-08-06T11:00:47.587Z","","","","","","","","","","","","","","","","win-only","2","g1:SE,g2:NW","0.3","8","0","1844273.4","1759.9","6761.7","66726.6","1","4","4","6","2","-4","-4","32","36","0.24242424242424243","1554.2","3000","-1880","[""left"",""up""]","{""num_key_presses"":11,""num_perfect"":3,""num_errors"":0,""num_randdir"":8,""num_randdir_good_moves"":3,""num_whilered"":0,""num_whileblue"":0,""num_blue"":7,""num_good_moves"":6}","[296.22232142857143,292.12857142857143,1.9,296.22232142857143,292.12857142857143,101.1,296.22232142857143,292.12857142857143,202.9,296.22232142857143,292.12857142857143,309.2,296.22232142857143,292.12857142857143,416.4,296.22232142857143,292.12857142857143,519.4,264.22232142857143,277.12857142857143,641,117.22232142857143,162.12857142857143,744.8,94.22232142857143,137.12857142857143,846.1,87.22232142857143,129.12857142857143,956.4,78.22232142857143,104.12857142857143,1059.9,76.22232142857143,97.12857142857143,1163.3,76.22232142857143,95.12857142857143,1266.7,74.22232142857143,95.12857142857143,1368.6,74.22232142857143,95.12857142857143,1470.6,74.22232142857143,95.12857142857143,1578.8,74.22232142857143,95.12857142857143,1680.3,74.22232142857143,95.12857142857143,1787.3,74.22232142857143,95.12857142857143,1893.2,74.22232142857143,95.12857142857143,1995.3,74.22232142857143,95.12857142857143,2095.7,74.22232142857143,95.12857142857143,2206.8,74.22232142857143,95.12857142857143,2312.8,74.22232142857143,95.12857142857143,2413.2,74.22232142857143,95.12857142857143,2513.2,74.22232142857143,95.12857142857143,2614.8,74.22232142857143,95.12857142857143,2721.3,74.22232142857143,95.12857142857143,2827.1,74.22232142857143,95.12857142857143,2936.4,74.22232142857143,95.12857142857143,3042,74.22232142857143,95.12857142857143,3142.5,74.22232142857143,95.12857142857143,3252.3,74.22232142857143,95.12857142857143,3357.2,74.22232142857143,95.12857142857143,3472.2,74.22232142857143,95.12857142857143,3576.1,74.22232142857143,95.12857142857143,3687.2,74.22232142857143,95.12857142857143,3790.7,74.22232142857143,95.12857142857143,3900.1,74.22232142857143,95.12857142857143,4013.2,74.22232142857143,95.12857142857143,4114.5,74.22232142857143,95.12857142857143,4221.2,74.22232142857143,95.12857142857143,4323.6,74.22232142857143,95.12857142857143,4430,74.22232142857143,95.12857142857143,4531.2,74.22232142857143,95.12857142857143,4639.7,74.22232142857143,95.12857142857143,4750.8,74.22232142857143,95.12857142857143,4855.5,74.22232142857143,95.12857142857143,4965.4]","[5785.9,5786,3339.8,2020,426.2,""smooth"",""left"",""left"",""good_move"",12992.6,7205.6,2646.3,9948.5,397.9,""oops"",""up"",""left"",""good_move"",15840.1,2847.1,2467.8,12993.1,379.2,""smooth"",""up"",""up"",""good_move"",22120,6279.1,2114.3,19482.8,522.9,""smooth"",""up"",""up"",""good_move"",29255.1,7134.6,2763.4,26115.6,376.1,""oops"",""up"",""up"",""good_move"",32680.8,3425.1,3005.3,29255.7,419.8,""oops"",""left"",""right"",""bad_move"",38019.7,5338,1766.5,35841.8,411.4,""oops"",""left"",""down"",""bad_move"",43655.5,5633.1,1801.9,41456.1,397.6,""oops"",""left"",""down"",""bad_move"",50371.8,6715.7,2779.8,47158.8,433.3,""oops"",""left"",""up"",""good_move"",53064.6,2689.5,2230.4,50375.2,459,""oops"",""left"",""down"",""bad_move"",56302.3,3237,2820,53065.3,417,""oops"",""left"",""down"",""bad_move""]"
"4210","","<div style=""width:500px;"">
  <p>What determined the result of this run?</p>
  </div>","95","html-slider-response","49","1911526","0.0-7.0-1.7","178","1","2025-08-06 10:28:54","36c45c0696341be0efffe67d72a12abb","62.164.249.91","Mozilla/5.0 (Windows NT 10.0; Win64; x64) AppleWebKit/537.36 (KHTML, like Gecko) Chrome/132.0.0.0 Safari/537.36","WebKit","Chrome","132.0.0.0","Windows","10.0","https://app.prolific.com/","en-US,en;q=0.9","6792a60bf1238ae52e645ecb","6877649eabb845cf142cd221","68932e580d8c006629ebe99e","1","6792a60bf1238ae52e645ecb","1","2025-08-06T11:00:51.800Z","","","","AttribQ","","","","","","","","","","","50","","","","","","","","","","","","","","","","","","","","","","","","","","",""
"5127","","<div style=""width:500px;"">
  <p>How much control did you have over the ball?</p>
  </div>","36","html-slider-response","50","1916656","0.0-7.0-2.7","178","1","2025-08-06 10:28:54","36c45c0696341be0efffe67d72a12abb","62.164.249.91","Mozilla/5.0 (Windows NT 10.0; Win64; x64) AppleWebKit/537.36 (KHTML, like Gecko) Chrome/132.0.0.0 Safari/537.36","WebKit","Chrome","132.0.0.0","Windows","10.0","https://app.prolific.com/","en-US,en;q=0.9","6792a60bf1238ae52e645ecb","6877649eabb845cf142cd221","68932e580d8c006629ebe99e","1","6792a60bf1238ae52e645ecb","1","2025-08-06T11:00:56.930Z","","","","ControlQ","","","","","","","","","","","50","","","","","","","","","","","","","","","","","","","","","","","","","","",""
"4085","","<div style=""width:500px;"">
  <p>How would you describe your current emotional state?</p>
  </div>","36","html-slider-response","51","1920745","0.0-7.0-3.7","178","1","2025-08-06 10:28:54","36c45c0696341be0efffe67d72a12abb","62.164.249.91","Mozilla/5.0 (Windows NT 10.0; Win64; x64) AppleWebKit/537.36 (KHTML, like Gecko) Chrome/132.0.0.0 Safari/537.36","WebKit","Chrome","132.0.0.0","Windows","10.0","https://app.prolific.com/","en-US,en;q=0.9","6792a60bf1238ae52e645ecb","6877649eabb845cf142cd221","68932e580d8c006629ebe99e","1","6792a60bf1238ae52e645ecb","1","2025-08-06T11:01:01.019Z","","","","StressQ","","","","","","","","","","","50","","","","","","","","","","","","","","","","","","","","","","","","","","",""
"4573","","<div style=""width:500px;"">
  <p>What best describes how you currently feel?</p>
  </div>","98","html-slider-response","52","1925320","0.0-7.0-4.7","178","1","2025-08-06 10:28:54","36c45c0696341be0efffe67d72a12abb","62.164.249.91","Mozilla/5.0 (Windows NT 10.0; Win64; x64) AppleWebKit/537.36 (KHTML, like Gecko) Chrome/132.0.0.0 Safari/537.36","WebKit","Chrome","132.0.0.0","Windows","10.0","https://app.prolific.com/","en-US,en;q=0.9","6792a60bf1238ae52e645ecb","6877649eabb845cf142cd221","68932e580d8c006629ebe99e","1","6792a60bf1238ae52e645ecb","1","2025-08-06T11:01:05.594Z","","","","MotivationQ","","","","","","","","","","","50","","","","","","","","","","","","","","","","","","","","","","","","","","",""
"","","","","ctl-task-cpt","53","1991621","0.0-7.0-0.8","178","1","2025-08-06 10:28:54","36c45c0696341be0efffe67d72a12abb","62.164.249.91","Mozilla/5.0 (Windows NT 10.0; Win64; x64) AppleWebKit/537.36 (KHTML, like Gecko) Chrome/132.0.0.0 Safari/537.36","WebKit","Chrome","132.0.0.0","Windows","10.0","https://app.prolific.com/","en-US,en;q=0.9","6792a60bf1238ae52e645ecb","6877649eabb845cf142cd221","68932e580d8c006629ebe99e","1","6792a60bf1238ae52e645ecb","1","2025-08-06T11:02:11.895Z","","","","","","","","","","","","","","","","win-only","2","g1:SE,g2:NW","0.4","9","0","1932031.2","1583.5","6584.3","63273.1","1","4","4","6","2","-4","-4","28","32","0.21212121212121213","1610.3","3000","-1905","[""left"",""up""]","{""num_key_presses"":13,""num_perfect"":5,""num_errors"":0,""num_randdir"":8,""num_randdir_good_moves"":3,""num_whilered"":0,""num_whileblue"":0,""num_blue"":5,""num_good_moves"":8}","[300.22232142857143,300.12857142857143,0.5,300.22232142857143,300.12857142857143,110,300.22232142857143,300.12857142857143,233.1,300.22232142857143,300.12857142857143,333.8,300.22232142857143,300.12857142857143,439.6,300.22232142857143,300.12857142857143,547.8,300.22232142857143,300.12857142857143,655.6,221.22232142857143,261.12857142857143,761.2,165.22232142857143,208.12857142857143,865.5,165.22232142857143,208.12857142857143,968.4,165.22232142857143,208.12857142857143,1074.6,109.22232142857143,159.12857142857143,1176.1,75.22232142857143,105.12857142857143,1280.5,70.22232142857143,86.12857142857143,1382.4,70.22232142857143,84.12857142857143,1485.2,70.22232142857143,84.12857142857143,1591.9,70.22232142857143,84.12857142857143,1693.7,70.22232142857143,84.12857142857143,1797.6,70.22232142857143,84.12857142857143,1901.7,70.22232142857143,84.12857142857143,2009.3,70.22232142857143,84.12857142857143,2122.1,70.22232142857143,84.12857142857143,2235.2,70.22232142857143,84.12857142857143,2346,70.22232142857143,84.12857142857143,2452.3,70.22232142857143,84.12857142857143,2552.9,70.22232142857143,84.12857142857143,2658.6,212.22232142857143,107.12857142857143,2758.9,305.22232142857143,191.12857142857143,2867,418.22232142857143,325.12857142857143,2969,436.22232142857143,348.12857142857143,3072.5,436.22232142857143,348.12857142857143,3176.4,436.22232142857143,348.12857142857143,3281,436.22232142857143,348.12857142857143,3382.3,436.22232142857143,348.12857142857143,3485.6,436.22232142857143,348.12857142857143,3593.8,436.22232142857143,348.12857142857143,3696.6,436.22232142857143,348.12857142857143,3804.7,436.22232142857143,348.12857142857143,3907.1,436.22232142857143,348.12857142857143,4010.7,436.22232142857143,348.12857142857143,4111.1,436.22232142857143,348.12857142857143,4215,436.22232142857143,348.12857142857143,4318.7,436.22232142857143,348.12857142857143,4422.3,436.22232142857143,348.12857142857143,4538.5,436.22232142857143,348.12857142857143,4641.5,436.22232142857143,348.12857142857143,4752.1,436.22232142857143,348.12857142857143,4856.7,436.22232142857143,348.12857142857143,4977.3]","[1421.9,1422,1000,0,422,""oops"",""up"",""left"",""good_move"",9434.2,8011,3322.8,5761.1,350.3,""oops"",""up"",""right"",""bad_move"",12862.7,3427.6,2674.9,9435.1,752.7,""smooth"",""up"",""up"",""good_move"",15808.5,2944.6,2527.8,12863.9,416.9,""oops"",""up"",""up"",""good_move"",18584.2,2775.2,2228.6,15809.1,546.6,""smooth"",""left"",""left"",""good_move"",25383.4,6798.2,2892.1,22105.3,386,""smooth"",""up"",""up"",""good_move"",28299.2,2915.1,2501.2,25384.1,413.9,""oops"",""left"",""right"",""bad_move"",30782.3,2482.1,2093.2,28300.2,388.9,""smooth"",""left"",""left"",""good_move"",33867.4,3084.3,2705.5,30783.2,378.8,""oops"",""left"",""right"",""bad_move"",37235.7,3367.6,3017.1,33868.1,350.5,""oops"",""left"",""left"",""good_move"",39870.6,2634.4,2254.9,37236.3,379.4,""smooth"",""left"",""left"",""good_move"",46166.1,6294.8,2240,43509.8,416.3,""oops"",""left"",""right"",""bad_move"",48136.1,1969.2,1546.8,46166.9,422.4,""oops"",""left"",""right"",""bad_move""]"
"49287","","<div style=""width:500px;"">
  <p>What determined the result of this run?</p>
  </div>","92","html-slider-response","54","2040910","0.0-7.0-1.8","178","1","2025-08-06 10:28:54","36c45c0696341be0efffe67d72a12abb","62.164.249.91","Mozilla/5.0 (Windows NT 10.0; Win64; x64) AppleWebKit/537.36 (KHTML, like Gecko) Chrome/132.0.0.0 Safari/537.36","WebKit","Chrome","132.0.0.0","Windows","10.0","https://app.prolific.com/","en-US,en;q=0.9","6792a60bf1238ae52e645ecb","6877649eabb845cf142cd221","68932e580d8c006629ebe99e","1","6792a60bf1238ae52e645ecb","1","2025-08-06T11:03:01.184Z","","","","AttribQ","","","","","","","","","","","50","","","","","","","","","","","","","","","","","","","","","","","","","","",""
"3144","","<div style=""width:500px;"">
  <p>How much control did you have over the ball?</p>
  </div>","98","html-slider-response","55","2044056","0.0-7.0-2.8","178","1","2025-08-06 10:28:54","36c45c0696341be0efffe67d72a12abb","62.164.249.91","Mozilla/5.0 (Windows NT 10.0; Win64; x64) AppleWebKit/537.36 (KHTML, like Gecko) Chrome/132.0.0.0 Safari/537.36","WebKit","Chrome","132.0.0.0","Windows","10.0","https://app.prolific.com/","en-US,en;q=0.9","6792a60bf1238ae52e645ecb","6877649eabb845cf142cd221","68932e580d8c006629ebe99e","1","6792a60bf1238ae52e645ecb","1","2025-08-06T11:03:04.331Z","","","","ControlQ","","","","","","","","","","","50","","","","","","","","","","","","","","","","","","","","","","","","","","",""
"3649","","<div style=""width:500px;"">
  <p>How would you describe your current emotional state?</p>
  </div>","92","html-slider-response","56","2047708","0.0-7.0-3.8","178","1","2025-08-06 10:28:54","36c45c0696341be0efffe67d72a12abb","62.164.249.91","Mozilla/5.0 (Windows NT 10.0; Win64; x64) AppleWebKit/537.36 (KHTML, like Gecko) Chrome/132.0.0.0 Safari/537.36","WebKit","Chrome","132.0.0.0","Windows","10.0","https://app.prolific.com/","en-US,en;q=0.9","6792a60bf1238ae52e645ecb","6877649eabb845cf142cd221","68932e580d8c006629ebe99e","1","6792a60bf1238ae52e645ecb","1","2025-08-06T11:03:07.982Z","","","","StressQ","","","","","","","","","","","50","","","","","","","","","","","","","","","","","","","","","","","","","","",""
"6128","","<div style=""width:500px;"">
  <p>What best describes how you currently feel?</p>
  </div>","98","html-slider-response","57","2053838","0.0-7.0-4.8","178","1","2025-08-06 10:28:54","36c45c0696341be0efffe67d72a12abb","62.164.249.91","Mozilla/5.0 (Windows NT 10.0; Win64; x64) AppleWebKit/537.36 (KHTML, like Gecko) Chrome/132.0.0.0 Safari/537.36","WebKit","Chrome","132.0.0.0","Windows","10.0","https://app.prolific.com/","en-US,en;q=0.9","6792a60bf1238ae52e645ecb","6877649eabb845cf142cd221","68932e580d8c006629ebe99e","1","6792a60bf1238ae52e645ecb","1","2025-08-06T11:03:14.112Z","","","","MotivationQ","","","","","","","","","","","50","","","","","","","","","","","","","","","","","","","","","","","","","","",""
"","","","","ctl-task-cpt","58","2123493","0.0-7.0-0.9","178","1","2025-08-06 10:28:54","36c45c0696341be0efffe67d72a12abb","62.164.249.91","Mozilla/5.0 (Windows NT 10.0; Win64; x64) AppleWebKit/537.36 (KHTML, like Gecko) Chrome/132.0.0.0 Safari/537.36","WebKit","Chrome","132.0.0.0","Windows","10.0","https://app.prolific.com/","en-US,en;q=0.9","6792a60bf1238ae52e645ecb","6877649eabb845cf142cd221","68932e580d8c006629ebe99e","1","6792a60bf1238ae52e645ecb","1","2025-08-06T11:04:23.767Z","","","","","","","","","","","","","","","","win-only","1","g1:NE,g2:SW","0.5","10","0","2060550.2","2051.5","7061.1","66610.3","1","4","8","6","2","8","8","36","28","0.2727272727272727","1416.9","3000","1770","[""down"",""left""]","{""num_key_presses"":12,""num_perfect"":7,""num_errors"":0,""num_randdir"":5,""num_randdir_good_moves"":2,""num_whilered"":0,""num_whileblue"":0,""num_blue"":4,""num_good_moves"":9}","[296.22232142857143,298.12857142857143,1.2,296.22232142857143,298.12857142857143,101.8,296.22232142857143,298.12857142857143,206.6,296.22232142857143,298.12857142857143,323,296.22232142857143,298.12857142857143,424.6,296.22232142857143,298.12857142857143,530.3,160.22232142857143,448.12857142857143,631.5,58.222321428571426,551.1285714285714,750.1,18.222321428571426,582.1285714285714,865.1,18.222321428571426,582.1285714285714,967.6,21.222321428571426,572.1285714285714,1075.4,38.222321428571426,556.1285714285714,1188.2,41.222321428571426,554.1285714285714,1308.3,41.222321428571426,554.1285714285714,1426.1,41.222321428571426,554.1285714285714,1543.5,41.222321428571426,554.1285714285714,1659.9,41.222321428571426,554.1285714285714,1764.4,41.222321428571426,554.1285714285714,1873.6,41.222321428571426,554.1285714285714,1979.3,41.222321428571426,554.1285714285714,2085.1,41.222321428571426,554.1285714285714,2186.8,41.222321428571426,554.1285714285714,2287.4,41.222321428571426,554.1285714285714,2395.1,41.222321428571426,554.1285714285714,2502.1,41.222321428571426,554.1285714285714,2616,41.222321428571426,554.1285714285714,2722.5,41.222321428571426,554.1285714285714,2833.9,41.222321428571426,554.1285714285714,2937.2,41.222321428571426,554.1285714285714,3045.2,41.222321428571426,554.1285714285714,3153.1,41.222321428571426,554.1285714285714,3267.9,41.222321428571426,554.1285714285714,3379,41.222321428571426,554.1285714285714,3490.3,41.222321428571426,554.1285714285714,3602.6,41.222321428571426,554.1285714285714,3711.5,41.222321428571426,554.1285714285714,3811.8,41.222321428571426,554.1285714285714,3924.4,41.222321428571426,554.1285714285714,4027.2,41.222321428571426,554.1285714285714,4129.6,41.222321428571426,554.1285714285714,4242.4,41.222321428571426,554.1285714285714,4351.2,41.222321428571426,554.1285714285714,4458.6,41.222321428571426,554.1285714285714,4560,41.222321428571426,554.1285714285714,4663.4,41.222321428571426,554.1285714285714,4769.5,41.222321428571426,554.1285714285714,4879.5,41.222321428571426,554.1285714285714,4992]","[1411.4,1411.4,1000,0,411.4,""smooth"",""down"",""down"",""good_move"",8519.8,7108,2600,5438.3,481.6,""smooth"",""left"",""left"",""good_move"",19004,10483.6,2409.8,16078.3,515.9,""smooth"",""left"",""left"",""good_move"",23477.8,4473.4,2372.2,19004.4,2101.2,""oops"",""down"",""up"",""bad_move"",31162.4,7683.9,2312.4,28428.4,421.6,""smooth"",""down"",""down"",""good_move"",34505.3,3342.2,2853.6,31163.2,488.5,""oops"",""down"",""right"",""bad_move"",37962.4,3456.3,2830.7,34506.1,625.6,""smooth"",""down"",""down"",""good_move"",41017.9,3054.5,2626.6,37963.4,427.9,""oops"",""left"",""down"",""good_move"",43699.3,2680.9,1999.1,41018.4,681.8,""oops"",""left"",""right"",""bad_move"",47110,3410,2946.5,43700,463.5,""oops"",""left"",""left"",""good_move"",51720.8,4610.4,1612.8,47110.5,2997.6,""smooth"",""left"",""left"",""good_move"",58835.2,7114,2851.8,51721.3,4262.2,""smooth"",""left"",""left"",""good_move""]"
"6368","","<div style=""width:500px;"">
  <p>What determined the result of this run?</p>
  </div>","93","html-slider-response","59","2129866","0.0-7.0-1.9","178","1","2025-08-06 10:28:54","36c45c0696341be0efffe67d72a12abb","62.164.249.91","Mozilla/5.0 (Windows NT 10.0; Win64; x64) AppleWebKit/537.36 (KHTML, like Gecko) Chrome/132.0.0.0 Safari/537.36","WebKit","Chrome","132.0.0.0","Windows","10.0","https://app.prolific.com/","en-US,en;q=0.9","6792a60bf1238ae52e645ecb","6877649eabb845cf142cd221","68932e580d8c006629ebe99e","1","6792a60bf1238ae52e645ecb","1","2025-08-06T11:04:30.140Z","","","","AttribQ","","","","","","","","","","","50","","","","","","","","","","","","","","","","","","","","","","","","","","",""
"7251","","<div style=""width:500px;"">
  <p>How much control did you have over the ball?</p>
  </div>","96","html-slider-response","60","2137121","0.0-7.0-2.9","178","1","2025-08-06 10:28:54","36c45c0696341be0efffe67d72a12abb","62.164.249.91","Mozilla/5.0 (Windows NT 10.0; Win64; x64) AppleWebKit/537.36 (KHTML, like Gecko) Chrome/132.0.0.0 Safari/537.36","WebKit","Chrome","132.0.0.0","Windows","10.0","https://app.prolific.com/","en-US,en;q=0.9","6792a60bf1238ae52e645ecb","6877649eabb845cf142cd221","68932e580d8c006629ebe99e","1","6792a60bf1238ae52e645ecb","1","2025-08-06T11:04:37.395Z","","","","ControlQ","","","","","","","","","","","50","","","","","","","","","","","","","","","","","","","","","","","","","","",""
"24607","","<div style=""width:500px;"">
  <p>How would you describe your current emotional state?</p>
  </div>","95","html-slider-response","61","2161733","0.0-7.0-3.9","178","1","2025-08-06 10:28:54","36c45c0696341be0efffe67d72a12abb","62.164.249.91","Mozilla/5.0 (Windows NT 10.0; Win64; x64) AppleWebKit/537.36 (KHTML, like Gecko) Chrome/132.0.0.0 Safari/537.36","WebKit","Chrome","132.0.0.0","Windows","10.0","https://app.prolific.com/","en-US,en;q=0.9","6792a60bf1238ae52e645ecb","6877649eabb845cf142cd221","68932e580d8c006629ebe99e","1","6792a60bf1238ae52e645ecb","1","2025-08-06T11:05:02.007Z","","","","StressQ","","","","","","","","","","","50","","","","","","","","","","","","","","","","","","","","","","","","","","",""
"4108","","<div style=""width:500px;"">
  <p>What best describes how you currently feel?</p>
  </div>","93","html-slider-response","62","2165846","0.0-7.0-4.9","178","1","2025-08-06 10:28:54","36c45c0696341be0efffe67d72a12abb","62.164.249.91","Mozilla/5.0 (Windows NT 10.0; Win64; x64) AppleWebKit/537.36 (KHTML, like Gecko) Chrome/132.0.0.0 Safari/537.36","WebKit","Chrome","132.0.0.0","Windows","10.0","https://app.prolific.com/","en-US,en;q=0.9","6792a60bf1238ae52e645ecb","6877649eabb845cf142cd221","68932e580d8c006629ebe99e","1","6792a60bf1238ae52e645ecb","1","2025-08-06T11:05:06.120Z","","","","MotivationQ","","","","","","","","","","","50","","","","","","","","","","","","","","","","","","","","","","","","","","",""
"","","","","ctl-task-cpt","63","2238640","0.0-7.0-0.10","178","1","2025-08-06 10:28:54","36c45c0696341be0efffe67d72a12abb","62.164.249.91","Mozilla/5.0 (Windows NT 10.0; Win64; x64) AppleWebKit/537.36 (KHTML, like Gecko) Chrome/132.0.0.0 Safari/537.36","WebKit","Chrome","132.0.0.0","Windows","10.0","https://app.prolific.com/","en-US,en;q=0.9","6792a60bf1238ae52e645ecb","6877649eabb845cf142cd221","68932e580d8c006629ebe99e","1","6792a60bf1238ae52e645ecb","1","2025-08-06T11:06:18.914Z","","","","","","","","","","","","","","","","win-only","1","g1:NE,g2:SW","0.6","11","0","2172560.6","3067.5","8093.6","69723.1","1","4","8","6","2","8","7","43","36","0.32575757575757575","1220.5","3000","2380","[""down"",""left""]","{""num_key_presses"":11,""num_perfect"":6,""num_errors"":1,""num_randdir"":4,""num_randdir_good_moves"":2,""num_whilered"":0,""num_whileblue"":0,""num_blue"":1,""num_good_moves"":8}","[296.22232142857143,302.12857142857143,0.3,296.22232142857143,302.12857142857143,132.2,296.22232142857143,302.12857142857143,287.3,296.22232142857143,302.12857142857143,430.2,296.22232142857143,302.12857142857143,576.7,100.22232142857143,467.12857142857143,686.8,57.222321428571426,507.12857142857143,789,30.222321428571426,535.1285714285714,896.2,30.222321428571426,543.1285714285714,996.3,30.222321428571426,544.1285714285714,1101.3,30.222321428571426,544.1285714285714,1207,30.222321428571426,544.1285714285714,1316.6,30.222321428571426,544.1285714285714,1461.9,30.222321428571426,544.1285714285714,1606.7,30.222321428571426,544.1285714285714,1707.1,30.222321428571426,544.1285714285714,1846.1,30.222321428571426,544.1285714285714,1949,30.222321428571426,544.1285714285714,2092.8,30.222321428571426,544.1285714285714,2235.4,30.222321428571426,544.1285714285714,2380,30.222321428571426,544.1285714285714,2517.6,30.222321428571426,544.1285714285714,2660.8,30.222321428571426,544.1285714285714,2801,30.222321428571426,544.1285714285714,2942.9,30.222321428571426,544.1285714285714,3084.5,30.222321428571426,544.1285714285714,3185.1,30.222321428571426,544.1285714285714,3325.1,30.222321428571426,544.1285714285714,3465.2,30.222321428571426,544.1285714285714,3605.5,30.222321428571426,544.1285714285714,3748.4,30.222321428571426,544.1285714285714,3895.2,30.222321428571426,544.1285714285714,4036,30.222321428571426,544.1285714285714,4177.2,30.222321428571426,544.1285714285714,4314.6,30.222321428571426,544.1285714285714,4451.4,30.222321428571426,544.1285714285714,4589.4,30.222321428571426,544.1285714285714,4740.8,30.222321428571426,544.1285714285714,4885]","[1560.2,1560.2,1000,0,560.3,""oops"",""down"",""down"",""good_move"",4863.8,3302.7,2532.7,1561.1,770,""smooth"",""left"",""left"",""good_move"",13609.1,8745,2651,4864.2,6094,""smooth"",""down"",""down"",""good_move"",16709,3099.6,1931.2,13609.5,1168.3,""oops"",""left"",""right"",""bad_move"",19879.1,3169.4,2526.7,16709.7,642.7,""smooth"",""down"",""down"",""good_move"",25002.7,5123.1,2518.5,23136.3,-652.1,""error"",""-"",""-"",""no_move"",29670.3,4667.1,3029.9,26039.5,600.9,""oops"",""left"",""up"",""bad_move"",39366.6,9695.8,3798,29670.9,5897.7,""oops"",""left"",""left"",""good_move"",48540,9173,2542.3,39367,6630.7,""smooth"",""down"",""down"",""good_move"",51733.1,3192.7,2591.8,48540.5,600.9,""smooth"",""left"",""left"",""good_move"",60894.9,9161.3,2951.3,51733.6,6210,""smooth"",""left"",""left"",""good_move""]"
"272240","","<div style=""width:500px;"">
  <p>What determined the result of this run?</p>
  </div>","90","html-slider-response","64","2510886","0.0-7.0-1.10","178","1","2025-08-06 10:28:54","36c45c0696341be0efffe67d72a12abb","62.164.249.91","Mozilla/5.0 (Windows NT 10.0; Win64; x64) AppleWebKit/537.36 (KHTML, like Gecko) Chrome/132.0.0.0 Safari/537.36","WebKit","Chrome","132.0.0.0","Windows","10.0","https://app.prolific.com/","en-US,en;q=0.9","6792a60bf1238ae52e645ecb","6877649eabb845cf142cd221","68932e580d8c006629ebe99e","1","6792a60bf1238ae52e645ecb","1","2025-08-06T11:10:51.160Z","","","","AttribQ","","","","","","","","","","","50","","","","","","","","","","","","","","","","","","","","","","","","","","",""
"6596","","<div style=""width:500px;"">
  <p>How much control did you have over the ball?</p>
  </div>","75","html-slider-response","65","2517487","0.0-7.0-2.10","178","1","2025-08-06 10:28:54","36c45c0696341be0efffe67d72a12abb","62.164.249.91","Mozilla/5.0 (Windows NT 10.0; Win64; x64) AppleWebKit/537.36 (KHTML, like Gecko) Chrome/132.0.0.0 Safari/537.36","WebKit","Chrome","132.0.0.0","Windows","10.0","https://app.prolific.com/","en-US,en;q=0.9","6792a60bf1238ae52e645ecb","6877649eabb845cf142cd221","68932e580d8c006629ebe99e","1","6792a60bf1238ae52e645ecb","1","2025-08-06T11:10:57.762Z","","","","ControlQ","","","","","","","","","","","50","","","","","","","","","","","","","","","","","","","","","","","","","","",""
"7755","","<div style=""width:500px;"">
  <p>How would you describe your current emotional state?</p>
  </div>","62","html-slider-response","66","2525247","0.0-7.0-3.10","178","1","2025-08-06 10:28:54","36c45c0696341be0efffe67d72a12abb","62.164.249.91","Mozilla/5.0 (Windows NT 10.0; Win64; x64) AppleWebKit/537.36 (KHTML, like Gecko) Chrome/132.0.0.0 Safari/537.36","WebKit","Chrome","132.0.0.0","Windows","10.0","https://app.prolific.com/","en-US,en;q=0.9","6792a60bf1238ae52e645ecb","6877649eabb845cf142cd221","68932e580d8c006629ebe99e","1","6792a60bf1238ae52e645ecb","1","2025-08-06T11:11:05.521Z","","","","StressQ","","","","","","","","","","","50","","","","","","","","","","","","","","","","","","","","","","","","","","",""
"3283","","<div style=""width:500px;"">
  <p>What best describes how you currently feel?</p>
  </div>","76","html-slider-response","67","2528536","0.0-7.0-4.10","178","1","2025-08-06 10:28:54","36c45c0696341be0efffe67d72a12abb","62.164.249.91","Mozilla/5.0 (Windows NT 10.0; Win64; x64) AppleWebKit/537.36 (KHTML, like Gecko) Chrome/132.0.0.0 Safari/537.36","WebKit","Chrome","132.0.0.0","Windows","10.0","https://app.prolific.com/","en-US,en;q=0.9","6792a60bf1238ae52e645ecb","6877649eabb845cf142cd221","68932e580d8c006629ebe99e","1","6792a60bf1238ae52e645ecb","1","2025-08-06T11:11:08.810Z","","","","MotivationQ","","","","","","","","","","","50","","","","","","","","","","","","","","","","","","","","","","","","","","",""
"","","","","ctl-task-cpt","68","2616671","0.0-7.0-0.11","178","1","2025-08-06 10:28:54","36c45c0696341be0efffe67d72a12abb","62.164.249.91","Mozilla/5.0 (Windows NT 10.0; Win64; x64) AppleWebKit/537.36 (KHTML, like Gecko) Chrome/132.0.0.0 Safari/537.36","WebKit","Chrome","132.0.0.0","Windows","10.0","https://app.prolific.com/","en-US,en;q=0.9","6792a60bf1238ae52e645ecb","6877649eabb845cf142cd221","68932e580d8c006629ebe99e","1","6792a60bf1238ae52e645ecb","1","2025-08-06T11:12:36.945Z","","","","","","","","","","","","","","","","win-only","1","g1:NE,g2:SW","0.7","12","0","2535249.7","3134.4","8180.3","85107.2","1","4","4","6","2","4","4","47","43","0.3560606060606061","1166.8","3000","655","[""down"",""left""]","{""num_key_presses"":10,""num_perfect"":7,""num_errors"":0,""num_randdir"":3,""num_randdir_good_moves"":1,""num_whilered"":0,""num_whileblue"":0,""num_blue"":3,""num_good_moves"":8}","[294.22232142857143,291.12857142857143,0.3,294.22232142857143,291.12857142857143,101.4,294.22232142857143,291.12857142857143,210.5,294.22232142857143,291.12857142857143,319.8,294.22232142857143,291.12857142857143,425.3,294.22232142857143,291.12857142857143,534.5,259.22232142857143,332.12857142857143,642.4,90.22232142857143,499.12857142857143,755.6,46.222321428571426,525.1285714285714,865.1,34.222321428571426,534.1285714285714,971.2,34.222321428571426,534.1285714285714,1081.6,34.222321428571426,534.1285714285714,1193.7,34.222321428571426,534.1285714285714,1296.6,34.222321428571426,534.1285714285714,1403.2,34.222321428571426,534.1285714285714,1509.2,34.222321428571426,534.1285714285714,1616.4,34.222321428571426,534.1285714285714,1726.6,34.222321428571426,534.1285714285714,1829.8,34.222321428571426,534.1285714285714,1930.8,34.222321428571426,534.1285714285714,2036.4,34.222321428571426,534.1285714285714,2144,34.222321428571426,534.1285714285714,2248.4,34.222321428571426,534.1285714285714,2353,34.222321428571426,534.1285714285714,2459.5,34.222321428571426,534.1285714285714,2567.5,34.222321428571426,534.1285714285714,2670.3,34.222321428571426,534.1285714285714,2773.2,34.222321428571426,534.1285714285714,2880.1,34.222321428571426,534.1285714285714,2984.7,34.222321428571426,534.1285714285714,3100.4,34.222321428571426,534.1285714285714,3204.8,34.222321428571426,534.1285714285714,3315,34.222321428571426,534.1285714285714,3420.1,34.222321428571426,534.1285714285714,3526.7,34.222321428571426,534.1285714285714,3665.7,34.222321428571426,534.1285714285714,3777.3,34.222321428571426,534.1285714285714,3882.6,34.222321428571426,534.1285714285714,3989.7,34.222321428571426,534.1285714285714,4096.2,34.222321428571426,534.1285714285714,4203.9,34.222321428571426,534.1285714285714,4309.9,34.222321428571426,534.1285714285714,4414.3,34.222321428571426,534.1285714285714,4521.6,34.222321428571426,534.1285714285714,4628.1,34.222321428571426,534.1285714285714,4730.2,34.222321428571426,534.1285714285714,4836.5,34.222321428571426,534.1285714285714,4941.8]","[1847.5,1847.5,1000,0,847.5,""smooth"",""down"",""down"",""good_move"",4899.2,3051,2023.5,1848.2,1027.5,""oops"",""left"",""up"",""bad_move"",14574.9,9675.2,3297.9,4899.8,6377.4,""oops"",""down"",""down"",""good_move"",18124.2,3548.9,2941.6,14575.3,607.3,""smooth"",""left"",""left"",""good_move"",37274.3,19149.4,2342.2,32148.4,2783.7,""smooth"",""down"",""down"",""good_move"",55061.7,17787,2919.5,37274.7,14867.5,""smooth"",""down"",""down"",""good_move"",62808.8,7746.8,2703.1,59182.7,923,""oops"",""left"",""up"",""bad_move"",69837.2,7027.7,2200.5,62809.5,4827.2,""smooth"",""down"",""down"",""good_move"",73613,3775.2,3344.6,69837.8,430.6,""smooth"",""left"",""left"",""good_move"",76630,3016.7,2609.6,73613.4,407.1,""smooth"",""left"",""left"",""good_move""]"
"5083","","<div style=""width:500px;"">
  <p>What determined the result of this run?</p>
  </div>","62","html-slider-response","69","2621756","0.0-7.0-1.11","178","1","2025-08-06 10:28:54","36c45c0696341be0efffe67d72a12abb","62.164.249.91","Mozilla/5.0 (Windows NT 10.0; Win64; x64) AppleWebKit/537.36 (KHTML, like Gecko) Chrome/132.0.0.0 Safari/537.36","WebKit","Chrome","132.0.0.0","Windows","10.0","https://app.prolific.com/","en-US,en;q=0.9","6792a60bf1238ae52e645ecb","6877649eabb845cf142cd221","68932e580d8c006629ebe99e","1","6792a60bf1238ae52e645ecb","1","2025-08-06T11:12:42.031Z","","","","AttribQ","","","","","","","","","","","50","","","","","","","","","","","","","","","","","","","","","","","","","","",""
"3301","","<div style=""width:500px;"">
  <p>How much control did you have over the ball?</p>
  </div>","62","html-slider-response","70","2625060","0.0-7.0-2.11","178","1","2025-08-06 10:28:54","36c45c0696341be0efffe67d72a12abb","62.164.249.91","Mozilla/5.0 (Windows NT 10.0; Win64; x64) AppleWebKit/537.36 (KHTML, like Gecko) Chrome/132.0.0.0 Safari/537.36","WebKit","Chrome","132.0.0.0","Windows","10.0","https://app.prolific.com/","en-US,en;q=0.9","6792a60bf1238ae52e645ecb","6877649eabb845cf142cd221","68932e580d8c006629ebe99e","1","6792a60bf1238ae52e645ecb","1","2025-08-06T11:12:45.334Z","","","","ControlQ","","","","","","","","","","","50","","","","","","","","","","","","","","","","","","","","","","","","","","",""
"2744","","<div style=""width:500px;"">
  <p>How would you describe your current emotional state?</p>
  </div>","65","html-slider-response","71","2627808","0.0-7.0-3.11","178","1","2025-08-06 10:28:54","36c45c0696341be0efffe67d72a12abb","62.164.249.91","Mozilla/5.0 (Windows NT 10.0; Win64; x64) AppleWebKit/537.36 (KHTML, like Gecko) Chrome/132.0.0.0 Safari/537.36","WebKit","Chrome","132.0.0.0","Windows","10.0","https://app.prolific.com/","en-US,en;q=0.9","6792a60bf1238ae52e645ecb","6877649eabb845cf142cd221","68932e580d8c006629ebe99e","1","6792a60bf1238ae52e645ecb","1","2025-08-06T11:12:48.082Z","","","","StressQ","","","","","","","","","","","50","","","","","","","","","","","","","","","","","","","","","","","","","","",""
"3919","","<div style=""width:500px;"">
  <p>What best describes how you currently feel?</p>
  </div>","97","html-slider-response","72","2631730","0.0-7.0-4.11","178","1","2025-08-06 10:28:54","36c45c0696341be0efffe67d72a12abb","62.164.249.91","Mozilla/5.0 (Windows NT 10.0; Win64; x64) AppleWebKit/537.36 (KHTML, like Gecko) Chrome/132.0.0.0 Safari/537.36","WebKit","Chrome","132.0.0.0","Windows","10.0","https://app.prolific.com/","en-US,en;q=0.9","6792a60bf1238ae52e645ecb","6877649eabb845cf142cd221","68932e580d8c006629ebe99e","1","6792a60bf1238ae52e645ecb","1","2025-08-06T11:12:52.004Z","","","","MotivationQ","","","","","","","","","","","50","","","","","","","","","","","","","","","","","","","","","","","","","","",""
"","","","","ctl-task-cpt","73","2660201","0.0-7.0-0.12","178","1","2025-08-06 10:28:54","36c45c0696341be0efffe67d72a12abb","62.164.249.91","Mozilla/5.0 (Windows NT 10.0; Win64; x64) AppleWebKit/537.36 (KHTML, like Gecko) Chrome/132.0.0.0 Safari/537.36","WebKit","Chrome","132.0.0.0","Windows","10.0","https://app.prolific.com/","en-US,en;q=0.9","6792a60bf1238ae52e645ecb","6877649eabb845cf142cd221","68932e580d8c006629ebe99e","1","6792a60bf1238ae52e645ecb","1","2025-08-06T11:13:20.475Z","","","","","","","","","","","","","","","","win-only","0","g1:NW,g2:SE","0.8","13","0","2638443.5","2375.2","7389.3","25446.3","1","4","8","6","2","8","8","55","47","0.4166666666666667","1737.9","3000","2335","[""down"",""right""]","{""num_key_presses"":6,""num_perfect"":5,""num_errors"":0,""num_randdir"":1,""num_randdir_good_moves"":1,""num_whilered"":0,""num_whileblue"":0,""num_blue"":0,""num_good_moves"":6}","[297.22232142857143,292.12857142857143,0.3,297.22232142857143,292.12857142857143,124.4,297.22232142857143,292.12857142857143,251.4,297.22232142857143,292.12857142857143,371.5,297.22232142857143,292.12857142857143,492.9,297.22232142857143,292.12857142857143,612.6,297.22232142857143,292.12857142857143,731.6,297.22232142857143,292.12857142857143,858.6,297.22232142857143,292.12857142857143,975.2,297.22232142857143,292.12857142857143,1095,432.22232142857143,322.12857142857143,1219.1,540.2223214285714,474.12857142857143,1349.9,545.2223214285714,487.12857142857143,1477.4,545.2223214285714,501.12857142857143,1601.2,545.2223214285714,501.12857142857143,1720.8,545.2223214285714,501.12857142857143,1826.9,545.2223214285714,501.12857142857143,1952,545.2223214285714,501.12857142857143,2075.2,545.2223214285714,501.12857142857143,2197.2,545.2223214285714,501.12857142857143,2318.1,545.2223214285714,501.12857142857143,2434.5,545.2223214285714,501.12857142857143,2551.1,545.2223214285714,501.12857142857143,2675.4,545.2223214285714,501.12857142857143,2798.9,545.2223214285714,501.12857142857143,2925.3,545.2223214285714,501.12857142857143,3046.4,545.2223214285714,501.12857142857143,3171,545.2223214285714,501.12857142857143,3284.5,545.2223214285714,501.12857142857143,3402.2,545.2223214285714,501.12857142857143,3517.3,545.2223214285714,501.12857142857143,3630.6,545.2223214285714,501.12857142857143,3744.5,545.2223214285714,501.12857142857143,3875.8,545.2223214285714,501.12857142857143,3995.3,545.2223214285714,501.12857142857143,4119.8,545.2223214285714,501.12857142857143,4239.7,545.2223214285714,501.12857142857143,4365.4,545.2223214285714,501.12857142857143,4478.9,545.2223214285714,501.12857142857143,4582.3,545.2223214285714,501.12857142857143,4701.3,545.2223214285714,501.12857142857143,4825.3,545.2223214285714,501.12857142857143,4958]","[1639.4,1639.4,1000,0,639.4,""smooth"",""down"",""down"",""good_move"",5043.7,3403.7,2907.2,1640,496.5,""smooth"",""right"",""right"",""good_move"",8278.2,3233.1,2805,5045.1,428.1,""smooth"",""down"",""down"",""good_move"",10980.1,2701.6,2174.1,8278.5,527.5,""smooth"",""right"",""right"",""good_move"",14026,3045.1,2683.7,10980.9,361.4,""oops"",""down"",""down"",""good_move"",17870.1,3843.2,3377.3,14027,465.8,""smooth"",""right"",""right"",""good_move""]"
"8953","","<div style=""width:500px;"">
  <p>What determined the result of this run?</p>
  </div>","83","html-slider-response","74","2669157","0.0-7.0-1.12","178","1","2025-08-06 10:28:54","36c45c0696341be0efffe67d72a12abb","62.164.249.91","Mozilla/5.0 (Windows NT 10.0; Win64; x64) AppleWebKit/537.36 (KHTML, like Gecko) Chrome/132.0.0.0 Safari/537.36","WebKit","Chrome","132.0.0.0","Windows","10.0","https://app.prolific.com/","en-US,en;q=0.9","6792a60bf1238ae52e645ecb","6877649eabb845cf142cd221","68932e580d8c006629ebe99e","1","6792a60bf1238ae52e645ecb","1","2025-08-06T11:13:29.431Z","","","","AttribQ","","","","","","","","","","","50","","","","","","","","","","","","","","","","","","","","","","","","","","",""
"3105","","<div style=""width:500px;"">
  <p>How much control did you have over the ball?</p>
  </div>","83","html-slider-response","75","2672265","0.0-7.0-2.12","178","1","2025-08-06 10:28:54","36c45c0696341be0efffe67d72a12abb","62.164.249.91","Mozilla/5.0 (Windows NT 10.0; Win64; x64) AppleWebKit/537.36 (KHTML, like Gecko) Chrome/132.0.0.0 Safari/537.36","WebKit","Chrome","132.0.0.0","Windows","10.0","https://app.prolific.com/","en-US,en;q=0.9","6792a60bf1238ae52e645ecb","6877649eabb845cf142cd221","68932e580d8c006629ebe99e","1","6792a60bf1238ae52e645ecb","1","2025-08-06T11:13:32.539Z","","","","ControlQ","","","","","","","","","","","50","","","","","","","","","","","","","","","","","","","","","","","","","","",""
"5167","","<div style=""width:500px;"">
  <p>How would you describe your current emotional state?</p>
  </div>","29","html-slider-response","76","2677434","0.0-7.0-3.12","178","1","2025-08-06 10:28:54","36c45c0696341be0efffe67d72a12abb","62.164.249.91","Mozilla/5.0 (Windows NT 10.0; Win64; x64) AppleWebKit/537.36 (KHTML, like Gecko) Chrome/132.0.0.0 Safari/537.36","WebKit","Chrome","132.0.0.0","Windows","10.0","https://app.prolific.com/","en-US,en;q=0.9","6792a60bf1238ae52e645ecb","6877649eabb845cf142cd221","68932e580d8c006629ebe99e","1","6792a60bf1238ae52e645ecb","1","2025-08-06T11:13:37.708Z","","","","StressQ","","","","","","","","","","","50","","","","","","","","","","","","","","","","","","","","","","","","","","",""
"8325","","<div style=""width:500px;"">
  <p>What best describes how you currently feel?</p>
  </div>","77","html-slider-response","77","2685761","0.0-7.0-4.12","178","1","2025-08-06 10:28:54","36c45c0696341be0efffe67d72a12abb","62.164.249.91","Mozilla/5.0 (Windows NT 10.0; Win64; x64) AppleWebKit/537.36 (KHTML, like Gecko) Chrome/132.0.0.0 Safari/537.36","WebKit","Chrome","132.0.0.0","Windows","10.0","https://app.prolific.com/","en-US,en;q=0.9","6792a60bf1238ae52e645ecb","6877649eabb845cf142cd221","68932e580d8c006629ebe99e","1","6792a60bf1238ae52e645ecb","1","2025-08-06T11:13:46.035Z","","","","MotivationQ","","","","","","","","","","","50","","","","","","","","","","","","","","","","","","","","","","","","","","",""
