"rt","response_timestamp","stimulus","response","trial_type","trial_index","time_elapsed","internal_node_id","run_id","condition","recorded_at","source_code_version","ip","user_agent","device","browser","browser_version","platform","platform_version","referer","accept_language","PROLIFIC_PID","STUDY_ID","SESSION_ID","BATCH","prolific_id","batch","realtime","success","question_order","question_id","eventType","responses","item_order","radio_event_ids","radio_event_times","key_event_times","mouse_event_times","straightlining","zigzagging","honeypot","view_history","slider_start","which_type","canvas_config","goals_layout","control_level","trial_number","tutorial_trial_number","trial_start_time","phase1_start_time","phase2_start_time","phase3_start_time","goal_1_value","goal_1_distance","goal_2_value","goal_2_distance","goal_selected","outcome","outcome_total","participant_final_score","participant_initial_score","participant_final_score_prop","goal_choice_rt","allocated_time","allocated_time_remaining","goal_direction","counts","mouse_movements","key_presses"
"321043","1754538082963","<p style='font-size:40px;line-height:1.25'><strong>Welcome to the experiment!</strong></p><p style='font-size:1.1em;line-height:1.25'>Thank you for participanting in our experiment again! You will be asked to play the Dysfunctional Ball Game again. We will briefly recap the rules before we start.</p><p style='font-size:1.1em;line-height:1.25'>Press <strong>Next</strong> to continue.</p>","0","custom-html-button-response","0","321050","0.0-0.0","223","1","2025-08-07 03:35:59","36c45c0696341be0efffe67d72a12abb","41.13.198.111","Mozilla/5.0 (Windows NT 10.0; Win64; x64) AppleWebKit/537.36 (KHTML, like Gecko) Chrome/138.0.0.0 Safari/537.36","WebKit","Chrome","138.0.0.0","Windows","10.0","https://app.prolific.com/","en-GB,en-US;q=0.9,en;q=0.8","67acf1d438e2c92a40f88a9e","687a1a965b9f5b85a264363e","68941f119f39316ce1e850c1","1","67acf1d438e2c92a40f88a9e","1","2025-08-07T03:41:22.966Z","","","","","","","","","","","","","","","","","","","","","","","","","","","","","","","","","","","","","","","","","",""
"8026","","","","fullscreen","1","330093","0.0-1.0","223","1","2025-08-07 03:35:59","36c45c0696341be0efffe67d72a12abb","41.13.198.111","Mozilla/5.0 (Windows NT 10.0; Win64; x64) AppleWebKit/537.36 (KHTML, like Gecko) Chrome/138.0.0.0 Safari/537.36","WebKit","Chrome","138.0.0.0","Windows","10.0","https://app.prolific.com/","en-GB,en-US;q=0.9,en;q=0.8","67acf1d438e2c92a40f88a9e","687a1a965b9f5b85a264363e","68941f119f39316ce1e850c1","1","67acf1d438e2c92a40f88a9e","1","","true","","","","","","","","","","","","","","","","","","","","","","","","","","","","","","","","","","","","","","","","",""
"21699","1754538113711"," <p style='font-size:1.1em;line-height:1.25'>Thank you for closing all other tabs.</p><p style='font-size:1.1em;line-height:1.25'>We will now invite you to fill in some questionnaires, before starting the game.<br>This will take about 5 minutes.<br></p><p style='font-size:1.1em;line-height:1.25'>Press the <strong>Next</strong> button to continue.</p>","0","custom-html-button-response","2","351796","0.0-2.0","223","1","2025-08-07 03:35:59","36c45c0696341be0efffe67d72a12abb","41.13.198.111","Mozilla/5.0 (Windows NT 10.0; Win64; x64) AppleWebKit/537.36 (KHTML, like Gecko) Chrome/138.0.0.0 Safari/537.36","WebKit","Chrome","138.0.0.0","Windows","10.0","https://app.prolific.com/","en-GB,en-US;q=0.9,en;q=0.8","67acf1d438e2c92a40f88a9e","687a1a965b9f5b85a264363e","68941f119f39316ce1e850c1","1","67acf1d438e2c92a40f88a9e","1","2025-08-07T03:41:53.712Z","","","","","","","","","","","","","","","","","","","","","","","","","","","","","","","","","","","","","","","","","",""
"6383","","","{""assigned_sex"":""female""}","survey-multi-choice","3","358182","0.0-3.0-0.0","223","1","2025-08-07 03:35:59","36c45c0696341be0efffe67d72a12abb","41.13.198.111","Mozilla/5.0 (Windows NT 10.0; Win64; x64) AppleWebKit/537.36 (KHTML, like Gecko) Chrome/138.0.0.0 Safari/537.36","WebKit","Chrome","138.0.0.0","Windows","10.0","https://app.prolific.com/","en-GB,en-US;q=0.9,en;q=0.8","67acf1d438e2c92a40f88a9e","687a1a965b9f5b85a264363e","68941f119f39316ce1e850c1","1","67acf1d438e2c92a40f88a9e","1","","","[0]","0","demographics","","","","","","","","","","","","","","","","","","","","","","","","","","","","","","","","","","","","","",""
"7495","1754538127594","<p style='font-size:1.1em;line-height:1.25'>In the following, we will perform a baseline assessment. This means that we will ask you a few questions relating to your experiences over the past month.<br></p><p style='font-size:1.1em;line-height:1.25'>Press the <strong>Next</strong> button to continue.</p>","0","custom-html-button-response","4","365678","0.0-4.0-0.0","223","1","2025-08-07 03:35:59","36c45c0696341be0efffe67d72a12abb","41.13.198.111","Mozilla/5.0 (Windows NT 10.0; Win64; x64) AppleWebKit/537.36 (KHTML, like Gecko) Chrome/138.0.0.0 Safari/537.36","WebKit","Chrome","138.0.0.0","Windows","10.0","https://app.prolific.com/","en-GB,en-US;q=0.9,en;q=0.8","67acf1d438e2c92a40f88a9e","687a1a965b9f5b85a264363e","68941f119f39316ce1e850c1","1","67acf1d438e2c92a40f88a9e","1","2025-08-07T03:42:07.595Z","","","","","","","","","","","","","","","","","","","","","","","","","","","","","","","","","","","","","","","","","",""
"65530.39999997616","","","","survey-template","5","431215","0.0-4.0-1.0","223","1","2025-08-07 03:35:59","36c45c0696341be0efffe67d72a12abb","41.13.198.111","Mozilla/5.0 (Windows NT 10.0; Win64; x64) AppleWebKit/537.36 (KHTML, like Gecko) Chrome/138.0.0.0 Safari/537.36","WebKit","Chrome","138.0.0.0","Windows","10.0","https://app.prolific.com/","en-GB,en-US;q=0.9,en;q=0.8","67acf1d438e2c92a40f88a9e","687a1a965b9f5b85a264363e","68941f119f39316ce1e850c1","1","67acf1d438e2c92a40f88a9e","1","2025-08-07T03:43:13.131Z","","","","pss","{""Q01"":""2"",""Q02"":""2"",""Q03"":""3"",""Q04"":""2"",""Q05"":""2"",""Q06"":""2"",""Q07"":""2"",""Q08"":""2"",""Q09"":""2"",""Q10"":""3""}","[0,1,2,3,4,5,6,7,8,9]","[""Q01"",""Q02"",""Q03"",""Q04"",""Q05"",""Q06"",""Q07"",""Q08"",""Q09"",""Q10""]","[8521.599999964237,12869.699999988079,19265.799999952316,27482.19999998808,32439.299999952316,36733.299999952316,43237.09999996424,48076,58133.299999952316,64139.09999996424]","[]","[0.09999996423721313,8521.599999964237,12869.699999988079,19265.799999952316,27482.19999998808,32439.299999952316,36733.299999952316,43237.09999996424,48076,55323.09999996424,56691.299999952316,58133.299999952316,64139.09999996424,65525]","0.8","0.3333333333333333","0","","","","","","","","","","","","","","","","","","","","","","","","","","","","",""
"3350","1754538196482","<p style='font-size:1.1em;line-height:1.25'>Thank you for your answers! Now we will ask you a few more questions relating to your feelings in the last 24 hours.<br></p><p style='font-size:1.1em;line-height:1.25'>Press the <strong>Next</strong> button to continue.</p>","0","custom-html-button-response","6","434567","0.0-4.0-2.0","223","1","2025-08-07 03:35:59","36c45c0696341be0efffe67d72a12abb","41.13.198.111","Mozilla/5.0 (Windows NT 10.0; Win64; x64) AppleWebKit/537.36 (KHTML, like Gecko) Chrome/138.0.0.0 Safari/537.36","WebKit","Chrome","138.0.0.0","Windows","10.0","https://app.prolific.com/","en-GB,en-US;q=0.9,en;q=0.8","67acf1d438e2c92a40f88a9e","687a1a965b9f5b85a264363e","68941f119f39316ce1e850c1","1","67acf1d438e2c92a40f88a9e","1","2025-08-07T03:43:16.484Z","","","","","","","","","","","","","","","","","","","","","","","","","","","","","","","","","","","","","","","","","",""
"74023.69999998808","","","","survey-template","7","508598","0.0-4.0-3.0","223","1","2025-08-07 03:35:59","36c45c0696341be0efffe67d72a12abb","41.13.198.111","Mozilla/5.0 (Windows NT 10.0; Win64; x64) AppleWebKit/537.36 (KHTML, like Gecko) Chrome/138.0.0.0 Safari/537.36","WebKit","Chrome","138.0.0.0","Windows","10.0","https://app.prolific.com/","en-GB,en-US;q=0.9,en;q=0.8","67acf1d438e2c92a40f88a9e","687a1a965b9f5b85a264363e","68941f119f39316ce1e850c1","1","67acf1d438e2c92a40f88a9e","1","2025-08-07T03:44:30.514Z","","","","drsp","{""Q01"":""0"",""Q02"":""0"",""Q03"":""0"",""Q04"":""0"",""Q05"":""0"",""Q06"":""0"",""Q07"":""0"",""Q08"":""0"",""Q09"":""1"",""Q10"":""0"",""Q11"":""0"",""Q12"":""1"",""Q13"":""5"",""Q14"":""2"",""Q15"":""0"",""Q16"":""0"",""Q17"":""0"",""Q18"":""0"",""Q19"":""0"",""Q20"":""0"",""Q21"":""0"",""Q22"":""0""}","[0,1,2,3,4,5,6,7,8,9,10,11,12,13,14,15,16,17,18,19,20,21]","[""Q01"",""Q02"",""Q03"",""Q04"",""Q05"",""Q06"",""Q07"",""Q08"",""Q09"",""Q10"",""Q11"",""Q12"",""Q13"",""Q14"",""Q15"",""Q16"",""Q17"",""Q18"",""Q19"",""Q20"",""Q21"",""Q22""]","[3893.400000035763,4958.600000023842,11078.900000035763,12200.100000023842,13634.400000035763,14880.400000035763,18706,21383.5,24152,26467.600000023842,28534.5,33564.60000002384,35523.10000002384,39659.69999998808,44199.10000002384,47481.30000001192,49865.19999998808,51119.40000003576,54424.19999998808,59334.90000003576,68328.69999998808,70986.90000003576]","[]","[0,3893.400000035763,4958.600000023842,6264.100000023842,7750.199999988079,11078.900000035763,12200.100000023842,13634.400000035763,14880.400000035763,16510.100000023842,17135.19999998808,17351.80000001192,18706,20271.100000023842,21383.5,24152,26467.600000023842,28534.5,33564.60000002384,35523.10000002384,39659.69999998808,44199.10000002384,47481.30000001192,48726.90000003576,49865.19999998808,51119.40000003576,54424.19999998808,58058.90000003576,59334.90000003576,65162.19999998808,67526.5,68328.69999998808,70986.90000003576,74015.30000001192]","0.8181818181818182","0.14285714285714285","0","","","","","","","","","","","","","","","","","","","","","","","","","","","","",""
"16463.700000047684","","","","survey-template","8","525065","0.0-4.0-4.0","223","1","2025-08-07 03:35:59","36c45c0696341be0efffe67d72a12abb","41.13.198.111","Mozilla/5.0 (Windows NT 10.0; Win64; x64) AppleWebKit/537.36 (KHTML, like Gecko) Chrome/138.0.0.0 Safari/537.36","WebKit","Chrome","138.0.0.0","Windows","10.0","https://app.prolific.com/","en-GB,en-US;q=0.9,en;q=0.8","67acf1d438e2c92a40f88a9e","687a1a965b9f5b85a264363e","68941f119f39316ce1e850c1","1","67acf1d438e2c92a40f88a9e","1","2025-08-07T03:44:46.982Z","","","","stress","{""Q01"":""0"",""Q02"":""3"",""Q03"":""0""}","[0,1,2]","[""Q01"",""Q02"",""Q03""]","[5958.700000047684,11221.5,14539.900000035763]","[]","[5958.700000047684,11221.5,14539.900000035763,16461.400000035763]","0.6666666666666666","0","0","","","","","","","","","","","","","","","","","","","","","","","","","","","","",""
"59441","","","","instructions","9","584508","0.0-5.0-0.0","223","1","2025-08-07 03:35:59","36c45c0696341be0efffe67d72a12abb","41.13.198.111","Mozilla/5.0 (Windows NT 10.0; Win64; x64) AppleWebKit/537.36 (KHTML, like Gecko) Chrome/138.0.0.0 Safari/537.36","WebKit","Chrome","138.0.0.0","Windows","10.0","https://app.prolific.com/","en-GB,en-US;q=0.9,en;q=0.8","67acf1d438e2c92a40f88a9e","687a1a965b9f5b85a264363e","68941f119f39316ce1e850c1","1","67acf1d438e2c92a40f88a9e","1","","","","","","","","","","","","","","","[{""page_index"":0,""viewing_time"":59440}]","","","","","","","","","","","","","","","","","","","","","","","","","","","",""
"14331","","<p>Before you start with this game please answer the following three questions yourself. </p>
  <p>Through this game, we measure several aspects of your cognitive performance, such as reaction times, multi-tasking capabilities </p>
  <p>and the ability to assess the situation you are in.</p>
  <p></p>
  <p><b>How good do you usually are in such tasks?</b></p>","100","html-slider-response","10","598847","0.0-6.0-0.0","223","1","2025-08-07 03:35:59","36c45c0696341be0efffe67d72a12abb","41.13.198.111","Mozilla/5.0 (Windows NT 10.0; Win64; x64) AppleWebKit/537.36 (KHTML, like Gecko) Chrome/138.0.0.0 Safari/537.36","WebKit","Chrome","138.0.0.0","Windows","10.0","https://app.prolific.com/","en-GB,en-US;q=0.9,en;q=0.8","67acf1d438e2c92a40f88a9e","687a1a965b9f5b85a264363e","68941f119f39316ce1e850c1","1","67acf1d438e2c92a40f88a9e","1","2025-08-07T03:46:00.763Z","","","","PreSkillQ","","","","","","","","","","","50","","","","","","","","","","","","","","","","","","","","","","","","","","",""
"5664","","<div style=""width:500px;"">
  <p>How well do you think you will perform in this task compared to other participants?</p>
  </div>","100","html-slider-response","11","604513","0.0-6.0-1.0","223","1","2025-08-07 03:35:59","36c45c0696341be0efffe67d72a12abb","41.13.198.111","Mozilla/5.0 (Windows NT 10.0; Win64; x64) AppleWebKit/537.36 (KHTML, like Gecko) Chrome/138.0.0.0 Safari/537.36","WebKit","Chrome","138.0.0.0","Windows","10.0","https://app.prolific.com/","en-GB,en-US;q=0.9,en;q=0.8","67acf1d438e2c92a40f88a9e","687a1a965b9f5b85a264363e","68941f119f39316ce1e850c1","1","67acf1d438e2c92a40f88a9e","1","2025-08-07T03:46:06.430Z","","","","PrePerfQ","","","","","","","","","","","50","","","","","","","","","","","","","","","","","","","","","","","","","","",""
"4468","","<div style=""width:500px;"">
  <p>What best describes how you currently feel?</p>
  </div>","100","html-slider-response","12","608984","0.0-6.0-2.0","223","1","2025-08-07 03:35:59","36c45c0696341be0efffe67d72a12abb","41.13.198.111","Mozilla/5.0 (Windows NT 10.0; Win64; x64) AppleWebKit/537.36 (KHTML, like Gecko) Chrome/138.0.0.0 Safari/537.36","WebKit","Chrome","138.0.0.0","Windows","10.0","https://app.prolific.com/","en-GB,en-US;q=0.9,en;q=0.8","67acf1d438e2c92a40f88a9e","687a1a965b9f5b85a264363e","68941f119f39316ce1e850c1","1","67acf1d438e2c92a40f88a9e","1","2025-08-07T03:46:10.900Z","","","","PreMotivationQ","","","","","","","","","","","50","","","","","","","","","","","","","","","","","","","","","","","","","","",""
"","","","","ctl-task-cpt","13","644474","0.0-7.0-0.0","223","1","2025-08-07 03:35:59","36c45c0696341be0efffe67d72a12abb","41.13.198.111","Mozilla/5.0 (Windows NT 10.0; Win64; x64) AppleWebKit/537.36 (KHTML, like Gecko) Chrome/138.0.0.0 Safari/537.36","WebKit","Chrome","138.0.0.0","Windows","10.0","https://app.prolific.com/","en-GB,en-US;q=0.9,en;q=0.8","67acf1d438e2c92a40f88a9e","687a1a965b9f5b85a264363e","68941f119f39316ce1e850c1","1","67acf1d438e2c92a40f88a9e","1","2025-08-07T03:46:46.391Z","","","","","","","","","","","","","","","","win-only","1","g1:NE,g2:SW","1","1","0","612446.7","7934.5","12937.7","32473.3","1","4","8","6","2","8","8","8","0","0.06060606060606061","5003.1","3000","955","[""down"",""left""]","{""num_key_presses"":6,""num_perfect"":6,""num_errors"":0,""num_randdir"":0,""num_randdir_good_moves"":0,""num_whilered"":0,""num_whileblue"":0,""num_blue"":1,""num_good_moves"":6}","[464.1071428571429,464.1071428571429,1.6,464.1071428571429,464.1071428571429,112.2,464.1071428571429,464.1071428571429,213.2,464.1071428571429,464.1071428571429,320.9,464.1071428571429,464.1071428571429,428.4,464.1071428571429,464.1071428571429,544,464.1071428571429,464.1071428571429,648.2,464.1071428571429,464.1071428571429,751.7,464.1071428571429,464.1071428571429,859,464.1071428571429,464.1071428571429,961,464.1071428571429,464.1071428571429,1061,464.1071428571429,464.1071428571429,1167,464.1071428571429,464.1071428571429,1277.5,464.1071428571429,464.1071428571429,1381.2,464.1071428571429,464.1071428571429,1494.6,464.1071428571429,464.1071428571429,1596.7,464.1071428571429,464.1071428571429,1697.8,464.1071428571429,464.1071428571429,1806.3,464.1071428571429,464.1071428571429,1913.3,464.1071428571429,464.1071428571429,2013.8,464.1071428571429,464.1071428571429,2117.4,464.1071428571429,464.1071428571429,2226.1,464.1071428571429,464.1071428571429,2328.7,464.1071428571429,464.1071428571429,2429.5,464.1071428571429,464.1071428571429,2530.2,464.1071428571429,464.1071428571429,2630.4,464.1071428571429,464.1071428571429,2731.1,464.1071428571429,464.1071428571429,2831.6,464.1071428571429,464.1071428571429,2932.3,464.1071428571429,464.1071428571429,3038.8,464.1071428571429,464.1071428571429,3144.2,464.1071428571429,464.1071428571429,3249.4,464.1071428571429,464.1071428571429,3353.7,464.1071428571429,464.1071428571429,3456.5,464.1071428571429,464.1071428571429,3563.5,464.1071428571429,464.1071428571429,3671.9,464.1071428571429,464.1071428571429,3772.4,464.1071428571429,464.1071428571429,3872.7,464.1071428571429,464.1071428571429,3979.7,464.1071428571429,464.1071428571429,4082.9,464.1071428571429,464.1071428571429,4187.5,464.1071428571429,464.1071428571429,4296.7,464.1071428571429,464.1071428571429,4396.8,464.1071428571429,464.1071428571429,4496.8,464.1071428571429,464.1071428571429,4604.2,464.1071428571429,464.1071428571429,4708.2,464.1071428571429,464.1071428571429,4809.1,464.1071428571429,464.1071428571429,4913.3]","[1591.9,1591.9,1000,0,591.9,""smooth"",""down"",""down"",""good_move"",7333.2,5740,1843.4,5060,429.8,""smooth"",""down"",""down"",""good_move"",10436.4,3102.7,2486.8,7333.7,615.9,""smooth"",""down"",""down"",""good_move"",13371,2934.3,2477.1,10436.7,457.2,""smooth"",""left"",""left"",""good_move"",16500.9,3129.3,2630.7,13371.8,498.5,""smooth"",""left"",""left"",""good_move"",19379.4,2877.8,2315.5,16501.6,562.4,""smooth"",""left"",""left"",""good_move""]"
"6520","","<div style=""width:500px;"">
  <p>What determined the result of this run?</p>
  </div>","100","html-slider-response","14","650997","0.0-7.0-1.0","223","1","2025-08-07 03:35:59","36c45c0696341be0efffe67d72a12abb","41.13.198.111","Mozilla/5.0 (Windows NT 10.0; Win64; x64) AppleWebKit/537.36 (KHTML, like Gecko) Chrome/138.0.0.0 Safari/537.36","WebKit","Chrome","138.0.0.0","Windows","10.0","https://app.prolific.com/","en-GB,en-US;q=0.9,en;q=0.8","67acf1d438e2c92a40f88a9e","687a1a965b9f5b85a264363e","68941f119f39316ce1e850c1","1","67acf1d438e2c92a40f88a9e","1","2025-08-07T03:46:52.913Z","","","","AttribQ","","","","","","","","","","","50","","","","","","","","","","","","","","","","","","","","","","","","","","",""
"6316","","<div style=""width:500px;"">
  <p>How much control did you have over the ball?</p>
  </div>","100","html-slider-response","15","657315","0.0-7.0-2.0","223","1","2025-08-07 03:35:59","36c45c0696341be0efffe67d72a12abb","41.13.198.111","Mozilla/5.0 (Windows NT 10.0; Win64; x64) AppleWebKit/537.36 (KHTML, like Gecko) Chrome/138.0.0.0 Safari/537.36","WebKit","Chrome","138.0.0.0","Windows","10.0","https://app.prolific.com/","en-GB,en-US;q=0.9,en;q=0.8","67acf1d438e2c92a40f88a9e","687a1a965b9f5b85a264363e","68941f119f39316ce1e850c1","1","67acf1d438e2c92a40f88a9e","1","2025-08-07T03:46:59.231Z","","","","ControlQ","","","","","","","","","","","50","","","","","","","","","","","","","","","","","","","","","","","","","","",""
"5986","","<div style=""width:500px;"">
  <p>How would you describe your current emotional state?</p>
  </div>","0","html-slider-response","16","663304","0.0-7.0-3.0","223","1","2025-08-07 03:35:59","36c45c0696341be0efffe67d72a12abb","41.13.198.111","Mozilla/5.0 (Windows NT 10.0; Win64; x64) AppleWebKit/537.36 (KHTML, like Gecko) Chrome/138.0.0.0 Safari/537.36","WebKit","Chrome","138.0.0.0","Windows","10.0","https://app.prolific.com/","en-GB,en-US;q=0.9,en;q=0.8","67acf1d438e2c92a40f88a9e","687a1a965b9f5b85a264363e","68941f119f39316ce1e850c1","1","67acf1d438e2c92a40f88a9e","1","2025-08-07T03:47:05.220Z","","","","StressQ","","","","","","","","","","","50","","","","","","","","","","","","","","","","","","","","","","","","","","",""
"5406","","<div style=""width:500px;"">
  <p>What best describes how you currently feel?</p>
  </div>","100","html-slider-response","17","668711","0.0-7.0-4.0","223","1","2025-08-07 03:35:59","36c45c0696341be0efffe67d72a12abb","41.13.198.111","Mozilla/5.0 (Windows NT 10.0; Win64; x64) AppleWebKit/537.36 (KHTML, like Gecko) Chrome/138.0.0.0 Safari/537.36","WebKit","Chrome","138.0.0.0","Windows","10.0","https://app.prolific.com/","en-GB,en-US;q=0.9,en;q=0.8","67acf1d438e2c92a40f88a9e","687a1a965b9f5b85a264363e","68941f119f39316ce1e850c1","1","67acf1d438e2c92a40f88a9e","1","2025-08-07T03:47:10.628Z","","","","MotivationQ","","","","","","","","","","","50","","","","","","","","","","","","","","","","","","","","","","","","","","",""
"","","","","ctl-task-cpt","18","717177","0.0-7.0-0.1","223","1","2025-08-07 03:35:59","36c45c0696341be0efffe67d72a12abb","41.13.198.111","Mozilla/5.0 (Windows NT 10.0; Win64; x64) AppleWebKit/537.36 (KHTML, like Gecko) Chrome/138.0.0.0 Safari/537.36","WebKit","Chrome","138.0.0.0","Windows","10.0","https://app.prolific.com/","en-GB,en-US;q=0.9,en;q=0.8","67acf1d438e2c92a40f88a9e","687a1a965b9f5b85a264363e","68941f119f39316ce1e850c1","1","67acf1d438e2c92a40f88a9e","1","2025-08-07T03:47:59.093Z","","","","","","","","","","","","","","","","win-only","2","g1:SE,g2:NW","0.9","2","0","672165.1","3120.8","8125","45438.6","1","4","4","6","2","4","3","11","8","0.08333333333333333","5004.2","3000","785","[""left"",""up""]","{""num_key_presses"":8,""num_perfect"":6,""num_errors"":1,""num_randdir"":1,""num_randdir_good_moves"":0,""num_whilered"":0,""num_whileblue"":1,""num_blue"":5,""num_good_moves"":7}","[472.8571428571429,460.3571428571429,0.5,472.8571428571429,460.3571428571429,116,472.8571428571429,460.3571428571429,216.5,472.8571428571429,460.3571428571429,318,472.8571428571429,460.3571428571429,428.3,472.8571428571429,460.3571428571429,528.9,472.8571428571429,460.3571428571429,630.2,472.8571428571429,460.3571428571429,731.5,472.8571428571429,460.3571428571429,834.7,472.8571428571429,460.3571428571429,940.1,472.8571428571429,460.3571428571429,1042,472.8571428571429,460.3571428571429,1152.1,472.8571428571429,460.3571428571429,1257.7,472.8571428571429,460.3571428571429,1365.2,472.8571428571429,460.3571428571429,1465.5,472.8571428571429,460.3571428571429,1566.7,472.8571428571429,460.3571428571429,1677.4,472.8571428571429,460.3571428571429,1781.1,472.8571428571429,460.3571428571429,1882,472.8571428571429,460.3571428571429,1982.7,472.8571428571429,460.3571428571429,2091.9,472.8571428571429,460.3571428571429,2196.4,472.8571428571429,460.3571428571429,2299.4,472.8571428571429,460.3571428571429,2408.5,472.8571428571429,460.3571428571429,2515.1,472.8571428571429,460.3571428571429,2615.1,472.8571428571429,460.3571428571429,2720.4,472.8571428571429,460.3571428571429,2828.2,472.8571428571429,460.3571428571429,2935.5,472.8571428571429,460.3571428571429,3039.8,472.8571428571429,460.3571428571429,3140.5,472.8571428571429,460.3571428571429,3244,472.8571428571429,460.3571428571429,3347.3,472.8571428571429,460.3571428571429,3457.4,472.8571428571429,460.3571428571429,3563.3,472.8571428571429,460.3571428571429,3665.3,472.8571428571429,460.3571428571429,3766.4,472.8571428571429,460.3571428571429,3878.8,472.8571428571429,460.3571428571429,3979.2,472.8571428571429,460.3571428571429,4081.4,472.8571428571429,460.3571428571429,4187.3,472.8571428571429,460.3571428571429,4293.9,472.8571428571429,460.3571428571429,4403.9,472.8571428571429,460.3571428571429,4507.6,472.8571428571429,460.3571428571429,4611.6,472.8571428571429,460.3571428571429,4712,472.8571428571429,460.3571428571429,4814.8,472.8571428571429,460.3571428571429,4922.9]","[1497.7,1497.7,1000,0,497.7,""smooth"",""up"",""up"",""good_move"",4814.5,3315.8,2907.8,1498.7,408,""smooth"",""up"",""up"",""good_move"",7962.5,3147.4,2765,4815.2,382.4,""smooth"",""up"",""up"",""good_move"",10374.8,2411.1,2067.4,7963.8,343.6,""oops"",""left"",""right"",""bad_move"",13211.3,2835.7,2468.3,10375.6,367.4,""while_blue"",""left"",""left"",""good_move"",30757.5,17544.9,1463.5,28822.9,471.1,""smooth"",""left"",""left"",""good_move"",33926.7,3167.8,2678.6,30759.3,488.9,""smooth"",""left"",""left"",""good_move"",37191.2,3263.5,2778.1,33927.7,485.4,""smooth"",""left"",""left"",""good_move""]"
"5519","","<div style=""width:500px;"">
  <p>What determined the result of this run?</p>
  </div>","84","html-slider-response","19","722697","0.0-7.0-1.1","223","1","2025-08-07 03:35:59","36c45c0696341be0efffe67d72a12abb","41.13.198.111","Mozilla/5.0 (Windows NT 10.0; Win64; x64) AppleWebKit/537.36 (KHTML, like Gecko) Chrome/138.0.0.0 Safari/537.36","WebKit","Chrome","138.0.0.0","Windows","10.0","https://app.prolific.com/","en-GB,en-US;q=0.9,en;q=0.8","67acf1d438e2c92a40f88a9e","687a1a965b9f5b85a264363e","68941f119f39316ce1e850c1","1","67acf1d438e2c92a40f88a9e","1","2025-08-07T03:48:04.614Z","","","","AttribQ","","","","","","","","","","","50","","","","","","","","","","","","","","","","","","","","","","","","","","",""
"4547","","<div style=""width:500px;"">
  <p>How much control did you have over the ball?</p>
  </div>","74","html-slider-response","20","727247","0.0-7.0-2.1","223","1","2025-08-07 03:35:59","36c45c0696341be0efffe67d72a12abb","41.13.198.111","Mozilla/5.0 (Windows NT 10.0; Win64; x64) AppleWebKit/537.36 (KHTML, like Gecko) Chrome/138.0.0.0 Safari/537.36","WebKit","Chrome","138.0.0.0","Windows","10.0","https://app.prolific.com/","en-GB,en-US;q=0.9,en;q=0.8","67acf1d438e2c92a40f88a9e","687a1a965b9f5b85a264363e","68941f119f39316ce1e850c1","1","67acf1d438e2c92a40f88a9e","1","2025-08-07T03:48:09.163Z","","","","ControlQ","","","","","","","","","","","50","","","","","","","","","","","","","","","","","","","","","","","","","","",""
"6843","","<div style=""width:500px;"">
  <p>How would you describe your current emotional state?</p>
  </div>","0","html-slider-response","21","734094","0.0-7.0-3.1","223","1","2025-08-07 03:35:59","36c45c0696341be0efffe67d72a12abb","41.13.198.111","Mozilla/5.0 (Windows NT 10.0; Win64; x64) AppleWebKit/537.36 (KHTML, like Gecko) Chrome/138.0.0.0 Safari/537.36","WebKit","Chrome","138.0.0.0","Windows","10.0","https://app.prolific.com/","en-GB,en-US;q=0.9,en;q=0.8","67acf1d438e2c92a40f88a9e","687a1a965b9f5b85a264363e","68941f119f39316ce1e850c1","1","67acf1d438e2c92a40f88a9e","1","2025-08-07T03:48:16.010Z","","","","StressQ","","","","","","","","","","","50","","","","","","","","","","","","","","","","","","","","","","","","","","",""
"7217","","<div style=""width:500px;"">
  <p>What best describes how you currently feel?</p>
  </div>","99","html-slider-response","22","741314","0.0-7.0-4.1","223","1","2025-08-07 03:35:59","36c45c0696341be0efffe67d72a12abb","41.13.198.111","Mozilla/5.0 (Windows NT 10.0; Win64; x64) AppleWebKit/537.36 (KHTML, like Gecko) Chrome/138.0.0.0 Safari/537.36","WebKit","Chrome","138.0.0.0","Windows","10.0","https://app.prolific.com/","en-GB,en-US;q=0.9,en;q=0.8","67acf1d438e2c92a40f88a9e","687a1a965b9f5b85a264363e","68941f119f39316ce1e850c1","1","67acf1d438e2c92a40f88a9e","1","2025-08-07T03:48:23.231Z","","","","MotivationQ","","","","","","","","","","","50","","","","","","","","","","","","","","","","","","","","","","","","","","",""
"","","","","ctl-task-cpt","23","773384","0.0-7.0-0.2","223","1","2025-08-07 03:35:59","36c45c0696341be0efffe67d72a12abb","41.13.198.111","Mozilla/5.0 (Windows NT 10.0; Win64; x64) AppleWebKit/537.36 (KHTML, like Gecko) Chrome/138.0.0.0 Safari/537.36","WebKit","Chrome","138.0.0.0","Windows","10.0","https://app.prolific.com/","en-GB,en-US;q=0.9,en;q=0.8","67acf1d438e2c92a40f88a9e","687a1a965b9f5b85a264363e","68941f119f39316ce1e850c1","1","67acf1d438e2c92a40f88a9e","1","2025-08-07T03:48:55.300Z","","","","","","","","","","","","","","","","win-only","1","g1:NE,g2:SW","0.8","3","0","744769","3830.5","8833.6","29063.4","1","4","4","6","2","4","4","15","11","0.11363636363636363","5003.1","3000","905","[""down"",""left""]","{""num_key_presses"":6,""num_perfect"":5,""num_errors"":0,""num_randdir"":1,""num_randdir_good_moves"":1,""num_whilered"":0,""num_whileblue"":0,""num_blue"":1,""num_good_moves"":6}","[464.1071428571429,457.8571428571429,2.1,464.1071428571429,457.8571428571429,106.5,464.1071428571429,457.8571428571429,210.1,464.1071428571429,457.8571428571429,311.3,464.1071428571429,457.8571428571429,412,464.1071428571429,457.8571428571429,512.3,464.1071428571429,457.8571428571429,620,464.1071428571429,457.8571428571429,732.1,464.1071428571429,457.8571428571429,835.9,464.1071428571429,457.8571428571429,942.2,464.1071428571429,457.8571428571429,1054.2,464.1071428571429,457.8571428571429,1161.7,464.1071428571429,457.8571428571429,1266.2,464.1071428571429,457.8571428571429,1368.6,464.1071428571429,457.8571428571429,1477.4,464.1071428571429,457.8571428571429,1580.3,464.1071428571429,457.8571428571429,1680.8,464.1071428571429,457.8571428571429,1781.5,464.1071428571429,457.8571428571429,1882.6,464.1071428571429,457.8571428571429,1984.3,464.1071428571429,457.8571428571429,2085.7,464.1071428571429,457.8571428571429,2186.8,464.1071428571429,457.8571428571429,2290.9,464.1071428571429,457.8571428571429,2399.5,464.1071428571429,457.8571428571429,2507.1,464.1071428571429,457.8571428571429,2608.4,464.1071428571429,457.8571428571429,2708.4,464.1071428571429,457.8571428571429,2811.1,464.1071428571429,457.8571428571429,2911.3,464.1071428571429,457.8571428571429,3023.4,464.1071428571429,457.8571428571429,3125.1,464.1071428571429,457.8571428571429,3225.3,464.1071428571429,457.8571428571429,3325.5,464.1071428571429,457.8571428571429,3437.7,464.1071428571429,457.8571428571429,3546.3,464.1071428571429,457.8571428571429,3656.2,464.1071428571429,457.8571428571429,3761.4,464.1071428571429,457.8571428571429,3861.8,464.1071428571429,457.8571428571429,3961.9,464.1071428571429,457.8571428571429,4066.3,464.1071428571429,457.8571428571429,4166.3,464.1071428571429,457.8571428571429,4276.9,464.1071428571429,457.8571428571429,4377.7,464.1071428571429,457.8571428571429,4477.9,464.1071428571429,457.8571428571429,4582.5,464.1071428571429,457.8571428571429,4685.8,464.1071428571429,457.8571428571429,4786.9,464.1071428571429,457.8571428571429,4894.3]","[1557.2,1557.2,1000,0,557.2,""smooth"",""down"",""down"",""good_move"",5362.1,3802.9,3255.7,1559.3,547.2,""smooth"",""down"",""down"",""good_move"",12201.8,6838.2,2075.9,9662.6,463.3,""smooth"",""down"",""down"",""good_move"",14740.7,2538.4,2033.3,12202.3,505.1,""smooth"",""left"",""left"",""good_move"",17220.4,2478.2,1952.2,14742.2,526,""smooth"",""left"",""left"",""good_move"",20098.5,2877.3,2423.5,17221.2,453.8,""oops"",""left"",""left"",""good_move""]"
"22069","","<div style=""width:500px;"">
  <p>What determined the result of this run?</p>
  </div>","100","html-slider-response","24","795455","0.0-7.0-1.2","223","1","2025-08-07 03:35:59","36c45c0696341be0efffe67d72a12abb","41.13.198.111","Mozilla/5.0 (Windows NT 10.0; Win64; x64) AppleWebKit/537.36 (KHTML, like Gecko) Chrome/138.0.0.0 Safari/537.36","WebKit","Chrome","138.0.0.0","Windows","10.0","https://app.prolific.com/","en-GB,en-US;q=0.9,en;q=0.8","67acf1d438e2c92a40f88a9e","687a1a965b9f5b85a264363e","68941f119f39316ce1e850c1","1","67acf1d438e2c92a40f88a9e","1","2025-08-07T03:49:17.371Z","","","","AttribQ","","","","","","","","","","","50","","","","","","","","","","","","","","","","","","","","","","","","","","",""
"4501","","<div style=""width:500px;"">
  <p>How much control did you have over the ball?</p>
  </div>","100","html-slider-response","25","799958","0.0-7.0-2.2","223","1","2025-08-07 03:35:59","36c45c0696341be0efffe67d72a12abb","41.13.198.111","Mozilla/5.0 (Windows NT 10.0; Win64; x64) AppleWebKit/537.36 (KHTML, like Gecko) Chrome/138.0.0.0 Safari/537.36","WebKit","Chrome","138.0.0.0","Windows","10.0","https://app.prolific.com/","en-GB,en-US;q=0.9,en;q=0.8","67acf1d438e2c92a40f88a9e","687a1a965b9f5b85a264363e","68941f119f39316ce1e850c1","1","67acf1d438e2c92a40f88a9e","1","2025-08-07T03:49:21.874Z","","","","ControlQ","","","","","","","","","","","50","","","","","","","","","","","","","","","","","","","","","","","","","","",""
"5045","","<div style=""width:500px;"">
  <p>How would you describe your current emotional state?</p>
  </div>","0","html-slider-response","26","805005","0.0-7.0-3.2","223","1","2025-08-07 03:35:59","36c45c0696341be0efffe67d72a12abb","41.13.198.111","Mozilla/5.0 (Windows NT 10.0; Win64; x64) AppleWebKit/537.36 (KHTML, like Gecko) Chrome/138.0.0.0 Safari/537.36","WebKit","Chrome","138.0.0.0","Windows","10.0","https://app.prolific.com/","en-GB,en-US;q=0.9,en;q=0.8","67acf1d438e2c92a40f88a9e","687a1a965b9f5b85a264363e","68941f119f39316ce1e850c1","1","67acf1d438e2c92a40f88a9e","1","2025-08-07T03:49:26.921Z","","","","StressQ","","","","","","","","","","","50","","","","","","","","","","","","","","","","","","","","","","","","","","",""
"4341","","<div style=""width:500px;"">
  <p>What best describes how you currently feel?</p>
  </div>","100","html-slider-response","27","809354","0.0-7.0-4.2","223","1","2025-08-07 03:35:59","36c45c0696341be0efffe67d72a12abb","41.13.198.111","Mozilla/5.0 (Windows NT 10.0; Win64; x64) AppleWebKit/537.36 (KHTML, like Gecko) Chrome/138.0.0.0 Safari/537.36","WebKit","Chrome","138.0.0.0","Windows","10.0","https://app.prolific.com/","en-GB,en-US;q=0.9,en;q=0.8","67acf1d438e2c92a40f88a9e","687a1a965b9f5b85a264363e","68941f119f39316ce1e850c1","1","67acf1d438e2c92a40f88a9e","1","2025-08-07T03:49:31.270Z","","","","MotivationQ","","","","","","","","","","","50","","","","","","","","","","","","","","","","","","","","","","","","","","",""
"","","","","ctl-task-cpt","28","849307","0.0-7.0-0.3","223","1","2025-08-07 03:35:59","36c45c0696341be0efffe67d72a12abb","41.13.198.111","Mozilla/5.0 (Windows NT 10.0; Win64; x64) AppleWebKit/537.36 (KHTML, like Gecko) Chrome/138.0.0.0 Safari/537.36","WebKit","Chrome","138.0.0.0","Windows","10.0","https://app.prolific.com/","en-GB,en-US;q=0.9,en;q=0.8","67acf1d438e2c92a40f88a9e","687a1a965b9f5b85a264363e","68941f119f39316ce1e850c1","1","67acf1d438e2c92a40f88a9e","1","2025-08-07T03:50:11.223Z","","","","","","","","","","","","","","","","win-only","3","g1:SW,g2:NE","0.7","4","0","812809.2","2012.9","7020.8","36931.8","1","4","8","6","2","8","8","23","15","0.17424242424242425","5007.9","3000","890","[""up"",""right""]","{""num_key_presses"":8,""num_perfect"":5,""num_errors"":0,""num_randdir"":3,""num_randdir_good_moves"":2,""num_whilered"":0,""num_whileblue"":0,""num_blue"":2,""num_good_moves"":7}","[456.6071428571429,461.6071428571429,0.7,456.6071428571429,461.6071428571429,103.2,456.6071428571429,461.6071428571429,204.2,456.6071428571429,461.6071428571429,306.6,456.6071428571429,461.6071428571429,418.7,456.6071428571429,461.6071428571429,525.2,456.6071428571429,461.6071428571429,625.8,456.6071428571429,461.6071428571429,733.4,456.6071428571429,461.6071428571429,834.7,456.6071428571429,461.6071428571429,936.9,456.6071428571429,461.6071428571429,1040.9,456.6071428571429,461.6071428571429,1144.3,456.6071428571429,461.6071428571429,1261.9,456.6071428571429,461.6071428571429,1365.1,456.6071428571429,461.6071428571429,1474.2,456.6071428571429,461.6071428571429,1575.6,456.6071428571429,461.6071428571429,1689.6,456.6071428571429,461.6071428571429,1799.6,456.6071428571429,461.6071428571429,1910.4,456.6071428571429,461.6071428571429,2013.5,456.6071428571429,461.6071428571429,2124.9,456.6071428571429,461.6071428571429,2227.5,456.6071428571429,461.6071428571429,2335.8,456.6071428571429,461.6071428571429,2438,456.6071428571429,461.6071428571429,2541,456.6071428571429,461.6071428571429,2641.7,456.6071428571429,461.6071428571429,2742.6,456.6071428571429,461.6071428571429,2852.7,456.6071428571429,461.6071428571429,2956.9,456.6071428571429,461.6071428571429,3060.1,456.6071428571429,461.6071428571429,3160.7,456.6071428571429,461.6071428571429,3262.2,456.6071428571429,461.6071428571429,3364.9,456.6071428571429,461.6071428571429,3470.3,456.6071428571429,461.6071428571429,3574.7,456.6071428571429,461.6071428571429,3676,456.6071428571429,461.6071428571429,3782.5,456.6071428571429,461.6071428571429,3889.8,456.6071428571429,461.6071428571429,3994.6,456.6071428571429,461.6071428571429,4105.3,456.6071428571429,461.6071428571429,4206.5,456.6071428571429,461.6071428571429,4309.5,456.6071428571429,461.6071428571429,4413.3,456.6071428571429,461.6071428571429,4517.3,456.6071428571429,461.6071428571429,4618.9,456.6071428571429,461.6071428571429,4723,456.6071428571429,461.6071428571429,4825.5,456.6071428571429,461.6071428571429,4939.7]","[1492.2,1492.2,1000,0,492.2,""smooth"",""up"",""up"",""good_move"",4603.6,3110.4,2669.2,1493.4,441.1,""oops"",""up"",""left"",""bad_move"",7941.1,3336.3,2950.6,4604.8,385.7,""smooth"",""up"",""up"",""good_move"",11303.1,3361.3,2953.8,7941.8,407.5,""smooth"",""up"",""up"",""good_move"",13753.9,2449.7,2062.9,11304.2,386.8,""smooth"",""right"",""right"",""good_move"",20037.4,6282.6,2800,16755.4,482,""smooth"",""right"",""right"",""good_move"",22951.2,2912.6,2419.1,20038.6,493.5,""oops"",""right"",""right"",""good_move"",29643.4,6691.3,2372.6,26798.1,472.7,""oops"",""right"",""right"",""good_move""]"
"7908","","<div style=""width:500px;"">
  <p>What determined the result of this run?</p>
  </div>","100","html-slider-response","29","857221","0.0-7.0-1.3","223","1","2025-08-07 03:35:59","36c45c0696341be0efffe67d72a12abb","41.13.198.111","Mozilla/5.0 (Windows NT 10.0; Win64; x64) AppleWebKit/537.36 (KHTML, like Gecko) Chrome/138.0.0.0 Safari/537.36","WebKit","Chrome","138.0.0.0","Windows","10.0","https://app.prolific.com/","en-GB,en-US;q=0.9,en;q=0.8","67acf1d438e2c92a40f88a9e","687a1a965b9f5b85a264363e","68941f119f39316ce1e850c1","1","67acf1d438e2c92a40f88a9e","1","2025-08-07T03:50:19.137Z","","","","AttribQ","","","","","","","","","","","50","","","","","","","","","","","","","","","","","","","","","","","","","","",""
"4571","","<div style=""width:500px;"">
  <p>How much control did you have over the ball?</p>
  </div>","100","html-slider-response","30","861794","0.0-7.0-2.3","223","1","2025-08-07 03:35:59","36c45c0696341be0efffe67d72a12abb","41.13.198.111","Mozilla/5.0 (Windows NT 10.0; Win64; x64) AppleWebKit/537.36 (KHTML, like Gecko) Chrome/138.0.0.0 Safari/537.36","WebKit","Chrome","138.0.0.0","Windows","10.0","https://app.prolific.com/","en-GB,en-US;q=0.9,en;q=0.8","67acf1d438e2c92a40f88a9e","687a1a965b9f5b85a264363e","68941f119f39316ce1e850c1","1","67acf1d438e2c92a40f88a9e","1","2025-08-07T03:50:23.711Z","","","","ControlQ","","","","","","","","","","","50","","","","","","","","","","","","","","","","","","","","","","","","","","",""
"6284","","<div style=""width:500px;"">
  <p>How would you describe your current emotional state?</p>
  </div>","0","html-slider-response","31","868081","0.0-7.0-3.3","223","1","2025-08-07 03:35:59","36c45c0696341be0efffe67d72a12abb","41.13.198.111","Mozilla/5.0 (Windows NT 10.0; Win64; x64) AppleWebKit/537.36 (KHTML, like Gecko) Chrome/138.0.0.0 Safari/537.36","WebKit","Chrome","138.0.0.0","Windows","10.0","https://app.prolific.com/","en-GB,en-US;q=0.9,en;q=0.8","67acf1d438e2c92a40f88a9e","687a1a965b9f5b85a264363e","68941f119f39316ce1e850c1","1","67acf1d438e2c92a40f88a9e","1","2025-08-07T03:50:29.997Z","","","","StressQ","","","","","","","","","","","50","","","","","","","","","","","","","","","","","","","","","","","","","","",""
"6984","","<div style=""width:500px;"">
  <p>What best describes how you currently feel?</p>
  </div>","100","html-slider-response","32","875067","0.0-7.0-4.3","223","1","2025-08-07 03:35:59","36c45c0696341be0efffe67d72a12abb","41.13.198.111","Mozilla/5.0 (Windows NT 10.0; Win64; x64) AppleWebKit/537.36 (KHTML, like Gecko) Chrome/138.0.0.0 Safari/537.36","WebKit","Chrome","138.0.0.0","Windows","10.0","https://app.prolific.com/","en-GB,en-US;q=0.9,en;q=0.8","67acf1d438e2c92a40f88a9e","687a1a965b9f5b85a264363e","68941f119f39316ce1e850c1","1","67acf1d438e2c92a40f88a9e","1","2025-08-07T03:50:36.983Z","","","","MotivationQ","","","","","","","","","","","50","","","","","","","","","","","","","","","","","","","","","","","","","","",""
"","","","","ctl-task-cpt","33","922169","0.0-7.0-0.4","223","1","2025-08-07 03:35:59","36c45c0696341be0efffe67d72a12abb","41.13.198.111","Mozilla/5.0 (Windows NT 10.0; Win64; x64) AppleWebKit/537.36 (KHTML, like Gecko) Chrome/138.0.0.0 Safari/537.36","WebKit","Chrome","138.0.0.0","Windows","10.0","https://app.prolific.com/","en-GB,en-US;q=0.9,en;q=0.8","67acf1d438e2c92a40f88a9e","687a1a965b9f5b85a264363e","68941f119f39316ce1e850c1","1","67acf1d438e2c92a40f88a9e","1","2025-08-07T03:51:24.085Z","","","","","","","","","","","","","","","","win-only","2","g1:SE,g2:NW","0.6","5","0","878521.2","1631.1","6636.5","44084.4","1","4","4","6","2","-4","-4","19","23","0.14393939393939395","5005.4","3000","-1865","[""left"",""up""]","{""num_key_presses"":11,""num_perfect"":7,""num_errors"":0,""num_randdir"":4,""num_randdir_good_moves"":1,""num_whilered"":0,""num_whileblue"":0,""num_blue"":1,""num_good_moves"":8}","[460.3571428571429,462.8571428571429,0.6,460.3571428571429,462.8571428571429,113.2,460.3571428571429,462.8571428571429,215.9,460.3571428571429,462.8571428571429,316.8,460.3571428571429,462.8571428571429,421.5,460.3571428571429,462.8571428571429,530.2,460.3571428571429,462.8571428571429,638.6,460.3571428571429,462.8571428571429,745.2,460.3571428571429,462.8571428571429,860.2,460.3571428571429,462.8571428571429,967.3,460.3571428571429,462.8571428571429,1069.4,460.3571428571429,462.8571428571429,1180.5,460.3571428571429,462.8571428571429,1290.2,460.3571428571429,462.8571428571429,1403.1,460.3571428571429,462.8571428571429,1521.8,460.3571428571429,462.8571428571429,1633.8,460.3571428571429,462.8571428571429,1736.5,460.3571428571429,462.8571428571429,1849.4,460.3571428571429,462.8571428571429,1950.2,460.3571428571429,462.8571428571429,2052.7,460.3571428571429,462.8571428571429,2160.4,460.3571428571429,462.8571428571429,2263.6,460.3571428571429,462.8571428571429,2365.2,460.3571428571429,462.8571428571429,2476.8,460.3571428571429,462.8571428571429,2579.3,460.3571428571429,462.8571428571429,2681.1,460.3571428571429,462.8571428571429,2800.1,460.3571428571429,462.8571428571429,2902.1,460.3571428571429,462.8571428571429,3004.2,460.3571428571429,462.8571428571429,3105.3,460.3571428571429,462.8571428571429,3207.6,460.3571428571429,462.8571428571429,3321.6,460.3571428571429,462.8571428571429,3424.8,460.3571428571429,462.8571428571429,3540.9,460.3571428571429,462.8571428571429,3641.5,460.3571428571429,462.8571428571429,3745.8,460.3571428571429,462.8571428571429,3847,460.3571428571429,462.8571428571429,3960.5,460.3571428571429,462.8571428571429,4065.1,460.3571428571429,462.8571428571429,4171.3,460.3571428571429,462.8571428571429,4272.5,460.3571428571429,462.8571428571429,4375.6,460.3571428571429,462.8571428571429,4486.4,460.3571428571429,462.8571428571429,4597.4,460.3571428571429,462.8571428571429,4697.4,460.3571428571429,462.8571428571429,4798.8,460.3571428571429,462.8571428571429,4902.7]","[1536.6,1536.6,1000,0,536.6,""smooth"",""up"",""up"",""good_move"",7397.4,5860.1,1881.4,5103.2,412.8,""smooth"",""up"",""up"",""good_move"",10843.3,3444.9,3065,7398.4,379.9,""oops"",""up"",""up"",""good_move"",13085.5,2240.9,1772,10844.6,468.9,""oops"",""left"",""right"",""bad_move"",15816,2729.7,2312.1,13086.3,417.7,""smooth"",""left"",""left"",""good_move"",19482,3665,3188.7,15817,476.3,""oops"",""left"",""right"",""bad_move"",22292.4,2809,2293.4,19483.4,515.6,""smooth"",""left"",""left"",""good_move"",24915.8,2621.6,2179.5,22294.3,442,""oops"",""left"",""right"",""bad_move"",28533.6,3616,3154.5,24917.6,461.5,""smooth"",""left"",""left"",""good_move"",31529.5,2994.8,2539.1,28534.7,455.7,""smooth"",""left"",""left"",""good_move"",34447,2916.9,2538.2,31530.1,378.7,""smooth"",""left"",""left"",""good_move""]"
"6423","","<div style=""width:500px;"">
  <p>What determined the result of this run?</p>
  </div>","0","html-slider-response","34","928595","0.0-7.0-1.4","223","1","2025-08-07 03:35:59","36c45c0696341be0efffe67d72a12abb","41.13.198.111","Mozilla/5.0 (Windows NT 10.0; Win64; x64) AppleWebKit/537.36 (KHTML, like Gecko) Chrome/138.0.0.0 Safari/537.36","WebKit","Chrome","138.0.0.0","Windows","10.0","https://app.prolific.com/","en-GB,en-US;q=0.9,en;q=0.8","67acf1d438e2c92a40f88a9e","687a1a965b9f5b85a264363e","68941f119f39316ce1e850c1","1","67acf1d438e2c92a40f88a9e","1","2025-08-07T03:51:30.511Z","","","","AttribQ","","","","","","","","","","","50","","","","","","","","","","","","","","","","","","","","","","","","","","",""
"5487","","<div style=""width:500px;"">
  <p>How much control did you have over the ball?</p>
  </div>","0","html-slider-response","35","934084","0.0-7.0-2.4","223","1","2025-08-07 03:35:59","36c45c0696341be0efffe67d72a12abb","41.13.198.111","Mozilla/5.0 (Windows NT 10.0; Win64; x64) AppleWebKit/537.36 (KHTML, like Gecko) Chrome/138.0.0.0 Safari/537.36","WebKit","Chrome","138.0.0.0","Windows","10.0","https://app.prolific.com/","en-GB,en-US;q=0.9,en;q=0.8","67acf1d438e2c92a40f88a9e","687a1a965b9f5b85a264363e","68941f119f39316ce1e850c1","1","67acf1d438e2c92a40f88a9e","1","2025-08-07T03:51:36.001Z","","","","ControlQ","","","","","","","","","","","50","","","","","","","","","","","","","","","","","","","","","","","","","","",""
"4942","","<div style=""width:500px;"">
  <p>How would you describe your current emotional state?</p>
  </div>","100","html-slider-response","36","939029","0.0-7.0-3.4","223","1","2025-08-07 03:35:59","36c45c0696341be0efffe67d72a12abb","41.13.198.111","Mozilla/5.0 (Windows NT 10.0; Win64; x64) AppleWebKit/537.36 (KHTML, like Gecko) Chrome/138.0.0.0 Safari/537.36","WebKit","Chrome","138.0.0.0","Windows","10.0","https://app.prolific.com/","en-GB,en-US;q=0.9,en;q=0.8","67acf1d438e2c92a40f88a9e","687a1a965b9f5b85a264363e","68941f119f39316ce1e850c1","1","67acf1d438e2c92a40f88a9e","1","2025-08-07T03:51:40.945Z","","","","StressQ","","","","","","","","","","","50","","","","","","","","","","","","","","","","","","","","","","","","","","",""
"8091","","<div style=""width:500px;"">
  <p>What best describes how you currently feel?</p>
  </div>","78","html-slider-response","37","947122","0.0-7.0-4.4","223","1","2025-08-07 03:35:59","36c45c0696341be0efffe67d72a12abb","41.13.198.111","Mozilla/5.0 (Windows NT 10.0; Win64; x64) AppleWebKit/537.36 (KHTML, like Gecko) Chrome/138.0.0.0 Safari/537.36","WebKit","Chrome","138.0.0.0","Windows","10.0","https://app.prolific.com/","en-GB,en-US;q=0.9,en;q=0.8","67acf1d438e2c92a40f88a9e","687a1a965b9f5b85a264363e","68941f119f39316ce1e850c1","1","67acf1d438e2c92a40f88a9e","1","2025-08-07T03:51:49.038Z","","","","MotivationQ","","","","","","","","","","","50","","","","","","","","","","","","","","","","","","","","","","","","","","",""
"","","","","ctl-task-cpt","38","985787","0.0-7.0-0.5","223","1","2025-08-07 03:35:59","36c45c0696341be0efffe67d72a12abb","41.13.198.111","Mozilla/5.0 (Windows NT 10.0; Win64; x64) AppleWebKit/537.36 (KHTML, like Gecko) Chrome/138.0.0.0 Safari/537.36","WebKit","Chrome","138.0.0.0","Windows","10.0","https://app.prolific.com/","en-GB,en-US;q=0.9,en;q=0.8","67acf1d438e2c92a40f88a9e","687a1a965b9f5b85a264363e","68941f119f39316ce1e850c1","1","67acf1d438e2c92a40f88a9e","1","2025-08-07T03:52:27.703Z","","","","","","","","","","","","","","","","win-only","0","g1:NW,g2:SE","0.5","6","0","950576.3","1714","6722.5","35652.9","1","4","8","6","2","8","8","27","19","0.20454545454545456","5008.5","3000","950","[""down"",""right""]","{""num_key_presses"":8,""num_perfect"":4,""num_errors"":0,""num_randdir"":4,""num_randdir_good_moves"":3,""num_whilered"":0,""num_whileblue"":0,""num_blue"":2,""num_good_moves"":7}","[464.1071428571429,456.6071428571429,0.8,464.1071428571429,456.6071428571429,102.4,464.1071428571429,456.6071428571429,212.6,464.1071428571429,456.6071428571429,313.5,464.1071428571429,456.6071428571429,417.6,464.1071428571429,456.6071428571429,519.2,464.1071428571429,456.6071428571429,619.8,464.1071428571429,456.6071428571429,735.9,464.1071428571429,456.6071428571429,843.7,464.1071428571429,456.6071428571429,945.5,464.1071428571429,456.6071428571429,1049.6,464.1071428571429,456.6071428571429,1153.1,464.1071428571429,456.6071428571429,1259.1,464.1071428571429,456.6071428571429,1375,464.1071428571429,456.6071428571429,1487.5,464.1071428571429,456.6071428571429,1590,464.1071428571429,456.6071428571429,1698.2,464.1071428571429,456.6071428571429,1800.2,464.1071428571429,456.6071428571429,1902.3,464.1071428571429,456.6071428571429,2008.6,464.1071428571429,456.6071428571429,2111.8,464.1071428571429,456.6071428571429,2212.4,464.1071428571429,456.6071428571429,2323.5,464.1071428571429,456.6071428571429,2425.6,464.1071428571429,456.6071428571429,2525.7,464.1071428571429,456.6071428571429,2630,464.1071428571429,456.6071428571429,2732,464.1071428571429,456.6071428571429,2834.6,464.1071428571429,456.6071428571429,2952.8,464.1071428571429,456.6071428571429,3055.4,464.1071428571429,456.6071428571429,3168.2,464.1071428571429,456.6071428571429,3289,464.1071428571429,456.6071428571429,3395.8,464.1071428571429,456.6071428571429,3501.5,464.1071428571429,456.6071428571429,3603.9,464.1071428571429,456.6071428571429,3710.1,464.1071428571429,456.6071428571429,3812.8,464.1071428571429,456.6071428571429,3913,464.1071428571429,456.6071428571429,4018.3,464.1071428571429,456.6071428571429,4128.5,464.1071428571429,456.6071428571429,4232.5,464.1071428571429,456.6071428571429,4334.1,464.1071428571429,456.6071428571429,4445.9,464.1071428571429,456.6071428571429,4550.4,464.1071428571429,456.6071428571429,4661.5,464.1071428571429,456.6071428571429,4763.4,464.1071428571429,456.6071428571429,4865.7,464.1071428571429,456.6071428571429,4972.2]","[1408.8,1408.8,1000,0,408.8,""oops"",""right"",""down"",""good_move"",7762.5,6350.3,2713.7,4588.3,460.5,""oops"",""right"",""down"",""good_move"",10957.3,3192.7,2763.4,7764.6,429.3,""smooth"",""right"",""right"",""good_move"",13725.2,2767.6,2340.9,10957.7,426.7,""oops"",""right"",""up"",""bad_move"",20010.2,6283.6,2417.8,17153.3,439.1,""smooth"",""right"",""right"",""good_move"",22680.1,2669,1969.9,20011.2,699.1,""oops"",""down"",""right"",""good_move"",25734.7,3049.7,2620.8,22685.1,428.8,""smooth"",""down"",""down"",""good_move"",28755.3,3018.2,2569.1,25737.1,449.1,""smooth"",""down"",""down"",""good_move""]"
"7165","","<div style=""width:500px;"">
  <p>What determined the result of this run?</p>
  </div>","24","html-slider-response","39","992956","0.0-7.0-1.5","223","1","2025-08-07 03:35:59","36c45c0696341be0efffe67d72a12abb","41.13.198.111","Mozilla/5.0 (Windows NT 10.0; Win64; x64) AppleWebKit/537.36 (KHTML, like Gecko) Chrome/138.0.0.0 Safari/537.36","WebKit","Chrome","138.0.0.0","Windows","10.0","https://app.prolific.com/","en-GB,en-US;q=0.9,en;q=0.8","67acf1d438e2c92a40f88a9e","687a1a965b9f5b85a264363e","68941f119f39316ce1e850c1","1","67acf1d438e2c92a40f88a9e","1","2025-08-07T03:52:34.872Z","","","","AttribQ","","","","","","","","","","","50","","","","","","","","","","","","","","","","","","","","","","","","","","",""
"6512","","<div style=""width:500px;"">
  <p>How much control did you have over the ball?</p>
  </div>","17","html-slider-response","40","999472","0.0-7.0-2.5","223","1","2025-08-07 03:35:59","36c45c0696341be0efffe67d72a12abb","41.13.198.111","Mozilla/5.0 (Windows NT 10.0; Win64; x64) AppleWebKit/537.36 (KHTML, like Gecko) Chrome/138.0.0.0 Safari/537.36","WebKit","Chrome","138.0.0.0","Windows","10.0","https://app.prolific.com/","en-GB,en-US;q=0.9,en;q=0.8","67acf1d438e2c92a40f88a9e","687a1a965b9f5b85a264363e","68941f119f39316ce1e850c1","1","67acf1d438e2c92a40f88a9e","1","2025-08-07T03:52:41.388Z","","","","ControlQ","","","","","","","","","","","50","","","","","","","","","","","","","","","","","","","","","","","","","","",""
"33646","","<div style=""width:500px;"">
  <p>How would you describe your current emotional state?</p>
  </div>","58","html-slider-response","41","1033120","0.0-7.0-3.5","223","1","2025-08-07 03:35:59","36c45c0696341be0efffe67d72a12abb","41.13.198.111","Mozilla/5.0 (Windows NT 10.0; Win64; x64) AppleWebKit/537.36 (KHTML, like Gecko) Chrome/138.0.0.0 Safari/537.36","WebKit","Chrome","138.0.0.0","Windows","10.0","https://app.prolific.com/","en-GB,en-US;q=0.9,en;q=0.8","67acf1d438e2c92a40f88a9e","687a1a965b9f5b85a264363e","68941f119f39316ce1e850c1","1","67acf1d438e2c92a40f88a9e","1","2025-08-07T03:53:15.036Z","","","","StressQ","","","","","","","","","","","50","","","","","","","","","","","","","","","","","","","","","","","","","","",""
"9744","","<div style=""width:500px;"">
  <p>What best describes how you currently feel?</p>
  </div>","83","html-slider-response","42","1042868","0.0-7.0-4.5","223","1","2025-08-07 03:35:59","36c45c0696341be0efffe67d72a12abb","41.13.198.111","Mozilla/5.0 (Windows NT 10.0; Win64; x64) AppleWebKit/537.36 (KHTML, like Gecko) Chrome/138.0.0.0 Safari/537.36","WebKit","Chrome","138.0.0.0","Windows","10.0","https://app.prolific.com/","en-GB,en-US;q=0.9,en;q=0.8","67acf1d438e2c92a40f88a9e","687a1a965b9f5b85a264363e","68941f119f39316ce1e850c1","1","67acf1d438e2c92a40f88a9e","1","2025-08-07T03:53:24.784Z","","","","MotivationQ","","","","","","","","","","","50","","","","","","","","","","","","","","","","","","","","","","","","","","",""
"","","","","ctl-task-cpt","43","1079439","0.0-7.0-0.6","223","1","2025-08-07 03:35:59","36c45c0696341be0efffe67d72a12abb","41.13.198.111","Mozilla/5.0 (Windows NT 10.0; Win64; x64) AppleWebKit/537.36 (KHTML, like Gecko) Chrome/138.0.0.0 Safari/537.36","WebKit","Chrome","138.0.0.0","Windows","10.0","https://app.prolific.com/","en-GB,en-US;q=0.9,en;q=0.8","67acf1d438e2c92a40f88a9e","687a1a965b9f5b85a264363e","68941f119f39316ce1e850c1","1","67acf1d438e2c92a40f88a9e","1","2025-08-07T03:54:01.355Z","","","","","","","","","","","","","","","","win-only","0","g1:NW,g2:SE","0.4","7","0","1046324.9","2153.3","7162.2","33546.3","1","4","4","6","2","4","4","31","27","0.23484848484848486","5008.9","3000","1260","[""down"",""right""]","{""num_key_presses"":8,""num_perfect"":3,""num_errors"":0,""num_randdir"":5,""num_randdir_good_moves"":4,""num_whilered"":0,""num_whileblue"":0,""num_blue"":1,""num_good_moves"":7}","[459.1071428571429,454.1071428571429,1.2,459.1071428571429,454.1071428571429,101,459.1071428571429,454.1071428571429,204.7,459.1071428571429,454.1071428571429,309.7,459.1071428571429,454.1071428571429,425.5,459.1071428571429,454.1071428571429,550.8,459.1071428571429,454.1071428571429,654.8,459.1071428571429,454.1071428571429,757.3,459.1071428571429,454.1071428571429,875.2,459.1071428571429,454.1071428571429,989.8,459.1071428571429,454.1071428571429,1117.6,459.1071428571429,454.1071428571429,1217.6,459.1071428571429,454.1071428571429,1326,459.1071428571429,454.1071428571429,1427.4,459.1071428571429,454.1071428571429,1542.5,459.1071428571429,454.1071428571429,1649.5,459.1071428571429,454.1071428571429,1752.5,459.1071428571429,454.1071428571429,1880.9,459.1071428571429,454.1071428571429,1983.1,459.1071428571429,454.1071428571429,2106.9,459.1071428571429,454.1071428571429,2207,459.1071428571429,454.1071428571429,2314.9,459.1071428571429,454.1071428571429,2427.5,459.1071428571429,454.1071428571429,2527.5,459.1071428571429,454.1071428571429,2631.4,459.1071428571429,454.1071428571429,2737.1,459.1071428571429,454.1071428571429,2845,459.1071428571429,454.1071428571429,2951.4,459.1071428571429,454.1071428571429,3056.4,459.1071428571429,454.1071428571429,3162.5,459.1071428571429,454.1071428571429,3262.8,459.1071428571429,454.1071428571429,3362.9,459.1071428571429,454.1071428571429,3475.4,459.1071428571429,454.1071428571429,3576.1,459.1071428571429,454.1071428571429,3683.1,459.1071428571429,454.1071428571429,3783.2,459.1071428571429,454.1071428571429,3891.4,459.1071428571429,454.1071428571429,3991.6,459.1071428571429,454.1071428571429,4092.2,459.1071428571429,454.1071428571429,4193,459.1071428571429,454.1071428571429,4294.7,459.1071428571429,454.1071428571429,4410.4,459.1071428571429,454.1071428571429,4530.8,459.1071428571429,454.1071428571429,4633.5,459.1071428571429,454.1071428571429,4734.7,459.1071428571429,454.1071428571429,4850.8,459.1071428571429,454.1071428571429,4952.4]","[1468.7,1468.7,1000,0,468.7,""smooth"",""right"",""right"",""good_move"",4398.3,2928.9,2563.8,1469.5,365,""oops"",""down"",""right"",""good_move"",6923.8,2524.1,2142.8,4399.7,381.3,""smooth"",""down"",""down"",""good_move"",9871.5,2946.2,2546,6925.3,400.2,""oops"",""down"",""up"",""bad_move"",13210.6,3338.1,2752.6,9872.6,585.4,""smooth"",""down"",""down"",""good_move"",15969.1,2757.6,2339.9,13211.5,417.7,""oops"",""down"",""down"",""good_move"",19624.2,3654.3,3304.9,15970.1,349.3,""oops"",""right"",""right"",""good_move"",26219,6593.9,3006.5,22778.4,434.5,""oops"",""down"",""down"",""good_move""]"
"10802","","<div style=""width:500px;"">
  <p>What determined the result of this run?</p>
  </div>","66","html-slider-response","44","1090243","0.0-7.0-1.6","223","1","2025-08-07 03:35:59","36c45c0696341be0efffe67d72a12abb","41.13.198.111","Mozilla/5.0 (Windows NT 10.0; Win64; x64) AppleWebKit/537.36 (KHTML, like Gecko) Chrome/138.0.0.0 Safari/537.36","WebKit","Chrome","138.0.0.0","Windows","10.0","https://app.prolific.com/","en-GB,en-US;q=0.9,en;q=0.8","67acf1d438e2c92a40f88a9e","687a1a965b9f5b85a264363e","68941f119f39316ce1e850c1","1","67acf1d438e2c92a40f88a9e","1","2025-08-07T03:54:12.160Z","","","","AttribQ","","","","","","","","","","","50","","","","","","","","","","","","","","","","","","","","","","","","","","",""
"9159","","<div style=""width:500px;"">
  <p>How much control did you have over the ball?</p>
  </div>","66","html-slider-response","45","1099406","0.0-7.0-2.6","223","1","2025-08-07 03:35:59","36c45c0696341be0efffe67d72a12abb","41.13.198.111","Mozilla/5.0 (Windows NT 10.0; Win64; x64) AppleWebKit/537.36 (KHTML, like Gecko) Chrome/138.0.0.0 Safari/537.36","WebKit","Chrome","138.0.0.0","Windows","10.0","https://app.prolific.com/","en-GB,en-US;q=0.9,en;q=0.8","67acf1d438e2c92a40f88a9e","687a1a965b9f5b85a264363e","68941f119f39316ce1e850c1","1","67acf1d438e2c92a40f88a9e","1","2025-08-07T03:54:21.323Z","","","","ControlQ","","","","","","","","","","","50","","","","","","","","","","","","","","","","","","","","","","","","","","",""
"7793","","<div style=""width:500px;"">
  <p>How would you describe your current emotional state?</p>
  </div>","33","html-slider-response","46","1107203","0.0-7.0-3.6","223","1","2025-08-07 03:35:59","36c45c0696341be0efffe67d72a12abb","41.13.198.111","Mozilla/5.0 (Windows NT 10.0; Win64; x64) AppleWebKit/537.36 (KHTML, like Gecko) Chrome/138.0.0.0 Safari/537.36","WebKit","Chrome","138.0.0.0","Windows","10.0","https://app.prolific.com/","en-GB,en-US;q=0.9,en;q=0.8","67acf1d438e2c92a40f88a9e","687a1a965b9f5b85a264363e","68941f119f39316ce1e850c1","1","67acf1d438e2c92a40f88a9e","1","2025-08-07T03:54:29.120Z","","","","StressQ","","","","","","","","","","","50","","","","","","","","","","","","","","","","","","","","","","","","","","",""
"8277","","<div style=""width:500px;"">
  <p>What best describes how you currently feel?</p>
  </div>","81","html-slider-response","47","1115487","0.0-7.0-4.6","223","1","2025-08-07 03:35:59","36c45c0696341be0efffe67d72a12abb","41.13.198.111","Mozilla/5.0 (Windows NT 10.0; Win64; x64) AppleWebKit/537.36 (KHTML, like Gecko) Chrome/138.0.0.0 Safari/537.36","WebKit","Chrome","138.0.0.0","Windows","10.0","https://app.prolific.com/","en-GB,en-US;q=0.9,en;q=0.8","67acf1d438e2c92a40f88a9e","687a1a965b9f5b85a264363e","68941f119f39316ce1e850c1","1","67acf1d438e2c92a40f88a9e","1","2025-08-07T03:54:37.404Z","","","","MotivationQ","","","","","","","","","","","50","","","","","","","","","","","","","","","","","","","","","","","","","","",""
"","","","","ctl-task-cpt","48","1165497","0.0-7.0-0.7","223","1","2025-08-07 03:35:59","36c45c0696341be0efffe67d72a12abb","41.13.198.111","Mozilla/5.0 (Windows NT 10.0; Win64; x64) AppleWebKit/537.36 (KHTML, like Gecko) Chrome/138.0.0.0 Safari/537.36","WebKit","Chrome","138.0.0.0","Windows","10.0","https://app.prolific.com/","en-GB,en-US;q=0.9,en;q=0.8","67acf1d438e2c92a40f88a9e","687a1a965b9f5b85a264363e","68941f119f39316ce1e850c1","1","67acf1d438e2c92a40f88a9e","1","2025-08-07T03:55:27.413Z","","","","","","","","","","","","","","","","win-only","3","g1:SW,g2:NE","0.3","8","0","1118946.9","2967.6","7978.6","46986","1","4","8","6","1","1","1","32","31","0.24242424242424243","5010.9","3000","840","[""down"",""left""]","{""num_key_presses"":10,""num_perfect"":3,""num_errors"":0,""num_randdir"":7,""num_randdir_good_moves"":4,""num_whilered"":0,""num_whileblue"":0,""num_blue"":3,""num_good_moves"":7}","[462.8571428571429,461.6071428571429,0.5,462.8571428571429,461.6071428571429,108.8,462.8571428571429,461.6071428571429,212.4,462.8571428571429,461.6071428571429,318.7,462.8571428571429,461.6071428571429,419.6,462.8571428571429,461.6071428571429,534.1,462.8571428571429,461.6071428571429,642.9,462.8571428571429,461.6071428571429,745.1,462.8571428571429,461.6071428571429,859.8,462.8571428571429,461.6071428571429,964.2,462.8571428571429,461.6071428571429,1064.9,462.8571428571429,461.6071428571429,1166,462.8571428571429,461.6071428571429,1268.4,462.8571428571429,461.6071428571429,1374.2,462.8571428571429,461.6071428571429,1486.5,462.8571428571429,461.6071428571429,1604.7,462.8571428571429,461.6071428571429,1705.2,462.8571428571429,461.6071428571429,1809.7,462.8571428571429,461.6071428571429,1911.8,462.8571428571429,461.6071428571429,2012.7,462.8571428571429,461.6071428571429,2123.8,462.8571428571429,461.6071428571429,2234.6,462.8571428571429,461.6071428571429,2343.4,462.8571428571429,461.6071428571429,2455.8,462.8571428571429,461.6071428571429,2561.8,462.8571428571429,461.6071428571429,2664.9,462.8571428571429,461.6071428571429,2778.7,462.8571428571429,461.6071428571429,2894.5,462.8571428571429,461.6071428571429,2998.8,462.8571428571429,461.6071428571429,3112,462.8571428571429,461.6071428571429,3214,462.8571428571429,461.6071428571429,3325.8,462.8571428571429,461.6071428571429,3426.2,462.8571428571429,461.6071428571429,3528.7,462.8571428571429,461.6071428571429,3634.1,462.8571428571429,461.6071428571429,3740.9,462.8571428571429,461.6071428571429,3843.7,462.8571428571429,461.6071428571429,3944.7,462.8571428571429,461.6071428571429,4046.2,462.8571428571429,461.6071428571429,4152.3,462.8571428571429,461.6071428571429,4260.7,462.8571428571429,461.6071428571429,4362.9,462.8571428571429,461.6071428571429,4474.9,462.8571428571429,461.6071428571429,4583,462.8571428571429,461.6071428571429,4683.2,462.8571428571429,461.6071428571429,4792.5,462.8571428571429,461.6071428571429,4900.8]","[5514.1,5514.1,3016.9,2006.4,490.8,""oops"",""down"",""left"",""good_move"",9413.9,3898.2,3350.2,5515.7,548,""oops"",""down"",""right"",""bad_move"",11964.1,2548.9,2094.7,9415.2,454.2,""oops"",""down"",""left"",""good_move"",17940.5,5975.6,2511.8,14990.9,437.9,""oops"",""down"",""down"",""good_move"",20745.7,2804.2,2397.2,17941.6,406.9,""oops"",""left"",""right"",""bad_move"",23584.1,2837.5,2417.3,20746.6,420.2,""oops"",""left"",""up"",""bad_move"",26539.4,2954.4,2538.3,23585,416.1,""oops"",""left"",""down"",""good_move"",29552.2,3012.2,2611,26540,401.2,""smooth"",""left"",""left"",""good_move"",36089.9,6534.8,2631.8,32988.1,470,""smooth"",""left"",""left"",""good_move"",38840,2749.1,2348.9,36090.9,400.2,""smooth"",""down"",""down"",""good_move""]"
"6202","","<div style=""width:500px;"">
  <p>What determined the result of this run?</p>
  </div>","28","html-slider-response","49","1171702","0.0-7.0-1.7","223","1","2025-08-07 03:35:59","36c45c0696341be0efffe67d72a12abb","41.13.198.111","Mozilla/5.0 (Windows NT 10.0; Win64; x64) AppleWebKit/537.36 (KHTML, like Gecko) Chrome/138.0.0.0 Safari/537.36","WebKit","Chrome","138.0.0.0","Windows","10.0","https://app.prolific.com/","en-GB,en-US;q=0.9,en;q=0.8","67acf1d438e2c92a40f88a9e","687a1a965b9f5b85a264363e","68941f119f39316ce1e850c1","1","67acf1d438e2c92a40f88a9e","1","2025-08-07T03:55:33.618Z","","","","AttribQ","","","","","","","","","","","50","","","","","","","","","","","","","","","","","","","","","","","","","","",""
"8631","","<div style=""width:500px;"">
  <p>How much control did you have over the ball?</p>
  </div>","40","html-slider-response","50","1180335","0.0-7.0-2.7","223","1","2025-08-07 03:35:59","36c45c0696341be0efffe67d72a12abb","41.13.198.111","Mozilla/5.0 (Windows NT 10.0; Win64; x64) AppleWebKit/537.36 (KHTML, like Gecko) Chrome/138.0.0.0 Safari/537.36","WebKit","Chrome","138.0.0.0","Windows","10.0","https://app.prolific.com/","en-GB,en-US;q=0.9,en;q=0.8","67acf1d438e2c92a40f88a9e","687a1a965b9f5b85a264363e","68941f119f39316ce1e850c1","1","67acf1d438e2c92a40f88a9e","1","2025-08-07T03:55:42.251Z","","","","ControlQ","","","","","","","","","","","50","","","","","","","","","","","","","","","","","","","","","","","","","","",""
"13100","","<div style=""width:500px;"">
  <p>How would you describe your current emotional state?</p>
  </div>","32","html-slider-response","51","1193439","0.0-7.0-3.7","223","1","2025-08-07 03:35:59","36c45c0696341be0efffe67d72a12abb","41.13.198.111","Mozilla/5.0 (Windows NT 10.0; Win64; x64) AppleWebKit/537.36 (KHTML, like Gecko) Chrome/138.0.0.0 Safari/537.36","WebKit","Chrome","138.0.0.0","Windows","10.0","https://app.prolific.com/","en-GB,en-US;q=0.9,en;q=0.8","67acf1d438e2c92a40f88a9e","687a1a965b9f5b85a264363e","68941f119f39316ce1e850c1","1","67acf1d438e2c92a40f88a9e","1","2025-08-07T03:55:55.355Z","","","","StressQ","","","","","","","","","","","50","","","","","","","","","","","","","","","","","","","","","","","","","","",""
"9414","","<div style=""width:500px;"">
  <p>What best describes how you currently feel?</p>
  </div>","83","html-slider-response","52","1202856","0.0-7.0-4.7","223","1","2025-08-07 03:35:59","36c45c0696341be0efffe67d72a12abb","41.13.198.111","Mozilla/5.0 (Windows NT 10.0; Win64; x64) AppleWebKit/537.36 (KHTML, like Gecko) Chrome/138.0.0.0 Safari/537.36","WebKit","Chrome","138.0.0.0","Windows","10.0","https://app.prolific.com/","en-GB,en-US;q=0.9,en;q=0.8","67acf1d438e2c92a40f88a9e","687a1a965b9f5b85a264363e","68941f119f39316ce1e850c1","1","67acf1d438e2c92a40f88a9e","1","2025-08-07T03:56:04.773Z","","","","MotivationQ","","","","","","","","","","","50","","","","","","","","","","","","","","","","","","","","","","","","","","",""
"","","","","ctl-task-cpt","53","1269807","0.0-7.0-0.8","223","1","2025-08-07 03:35:59","36c45c0696341be0efffe67d72a12abb","41.13.198.111","Mozilla/5.0 (Windows NT 10.0; Win64; x64) AppleWebKit/537.36 (KHTML, like Gecko) Chrome/138.0.0.0 Safari/537.36","WebKit","Chrome","138.0.0.0","Windows","10.0","https://app.prolific.com/","en-GB,en-US;q=0.9,en;q=0.8","67acf1d438e2c92a40f88a9e","687a1a965b9f5b85a264363e","68941f119f39316ce1e850c1","1","67acf1d438e2c92a40f88a9e","1","2025-08-07T03:57:11.723Z","","","","","","","","","","","","","","","","win-only","1","g1:NE,g2:SW","0.4","9","0","1206310.6","3587","8591","63937","1","4","4","6","2","4","3","35","32","0.26515151515151514","5003.9","3000","310","[""down"",""left""]","{""num_key_presses"":13,""num_perfect"":6,""num_errors"":1,""num_randdir"":6,""num_randdir_good_moves"":3,""num_whilered"":0,""num_whileblue"":0,""num_blue"":5,""num_good_moves"":9}","[467.8571428571429,465.3571428571429,0.5,467.8571428571429,465.3571428571429,101.8,467.8571428571429,465.3571428571429,203.5,467.8571428571429,465.3571428571429,312.1,467.8571428571429,465.3571428571429,426.5,467.8571428571429,465.3571428571429,530.4,467.8571428571429,465.3571428571429,631.6,467.8571428571429,465.3571428571429,741.6,467.8571428571429,465.3571428571429,844,467.8571428571429,465.3571428571429,948.2,467.8571428571429,465.3571428571429,1053.2,467.8571428571429,465.3571428571429,1153.7,467.8571428571429,465.3571428571429,1265.3,467.8571428571429,465.3571428571429,1372.5,467.8571428571429,465.3571428571429,1475.7,467.8571428571429,465.3571428571429,1578,467.8571428571429,465.3571428571429,1690.3,467.8571428571429,465.3571428571429,1796.7,467.8571428571429,465.3571428571429,1912,467.8571428571429,465.3571428571429,2016.9,467.8571428571429,465.3571428571429,2120.6,467.8571428571429,465.3571428571429,2242.4,467.8571428571429,465.3571428571429,2347.2,467.8571428571429,465.3571428571429,2448,467.8571428571429,465.3571428571429,2551.9,467.8571428571429,465.3571428571429,2653.7,467.8571428571429,465.3571428571429,2760.4,467.8571428571429,465.3571428571429,2860.5,467.8571428571429,465.3571428571429,2967,467.8571428571429,465.3571428571429,3069.3,467.8571428571429,465.3571428571429,3170.5,467.8571428571429,465.3571428571429,3275.6,467.8571428571429,465.3571428571429,3381.4,467.8571428571429,465.3571428571429,3485.7,467.8571428571429,465.3571428571429,3592.1,467.8571428571429,465.3571428571429,3696.9,467.8571428571429,465.3571428571429,3800.2,467.8571428571429,465.3571428571429,3903.7,467.8571428571429,465.3571428571429,4004.3,467.8571428571429,465.3571428571429,4113.7,467.8571428571429,465.3571428571429,4215.4,467.8571428571429,465.3571428571429,4319.3,467.8571428571429,465.3571428571429,4422.8,467.8571428571429,465.3571428571429,4529.3,467.8571428571429,465.3571428571429,4633.3,467.8571428571429,465.3571428571429,4747.9,467.8571428571429,465.3571428571429,4851,467.8571428571429,465.3571428571429,4958.6]","[4795,4795,2331.3,2013.9,449.8,""smooth"",""left"",""left"",""good_move"",7373.1,2575.2,2195,4798,380.2,""smooth"",""left"",""left"",""good_move"",10448.6,3074.5,2654.9,7374.1,419.6,""oops"",""down"",""up"",""bad_move"",20695,10245,3180.6,17077,437.4,""oops"",""down"",""down"",""good_move"",24496.4,3800.2,3213.4,20696.2,586.8,""oops"",""down"",""right"",""bad_move"",27875.1,3376.7,2958.2,24498.4,418.5,""oops"",""down"",""down"",""good_move"",31240.4,3364.5,2883.4,27875.9,481.1,""smooth"",""down"",""down"",""good_move"",34278.9,3033.6,2613.6,31245.3,420,""oops"",""left"",""left"",""good_move"",36594.4,2310.7,1613,34283.9,697.6,""oops"",""down"",""up"",""bad_move"",40121.3,3525,2924,36596.4,601.1,""smooth"",""left"",""left"",""good_move"",43361.5,3238.2,2851.1,40123.4,387.1,""smooth"",""down"",""down"",""good_move"",51008.1,7644.5,2323.1,50567.6,-1882.6,""error"",""-"",""-"",""no_move"",55147,4136.5,2677.3,52016.3,453.4,""smooth"",""down"",""down"",""good_move""]"
"6581","","<div style=""width:500px;"">
  <p>What determined the result of this run?</p>
  </div>","33","html-slider-response","54","1276390","0.0-7.0-1.8","223","1","2025-08-07 03:35:59","36c45c0696341be0efffe67d72a12abb","41.13.198.111","Mozilla/5.0 (Windows NT 10.0; Win64; x64) AppleWebKit/537.36 (KHTML, like Gecko) Chrome/138.0.0.0 Safari/537.36","WebKit","Chrome","138.0.0.0","Windows","10.0","https://app.prolific.com/","en-GB,en-US;q=0.9,en;q=0.8","67acf1d438e2c92a40f88a9e","687a1a965b9f5b85a264363e","68941f119f39316ce1e850c1","1","67acf1d438e2c92a40f88a9e","1","2025-08-07T03:57:18.306Z","","","","AttribQ","","","","","","","","","","","50","","","","","","","","","","","","","","","","","","","","","","","","","","",""
"8975","","<div style=""width:500px;"">
  <p>How much control did you have over the ball?</p>
  </div>","61","html-slider-response","55","1285367","0.0-7.0-2.8","223","1","2025-08-07 03:35:59","36c45c0696341be0efffe67d72a12abb","41.13.198.111","Mozilla/5.0 (Windows NT 10.0; Win64; x64) AppleWebKit/537.36 (KHTML, like Gecko) Chrome/138.0.0.0 Safari/537.36","WebKit","Chrome","138.0.0.0","Windows","10.0","https://app.prolific.com/","en-GB,en-US;q=0.9,en;q=0.8","67acf1d438e2c92a40f88a9e","687a1a965b9f5b85a264363e","68941f119f39316ce1e850c1","1","67acf1d438e2c92a40f88a9e","1","2025-08-07T03:57:27.283Z","","","","ControlQ","","","","","","","","","","","50","","","","","","","","","","","","","","","","","","","","","","","","","","",""
"27514","","<div style=""width:500px;"">
  <p>How would you describe your current emotional state?</p>
  </div>","24","html-slider-response","56","1312884","0.0-7.0-3.8","223","1","2025-08-07 03:35:59","36c45c0696341be0efffe67d72a12abb","41.13.198.111","Mozilla/5.0 (Windows NT 10.0; Win64; x64) AppleWebKit/537.36 (KHTML, like Gecko) Chrome/138.0.0.0 Safari/537.36","WebKit","Chrome","138.0.0.0","Windows","10.0","https://app.prolific.com/","en-GB,en-US;q=0.9,en;q=0.8","67acf1d438e2c92a40f88a9e","687a1a965b9f5b85a264363e","68941f119f39316ce1e850c1","1","67acf1d438e2c92a40f88a9e","1","2025-08-07T03:57:54.801Z","","","","StressQ","","","","","","","","","","","50","","","","","","","","","","","","","","","","","","","","","","","","","","",""
"28210","","<div style=""width:500px;"">
  <p>What best describes how you currently feel?</p>
  </div>","78","html-slider-response","57","1341099","0.0-7.0-4.8","223","1","2025-08-07 03:35:59","36c45c0696341be0efffe67d72a12abb","41.13.198.111","Mozilla/5.0 (Windows NT 10.0; Win64; x64) AppleWebKit/537.36 (KHTML, like Gecko) Chrome/138.0.0.0 Safari/537.36","WebKit","Chrome","138.0.0.0","Windows","10.0","https://app.prolific.com/","en-GB,en-US;q=0.9,en;q=0.8","67acf1d438e2c92a40f88a9e","687a1a965b9f5b85a264363e","68941f119f39316ce1e850c1","1","67acf1d438e2c92a40f88a9e","1","2025-08-07T03:58:23.015Z","","","","MotivationQ","","","","","","","","","","","50","","","","","","","","","","","","","","","","","","","","","","","","","","",""
"","","","","ctl-task-cpt","58","1377086","0.0-7.0-0.9","223","1","2025-08-07 03:35:59","36c45c0696341be0efffe67d72a12abb","41.13.198.111","Mozilla/5.0 (Windows NT 10.0; Win64; x64) AppleWebKit/537.36 (KHTML, like Gecko) Chrome/138.0.0.0 Safari/537.36","WebKit","Chrome","138.0.0.0","Windows","10.0","https://app.prolific.com/","en-GB,en-US;q=0.9,en;q=0.8","67acf1d438e2c92a40f88a9e","687a1a965b9f5b85a264363e","68941f119f39316ce1e850c1","1","67acf1d438e2c92a40f88a9e","1","2025-08-07T03:58:59.002Z","","","","","","","","","","","","","","","","win-only","2","g1:SE,g2:NW","0.5","10","0","1344556.1","12257.7","17268.5","32949","1","4","8","6","1","1","1","36","35","0.2727272727272727","5010.8","3000","2210","[""down"",""right""]","{""num_key_presses"":4,""num_perfect"":4,""num_errors"":0,""num_randdir"":0,""num_randdir_good_moves"":0,""num_whilered"":0,""num_whileblue"":0,""num_blue"":1,""num_good_moves"":4}","[459.1071428571429,456.6071428571429,13.1,459.1071428571429,456.6071428571429,101.8,459.1071428571429,456.6071428571429,214.6,459.1071428571429,456.6071428571429,348.1,459.1071428571429,456.6071428571429,454.5,459.1071428571429,456.6071428571429,557,459.1071428571429,456.6071428571429,686.5,459.1071428571429,456.6071428571429,815.3,459.1071428571429,456.6071428571429,918.9,459.1071428571429,456.6071428571429,1057.7,459.1071428571429,456.6071428571429,1169.2,459.1071428571429,456.6071428571429,1299.9,459.1071428571429,456.6071428571429,1401.5,459.1071428571429,456.6071428571429,1503.6,459.1071428571429,456.6071428571429,1623.6,459.1071428571429,456.6071428571429,1729.5,459.1071428571429,456.6071428571429,1867.7,459.1071428571429,456.6071428571429,1969.7,459.1071428571429,456.6071428571429,2070.2,459.1071428571429,456.6071428571429,2171,459.1071428571429,456.6071428571429,2273,459.1071428571429,456.6071428571429,2382.4,459.1071428571429,456.6071428571429,2487.8,459.1071428571429,456.6071428571429,2589.5,459.1071428571429,456.6071428571429,2699.8,459.1071428571429,456.6071428571429,2804.3,459.1071428571429,456.6071428571429,2907,459.1071428571429,456.6071428571429,3008.3,459.1071428571429,456.6071428571429,3117.3,459.1071428571429,456.6071428571429,3219.5,459.1071428571429,456.6071428571429,3321.2,459.1071428571429,456.6071428571429,3421.5,459.1071428571429,456.6071428571429,3526.4,459.1071428571429,456.6071428571429,3633,459.1071428571429,456.6071428571429,3744.4,459.1071428571429,456.6071428571429,3855,459.1071428571429,456.6071428571429,3957.6,459.1071428571429,456.6071428571429,4057.6,459.1071428571429,456.6071428571429,4157.7,459.1071428571429,456.6071428571429,4272.3,459.1071428571429,456.6071428571429,4387.3,459.1071428571429,456.6071428571429,4498.1,459.1071428571429,456.6071428571429,4609.8,459.1071428571429,456.6071428571429,4712.7,459.1071428571429,456.6071428571429,4835,459.1071428571429,456.6071428571429,4937.4]","[1616.9,1616.9,1000,0,616.9,""smooth"",""right"",""right"",""good_move"",8962.8,7344,3322.7,5185.6,454.5,""smooth"",""right"",""right"",""good_move"",12554.6,3587.4,3142.2,8967.2,445.2,""smooth"",""down"",""down"",""good_move"",15480.4,2924,2495.7,12556.5,428.3,""smooth"",""down"",""down"",""good_move""]"
"17692","","<div style=""width:500px;"">
  <p>What determined the result of this run?</p>
  </div>","100","html-slider-response","59","1394781","0.0-7.0-1.9","223","1","2025-08-07 03:35:59","36c45c0696341be0efffe67d72a12abb","41.13.198.111","Mozilla/5.0 (Windows NT 10.0; Win64; x64) AppleWebKit/537.36 (KHTML, like Gecko) Chrome/138.0.0.0 Safari/537.36","WebKit","Chrome","138.0.0.0","Windows","10.0","https://app.prolific.com/","en-GB,en-US;q=0.9,en;q=0.8","67acf1d438e2c92a40f88a9e","687a1a965b9f5b85a264363e","68941f119f39316ce1e850c1","1","67acf1d438e2c92a40f88a9e","1","2025-08-07T03:59:16.698Z","","","","AttribQ","","","","","","","","","","","50","","","","","","","","","","","","","","","","","","","","","","","","","","",""
"6146","","<div style=""width:500px;"">
  <p>How much control did you have over the ball?</p>
  </div>","100","html-slider-response","60","1400935","0.0-7.0-2.9","223","1","2025-08-07 03:35:59","36c45c0696341be0efffe67d72a12abb","41.13.198.111","Mozilla/5.0 (Windows NT 10.0; Win64; x64) AppleWebKit/537.36 (KHTML, like Gecko) Chrome/138.0.0.0 Safari/537.36","WebKit","Chrome","138.0.0.0","Windows","10.0","https://app.prolific.com/","en-GB,en-US;q=0.9,en;q=0.8","67acf1d438e2c92a40f88a9e","687a1a965b9f5b85a264363e","68941f119f39316ce1e850c1","1","67acf1d438e2c92a40f88a9e","1","2025-08-07T03:59:22.852Z","","","","ControlQ","","","","","","","","","","","50","","","","","","","","","","","","","","","","","","","","","","","","","","",""
"13653","","<div style=""width:500px;"">
  <p>How would you describe your current emotional state?</p>
  </div>","11","html-slider-response","61","1414602","0.0-7.0-3.9","223","1","2025-08-07 03:35:59","36c45c0696341be0efffe67d72a12abb","41.13.198.111","Mozilla/5.0 (Windows NT 10.0; Win64; x64) AppleWebKit/537.36 (KHTML, like Gecko) Chrome/138.0.0.0 Safari/537.36","WebKit","Chrome","138.0.0.0","Windows","10.0","https://app.prolific.com/","en-GB,en-US;q=0.9,en;q=0.8","67acf1d438e2c92a40f88a9e","687a1a965b9f5b85a264363e","68941f119f39316ce1e850c1","1","67acf1d438e2c92a40f88a9e","1","2025-08-07T03:59:36.518Z","","","","StressQ","","","","","","","","","","","50","","","","","","","","","","","","","","","","","","","","","","","","","","",""
"16944","","<div style=""width:500px;"">
  <p>What best describes how you currently feel?</p>
  </div>","85","html-slider-response","62","1431549","0.0-7.0-4.9","223","1","2025-08-07 03:35:59","36c45c0696341be0efffe67d72a12abb","41.13.198.111","Mozilla/5.0 (Windows NT 10.0; Win64; x64) AppleWebKit/537.36 (KHTML, like Gecko) Chrome/138.0.0.0 Safari/537.36","WebKit","Chrome","138.0.0.0","Windows","10.0","https://app.prolific.com/","en-GB,en-US;q=0.9,en;q=0.8","67acf1d438e2c92a40f88a9e","687a1a965b9f5b85a264363e","68941f119f39316ce1e850c1","1","67acf1d438e2c92a40f88a9e","1","2025-08-07T03:59:53.465Z","","","","MotivationQ","","","","","","","","","","","50","","","","","","","","","","","","","","","","","","","","","","","","","","",""
"","","","","ctl-task-cpt","63","1481417","0.0-7.0-0.10","223","1","2025-08-07 03:35:59","36c45c0696341be0efffe67d72a12abb","41.13.198.111","Mozilla/5.0 (Windows NT 10.0; Win64; x64) AppleWebKit/537.36 (KHTML, like Gecko) Chrome/138.0.0.0 Safari/537.36","WebKit","Chrome","138.0.0.0","Windows","10.0","https://app.prolific.com/","en-GB,en-US;q=0.9,en;q=0.8","67acf1d438e2c92a40f88a9e","687a1a965b9f5b85a264363e","68941f119f39316ce1e850c1","1","67acf1d438e2c92a40f88a9e","1","2025-08-07T04:00:43.334Z","","","","","","","","","","","","","","","","win-only","3","g1:SW,g2:NE","0.6","11","0","1435005.8","19140.5","24153.3","46840.6","1","4","8","6","1","1","1","37","36","0.2803030303030303","5012.8","3000","1545","[""down"",""left""]","{""num_key_presses"":8,""num_perfect"":4,""num_errors"":0,""num_randdir"":4,""num_randdir_good_moves"":2,""num_whilered"":0,""num_whileblue"":0,""num_blue"":0,""num_good_moves"":6}","[471.6071428571429,461.6071428571429,1.9,471.6071428571429,461.6071428571429,102,471.6071428571429,461.6071428571429,202.4,471.6071428571429,461.6071428571429,303.2,471.6071428571429,461.6071428571429,411.3,471.6071428571429,461.6071428571429,514.8,471.6071428571429,461.6071428571429,618.8,471.6071428571429,461.6071428571429,736.2,471.6071428571429,461.6071428571429,838.5,471.6071428571429,461.6071428571429,940.7,471.6071428571429,461.6071428571429,1046.4,471.6071428571429,461.6071428571429,1154.6,471.6071428571429,461.6071428571429,1265,471.6071428571429,461.6071428571429,1370.1,471.6071428571429,461.6071428571429,1471.4,471.6071428571429,461.6071428571429,1579.6,471.6071428571429,461.6071428571429,1679.6,471.6071428571429,461.6071428571429,1783.2,471.6071428571429,461.6071428571429,1889.9,471.6071428571429,461.6071428571429,1992,471.6071428571429,461.6071428571429,2097.4,471.6071428571429,461.6071428571429,2204.7,471.6071428571429,461.6071428571429,2305.6,471.6071428571429,461.6071428571429,2412.9,471.6071428571429,461.6071428571429,2515.1,471.6071428571429,461.6071428571429,2623.7,471.6071428571429,461.6071428571429,2725.2,471.6071428571429,461.6071428571429,2826.9,471.6071428571429,461.6071428571429,2940.7,471.6071428571429,461.6071428571429,3042.1,471.6071428571429,461.6071428571429,3155.8,471.6071428571429,461.6071428571429,3264.5,471.6071428571429,461.6071428571429,3370.9,471.6071428571429,461.6071428571429,3480.9,471.6071428571429,461.6071428571429,3589.9,471.6071428571429,461.6071428571429,3695.5,471.6071428571429,461.6071428571429,3798,471.6071428571429,461.6071428571429,3911.1,471.6071428571429,461.6071428571429,4020.1,471.6071428571429,461.6071428571429,4130.8,471.6071428571429,461.6071428571429,4231.4,471.6071428571429,461.6071428571429,4338.8,471.6071428571429,461.6071428571429,4450.4,471.6071428571429,461.6071428571429,4551.8,471.6071428571429,461.6071428571429,4666.2,471.6071428571429,461.6071428571429,4781.8,471.6071428571429,461.6071428571429,4901.7]","[1876.6,1876.6,1000,0,876.6,""oops"",""down"",""right"",""bad_move"",5571.8,3694.2,3192.1,1877.6,502.1,""smooth"",""down"",""down"",""good_move"",8459.1,2885.6,2488.1,5573.5,397.5,""smooth"",""left"",""left"",""good_move"",11041.8,2582,1966.7,8459.8,615.3,""smooth"",""left"",""left"",""good_move"",13691.2,2649,2242.1,11042.2,406.9,""oops"",""down"",""up"",""bad_move"",16651.2,2958.9,2501.3,13692.3,457.6,""smooth"",""down"",""down"",""good_move"",19363.5,2711.3,2216.2,16652.2,495.1,""oops"",""down"",""left"",""good_move"",22488.5,3123.8,2498.6,19364.8,625.2,""oops"",""down"",""down"",""good_move""]"
"7987","","<div style=""width:500px;"">
  <p>What determined the result of this run?</p>
  </div>","80","html-slider-response","64","1489407","0.0-7.0-1.10","223","1","2025-08-07 03:35:59","36c45c0696341be0efffe67d72a12abb","41.13.198.111","Mozilla/5.0 (Windows NT 10.0; Win64; x64) AppleWebKit/537.36 (KHTML, like Gecko) Chrome/138.0.0.0 Safari/537.36","WebKit","Chrome","138.0.0.0","Windows","10.0","https://app.prolific.com/","en-GB,en-US;q=0.9,en;q=0.8","67acf1d438e2c92a40f88a9e","687a1a965b9f5b85a264363e","68941f119f39316ce1e850c1","1","67acf1d438e2c92a40f88a9e","1","2025-08-07T04:00:51.324Z","","","","AttribQ","","","","","","","","","","","50","","","","","","","","","","","","","","","","","","","","","","","","","","",""
"12231","","<div style=""width:500px;"">
  <p>How much control did you have over the ball?</p>
  </div>","69","html-slider-response","65","1501642","0.0-7.0-2.10","223","1","2025-08-07 03:35:59","36c45c0696341be0efffe67d72a12abb","41.13.198.111","Mozilla/5.0 (Windows NT 10.0; Win64; x64) AppleWebKit/537.36 (KHTML, like Gecko) Chrome/138.0.0.0 Safari/537.36","WebKit","Chrome","138.0.0.0","Windows","10.0","https://app.prolific.com/","en-GB,en-US;q=0.9,en;q=0.8","67acf1d438e2c92a40f88a9e","687a1a965b9f5b85a264363e","68941f119f39316ce1e850c1","1","67acf1d438e2c92a40f88a9e","1","2025-08-07T04:01:03.558Z","","","","ControlQ","","","","","","","","","","","50","","","","","","","","","","","","","","","","","","","","","","","","","","",""
"11998","","<div style=""width:500px;"">
  <p>How would you describe your current emotional state?</p>
  </div>","32","html-slider-response","66","1513643","0.0-7.0-3.10","223","1","2025-08-07 03:35:59","36c45c0696341be0efffe67d72a12abb","41.13.198.111","Mozilla/5.0 (Windows NT 10.0; Win64; x64) AppleWebKit/537.36 (KHTML, like Gecko) Chrome/138.0.0.0 Safari/537.36","WebKit","Chrome","138.0.0.0","Windows","10.0","https://app.prolific.com/","en-GB,en-US;q=0.9,en;q=0.8","67acf1d438e2c92a40f88a9e","687a1a965b9f5b85a264363e","68941f119f39316ce1e850c1","1","67acf1d438e2c92a40f88a9e","1","2025-08-07T04:01:15.559Z","","","","StressQ","","","","","","","","","","","50","","","","","","","","","","","","","","","","","","","","","","","","","","",""
"11768","","<div style=""width:500px;"">
  <p>What best describes how you currently feel?</p>
  </div>","79","html-slider-response","67","1525414","0.0-7.0-4.10","223","1","2025-08-07 03:35:59","36c45c0696341be0efffe67d72a12abb","41.13.198.111","Mozilla/5.0 (Windows NT 10.0; Win64; x64) AppleWebKit/537.36 (KHTML, like Gecko) Chrome/138.0.0.0 Safari/537.36","WebKit","Chrome","138.0.0.0","Windows","10.0","https://app.prolific.com/","en-GB,en-US;q=0.9,en;q=0.8","67acf1d438e2c92a40f88a9e","687a1a965b9f5b85a264363e","68941f119f39316ce1e850c1","1","67acf1d438e2c92a40f88a9e","1","2025-08-07T04:01:27.330Z","","","","MotivationQ","","","","","","","","","","","50","","","","","","","","","","","","","","","","","","","","","","","","","","",""
"","","","","ctl-task-cpt","68","1562872","0.0-7.0-0.11","223","1","2025-08-07 03:35:59","36c45c0696341be0efffe67d72a12abb","41.13.198.111","Mozilla/5.0 (Windows NT 10.0; Win64; x64) AppleWebKit/537.36 (KHTML, like Gecko) Chrome/138.0.0.0 Safari/537.36","WebKit","Chrome","138.0.0.0","Windows","10.0","https://app.prolific.com/","en-GB,en-US;q=0.9,en;q=0.8","67acf1d438e2c92a40f88a9e","687a1a965b9f5b85a264363e","68941f119f39316ce1e850c1","1","67acf1d438e2c92a40f88a9e","1","2025-08-07T04:02:04.788Z","","","","","","","","","","","","","","","","win-only","0","g1:NW,g2:SE","0.7","12","0","1528867.7","11764.2","16767.7","34436.2","1","4","4","6","1","1","1","38","37","0.2878787878787879","5003.5","3000","1910","[""left"",""up""]","{""num_key_presses"":6,""num_perfect"":4,""num_errors"":0,""num_randdir"":2,""num_randdir_good_moves"":1,""num_whilered"":0,""num_whileblue"":0,""num_blue"":0,""num_good_moves"":5}","[459.1071428571429,466.6071428571429,0.9,459.1071428571429,466.6071428571429,105.5,459.1071428571429,466.6071428571429,207.5,459.1071428571429,466.6071428571429,318.7,459.1071428571429,466.6071428571429,424.5,459.1071428571429,466.6071428571429,534.6,459.1071428571429,466.6071428571429,636.6,459.1071428571429,466.6071428571429,738.5,459.1071428571429,466.6071428571429,846.4,459.1071428571429,466.6071428571429,958.6,459.1071428571429,466.6071428571429,1066.4,459.1071428571429,466.6071428571429,1173.1,459.1071428571429,466.6071428571429,1298.9,459.1071428571429,466.6071428571429,1411.8,459.1071428571429,466.6071428571429,1520.5,459.1071428571429,466.6071428571429,1628.4,459.1071428571429,466.6071428571429,1736.3,459.1071428571429,466.6071428571429,1843.6,459.1071428571429,466.6071428571429,1954.4,459.1071428571429,466.6071428571429,2054.8,459.1071428571429,466.6071428571429,2164.4,459.1071428571429,466.6071428571429,2281.3,459.1071428571429,466.6071428571429,2406.3,459.1071428571429,466.6071428571429,2506.8,459.1071428571429,466.6071428571429,2613.5,459.1071428571429,466.6071428571429,2718.1,459.1071428571429,466.6071428571429,2854.8,459.1071428571429,466.6071428571429,2954.9,459.1071428571429,466.6071428571429,3054.9,459.1071428571429,466.6071428571429,3163.8,459.1071428571429,466.6071428571429,3266.2,459.1071428571429,466.6071428571429,3375.6,459.1071428571429,466.6071428571429,3488.9,459.1071428571429,466.6071428571429,3603.2,459.1071428571429,466.6071428571429,3716,459.1071428571429,466.6071428571429,3818.9,459.1071428571429,466.6071428571429,3933.2,459.1071428571429,466.6071428571429,4047.4,459.1071428571429,466.6071428571429,4154.5,459.1071428571429,466.6071428571429,4272.9,459.1071428571429,466.6071428571429,4375.5,459.1071428571429,466.6071428571429,4487.6,459.1071428571429,466.6071428571429,4589.4,459.1071428571429,466.6071428571429,4700.6,459.1071428571429,466.6071428571429,4829.1,459.1071428571429,466.6071428571429,4936.2]","[1519.8,1519.8,1000,0,519.8,""smooth"",""left"",""left"",""good_move"",4133.2,2610,1914.7,1523.3,695.2,""smooth"",""left"",""left"",""good_move"",7818.7,3682.6,3019.9,4136.1,662.7,""oops"",""up"",""down"",""bad_move"",11471.2,3650.9,3135.3,7820.3,515.6,""smooth"",""up"",""up"",""good_move"",14911,3438.5,1884.9,11472.6,1553.6,""smooth"",""up"",""up"",""good_move"",17473,2560.3,1765.6,14912.7,794.7,""oops"",""up"",""up"",""good_move""]"
"8483","","<div style=""width:500px;"">
  <p>What determined the result of this run?</p>
  </div>","82","html-slider-response","69","1571357","0.0-7.0-1.11","223","1","2025-08-07 03:35:59","36c45c0696341be0efffe67d72a12abb","41.13.198.111","Mozilla/5.0 (Windows NT 10.0; Win64; x64) AppleWebKit/537.36 (KHTML, like Gecko) Chrome/138.0.0.0 Safari/537.36","WebKit","Chrome","138.0.0.0","Windows","10.0","https://app.prolific.com/","en-GB,en-US;q=0.9,en;q=0.8","67acf1d438e2c92a40f88a9e","687a1a965b9f5b85a264363e","68941f119f39316ce1e850c1","1","67acf1d438e2c92a40f88a9e","1","2025-08-07T04:02:13.273Z","","","","AttribQ","","","","","","","","","","","50","","","","","","","","","","","","","","","","","","","","","","","","","","",""
"6946","","<div style=""width:500px;"">
  <p>How much control did you have over the ball?</p>
  </div>","74","html-slider-response","70","1578308","0.0-7.0-2.11","223","1","2025-08-07 03:35:59","36c45c0696341be0efffe67d72a12abb","41.13.198.111","Mozilla/5.0 (Windows NT 10.0; Win64; x64) AppleWebKit/537.36 (KHTML, like Gecko) Chrome/138.0.0.0 Safari/537.36","WebKit","Chrome","138.0.0.0","Windows","10.0","https://app.prolific.com/","en-GB,en-US;q=0.9,en;q=0.8","67acf1d438e2c92a40f88a9e","687a1a965b9f5b85a264363e","68941f119f39316ce1e850c1","1","67acf1d438e2c92a40f88a9e","1","2025-08-07T04:02:20.225Z","","","","ControlQ","","","","","","","","","","","50","","","","","","","","","","","","","","","","","","","","","","","","","","",""
"7464","","<div style=""width:500px;"">
  <p>How would you describe your current emotional state?</p>
  </div>","28","html-slider-response","71","1585780","0.0-7.0-3.11","223","1","2025-08-07 03:35:59","36c45c0696341be0efffe67d72a12abb","41.13.198.111","Mozilla/5.0 (Windows NT 10.0; Win64; x64) AppleWebKit/537.36 (KHTML, like Gecko) Chrome/138.0.0.0 Safari/537.36","WebKit","Chrome","138.0.0.0","Windows","10.0","https://app.prolific.com/","en-GB,en-US;q=0.9,en;q=0.8","67acf1d438e2c92a40f88a9e","687a1a965b9f5b85a264363e","68941f119f39316ce1e850c1","1","67acf1d438e2c92a40f88a9e","1","2025-08-07T04:02:27.696Z","","","","StressQ","","","","","","","","","","","50","","","","","","","","","","","","","","","","","","","","","","","","","","",""
"8527","","<div style=""width:500px;"">
  <p>What best describes how you currently feel?</p>
  </div>","90","html-slider-response","72","1594309","0.0-7.0-4.11","223","1","2025-08-07 03:35:59","36c45c0696341be0efffe67d72a12abb","41.13.198.111","Mozilla/5.0 (Windows NT 10.0; Win64; x64) AppleWebKit/537.36 (KHTML, like Gecko) Chrome/138.0.0.0 Safari/537.36","WebKit","Chrome","138.0.0.0","Windows","10.0","https://app.prolific.com/","en-GB,en-US;q=0.9,en;q=0.8","67acf1d438e2c92a40f88a9e","687a1a965b9f5b85a264363e","68941f119f39316ce1e850c1","1","67acf1d438e2c92a40f88a9e","1","2025-08-07T04:02:36.225Z","","","","MotivationQ","","","","","","","","","","","50","","","","","","","","","","","","","","","","","","","","","","","","","","",""
"","","","","ctl-task-cpt","73","1635926","0.0-7.0-0.12","223","1","2025-08-07 03:35:59","36c45c0696341be0efffe67d72a12abb","41.13.198.111","Mozilla/5.0 (Windows NT 10.0; Win64; x64) AppleWebKit/537.36 (KHTML, like Gecko) Chrome/138.0.0.0 Safari/537.36","WebKit","Chrome","138.0.0.0","Windows","10.0","https://app.prolific.com/","en-GB,en-US;q=0.9,en;q=0.8","67acf1d438e2c92a40f88a9e","687a1a965b9f5b85a264363e","68941f119f39316ce1e850c1","1","67acf1d438e2c92a40f88a9e","1","2025-08-07T04:03:17.842Z","","","","","","","","","","","","","","","","win-only","3","g1:SW,g2:NE","0.8","13","0","1597768","12530","17549.3","38584.4","1","4","8","6","2","8","8","46","38","0.3484848484848485","5019.3","3000","2240","[""up"",""right""]","{""num_key_presses"":6,""num_perfect"":5,""num_errors"":0,""num_randdir"":1,""num_randdir_good_moves"":1,""num_whilered"":0,""num_whileblue"":0,""num_blue"":1,""num_good_moves"":6}","[469.1071428571429,456.6071428571429,3.6,469.1071428571429,456.6071428571429,119.6,469.1071428571429,456.6071428571429,224.2,469.1071428571429,456.6071428571429,326.8,469.1071428571429,456.6071428571429,429.2,469.1071428571429,456.6071428571429,535.1,469.1071428571429,456.6071428571429,642.2,469.1071428571429,456.6071428571429,746.1,469.1071428571429,456.6071428571429,856.4,469.1071428571429,456.6071428571429,956.8,469.1071428571429,456.6071428571429,1062.8,469.1071428571429,456.6071428571429,1173.1,469.1071428571429,456.6071428571429,1275.1,469.1071428571429,456.6071428571429,1393,469.1071428571429,456.6071428571429,1502.4,469.1071428571429,456.6071428571429,1606.4,469.1071428571429,456.6071428571429,1710.7,469.1071428571429,456.6071428571429,1820.9,469.1071428571429,456.6071428571429,1925.7,469.1071428571429,456.6071428571429,2026.9,469.1071428571429,456.6071428571429,2140.4,469.1071428571429,456.6071428571429,2244,469.1071428571429,456.6071428571429,2347.2,469.1071428571429,456.6071428571429,2473.3,469.1071428571429,456.6071428571429,2584.7,469.1071428571429,456.6071428571429,2687.6,469.1071428571429,456.6071428571429,2790.5,469.1071428571429,456.6071428571429,2893.3,469.1071428571429,456.6071428571429,2994.1,469.1071428571429,456.6071428571429,3101.5,469.1071428571429,456.6071428571429,3203.5,469.1071428571429,456.6071428571429,3309.7,469.1071428571429,456.6071428571429,3416.2,469.1071428571429,456.6071428571429,3522.8,469.1071428571429,456.6071428571429,3626.2,469.1071428571429,456.6071428571429,3736.6,469.1071428571429,456.6071428571429,3841,469.1071428571429,456.6071428571429,3941.1,469.1071428571429,456.6071428571429,4045.8,469.1071428571429,456.6071428571429,4149.5,469.1071428571429,456.6071428571429,4254.8,469.1071428571429,456.6071428571429,4357.5,469.1071428571429,456.6071428571429,4465.4,469.1071428571429,456.6071428571429,4581.7,469.1071428571429,456.6071428571429,4692.2,469.1071428571429,456.6071428571429,4797.4,469.1071428571429,456.6071428571429,4910.9]","[4081.6,4081.7,1607.8,2022.2,451.7,""smooth"",""up"",""up"",""good_move"",6983,2899,1963.5,4084.1,935.5,""smooth"",""up"",""up"",""good_move"",10916,3932.4,3527.3,6983.6,405.1,""smooth"",""up"",""up"",""good_move"",14331.4,3414.1,3005.8,10917.3,408.3,""smooth"",""right"",""right"",""good_move"",17819.1,3486.3,3068.4,14332.8,417.9,""oops"",""right"",""right"",""good_move"",20698.3,2876.2,2466.8,17822.2,409.4,""smooth"",""right"",""right"",""good_move""]"
"5972","","<div style=""width:500px;"">
  <p>What determined the result of this run?</p>
  </div>","100","html-slider-response","74","1641904","0.0-7.0-1.12","223","1","2025-08-07 03:35:59","36c45c0696341be0efffe67d72a12abb","41.13.198.111","Mozilla/5.0 (Windows NT 10.0; Win64; x64) AppleWebKit/537.36 (KHTML, like Gecko) Chrome/138.0.0.0 Safari/537.36","WebKit","Chrome","138.0.0.0","Windows","10.0","https://app.prolific.com/","en-GB,en-US;q=0.9,en;q=0.8","67acf1d438e2c92a40f88a9e","687a1a965b9f5b85a264363e","68941f119f39316ce1e850c1","1","67acf1d438e2c92a40f88a9e","1","2025-08-07T04:03:23.820Z","","","","AttribQ","","","","","","","","","","","50","","","","","","","","","","","","","","","","","","","","","","","","","","",""
"6606","","<div style=""width:500px;"">
  <p>How much control did you have over the ball?</p>
  </div>","100","html-slider-response","75","1648516","0.0-7.0-2.12","223","1","2025-08-07 03:35:59","36c45c0696341be0efffe67d72a12abb","41.13.198.111","Mozilla/5.0 (Windows NT 10.0; Win64; x64) AppleWebKit/537.36 (KHTML, like Gecko) Chrome/138.0.0.0 Safari/537.36","WebKit","Chrome","138.0.0.0","Windows","10.0","https://app.prolific.com/","en-GB,en-US;q=0.9,en;q=0.8","67acf1d438e2c92a40f88a9e","687a1a965b9f5b85a264363e","68941f119f39316ce1e850c1","1","67acf1d438e2c92a40f88a9e","1","2025-08-07T04:03:30.433Z","","","","ControlQ","","","","","","","","","","","50","","","","","","","","","","","","","","","","","","","","","","","","","","",""
"5727","","<div style=""width:500px;"">
  <p>How would you describe your current emotional state?</p>
  </div>","23","html-slider-response","76","1654248","0.0-7.0-3.12","223","1","2025-08-07 03:35:59","36c45c0696341be0efffe67d72a12abb","41.13.198.111","Mozilla/5.0 (Windows NT 10.0; Win64; x64) AppleWebKit/537.36 (KHTML, like Gecko) Chrome/138.0.0.0 Safari/537.36","WebKit","Chrome","138.0.0.0","Windows","10.0","https://app.prolific.com/","en-GB,en-US;q=0.9,en;q=0.8","67acf1d438e2c92a40f88a9e","687a1a965b9f5b85a264363e","68941f119f39316ce1e850c1","1","67acf1d438e2c92a40f88a9e","1","2025-08-07T04:03:36.165Z","","","","StressQ","","","","","","","","","","","50","","","","","","","","","","","","","","","","","","","","","","","","","","",""
"6451","","<div style=""width:500px;"">
  <p>What best describes how you currently feel?</p>
  </div>","89","html-slider-response","77","1660702","0.0-7.0-4.12","223","1","2025-08-07 03:35:59","36c45c0696341be0efffe67d72a12abb","41.13.198.111","Mozilla/5.0 (Windows NT 10.0; Win64; x64) AppleWebKit/537.36 (KHTML, like Gecko) Chrome/138.0.0.0 Safari/537.36","WebKit","Chrome","138.0.0.0","Windows","10.0","https://app.prolific.com/","en-GB,en-US;q=0.9,en;q=0.8","67acf1d438e2c92a40f88a9e","687a1a965b9f5b85a264363e","68941f119f39316ce1e850c1","1","67acf1d438e2c92a40f88a9e","1","2025-08-07T04:03:42.619Z","","","","MotivationQ","","","","","","","","","","","50","","","","","","","","","","","","","","","","","","","","","","","","","","",""
