"rt","response_timestamp","stimulus","response","trial_type","trial_index","time_elapsed","internal_node_id","run_id","condition","recorded_at","source_code_version","ip","user_agent","device","browser","browser_version","platform","platform_version","referer","accept_language","PROLIFIC_PID","STUDY_ID","SESSION_ID","BATCH","prolific_id","batch","realtime","success","question_order","question_id","eventType","responses","item_order","radio_event_ids","radio_event_times","key_event_times","mouse_event_times","straightlining","zigzagging","honeypot","view_history","slider_start","which_type","canvas_config","goals_layout","control_level","trial_number","tutorial_trial_number","trial_start_time","phase1_start_time","phase2_start_time","phase3_start_time","goal_1_value","goal_1_distance","goal_2_value","goal_2_distance","goal_selected","outcome","outcome_total","participant_final_score","participant_initial_score","participant_final_score_prop","goal_choice_rt","allocated_time","allocated_time_remaining","goal_direction","counts","mouse_movements","key_presses"
"2948","1753865801514","<p style='font-size:40px;line-height:1.25'><strong>Welcome to the experiment!</strong></p><p style='font-size:1.1em;line-height:1.25'>Thank you for participanting in our experiment again! You will be asked to play the Dysfunctional Ball Game again. We will briefly recap the rules before we start.</p><p style='font-size:1.1em;line-height:1.25'>Press <strong>Next</strong> to continue.</p>","0","custom-html-button-response","0","2954","0.0-0.0","67","1","2025-07-30 08:56:32","36c45c0696341be0efffe67d72a12abb","41.150.226.50","Mozilla/5.0 (Windows NT 10.0; Win64; x64) AppleWebKit/537.36 (KHTML, like Gecko) Chrome/138.0.0.0 Safari/537.36","WebKit","Chrome","138.0.0.0","Windows","10.0","https://app.prolific.com/","en-GB,en-US;q=0.9,en;q=0.8","67adeb124ea5587ac8afa3ac","687a360dabe5252b5ada7185","6889da7a83a51d8ecf6ca94f","0","67adeb124ea5587ac8afa3ac","0","2025-07-30T08:56:41.516Z","","","","","","","","","","","","","","","","","","","","","","","","","","","","","","","","","","","","","","","","","",""
"20952","","","","fullscreen","1","24911","0.0-1.0","67","1","2025-07-30 08:56:32","36c45c0696341be0efffe67d72a12abb","41.150.226.50","Mozilla/5.0 (Windows NT 10.0; Win64; x64) AppleWebKit/537.36 (KHTML, like Gecko) Chrome/138.0.0.0 Safari/537.36","WebKit","Chrome","138.0.0.0","Windows","10.0","https://app.prolific.com/","en-GB,en-US;q=0.9,en;q=0.8","67adeb124ea5587ac8afa3ac","687a360dabe5252b5ada7185","6889da7a83a51d8ecf6ca94f","0","67adeb124ea5587ac8afa3ac","0","","true","","","","","","","","","","","","","","","","","","","","","","","","","","","","","","","","","","","","","","","","",""
"3459","1753865826936"," <p style='font-size:1.1em;line-height:1.25'>Thank you for closing all other tabs.</p><p style='font-size:1.1em;line-height:1.25'>We will now invite you to fill in some questionnaires, before starting the game.<br>This will take about 5 minutes.<br></p><p style='font-size:1.1em;line-height:1.25'>Press the <strong>Next</strong> button to continue.</p>","0","custom-html-button-response","2","28375","0.0-2.0","67","1","2025-07-30 08:56:32","36c45c0696341be0efffe67d72a12abb","41.150.226.50","Mozilla/5.0 (Windows NT 10.0; Win64; x64) AppleWebKit/537.36 (KHTML, like Gecko) Chrome/138.0.0.0 Safari/537.36","WebKit","Chrome","138.0.0.0","Windows","10.0","https://app.prolific.com/","en-GB,en-US;q=0.9,en;q=0.8","67adeb124ea5587ac8afa3ac","687a360dabe5252b5ada7185","6889da7a83a51d8ecf6ca94f","0","67adeb124ea5587ac8afa3ac","0","2025-07-30T08:57:06.937Z","","","","","","","","","","","","","","","","","","","","","","","","","","","","","","","","","","","","","","","","","",""
"4816","","","{""assigned_sex"":""female""}","survey-multi-choice","3","33194","0.0-3.0-0.0","67","1","2025-07-30 08:56:32","36c45c0696341be0efffe67d72a12abb","41.150.226.50","Mozilla/5.0 (Windows NT 10.0; Win64; x64) AppleWebKit/537.36 (KHTML, like Gecko) Chrome/138.0.0.0 Safari/537.36","WebKit","Chrome","138.0.0.0","Windows","10.0","https://app.prolific.com/","en-GB,en-US;q=0.9,en;q=0.8","67adeb124ea5587ac8afa3ac","687a360dabe5252b5ada7185","6889da7a83a51d8ecf6ca94f","0","67adeb124ea5587ac8afa3ac","0","","","[0]","0","demographics","","","","","","","","","","","","","","","","","","","","","","","","","","","","","","","","","","","","","",""
"3186","1753865834943","<p style='font-size:1.1em;line-height:1.25'>In the following, we will perform a baseline assessment. This means that we will ask you a few questions relating to your experiences over the past month.<br></p><p style='font-size:1.1em;line-height:1.25'>Press the <strong>Next</strong> button to continue.</p>","0","custom-html-button-response","4","36382","0.0-4.0-0.0","67","1","2025-07-30 08:56:32","36c45c0696341be0efffe67d72a12abb","41.150.226.50","Mozilla/5.0 (Windows NT 10.0; Win64; x64) AppleWebKit/537.36 (KHTML, like Gecko) Chrome/138.0.0.0 Safari/537.36","WebKit","Chrome","138.0.0.0","Windows","10.0","https://app.prolific.com/","en-GB,en-US;q=0.9,en;q=0.8","67adeb124ea5587ac8afa3ac","687a360dabe5252b5ada7185","6889da7a83a51d8ecf6ca94f","0","67adeb124ea5587ac8afa3ac","0","2025-07-30T08:57:14.944Z","","","","","","","","","","","","","","","","","","","","","","","","","","","","","","","","","","","","","","","","","",""
"43565.40000000037","","","","survey-template","5","79952","0.0-4.0-1.0","67","1","2025-07-30 08:56:32","36c45c0696341be0efffe67d72a12abb","41.150.226.50","Mozilla/5.0 (Windows NT 10.0; Win64; x64) AppleWebKit/537.36 (KHTML, like Gecko) Chrome/138.0.0.0 Safari/537.36","WebKit","Chrome","138.0.0.0","Windows","10.0","https://app.prolific.com/","en-GB,en-US;q=0.9,en;q=0.8","67adeb124ea5587ac8afa3ac","687a360dabe5252b5ada7185","6889da7a83a51d8ecf6ca94f","0","67adeb124ea5587ac8afa3ac","0","2025-07-30T08:57:58.514Z","","","","pss","{""Q01"":""2"",""Q02"":""3"",""Q03"":""3"",""Q04"":""2"",""Q05"":""3"",""Q06"":""2"",""Q07"":""1"",""Q08"":""3"",""Q09"":""2"",""Q10"":""3""}","[0,1,2,3,4,5,6,7,8,9]","[""Q01"",""Q02"",""Q03"",""Q04"",""Q05"",""Q06"",""Q07"",""Q08"",""Q09"",""Q10""]","[4556.9000000003725,6566.9000000003725,7777.200000000186,9794,12353.200000000186,32995.5,35165.60000000056,38917.800000000745,40251.800000000745,42668.800000000745]","[]","[0.10000000055879354,4556.9000000003725,6566.9000000003725,7777.200000000186,9794,12353.200000000186,32995.5,35165.60000000056,38917.800000000745,40251.800000000745,41286.90000000037,42668.800000000745,43560.90000000037]","0.4","0.7777777777777778","0","","","","","","","","","","","","","","","","","","","","","","","","","","","","",""
"2894","1753865881410","<p style='font-size:1.1em;line-height:1.25'>Thank you for your answers! Now we will ask you a few more questions relating to your feelings in the last 24 hours.<br></p><p style='font-size:1.1em;line-height:1.25'>Press the <strong>Next</strong> button to continue.</p>","0","custom-html-button-response","6","82848","0.0-4.0-2.0","67","1","2025-07-30 08:56:32","36c45c0696341be0efffe67d72a12abb","41.150.226.50","Mozilla/5.0 (Windows NT 10.0; Win64; x64) AppleWebKit/537.36 (KHTML, like Gecko) Chrome/138.0.0.0 Safari/537.36","WebKit","Chrome","138.0.0.0","Windows","10.0","https://app.prolific.com/","en-GB,en-US;q=0.9,en;q=0.8","67adeb124ea5587ac8afa3ac","687a360dabe5252b5ada7185","6889da7a83a51d8ecf6ca94f","0","67adeb124ea5587ac8afa3ac","0","2025-07-30T08:58:01.410Z","","","","","","","","","","","","","","","","","","","","","","","","","","","","","","","","","","","","","","","","","",""
"87222.59999999963","","","","survey-template","7","170077","0.0-4.0-3.0","67","1","2025-07-30 08:56:32","36c45c0696341be0efffe67d72a12abb","41.150.226.50","Mozilla/5.0 (Windows NT 10.0; Win64; x64) AppleWebKit/537.36 (KHTML, like Gecko) Chrome/138.0.0.0 Safari/537.36","WebKit","Chrome","138.0.0.0","Windows","10.0","https://app.prolific.com/","en-GB,en-US;q=0.9,en;q=0.8","67adeb124ea5587ac8afa3ac","687a360dabe5252b5ada7185","6889da7a83a51d8ecf6ca94f","0","67adeb124ea5587ac8afa3ac","0","2025-07-30T08:59:28.639Z","","","","drsp","{""Q01"":""1"",""Q02"":""2"",""Q03"":""1"",""Q04"":""1"",""Q05"":""2"",""Q06"":""3"",""Q07"":""1"",""Q08"":""0"",""Q09"":""2"",""Q10"":""0"",""Q11"":""4"",""Q12"":""0"",""Q13"":""5"",""Q14"":""4"",""Q15"":""3"",""Q16"":""3"",""Q17"":""2"",""Q18"":""2"",""Q19"":""0"",""Q20"":""3"",""Q21"":""3"",""Q22"":""2""}","[0,1,2,3,4,5,6,7,8,9,10,11,12,13,14,15,16,17,18,19,20,21]","[""Q02"",""Q03"",""Q04"",""Q05"",""Q06"",""Q07"",""Q08"",""Q09"",""Q11"",""Q12"",""Q13"",""Q14"",""Q15"",""Q16"",""Q17"",""Q19"",""Q20"",""Q21"",""Q22"",""Q01"",""Q10"",""Q18""]","[3539.4000000003725,5268,6582.5,14706.099999999627,16595.5,21434,24283.799999999814,28946.299999999814,32012.099999999627,34710.09999999963,37789.299999999814,40867.200000000186,44115.59999999963,45985.200000000186,47491.799999999814,54934.5,57568,60458.700000000186,61920.700000000186,69109.29999999981,77989.70000000019,83683.09999999963]","[]","[0,2410,3539.4000000003725,5268,6582.5,12075.799999999814,14706.099999999627,16595.5,21434,24283.799999999814,28946.299999999814,30749.400000000373,32012.099999999627,34710.09999999963,37789.299999999814,40867.200000000186,44115.59999999963,45985.200000000186,47491.799999999814,52859.700000000186,54934.5,57568,60458.700000000186,61920.700000000186,62939.299999999814,67795,69109.29999999981,72845,77989.70000000019,83683.09999999963,87214.90000000037]","0.2727272727272727","0.47619047619047616","0","","","","","","","","","","","","","","","","","","","","","","","","","","","","",""
"9620.700000000186","","","","survey-template","8","179700","0.0-4.0-4.0","67","1","2025-07-30 08:56:32","36c45c0696341be0efffe67d72a12abb","41.150.226.50","Mozilla/5.0 (Windows NT 10.0; Win64; x64) AppleWebKit/537.36 (KHTML, like Gecko) Chrome/138.0.0.0 Safari/537.36","WebKit","Chrome","138.0.0.0","Windows","10.0","https://app.prolific.com/","en-GB,en-US;q=0.9,en;q=0.8","67adeb124ea5587ac8afa3ac","687a360dabe5252b5ada7185","6889da7a83a51d8ecf6ca94f","0","67adeb124ea5587ac8afa3ac","0","2025-07-30T08:59:38.263Z","","","","stress","{""Q01"":""3"",""Q02"":""4"",""Q03"":""1""}","[0,1,2]","[""Q01"",""Q02"",""Q03""]","[3125.7000000001863,6606.700000000186,8298.900000000373]","[]","[3125.7000000001863,4904.200000000186,6606.700000000186,8298.900000000373,9619.300000000745]","0.6666666666666666","0","0","","","","","","","","","","","","","","","","","","","","","","","","","","","","",""
"25707","","","","instructions","9","205409","0.0-5.0-0.0","67","1","2025-07-30 08:56:32","36c45c0696341be0efffe67d72a12abb","41.150.226.50","Mozilla/5.0 (Windows NT 10.0; Win64; x64) AppleWebKit/537.36 (KHTML, like Gecko) Chrome/138.0.0.0 Safari/537.36","WebKit","Chrome","138.0.0.0","Windows","10.0","https://app.prolific.com/","en-GB,en-US;q=0.9,en;q=0.8","67adeb124ea5587ac8afa3ac","687a360dabe5252b5ada7185","6889da7a83a51d8ecf6ca94f","0","67adeb124ea5587ac8afa3ac","0","","","","","","","","","","","","","","","[{""page_index"":0,""viewing_time"":25707}]","","","","","","","","","","","","","","","","","","","","","","","","","","","",""
"4428","","<p>Before you start with this game please answer the following three questions yourself. </p>
  <p>Through this game, we measure several aspects of your cognitive performance, such as reaction times, multi-tasking capabilities </p>
  <p>and the ability to assess the situation you are in.</p>
  <p></p>
  <p><b>How good do you usually are in such tasks?</b></p>","78","html-slider-response","10","209839","0.0-6.0-0.0","67","1","2025-07-30 08:56:32","36c45c0696341be0efffe67d72a12abb","41.150.226.50","Mozilla/5.0 (Windows NT 10.0; Win64; x64) AppleWebKit/537.36 (KHTML, like Gecko) Chrome/138.0.0.0 Safari/537.36","WebKit","Chrome","138.0.0.0","Windows","10.0","https://app.prolific.com/","en-GB,en-US;q=0.9,en;q=0.8","67adeb124ea5587ac8afa3ac","687a360dabe5252b5ada7185","6889da7a83a51d8ecf6ca94f","0","67adeb124ea5587ac8afa3ac","0","2025-07-30T09:00:08.401Z","","","","PreSkillQ","","","","","","","","","","","50","","","","","","","","","","","","","","","","","","","","","","","","","","",""
"4831","","<div style=""width:500px;"">
  <p>How well do you think you will perform in this task compared to other participants?</p>
  </div>","74","html-slider-response","11","214672","0.0-6.0-1.0","67","1","2025-07-30 08:56:32","36c45c0696341be0efffe67d72a12abb","41.150.226.50","Mozilla/5.0 (Windows NT 10.0; Win64; x64) AppleWebKit/537.36 (KHTML, like Gecko) Chrome/138.0.0.0 Safari/537.36","WebKit","Chrome","138.0.0.0","Windows","10.0","https://app.prolific.com/","en-GB,en-US;q=0.9,en;q=0.8","67adeb124ea5587ac8afa3ac","687a360dabe5252b5ada7185","6889da7a83a51d8ecf6ca94f","0","67adeb124ea5587ac8afa3ac","0","2025-07-30T09:00:13.234Z","","","","PrePerfQ","","","","","","","","","","","50","","","","","","","","","","","","","","","","","","","","","","","","","","",""
"2804","","<div style=""width:500px;"">
  <p>What best describes how you currently feel?</p>
  </div>","84","html-slider-response","12","217478","0.0-6.0-2.0","67","1","2025-07-30 08:56:32","36c45c0696341be0efffe67d72a12abb","41.150.226.50","Mozilla/5.0 (Windows NT 10.0; Win64; x64) AppleWebKit/537.36 (KHTML, like Gecko) Chrome/138.0.0.0 Safari/537.36","WebKit","Chrome","138.0.0.0","Windows","10.0","https://app.prolific.com/","en-GB,en-US;q=0.9,en;q=0.8","67adeb124ea5587ac8afa3ac","687a360dabe5252b5ada7185","6889da7a83a51d8ecf6ca94f","0","67adeb124ea5587ac8afa3ac","0","2025-07-30T09:00:16.041Z","","","","PreMotivationQ","","","","","","","","","","","50","","","","","","","","","","","","","","","","","","","","","","","","","","",""
"","","","","ctl-task-cpt","13","256011","0.0-7.0-0.0","67","1","2025-07-30 08:56:32","36c45c0696341be0efffe67d72a12abb","41.150.226.50","Mozilla/5.0 (Windows NT 10.0; Win64; x64) AppleWebKit/537.36 (KHTML, like Gecko) Chrome/138.0.0.0 Safari/537.36","WebKit","Chrome","138.0.0.0","Windows","10.0","https://app.prolific.com/","en-GB,en-US;q=0.9,en;q=0.8","67adeb124ea5587ac8afa3ac","687a360dabe5252b5ada7185","6889da7a83a51d8ecf6ca94f","0","67adeb124ea5587ac8afa3ac","0","2025-07-30T09:00:54.574Z","","","","","","","","","","","","","","","","win-only","2","g1:SE,g2:NW","1","1","0","226604.7","14759.1","19762.6","35522.9","1","4","8","6","1","1","1","1","0","0.007575757575757576","1262.8","3000","1860","[""down"",""right""]","{""num_key_presses"":4,""num_perfect"":4,""num_errors"":0,""num_randdir"":0,""num_randdir_good_moves"":0,""num_whilered"":0,""num_whileblue"":0,""num_blue"":2,""num_good_moves"":4}","[296.22232142857143,300.12857142857143,1.6,296.22232142857143,300.12857142857143,104.8,296.22232142857143,300.12857142857143,207.5,296.22232142857143,300.12857142857143,309.5,296.22232142857143,300.12857142857143,412.7,296.22232142857143,300.12857142857143,514.3,562.2223214285714,548.1285714285714,630.8,562.2223214285714,548.1285714285714,735.1,562.2223214285714,548.1285714285714,844.3,552.2223214285714,548.1285714285714,947.9,542.2223214285714,548.1285714285714,1054.3,542.2223214285714,548.1285714285714,1155.4,542.2223214285714,548.1285714285714,1270.3,542.2223214285714,548.1285714285714,1376.1,542.2223214285714,548.1285714285714,1476.2,542.2223214285714,548.1285714285714,1578.4,542.2223214285714,548.1285714285714,1682.7,542.2223214285714,548.1285714285714,1783.8,542.2223214285714,548.1285714285714,1887.4,542.2223214285714,548.1285714285714,1995.4,542.2223214285714,548.1285714285714,2097.8,546.2223214285714,548.1285714285714,2207.6,546.2223214285714,548.1285714285714,2309,546.2223214285714,548.1285714285714,2414.3,546.2223214285714,548.1285714285714,2521.1,546.2223214285714,548.1285714285714,2627.2,546.2223214285714,548.1285714285714,2733.3,546.2223214285714,548.1285714285714,2835.3,546.2223214285714,548.1285714285714,2936.8,546.2223214285714,548.1285714285714,3041.3,546.2223214285714,548.1285714285714,3149.9,546.2223214285714,548.1285714285714,3258.3,546.2223214285714,548.1285714285714,3370.6,546.2223214285714,548.1285714285714,3471.1,546.2223214285714,548.1285714285714,3573.8,546.2223214285714,548.1285714285714,3678.2,546.2223214285714,548.1285714285714,3785.3,546.2223214285714,548.1285714285714,3890.4,546.2223214285714,548.1285714285714,3992.1,546.2223214285714,548.1285714285714,4095.5,546.2223214285714,548.1285714285714,4196,546.2223214285714,548.1285714285714,4301.3,546.2223214285714,548.1285714285714,4404.6,546.2223214285714,548.1285714285714,4504.7,546.2223214285714,548.1285714285714,4607.3,546.2223214285714,548.1285714285714,4710.2,546.2223214285714,548.1285714285714,4816.1,546.2223214285714,548.1285714285714,4917.2]","[4534.3,4534.2,2019.4,2002.7,512.2,""smooth"",""down"",""down"",""good_move"",9797.8,5260.2,2191.5,7231.2,375.3,""smooth"",""right"",""right"",""good_move"",11898.1,2090.7,1539.6,9807.8,551,""smooth"",""down"",""down"",""good_move"",15607.5,3700.6,3333.1,11906.9,367.5,""smooth"",""right"",""right"",""good_move""]"
"2614","","<div style=""width:500px;"">
  <p>What determined the result of this run?</p>
  </div>","81","html-slider-response","14","258629","0.0-7.0-1.0","67","1","2025-07-30 08:56:32","36c45c0696341be0efffe67d72a12abb","41.150.226.50","Mozilla/5.0 (Windows NT 10.0; Win64; x64) AppleWebKit/537.36 (KHTML, like Gecko) Chrome/138.0.0.0 Safari/537.36","WebKit","Chrome","138.0.0.0","Windows","10.0","https://app.prolific.com/","en-GB,en-US;q=0.9,en;q=0.8","67adeb124ea5587ac8afa3ac","687a360dabe5252b5ada7185","6889da7a83a51d8ecf6ca94f","0","67adeb124ea5587ac8afa3ac","0","2025-07-30T09:00:57.191Z","","","","AttribQ","","","","","","","","","","","50","","","","","","","","","","","","","","","","","","","","","","","","","","",""
"2444","","<div style=""width:500px;"">
  <p>How much control did you have over the ball?</p>
  </div>","90","html-slider-response","15","261075","0.0-7.0-2.0","67","1","2025-07-30 08:56:32","36c45c0696341be0efffe67d72a12abb","41.150.226.50","Mozilla/5.0 (Windows NT 10.0; Win64; x64) AppleWebKit/537.36 (KHTML, like Gecko) Chrome/138.0.0.0 Safari/537.36","WebKit","Chrome","138.0.0.0","Windows","10.0","https://app.prolific.com/","en-GB,en-US;q=0.9,en;q=0.8","67adeb124ea5587ac8afa3ac","687a360dabe5252b5ada7185","6889da7a83a51d8ecf6ca94f","0","67adeb124ea5587ac8afa3ac","0","2025-07-30T09:00:59.638Z","","","","ControlQ","","","","","","","","","","","50","","","","","","","","","","","","","","","","","","","","","","","","","","",""
"3251","","<div style=""width:500px;"">
  <p>How would you describe your current emotional state?</p>
  </div>","10","html-slider-response","16","264329","0.0-7.0-3.0","67","1","2025-07-30 08:56:32","36c45c0696341be0efffe67d72a12abb","41.150.226.50","Mozilla/5.0 (Windows NT 10.0; Win64; x64) AppleWebKit/537.36 (KHTML, like Gecko) Chrome/138.0.0.0 Safari/537.36","WebKit","Chrome","138.0.0.0","Windows","10.0","https://app.prolific.com/","en-GB,en-US;q=0.9,en;q=0.8","67adeb124ea5587ac8afa3ac","687a360dabe5252b5ada7185","6889da7a83a51d8ecf6ca94f","0","67adeb124ea5587ac8afa3ac","0","2025-07-30T09:01:02.891Z","","","","StressQ","","","","","","","","","","","50","","","","","","","","","","","","","","","","","","","","","","","","","","",""
"2634","","<div style=""width:500px;"">
  <p>What best describes how you currently feel?</p>
  </div>","75","html-slider-response","17","266964","0.0-7.0-4.0","67","1","2025-07-30 08:56:32","36c45c0696341be0efffe67d72a12abb","41.150.226.50","Mozilla/5.0 (Windows NT 10.0; Win64; x64) AppleWebKit/537.36 (KHTML, like Gecko) Chrome/138.0.0.0 Safari/537.36","WebKit","Chrome","138.0.0.0","Windows","10.0","https://app.prolific.com/","en-GB,en-US;q=0.9,en;q=0.8","67adeb124ea5587ac8afa3ac","687a360dabe5252b5ada7185","6889da7a83a51d8ecf6ca94f","0","67adeb124ea5587ac8afa3ac","0","2025-07-30T09:01:05.526Z","","","","MotivationQ","","","","","","","","","","","50","","","","","","","","","","","","","","","","","","","","","","","","","","",""
"","","","","ctl-task-cpt","18","303384","0.0-7.0-0.1","67","1","2025-07-30 08:56:32","36c45c0696341be0efffe67d72a12abb","41.150.226.50","Mozilla/5.0 (Windows NT 10.0; Win64; x64) AppleWebKit/537.36 (KHTML, like Gecko) Chrome/138.0.0.0 Safari/537.36","WebKit","Chrome","138.0.0.0","Windows","10.0","https://app.prolific.com/","en-GB,en-US;q=0.9,en;q=0.8","67adeb124ea5587ac8afa3ac","687a360dabe5252b5ada7185","6889da7a83a51d8ecf6ca94f","0","67adeb124ea5587ac8afa3ac","0","2025-07-30T09:01:41.946Z","","","","","","","","","","","","","","","","win-only","2","g1:SE,g2:NW","0.9","2","0","276087.8","2689.7","7711.3","33400.3","1","4","4","6","1","1","1","2","1","0.015151515151515152","1726.5","3000","1745","[""down"",""right""]","{""num_key_presses"":4,""num_perfect"":4,""num_errors"":0,""num_randdir"":0,""num_randdir_good_moves"":0,""num_whilered"":0,""num_whileblue"":0,""num_blue"":4,""num_good_moves"":4}","[294.22232142857143,290.12857142857143,1.3,294.22232142857143,290.12857142857143,104.9,294.22232142857143,290.12857142857143,208.4,294.22232142857143,290.12857142857143,310.8,294.22232142857143,290.12857142857143,428.1,294.22232142857143,290.12857142857143,531.3,294.22232142857143,290.12857142857143,632.5,294.22232142857143,290.12857142857143,737,294.22232142857143,290.12857142857143,838,294.22232142857143,290.12857142857143,938.5,296.22232142857143,295.12857142857143,1048.6,526.2223214285714,503.12857142857143,1149.4,526.2223214285714,503.12857142857143,1257.3,526.2223214285714,505.12857142857143,1367.3,533.2223214285714,538.1285714285714,1481.7,534.2223214285714,540.1285714285714,1586.4,534.2223214285714,540.1285714285714,1689.3,534.2223214285714,540.1285714285714,1793.2,534.2223214285714,540.1285714285714,1895,534.2223214285714,540.1285714285714,2005.2,534.2223214285714,540.1285714285714,2106.4,534.2223214285714,540.1285714285714,2207.1,534.2223214285714,540.1285714285714,2307.3,534.2223214285714,540.1285714285714,2418.2,534.2223214285714,540.1285714285714,2523,534.2223214285714,540.1285714285714,2627.4,534.2223214285714,540.1285714285714,2732.9,534.2223214285714,540.1285714285714,2836.2,534.2223214285714,540.1285714285714,2938.5,534.2223214285714,540.1285714285714,3044.1,534.2223214285714,540.1285714285714,3144.1,534.2223214285714,540.1285714285714,3247.7,534.2223214285714,540.1285714285714,3351.7,534.2223214285714,540.1285714285714,3452.7,534.2223214285714,540.1285714285714,3558.6,534.2223214285714,540.1285714285714,3665.6,534.2223214285714,540.1285714285714,3770.2,534.2223214285714,540.1285714285714,3873.4,534.2223214285714,540.1285714285714,3974,534.2223214285714,540.1285714285714,4077.8,534.2223214285714,540.1285714285714,4180.8,534.2223214285714,540.1285714285714,4288.7,534.2223214285714,540.1285714285714,4390.6,534.2223214285714,540.1285714285714,4494.2,534.2223214285714,540.1285714285714,4601.7,534.2223214285714,540.1285714285714,4704.5,534.2223214285714,540.1285714285714,4807.5,534.2223214285714,540.1285714285714,4917.5]","[5167.5,5167.5,2755,2012.2,400.3,""smooth"",""right"",""right"",""good_move"",15451.6,10282.6,2309.8,12744.6,397.2,""smooth"",""down"",""down"",""good_move"",22514.8,7062.4,3037.8,19079.6,397.4,""smooth"",""right"",""right"",""good_move"",25564.5,3045.9,2553.3,22518.6,492.6,""smooth"",""down"",""down"",""good_move""]"
"2463","","<div style=""width:500px;"">
  <p>What determined the result of this run?</p>
  </div>","79","html-slider-response","19","305849","0.0-7.0-1.1","67","1","2025-07-30 08:56:32","36c45c0696341be0efffe67d72a12abb","41.150.226.50","Mozilla/5.0 (Windows NT 10.0; Win64; x64) AppleWebKit/537.36 (KHTML, like Gecko) Chrome/138.0.0.0 Safari/537.36","WebKit","Chrome","138.0.0.0","Windows","10.0","https://app.prolific.com/","en-GB,en-US;q=0.9,en;q=0.8","67adeb124ea5587ac8afa3ac","687a360dabe5252b5ada7185","6889da7a83a51d8ecf6ca94f","0","67adeb124ea5587ac8afa3ac","0","2025-07-30T09:01:44.411Z","","","","AttribQ","","","","","","","","","","","50","","","","","","","","","","","","","","","","","","","","","","","","","","",""
"2322","","<div style=""width:500px;"">
  <p>How much control did you have over the ball?</p>
  </div>","80","html-slider-response","20","308172","0.0-7.0-2.1","67","1","2025-07-30 08:56:32","36c45c0696341be0efffe67d72a12abb","41.150.226.50","Mozilla/5.0 (Windows NT 10.0; Win64; x64) AppleWebKit/537.36 (KHTML, like Gecko) Chrome/138.0.0.0 Safari/537.36","WebKit","Chrome","138.0.0.0","Windows","10.0","https://app.prolific.com/","en-GB,en-US;q=0.9,en;q=0.8","67adeb124ea5587ac8afa3ac","687a360dabe5252b5ada7185","6889da7a83a51d8ecf6ca94f","0","67adeb124ea5587ac8afa3ac","0","2025-07-30T09:01:46.735Z","","","","ControlQ","","","","","","","","","","","50","","","","","","","","","","","","","","","","","","","","","","","","","","",""
"3570","","<div style=""width:500px;"">
  <p>How would you describe your current emotional state?</p>
  </div>","14","html-slider-response","21","311744","0.0-7.0-3.1","67","1","2025-07-30 08:56:32","36c45c0696341be0efffe67d72a12abb","41.150.226.50","Mozilla/5.0 (Windows NT 10.0; Win64; x64) AppleWebKit/537.36 (KHTML, like Gecko) Chrome/138.0.0.0 Safari/537.36","WebKit","Chrome","138.0.0.0","Windows","10.0","https://app.prolific.com/","en-GB,en-US;q=0.9,en;q=0.8","67adeb124ea5587ac8afa3ac","687a360dabe5252b5ada7185","6889da7a83a51d8ecf6ca94f","0","67adeb124ea5587ac8afa3ac","0","2025-07-30T09:01:50.307Z","","","","StressQ","","","","","","","","","","","50","","","","","","","","","","","","","","","","","","","","","","","","","","",""
"3171","","<div style=""width:500px;"">
  <p>What best describes how you currently feel?</p>
  </div>","81","html-slider-response","22","314917","0.0-7.0-4.1","67","1","2025-07-30 08:56:32","36c45c0696341be0efffe67d72a12abb","41.150.226.50","Mozilla/5.0 (Windows NT 10.0; Win64; x64) AppleWebKit/537.36 (KHTML, like Gecko) Chrome/138.0.0.0 Safari/537.36","WebKit","Chrome","138.0.0.0","Windows","10.0","https://app.prolific.com/","en-GB,en-US;q=0.9,en;q=0.8","67adeb124ea5587ac8afa3ac","687a360dabe5252b5ada7185","6889da7a83a51d8ecf6ca94f","0","67adeb124ea5587ac8afa3ac","0","2025-07-30T09:01:53.479Z","","","","MotivationQ","","","","","","","","","","","50","","","","","","","","","","","","","","","","","","","","","","","","","","",""
"","","","","ctl-task-cpt","23","353250","0.0-7.0-0.2","67","1","2025-07-30 08:56:32","36c45c0696341be0efffe67d72a12abb","41.150.226.50","Mozilla/5.0 (Windows NT 10.0; Win64; x64) AppleWebKit/537.36 (KHTML, like Gecko) Chrome/138.0.0.0 Safari/537.36","WebKit","Chrome","138.0.0.0","Windows","10.0","https://app.prolific.com/","en-GB,en-US;q=0.9,en;q=0.8","67adeb124ea5587ac8afa3ac","687a360dabe5252b5ada7185","6889da7a83a51d8ecf6ca94f","0","67adeb124ea5587ac8afa3ac","0","2025-07-30T09:02:31.812Z","","","","","","","","","","","","","","","","win-only","3","g1:SW,g2:NE","0.8","3","0","324042.6","1063.9","6068.9","35312.1","1","4","8","6","1","1","1","3","2","0.022727272727272728","3746.4","3000","1030","[""down"",""left""]","{""num_key_presses"":6,""num_perfect"":4,""num_errors"":0,""num_randdir"":2,""num_randdir_good_moves"":1,""num_whilered"":0,""num_whileblue"":0,""num_blue"":3,""num_good_moves"":5}","[290.22232142857143,289.12857142857143,0.1,290.22232142857143,289.12857142857143,106.6,290.22232142857143,289.12857142857143,207.6,290.22232142857143,289.12857142857143,307.7,290.22232142857143,289.12857142857143,408.2,290.22232142857143,289.12857142857143,517.2,290.22232142857143,289.12857142857143,617.7,290.22232142857143,289.12857142857143,730.8,290.22232142857143,289.12857142857143,860.4,241.22232142857143,321.12857142857143,969.8,42.222321428571426,443.12857142857143,1074.7,42.222321428571426,443.12857142857143,1176.8,42.222321428571426,443.12857142857143,1280.7,68.22232142857143,565.1285714285714,1385.2,69.22232142857143,572.1285714285714,1486.9,69.22232142857143,572.1285714285714,1589.2,69.22232142857143,572.1285714285714,1697.6,69.22232142857143,572.1285714285714,1797.6,69.22232142857143,572.1285714285714,1898.1,362.22232142857143,248.12857142857143,2000.1,464.22232142857143,162.12857142857143,2102.7,464.22232142857143,162.12857142857143,2206.2,464.22232142857143,161.12857142857143,2321.5,479.22232142857143,142.12857142857143,2425.3,483.22232142857143,138.12857142857143,2528.1,499.22232142857143,115.12857142857143,2634.7,503.22232142857143,105.12857142857143,2736.8,503.22232142857143,104.12857142857143,2845,163.22232142857143,416.12857142857143,2948.3,-16.777678571428574,683.1285714285714,3056.5,-20.777678571428574,683.1285714285714,3157.5,-5.777678571428574,633.1285714285714,3262.5,56.222321428571426,541.1285714285714,3367.1,58.222321428571426,539.1285714285714,3467.6,59.222321428571426,539.1285714285714,3574,59.222321428571426,539.1285714285714,3676.7,59.222321428571426,539.1285714285714,3779.3,59.222321428571426,539.1285714285714,3880,59.222321428571426,539.1285714285714,3995.5,59.222321428571426,539.1285714285714,4096,59.222321428571426,539.1285714285714,4197.7,59.222321428571426,539.1285714285714,4300,59.222321428571426,539.1285714285714,4401.5,59.222321428571426,539.1285714285714,4509.3,59.222321428571426,539.1285714285714,4609.8,59.222321428571426,539.1285714285714,4714.8,59.222321428571426,539.1285714285714,4839.6,59.222321428571426,539.1285714285714,4945.2]","[2094.5,2094.5,1000,0,1094.5,""smooth"",""down"",""down"",""good_move"",9819,7723.2,2690.4,6721.6,407.1,""smooth"",""left"",""left"",""good_move"",12804.9,2985,2578.1,9820,406.9,""smooth"",""down"",""down"",""good_move"",14937.7,2125.8,1722.4,12812,403.3,""oops"",""left"",""up"",""bad_move"",17514.7,2571.9,2060.7,14942.8,511.2,""oops"",""down"",""down"",""good_move"",29112.2,11596.4,3127.8,25622.6,361.8,""smooth"",""left"",""left"",""good_move""]"
"3390","","<div style=""width:500px;"">
  <p>What determined the result of this run?</p>
  </div>","81","html-slider-response","24","356644","0.0-7.0-1.2","67","1","2025-07-30 08:56:32","36c45c0696341be0efffe67d72a12abb","41.150.226.50","Mozilla/5.0 (Windows NT 10.0; Win64; x64) AppleWebKit/537.36 (KHTML, like Gecko) Chrome/138.0.0.0 Safari/537.36","WebKit","Chrome","138.0.0.0","Windows","10.0","https://app.prolific.com/","en-GB,en-US;q=0.9,en;q=0.8","67adeb124ea5587ac8afa3ac","687a360dabe5252b5ada7185","6889da7a83a51d8ecf6ca94f","0","67adeb124ea5587ac8afa3ac","0","2025-07-30T09:02:35.206Z","","","","AttribQ","","","","","","","","","","","50","","","","","","","","","","","","","","","","","","","","","","","","","","",""
"2058","","<div style=""width:500px;"">
  <p>How much control did you have over the ball?</p>
  </div>","85","html-slider-response","25","358706","0.0-7.0-2.2","67","1","2025-07-30 08:56:32","36c45c0696341be0efffe67d72a12abb","41.150.226.50","Mozilla/5.0 (Windows NT 10.0; Win64; x64) AppleWebKit/537.36 (KHTML, like Gecko) Chrome/138.0.0.0 Safari/537.36","WebKit","Chrome","138.0.0.0","Windows","10.0","https://app.prolific.com/","en-GB,en-US;q=0.9,en;q=0.8","67adeb124ea5587ac8afa3ac","687a360dabe5252b5ada7185","6889da7a83a51d8ecf6ca94f","0","67adeb124ea5587ac8afa3ac","0","2025-07-30T09:02:37.268Z","","","","ControlQ","","","","","","","","","","","50","","","","","","","","","","","","","","","","","","","","","","","","","","",""
"2237","","<div style=""width:500px;"">
  <p>How would you describe your current emotional state?</p>
  </div>","22","html-slider-response","26","360949","0.0-7.0-3.2","67","1","2025-07-30 08:56:32","36c45c0696341be0efffe67d72a12abb","41.150.226.50","Mozilla/5.0 (Windows NT 10.0; Win64; x64) AppleWebKit/537.36 (KHTML, like Gecko) Chrome/138.0.0.0 Safari/537.36","WebKit","Chrome","138.0.0.0","Windows","10.0","https://app.prolific.com/","en-GB,en-US;q=0.9,en;q=0.8","67adeb124ea5587ac8afa3ac","687a360dabe5252b5ada7185","6889da7a83a51d8ecf6ca94f","0","67adeb124ea5587ac8afa3ac","0","2025-07-30T09:02:39.512Z","","","","StressQ","","","","","","","","","","","50","","","","","","","","","","","","","","","","","","","","","","","","","","",""
"2718","","<div style=""width:500px;"">
  <p>What best describes how you currently feel?</p>
  </div>","80","html-slider-response","27","363670","0.0-7.0-4.2","67","1","2025-07-30 08:56:32","36c45c0696341be0efffe67d72a12abb","41.150.226.50","Mozilla/5.0 (Windows NT 10.0; Win64; x64) AppleWebKit/537.36 (KHTML, like Gecko) Chrome/138.0.0.0 Safari/537.36","WebKit","Chrome","138.0.0.0","Windows","10.0","https://app.prolific.com/","en-GB,en-US;q=0.9,en;q=0.8","67adeb124ea5587ac8afa3ac","687a360dabe5252b5ada7185","6889da7a83a51d8ecf6ca94f","0","67adeb124ea5587ac8afa3ac","0","2025-07-30T09:02:42.232Z","","","","MotivationQ","","","","","","","","","","","50","","","","","","","","","","","","","","","","","","","","","","","","","","",""
"","","","","ctl-task-cpt","28","412397","0.0-7.0-0.3","67","1","2025-07-30 08:56:32","36c45c0696341be0efffe67d72a12abb","41.150.226.50","Mozilla/5.0 (Windows NT 10.0; Win64; x64) AppleWebKit/537.36 (KHTML, like Gecko) Chrome/138.0.0.0 Safari/537.36","WebKit","Chrome","138.0.0.0","Windows","10.0","https://app.prolific.com/","en-GB,en-US;q=0.9,en;q=0.8","67adeb124ea5587ac8afa3ac","687a360dabe5252b5ada7185","6889da7a83a51d8ecf6ca94f","0","67adeb124ea5587ac8afa3ac","0","2025-07-30T09:03:30.959Z","","","","","","","","","","","","","","","","win-only","0","g1:NW,g2:SE","0.7","4","0","372796.1","5252.2","10262.1","45699.7","1","4","4","6","2","4","4","7","3","0.05303030303030303","1767.7","3000","540","[""down"",""right""]","{""num_key_presses"":10,""num_perfect"":7,""num_errors"":0,""num_randdir"":3,""num_randdir_good_moves"":1,""num_whilered"":0,""num_whileblue"":0,""num_blue"":2,""num_good_moves"":8}","[290.22232142857143,289.12857142857143,12.3,290.22232142857143,289.12857142857143,100.2,290.22232142857143,289.12857142857143,205.9,290.22232142857143,289.12857142857143,310.4,290.22232142857143,289.12857142857143,411.1,290.22232142857143,289.12857142857143,514.5,317.22232142857143,333.12857142857143,620.4,336.22232142857143,370.12857142857143,720.4,389.22232142857143,470.12857142857143,825.9,455.22232142857143,526.1285714285714,928.4,455.22232142857143,526.1285714285714,1029.3,455.22232142857143,526.1285714285714,1136,455.22232142857143,526.1285714285714,1240.8,471.22232142857143,530.1285714285714,1350.8,537.2223214285714,543.1285714285714,1451.3,543.2223214285714,545.1285714285714,1554.9,543.2223214285714,545.1285714285714,1657.4,543.2223214285714,545.1285714285714,1781.2,543.2223214285714,545.1285714285714,1890.7,543.2223214285714,545.1285714285714,1996.2,543.2223214285714,545.1285714285714,2097.2,543.2223214285714,545.1285714285714,2211.1,543.2223214285714,545.1285714285714,2322,543.2223214285714,545.1285714285714,2424.4,543.2223214285714,545.1285714285714,2527.4,543.2223214285714,545.1285714285714,2660.2,543.2223214285714,545.1285714285714,2764.5,543.2223214285714,545.1285714285714,2868.3,543.2223214285714,545.1285714285714,2969.4,543.2223214285714,545.1285714285714,3071.1,543.2223214285714,545.1285714285714,3177.1,543.2223214285714,545.1285714285714,3279.9,543.2223214285714,545.1285714285714,3382.5,543.2223214285714,545.1285714285714,3490.4,543.2223214285714,545.1285714285714,3596.3,543.2223214285714,545.1285714285714,3721.7,543.2223214285714,545.1285714285714,3828.5,543.2223214285714,545.1285714285714,3936.5,543.2223214285714,545.1285714285714,4041.1,543.2223214285714,545.1285714285714,4146.1,543.2223214285714,545.1285714285714,4250.2,543.2223214285714,545.1285714285714,4350.2,543.2223214285714,545.1285714285714,4456.8,543.2223214285714,545.1285714285714,4561.1,543.2223214285714,545.1285714285714,4669.4,543.2223214285714,545.1285714285714,4771.1,543.2223214285714,545.1285714285714,4875.3,543.2223214285714,545.1285714285714,4982]","[5537.8,5537.8,3132,2008.6,397.2,""oops"",""down"",""up"",""bad_move"",8427.1,2887,2349.4,5540.1,537.6,""smooth"",""right"",""right"",""good_move"",11270.2,2840.2,2425.9,8430,414.3,""smooth"",""down"",""down"",""good_move"",14401.3,3126.5,2764.2,11274.8,362.3,""oops"",""right"",""right"",""good_move"",17870.4,3466.6,3077.5,14403.8,389.2,""smooth"",""down"",""down"",""good_move"",20788.7,2916.5,2605.4,17872.2,311.1,""oops"",""right"",""up"",""bad_move"",24072.6,3278.6,2964.8,20794,313.8,""smooth"",""down"",""down"",""good_move"",29133.6,5057.8,2611.7,26199.7,322.2,""smooth"",""down"",""down"",""good_move"",32027.7,2892.6,2464,29135.2,428.5,""smooth"",""down"",""down"",""good_move"",35337.2,3308.5,2984.7,32028.7,323.8,""smooth"",""right"",""right"",""good_move""]"
"4701","","<div style=""width:500px;"">
  <p>What determined the result of this run?</p>
  </div>","81","html-slider-response","29","417102","0.0-7.0-1.3","67","1","2025-07-30 08:56:32","36c45c0696341be0efffe67d72a12abb","41.150.226.50","Mozilla/5.0 (Windows NT 10.0; Win64; x64) AppleWebKit/537.36 (KHTML, like Gecko) Chrome/138.0.0.0 Safari/537.36","WebKit","Chrome","138.0.0.0","Windows","10.0","https://app.prolific.com/","en-GB,en-US;q=0.9,en;q=0.8","67adeb124ea5587ac8afa3ac","687a360dabe5252b5ada7185","6889da7a83a51d8ecf6ca94f","0","67adeb124ea5587ac8afa3ac","0","2025-07-30T09:03:35.665Z","","","","AttribQ","","","","","","","","","","","50","","","","","","","","","","","","","","","","","","","","","","","","","","",""
"2108","","<div style=""width:500px;"">
  <p>How much control did you have over the ball?</p>
  </div>","90","html-slider-response","30","419215","0.0-7.0-2.3","67","1","2025-07-30 08:56:32","36c45c0696341be0efffe67d72a12abb","41.150.226.50","Mozilla/5.0 (Windows NT 10.0; Win64; x64) AppleWebKit/537.36 (KHTML, like Gecko) Chrome/138.0.0.0 Safari/537.36","WebKit","Chrome","138.0.0.0","Windows","10.0","https://app.prolific.com/","en-GB,en-US;q=0.9,en;q=0.8","67adeb124ea5587ac8afa3ac","687a360dabe5252b5ada7185","6889da7a83a51d8ecf6ca94f","0","67adeb124ea5587ac8afa3ac","0","2025-07-30T09:03:37.777Z","","","","ControlQ","","","","","","","","","","","50","","","","","","","","","","","","","","","","","","","","","","","","","","",""
"4098","","<div style=""width:500px;"">
  <p>How would you describe your current emotional state?</p>
  </div>","10","html-slider-response","31","423315","0.0-7.0-3.3","67","1","2025-07-30 08:56:32","36c45c0696341be0efffe67d72a12abb","41.150.226.50","Mozilla/5.0 (Windows NT 10.0; Win64; x64) AppleWebKit/537.36 (KHTML, like Gecko) Chrome/138.0.0.0 Safari/537.36","WebKit","Chrome","138.0.0.0","Windows","10.0","https://app.prolific.com/","en-GB,en-US;q=0.9,en;q=0.8","67adeb124ea5587ac8afa3ac","687a360dabe5252b5ada7185","6889da7a83a51d8ecf6ca94f","0","67adeb124ea5587ac8afa3ac","0","2025-07-30T09:03:41.877Z","","","","StressQ","","","","","","","","","","","50","","","","","","","","","","","","","","","","","","","","","","","","","","",""
"2493","","<div style=""width:500px;"">
  <p>What best describes how you currently feel?</p>
  </div>","86","html-slider-response","32","425809","0.0-7.0-4.3","67","1","2025-07-30 08:56:32","36c45c0696341be0efffe67d72a12abb","41.150.226.50","Mozilla/5.0 (Windows NT 10.0; Win64; x64) AppleWebKit/537.36 (KHTML, like Gecko) Chrome/138.0.0.0 Safari/537.36","WebKit","Chrome","138.0.0.0","Windows","10.0","https://app.prolific.com/","en-GB,en-US;q=0.9,en;q=0.8","67adeb124ea5587ac8afa3ac","687a360dabe5252b5ada7185","6889da7a83a51d8ecf6ca94f","0","67adeb124ea5587ac8afa3ac","0","2025-07-30T09:03:44.371Z","","","","MotivationQ","","","","","","","","","","","50","","","","","","","","","","","","","","","","","","","","","","","","","","",""
"","","","","ctl-task-cpt","33","504710","0.0-7.0-0.4","67","1","2025-07-30 08:56:32","36c45c0696341be0efffe67d72a12abb","41.150.226.50","Mozilla/5.0 (Windows NT 10.0; Win64; x64) AppleWebKit/537.36 (KHTML, like Gecko) Chrome/138.0.0.0 Safari/537.36","WebKit","Chrome","138.0.0.0","Windows","10.0","https://app.prolific.com/","en-GB,en-US;q=0.9,en;q=0.8","67adeb124ea5587ac8afa3ac","687a360dabe5252b5ada7185","6889da7a83a51d8ecf6ca94f","0","67adeb124ea5587ac8afa3ac","0","2025-07-30T09:05:03.273Z","","","","","","","","","","","","","","","","win-only","3","g1:SW,g2:NE","0.6","5","0","434935.3","18596.1","23609.9","75872.8","1","4","8","6","2","-8","-8","0","7","0","2569.5","3000","-1950","[""up"",""right""]","{""num_key_presses"":12,""num_perfect"":7,""num_errors"":0,""num_randdir"":5,""num_randdir_good_moves"":2,""num_whilered"":0,""num_whileblue"":0,""num_blue"":4,""num_good_moves"":8}","[301.22232142857143,299.12857142857143,2.5,301.22232142857143,299.12857142857143,106.1,301.22232142857143,299.12857142857143,210.5,301.22232142857143,299.12857142857143,313.1,301.22232142857143,299.12857142857143,414.2,301.22232142857143,299.12857142857143,518.5,301.22232142857143,299.12857142857143,622.6,301.22232142857143,299.12857142857143,732.8,225.22232142857143,437.12857142857143,835.9,166.22232142857143,564.1285714285714,937.4,166.22232142857143,564.1285714285714,1040,167.22232142857143,558.1285714285714,1141.8,684.2223214285714,-49.871428571428574,1249.4,684.2223214285714,-49.871428571428574,1350.2,684.2223214285714,-49.871428571428574,1454,871.2223214285714,-65.87142857142857,1556,892.2223214285714,-28.871428571428574,1657.9,766.2223214285714,7.128571428571426,1768,695.2223214285714,30.128571428571426,1877,694.2223214285714,31.128571428571426,1979.9,694.2223214285714,31.128571428571426,2083.2,627.2223214285714,46.128571428571426,2185.2,586.2223214285714,52.128571428571426,2286.2,586.2223214285714,52.128571428571426,2387.3,586.2223214285714,52.128571428571426,2487.7,586.2223214285714,52.128571428571426,2597,586.2223214285714,52.128571428571426,2706.3,586.2223214285714,52.128571428571426,2813,586.2223214285714,52.128571428571426,2913.8,586.2223214285714,52.128571428571426,3017.3,586.2223214285714,52.128571428571426,3120.3,586.2223214285714,52.128571428571426,3225.7,586.2223214285714,52.128571428571426,3334.6,586.2223214285714,52.128571428571426,3438.8,586.2223214285714,52.128571428571426,3542.7,586.2223214285714,52.128571428571426,3651.5,586.2223214285714,52.128571428571426,3762,586.2223214285714,52.128571428571426,3863.7,586.2223214285714,52.128571428571426,3964.9,586.2223214285714,52.128571428571426,4066,586.2223214285714,52.128571428571426,4169.8,586.2223214285714,52.128571428571426,4282,586.2223214285714,52.128571428571426,4392.2,586.2223214285714,52.128571428571426,4492.7,586.2223214285714,52.128571428571426,4592.8,586.2223214285714,52.128571428571426,4698.9,586.2223214285714,52.128571428571426,4817,586.2223214285714,52.128571428571426,4926]","[1848.7,1848.7,1000,0,848.7,""smooth"",""right"",""right"",""good_move"",4293.4,2440.8,2010.8,1852.7,429.9,""oops"",""up"",""up"",""good_move"",7266.2,2967.8,2613.4,4298.4,354.4,""smooth"",""right"",""right"",""good_move"",9505.9,2238.6,1906.2,7267.3,332.4,""smooth"",""up"",""up"",""good_move"",16578.1,7070.2,2943.7,13307.8,326.6,""oops"",""right"",""down"",""bad_move"",20083.7,3504.5,3155.8,16579.2,348.7,""smooth"",""up"",""up"",""good_move"",26400.5,6315.5,1712.7,24288,399.9,""smooth"",""right"",""right"",""good_move"",29504.5,3102.7,2754.1,26401.8,348.6,""oops"",""up"",""down"",""bad_move"",35936,6427.8,2923.4,32635.2,377.4,""smooth"",""left"",""left"",""bad_move"",43537,7599.9,3321.2,39917,298.9,""oops"",""up"",""left"",""bad_move"",46760.7,3222.6,2810.7,43538.1,411.9,""oops"",""right"",""right"",""good_move"",49501.4,2738.5,2362.6,46763,375.8,""smooth"",""right"",""right"",""good_move""]"
"4426","","<div style=""width:500px;"">
  <p>What determined the result of this run?</p>
  </div>","69","html-slider-response","34","509143","0.0-7.0-1.4","67","1","2025-07-30 08:56:32","36c45c0696341be0efffe67d72a12abb","41.150.226.50","Mozilla/5.0 (Windows NT 10.0; Win64; x64) AppleWebKit/537.36 (KHTML, like Gecko) Chrome/138.0.0.0 Safari/537.36","WebKit","Chrome","138.0.0.0","Windows","10.0","https://app.prolific.com/","en-GB,en-US;q=0.9,en;q=0.8","67adeb124ea5587ac8afa3ac","687a360dabe5252b5ada7185","6889da7a83a51d8ecf6ca94f","0","67adeb124ea5587ac8afa3ac","0","2025-07-30T09:05:07.706Z","","","","AttribQ","","","","","","","","","","","50","","","","","","","","","","","","","","","","","","","","","","","","","","",""
"3171","","<div style=""width:500px;"">
  <p>How much control did you have over the ball?</p>
  </div>","31","html-slider-response","35","512317","0.0-7.0-2.4","67","1","2025-07-30 08:56:32","36c45c0696341be0efffe67d72a12abb","41.150.226.50","Mozilla/5.0 (Windows NT 10.0; Win64; x64) AppleWebKit/537.36 (KHTML, like Gecko) Chrome/138.0.0.0 Safari/537.36","WebKit","Chrome","138.0.0.0","Windows","10.0","https://app.prolific.com/","en-GB,en-US;q=0.9,en;q=0.8","67adeb124ea5587ac8afa3ac","687a360dabe5252b5ada7185","6889da7a83a51d8ecf6ca94f","0","67adeb124ea5587ac8afa3ac","0","2025-07-30T09:05:10.879Z","","","","ControlQ","","","","","","","","","","","50","","","","","","","","","","","","","","","","","","","","","","","","","","",""
"3261","","<div style=""width:500px;"">
  <p>How would you describe your current emotional state?</p>
  </div>","54","html-slider-response","36","515580","0.0-7.0-3.4","67","1","2025-07-30 08:56:32","36c45c0696341be0efffe67d72a12abb","41.150.226.50","Mozilla/5.0 (Windows NT 10.0; Win64; x64) AppleWebKit/537.36 (KHTML, like Gecko) Chrome/138.0.0.0 Safari/537.36","WebKit","Chrome","138.0.0.0","Windows","10.0","https://app.prolific.com/","en-GB,en-US;q=0.9,en;q=0.8","67adeb124ea5587ac8afa3ac","687a360dabe5252b5ada7185","6889da7a83a51d8ecf6ca94f","0","67adeb124ea5587ac8afa3ac","0","2025-07-30T09:05:14.143Z","","","","StressQ","","","","","","","","","","","50","","","","","","","","","","","","","","","","","","","","","","","","","","",""
"3625","","<div style=""width:500px;"">
  <p>What best describes how you currently feel?</p>
  </div>","81","html-slider-response","37","519210","0.0-7.0-4.4","67","1","2025-07-30 08:56:32","36c45c0696341be0efffe67d72a12abb","41.150.226.50","Mozilla/5.0 (Windows NT 10.0; Win64; x64) AppleWebKit/537.36 (KHTML, like Gecko) Chrome/138.0.0.0 Safari/537.36","WebKit","Chrome","138.0.0.0","Windows","10.0","https://app.prolific.com/","en-GB,en-US;q=0.9,en;q=0.8","67adeb124ea5587ac8afa3ac","687a360dabe5252b5ada7185","6889da7a83a51d8ecf6ca94f","0","67adeb124ea5587ac8afa3ac","0","2025-07-30T09:05:17.772Z","","","","MotivationQ","","","","","","","","","","","50","","","","","","","","","","","","","","","","","","","","","","","","","","",""
"","","","","ctl-task-cpt","38","556519","0.0-7.0-0.5","67","1","2025-07-30 08:56:32","36c45c0696341be0efffe67d72a12abb","41.150.226.50","Mozilla/5.0 (Windows NT 10.0; Win64; x64) AppleWebKit/537.36 (KHTML, like Gecko) Chrome/138.0.0.0 Safari/537.36","WebKit","Chrome","138.0.0.0","Windows","10.0","https://app.prolific.com/","en-GB,en-US;q=0.9,en;q=0.8","67adeb124ea5587ac8afa3ac","687a360dabe5252b5ada7185","6889da7a83a51d8ecf6ca94f","0","67adeb124ea5587ac8afa3ac","0","2025-07-30T09:05:55.082Z","","","","","","","","","","","","","","","","win-only","1","g1:NE,g2:SW","0.5","6","0","528335.4","1576.3","6592.1","34291.4","1","4","4","6","1","1","1","1","0","0.007575757575757576","1851.3","3000","1450","[""up"",""right""]","{""num_key_presses"":6,""num_perfect"":3,""num_errors"":0,""num_randdir"":3,""num_randdir_good_moves"":2,""num_whilered"":0,""num_whileblue"":0,""num_blue"":4,""num_good_moves"":5}","[297.22232142857143,292.12857142857143,0.6,297.22232142857143,292.12857142857143,100.6,297.22232142857143,292.12857142857143,201.8,297.22232142857143,292.12857142857143,309.1,297.22232142857143,292.12857142857143,412.8,293.22232142857143,295.12857142857143,519.4,172.22232142857143,443.12857142857143,628.4,165.22232142857143,454.12857142857143,733.7,165.22232142857143,454.12857142857143,835.8,163.22232142857143,454.12857142857143,944.7,152.22232142857143,449.12857142857143,1046.8,528.2223214285714,-25.871428571428574,1147.7,595.2223214285714,-76.87142857142857,1252.7,595.2223214285714,-76.87142857142857,1361.9,600.2223214285714,-46.871428571428574,1465.5,541.2223214285714,77.12857142857143,1570.1,541.2223214285714,77.12857142857143,1670.7,541.2223214285714,77.12857142857143,1776.4,541.2223214285714,77.12857142857143,1884.3,541.2223214285714,77.12857142857143,1993.1,541.2223214285714,77.12857142857143,2100.3,541.2223214285714,77.12857142857143,2206.6,541.2223214285714,77.12857142857143,2310.3,541.2223214285714,77.12857142857143,2415.7,541.2223214285714,77.12857142857143,2520.1,541.2223214285714,77.12857142857143,2621.2,541.2223214285714,77.12857142857143,2724.6,541.2223214285714,77.12857142857143,2828.3,541.2223214285714,77.12857142857143,2930.7,541.2223214285714,77.12857142857143,3039.8,541.2223214285714,77.12857142857143,3144.1,541.2223214285714,77.12857142857143,3245.6,541.2223214285714,77.12857142857143,3345.9,541.2223214285714,77.12857142857143,3452.5,541.2223214285714,77.12857142857143,3560.9,541.2223214285714,77.12857142857143,3661.4,541.2223214285714,77.12857142857143,3761.4,541.2223214285714,77.12857142857143,3884,541.2223214285714,77.12857142857143,3989.1,541.2223214285714,77.12857142857143,4098,541.2223214285714,77.12857142857143,4200.7,541.2223214285714,77.12857142857143,4302.6,541.2223214285714,77.12857142857143,4408.6,542.2223214285714,82.12857142857143,4516.3,558.2223214285714,86.12857142857143,4617.4,558.2223214285714,86.12857142857143,4722.6,558.2223214285714,86.12857142857143,4826.1,558.2223214285714,86.12857142857143,4927.5]","[4413.5,4413.5,1993.8,2009.4,410.3,""oops"",""right"",""left"",""bad_move"",7039.4,2623.4,2217.5,4416,405.9,""oops"",""up"",""right"",""good_move"",9675.4,2633.3,2244.1,7042.1,389.2,""oops"",""up"",""up"",""good_move"",19381.6,9695.7,3539.2,15408.3,434.1,""smooth"",""right"",""right"",""good_move"",24951,5568.5,1816.4,22681.3,453.3,""smooth"",""right"",""right"",""good_move"",27573.1,2620.9,2160.6,24952.2,460.3,""smooth"",""up"",""up"",""good_move""]"
"13936","","<div style=""width:500px;"">
  <p>What determined the result of this run?</p>
  </div>","65","html-slider-response","39","570459","0.0-7.0-1.5","67","1","2025-07-30 08:56:32","36c45c0696341be0efffe67d72a12abb","41.150.226.50","Mozilla/5.0 (Windows NT 10.0; Win64; x64) AppleWebKit/537.36 (KHTML, like Gecko) Chrome/138.0.0.0 Safari/537.36","WebKit","Chrome","138.0.0.0","Windows","10.0","https://app.prolific.com/","en-GB,en-US;q=0.9,en;q=0.8","67adeb124ea5587ac8afa3ac","687a360dabe5252b5ada7185","6889da7a83a51d8ecf6ca94f","0","67adeb124ea5587ac8afa3ac","0","2025-07-30T09:06:09.021Z","","","","AttribQ","","","","","","","","","","","50","","","","","","","","","","","","","","","","","","","","","","","","","","",""
"2315","","<div style=""width:500px;"">
  <p>How much control did you have over the ball?</p>
  </div>","62","html-slider-response","40","572780","0.0-7.0-2.5","67","1","2025-07-30 08:56:32","36c45c0696341be0efffe67d72a12abb","41.150.226.50","Mozilla/5.0 (Windows NT 10.0; Win64; x64) AppleWebKit/537.36 (KHTML, like Gecko) Chrome/138.0.0.0 Safari/537.36","WebKit","Chrome","138.0.0.0","Windows","10.0","https://app.prolific.com/","en-GB,en-US;q=0.9,en;q=0.8","67adeb124ea5587ac8afa3ac","687a360dabe5252b5ada7185","6889da7a83a51d8ecf6ca94f","0","67adeb124ea5587ac8afa3ac","0","2025-07-30T09:06:11.342Z","","","","ControlQ","","","","","","","","","","","50","","","","","","","","","","","","","","","","","","","","","","","","","","",""
"3391","","<div style=""width:500px;"">
  <p>How would you describe your current emotional state?</p>
  </div>","11","html-slider-response","41","576174","0.0-7.0-3.5","67","1","2025-07-30 08:56:32","36c45c0696341be0efffe67d72a12abb","41.150.226.50","Mozilla/5.0 (Windows NT 10.0; Win64; x64) AppleWebKit/537.36 (KHTML, like Gecko) Chrome/138.0.0.0 Safari/537.36","WebKit","Chrome","138.0.0.0","Windows","10.0","https://app.prolific.com/","en-GB,en-US;q=0.9,en;q=0.8","67adeb124ea5587ac8afa3ac","687a360dabe5252b5ada7185","6889da7a83a51d8ecf6ca94f","0","67adeb124ea5587ac8afa3ac","0","2025-07-30T09:06:14.736Z","","","","StressQ","","","","","","","","","","","50","","","","","","","","","","","","","","","","","","","","","","","","","","",""
"2150","","<div style=""width:500px;"">
  <p>What best describes how you currently feel?</p>
  </div>","77","html-slider-response","42","578328","0.0-7.0-4.5","67","1","2025-07-30 08:56:32","36c45c0696341be0efffe67d72a12abb","41.150.226.50","Mozilla/5.0 (Windows NT 10.0; Win64; x64) AppleWebKit/537.36 (KHTML, like Gecko) Chrome/138.0.0.0 Safari/537.36","WebKit","Chrome","138.0.0.0","Windows","10.0","https://app.prolific.com/","en-GB,en-US;q=0.9,en;q=0.8","67adeb124ea5587ac8afa3ac","687a360dabe5252b5ada7185","6889da7a83a51d8ecf6ca94f","0","67adeb124ea5587ac8afa3ac","0","2025-07-30T09:06:16.890Z","","","","MotivationQ","","","","","","","","","","","50","","","","","","","","","","","","","","","","","","","","","","","","","","",""
"","","","","ctl-task-cpt","43","609612","0.0-7.0-0.6","67","1","2025-07-30 08:56:32","36c45c0696341be0efffe67d72a12abb","41.150.226.50","Mozilla/5.0 (Windows NT 10.0; Win64; x64) AppleWebKit/537.36 (KHTML, like Gecko) Chrome/138.0.0.0 Safari/537.36","WebKit","Chrome","138.0.0.0","Windows","10.0","https://app.prolific.com/","en-GB,en-US;q=0.9,en;q=0.8","67adeb124ea5587ac8afa3ac","687a360dabe5252b5ada7185","6889da7a83a51d8ecf6ca94f","0","67adeb124ea5587ac8afa3ac","0","2025-07-30T09:06:48.174Z","","","","","","","","","","","","","","","","win-only","1","g1:NE,g2:SW","0.4","7","0","587456.5","1444.1","6453.6","28258","1","4","4","6","2","4","4","5","1","0.03787878787878788","1355.8","3000","520","[""down"",""left""]","{""num_key_presses"":6,""num_perfect"":4,""num_errors"":0,""num_randdir"":2,""num_randdir_good_moves"":2,""num_whilered"":0,""num_whileblue"":0,""num_blue"":1,""num_good_moves"":6}","[296.22232142857143,295.12857142857143,0,296.22232142857143,295.12857142857143,100.2,296.22232142857143,295.12857142857143,203.6,296.22232142857143,295.12857142857143,304.8,296.22232142857143,295.12857142857143,411.4,296.22232142857143,295.12857142857143,521.3,217.22232142857143,419.12857142857143,625.1,194.22232142857143,461.12857142857143,731.7,194.22232142857143,461.12857142857143,839.1,127.22232142857143,479.12857142857143,943.5,75.22232142857143,531.1285714285714,1052.1,71.22232142857143,544.1285714285714,1154.3,71.22232142857143,544.1285714285714,1259.6,71.22232142857143,544.1285714285714,1362,71.22232142857143,544.1285714285714,1469.7,71.22232142857143,544.1285714285714,1578.4,71.22232142857143,544.1285714285714,1680.9,71.22232142857143,544.1285714285714,1812.5,71.22232142857143,544.1285714285714,1912.8,71.22232142857143,544.1285714285714,2014.5,71.22232142857143,544.1285714285714,2118.1,71.22232142857143,544.1285714285714,2219.7,71.22232142857143,544.1285714285714,2321.5,71.22232142857143,544.1285714285714,2431,71.22232142857143,544.1285714285714,2531.5,71.22232142857143,544.1285714285714,2631.8,71.22232142857143,544.1285714285714,2737.8,71.22232142857143,544.1285714285714,2839,71.22232142857143,544.1285714285714,2944.4,71.22232142857143,544.1285714285714,3049.6,71.22232142857143,544.1285714285714,3152.6,71.22232142857143,544.1285714285714,3258.8,71.22232142857143,544.1285714285714,3360.2,71.22232142857143,544.1285714285714,3460.4,71.22232142857143,544.1285714285714,3571.2,71.22232142857143,544.1285714285714,3671.5,71.22232142857143,544.1285714285714,3775.7,71.22232142857143,544.1285714285714,3882.1,71.22232142857143,544.1285714285714,3983.8,71.22232142857143,544.1285714285714,4089.5,71.22232142857143,544.1285714285714,4195.1,71.22232142857143,544.1285714285714,4300.8,71.22232142857143,544.1285714285714,4402.3,71.22232142857143,544.1285714285714,4504.2,71.22232142857143,544.1285714285714,4609.9,71.22232142857143,544.1285714285714,4713.8,71.22232142857143,544.1285714285714,4820.7,71.22232142857143,544.1285714285714,4935.9]","[1546.4,1546.4,1000,0,546.4,""smooth"",""down"",""down"",""good_move"",8135.2,6586.5,2065.5,5550,519.7,""smooth"",""left"",""left"",""good_move"",11462.1,3325.8,2728.4,8136.4,597.3,""smooth"",""left"",""left"",""good_move"",15421.7,3957.8,3098.8,11464,859,""oops"",""down"",""down"",""good_move"",18975.6,3549.6,2766.4,15426,783.2,""oops"",""down"",""left"",""good_move"",21647.6,2669.8,1914.3,18977.8,755.5,""smooth"",""down"",""down"",""good_move""]"
"3585","","<div style=""width:500px;"">
  <p>What determined the result of this run?</p>
  </div>","82","html-slider-response","44","613199","0.0-7.0-1.6","67","1","2025-07-30 08:56:32","36c45c0696341be0efffe67d72a12abb","41.150.226.50","Mozilla/5.0 (Windows NT 10.0; Win64; x64) AppleWebKit/537.36 (KHTML, like Gecko) Chrome/138.0.0.0 Safari/537.36","WebKit","Chrome","138.0.0.0","Windows","10.0","https://app.prolific.com/","en-GB,en-US;q=0.9,en;q=0.8","67adeb124ea5587ac8afa3ac","687a360dabe5252b5ada7185","6889da7a83a51d8ecf6ca94f","0","67adeb124ea5587ac8afa3ac","0","2025-07-30T09:06:51.762Z","","","","AttribQ","","","","","","","","","","","50","","","","","","","","","","","","","","","","","","","","","","","","","","",""
"1972","","<div style=""width:500px;"">
  <p>How much control did you have over the ball?</p>
  </div>","82","html-slider-response","45","615175","0.0-7.0-2.6","67","1","2025-07-30 08:56:32","36c45c0696341be0efffe67d72a12abb","41.150.226.50","Mozilla/5.0 (Windows NT 10.0; Win64; x64) AppleWebKit/537.36 (KHTML, like Gecko) Chrome/138.0.0.0 Safari/537.36","WebKit","Chrome","138.0.0.0","Windows","10.0","https://app.prolific.com/","en-GB,en-US;q=0.9,en;q=0.8","67adeb124ea5587ac8afa3ac","687a360dabe5252b5ada7185","6889da7a83a51d8ecf6ca94f","0","67adeb124ea5587ac8afa3ac","0","2025-07-30T09:06:53.737Z","","","","ControlQ","","","","","","","","","","","50","","","","","","","","","","","","","","","","","","","","","","","","","","",""
"2523","","<div style=""width:500px;"">
  <p>How would you describe your current emotional state?</p>
  </div>","11","html-slider-response","46","617701","0.0-7.0-3.6","67","1","2025-07-30 08:56:32","36c45c0696341be0efffe67d72a12abb","41.150.226.50","Mozilla/5.0 (Windows NT 10.0; Win64; x64) AppleWebKit/537.36 (KHTML, like Gecko) Chrome/138.0.0.0 Safari/537.36","WebKit","Chrome","138.0.0.0","Windows","10.0","https://app.prolific.com/","en-GB,en-US;q=0.9,en;q=0.8","67adeb124ea5587ac8afa3ac","687a360dabe5252b5ada7185","6889da7a83a51d8ecf6ca94f","0","67adeb124ea5587ac8afa3ac","0","2025-07-30T09:06:56.263Z","","","","StressQ","","","","","","","","","","","50","","","","","","","","","","","","","","","","","","","","","","","","","","",""
"2495","","<div style=""width:500px;"">
  <p>What best describes how you currently feel?</p>
  </div>","81","html-slider-response","47","620198","0.0-7.0-4.6","67","1","2025-07-30 08:56:32","36c45c0696341be0efffe67d72a12abb","41.150.226.50","Mozilla/5.0 (Windows NT 10.0; Win64; x64) AppleWebKit/537.36 (KHTML, like Gecko) Chrome/138.0.0.0 Safari/537.36","WebKit","Chrome","138.0.0.0","Windows","10.0","https://app.prolific.com/","en-GB,en-US;q=0.9,en;q=0.8","67adeb124ea5587ac8afa3ac","687a360dabe5252b5ada7185","6889da7a83a51d8ecf6ca94f","0","67adeb124ea5587ac8afa3ac","0","2025-07-30T09:06:58.760Z","","","","MotivationQ","","","","","","","","","","","50","","","","","","","","","","","","","","","","","","","","","","","","","","",""
"","","","","ctl-task-cpt","48","679422","0.0-7.0-0.7","67","1","2025-07-30 08:56:32","36c45c0696341be0efffe67d72a12abb","41.150.226.50","Mozilla/5.0 (Windows NT 10.0; Win64; x64) AppleWebKit/537.36 (KHTML, like Gecko) Chrome/138.0.0.0 Safari/537.36","WebKit","Chrome","138.0.0.0","Windows","10.0","https://app.prolific.com/","en-GB,en-US;q=0.9,en;q=0.8","67adeb124ea5587ac8afa3ac","687a360dabe5252b5ada7185","6889da7a83a51d8ecf6ca94f","0","67adeb124ea5587ac8afa3ac","0","2025-07-30T09:07:57.984Z","","","","","","","","","","","","","","","","win-only","0","g1:NW,g2:SE","0.3","8","0","629324.2","1827.1","6836.4","56198.7","1","4","8","6","2","-8","-8","0","5","0","2098.5","3000","-1995","[""down"",""right""]","{""num_key_presses"":13,""num_perfect"":4,""num_errors"":0,""num_randdir"":9,""num_randdir_good_moves"":3,""num_whilered"":0,""num_whileblue"":0,""num_blue"":3,""num_good_moves"":7}","[300.22232142857143,294.12857142857143,2,300.22232142857143,294.12857142857143,103.4,300.22232142857143,294.12857142857143,207.6,300.22232142857143,294.12857142857143,313.6,300.22232142857143,294.12857142857143,416.3,300.22232142857143,294.12857142857143,516.8,300.22232142857143,294.12857142857143,621.8,300.22232142857143,294.12857142857143,723.3,300.22232142857143,294.12857142857143,829.3,368.22232142857143,404.12857142857143,930.4,375.22232142857143,412.12857142857143,1038.5,375.22232142857143,412.12857142857143,1143,381.22232142857143,418.12857142857143,1245,468.22232142857143,487.12857142857143,1351.3,473.22232142857143,491.12857142857143,1459.1,473.22232142857143,491.12857142857143,1559.8,488.22232142857143,502.12857142857143,1661.6,507.22232142857143,517.1285714285714,1767.9,507.22232142857143,517.1285714285714,1875.5,507.22232142857143,517.1285714285714,1977.6,507.22232142857143,517.1285714285714,2085.4,507.22232142857143,517.1285714285714,2188.9,507.22232142857143,517.1285714285714,2297.4,507.22232142857143,517.1285714285714,2403,507.22232142857143,517.1285714285714,2507.7,507.22232142857143,517.1285714285714,2609.8,507.22232142857143,517.1285714285714,2712,507.22232142857143,517.1285714285714,2817,507.22232142857143,517.1285714285714,2925.8,507.22232142857143,517.1285714285714,3039.7,507.22232142857143,517.1285714285714,3145.2,507.22232142857143,517.1285714285714,3245.3,507.22232142857143,517.1285714285714,3347,507.22232142857143,517.1285714285714,3449.7,507.22232142857143,517.1285714285714,3551.6,507.22232142857143,517.1285714285714,3658.8,507.22232142857143,517.1285714285714,3760.6,507.22232142857143,517.1285714285714,3861.6,507.22232142857143,517.1285714285714,3968.8,507.22232142857143,517.1285714285714,4072.3,507.22232142857143,517.1285714285714,4178.3,507.22232142857143,517.1285714285714,4279.2,507.22232142857143,517.1285714285714,4386.6,507.22232142857143,517.1285714285714,4492.4,507.22232142857143,517.1285714285714,4595.5,507.22232142857143,517.1285714285714,4710.6,507.22232142857143,517.1285714285714,4817.4,507.22232142857143,517.1285714285714,4919.6]","[5127.9,5127.9,2545,2017.4,565.5,""smooth"",""down"",""down"",""good_move"",7502,2372.7,2004.1,5129.4,368.6,""smooth"",""right"",""right"",""good_move"",10382.9,2876.4,2496.7,7506.5,379.7,""oops"",""right"",""left"",""bad_move"",13925.5,3537.6,3198.8,10387.9,338.8,""oops"",""down"",""up"",""bad_move"",20048.1,6120.7,2621.8,17105.2,321.1,""oops"",""right"",""up"",""bad_move"",23085.5,3036.5,2615,20049.1,421.5,""oops"",""down"",""down"",""good_move"",26355.5,3268.5,2913.1,23087,355.4,""oops"",""down"",""left"",""bad_move"",33729.7,7369.7,2728.9,30627.5,373.3,""smooth"",""right"",""right"",""good_move"",35839.3,2108.2,1724.5,33731.1,383.7,""oops"",""right"",""right"",""good_move"",38313.5,2472,2096.8,35841.5,375.2,""oops"",""right"",""up"",""bad_move"",41110.7,2795.5,2472.7,38315.2,322.8,""oops"",""down"",""right"",""good_move"",43900.6,2788.8,2443.4,41111.8,345.4,""oops"",""down"",""left"",""bad_move"",46679.5,2776.2,2499.2,43903.3,277,""smooth"",""down"",""down"",""good_move""]"
"5537","","<div style=""width:500px;"">
  <p>What determined the result of this run?</p>
  </div>","82","html-slider-response","49","684961","0.0-7.0-1.7","67","1","2025-07-30 08:56:32","36c45c0696341be0efffe67d72a12abb","41.150.226.50","Mozilla/5.0 (Windows NT 10.0; Win64; x64) AppleWebKit/537.36 (KHTML, like Gecko) Chrome/138.0.0.0 Safari/537.36","WebKit","Chrome","138.0.0.0","Windows","10.0","https://app.prolific.com/","en-GB,en-US;q=0.9,en;q=0.8","67adeb124ea5587ac8afa3ac","687a360dabe5252b5ada7185","6889da7a83a51d8ecf6ca94f","0","67adeb124ea5587ac8afa3ac","0","2025-07-30T09:08:03.523Z","","","","AttribQ","","","","","","","","","","","50","","","","","","","","","","","","","","","","","","","","","","","","","","",""
"3147","","<div style=""width:500px;"">
  <p>How much control did you have over the ball?</p>
  </div>","15","html-slider-response","50","688111","0.0-7.0-2.7","67","1","2025-07-30 08:56:32","36c45c0696341be0efffe67d72a12abb","41.150.226.50","Mozilla/5.0 (Windows NT 10.0; Win64; x64) AppleWebKit/537.36 (KHTML, like Gecko) Chrome/138.0.0.0 Safari/537.36","WebKit","Chrome","138.0.0.0","Windows","10.0","https://app.prolific.com/","en-GB,en-US;q=0.9,en;q=0.8","67adeb124ea5587ac8afa3ac","687a360dabe5252b5ada7185","6889da7a83a51d8ecf6ca94f","0","67adeb124ea5587ac8afa3ac","0","2025-07-30T09:08:06.674Z","","","","ControlQ","","","","","","","","","","","50","","","","","","","","","","","","","","","","","","","","","","","","","","",""
"2185","","<div style=""width:500px;"">
  <p>How would you describe your current emotional state?</p>
  </div>","82","html-slider-response","51","690300","0.0-7.0-3.7","67","1","2025-07-30 08:56:32","36c45c0696341be0efffe67d72a12abb","41.150.226.50","Mozilla/5.0 (Windows NT 10.0; Win64; x64) AppleWebKit/537.36 (KHTML, like Gecko) Chrome/138.0.0.0 Safari/537.36","WebKit","Chrome","138.0.0.0","Windows","10.0","https://app.prolific.com/","en-GB,en-US;q=0.9,en;q=0.8","67adeb124ea5587ac8afa3ac","687a360dabe5252b5ada7185","6889da7a83a51d8ecf6ca94f","0","67adeb124ea5587ac8afa3ac","0","2025-07-30T09:08:08.862Z","","","","StressQ","","","","","","","","","","","50","","","","","","","","","","","","","","","","","","","","","","","","","","",""
"4631","","<div style=""width:500px;"">
  <p>What best describes how you currently feel?</p>
  </div>","69","html-slider-response","52","694932","0.0-7.0-4.7","67","1","2025-07-30 08:56:32","36c45c0696341be0efffe67d72a12abb","41.150.226.50","Mozilla/5.0 (Windows NT 10.0; Win64; x64) AppleWebKit/537.36 (KHTML, like Gecko) Chrome/138.0.0.0 Safari/537.36","WebKit","Chrome","138.0.0.0","Windows","10.0","https://app.prolific.com/","en-GB,en-US;q=0.9,en;q=0.8","67adeb124ea5587ac8afa3ac","687a360dabe5252b5ada7185","6889da7a83a51d8ecf6ca94f","0","67adeb124ea5587ac8afa3ac","0","2025-07-30T09:08:13.494Z","","","","MotivationQ","","","","","","","","","","","50","","","","","","","","","","","","","","","","","","","","","","","","","","",""
"","","","","ctl-task-cpt","53","923339","0.0-7.0-0.8","67","1","2025-07-30 08:56:32","36c45c0696341be0efffe67d72a12abb","41.150.226.50","Mozilla/5.0 (Windows NT 10.0; Win64; x64) AppleWebKit/537.36 (KHTML, like Gecko) Chrome/138.0.0.0 Safari/537.36","WebKit","Chrome","138.0.0.0","Windows","10.0","https://app.prolific.com/","en-GB,en-US;q=0.9,en;q=0.8","67adeb124ea5587ac8afa3ac","687a360dabe5252b5ada7185","6889da7a83a51d8ecf6ca94f","0","67adeb124ea5587ac8afa3ac","0","2025-07-30T09:12:01.901Z","","","","","","","","","","","","","","","","win-only","3","g1:SW,g2:NE","0.4","9","0","704057.3","57262","62274.4","225352.8","1","4","4","6","1","-1","-4","0","0","0","1702.7","3000","-365","[""down"",""left""]","{""num_key_presses"":33,""num_perfect"":12,""num_errors"":3,""num_randdir"":18,""num_randdir_good_moves"":6,""num_whilered"":0,""num_whileblue"":1,""num_blue"":9,""num_good_moves"":16}","[297.22232142857143,303.12857142857143,3.1,297.22232142857143,303.12857142857143,101.8,297.22232142857143,303.12857142857143,209.4,297.22232142857143,303.12857142857143,318.3,131.22232142857143,452.12857142857143,420,-4.777678571428574,606.1285714285714,524.3,-4.777678571428574,606.1285714285714,628.6,17.222321428571426,579.1285714285714,750.1,248.22232142857143,362.12857142857143,851.4,248.22232142857143,362.12857142857143,952.8,220.22232142857143,417.12857142857143,1055.8,140.22232142857143,556.1285714285714,1158.5,140.22232142857143,556.1285714285714,1267.8,102.22232142857143,553.1285714285714,1373.7,34.222321428571426,551.1285714285714,1481.5,34.222321428571426,551.1285714285714,1584.2,34.222321428571426,551.1285714285714,1691.2,34.222321428571426,551.1285714285714,1796.4,34.222321428571426,551.1285714285714,1900.7,34.222321428571426,551.1285714285714,2003.4,34.222321428571426,551.1285714285714,2112.2,34.222321428571426,551.1285714285714,2214.4,34.222321428571426,551.1285714285714,2327.9,34.222321428571426,551.1285714285714,2433.4,34.222321428571426,551.1285714285714,2535.5,34.222321428571426,551.1285714285714,2635.7,34.222321428571426,551.1285714285714,2752.5,34.222321428571426,551.1285714285714,2857.6,34.222321428571426,551.1285714285714,2964,34.222321428571426,551.1285714285714,3067.8,34.222321428571426,551.1285714285714,3171.7,34.222321428571426,551.1285714285714,3276.4,34.222321428571426,551.1285714285714,3378.7,34.222321428571426,551.1285714285714,3483,34.222321428571426,551.1285714285714,3584.5,34.222321428571426,551.1285714285714,3689,34.222321428571426,551.1285714285714,3804.8,34.222321428571426,551.1285714285714,3910.8,34.222321428571426,551.1285714285714,4013.3,34.222321428571426,551.1285714285714,4116.4,34.222321428571426,551.1285714285714,4224,34.222321428571426,551.1285714285714,4325.2,34.222321428571426,551.1285714285714,4442.8,34.222321428571426,551.1285714285714,4543.6,34.222321428571426,551.1285714285714,4650.2,34.222321428571426,551.1285714285714,4761.1,34.222321428571426,551.1285714285714,4863.1,34.222321428571426,551.1285714285714,4964.5]","[1518.8,1518.8,1000,0,518.8,""oops"",""down"",""right"",""bad_move"",4187.2,2665.5,2329,1521.7,336.5,""oops"",""left"",""right"",""bad_move"",7161.4,2973.1,2633.6,4188.3,339.5,""smooth"",""right"",""right"",""bad_move"",9998.3,2835.8,2368.4,7162.5,467.4,""oops"",""left"",""down"",""good_move"",12625.5,2626.5,2267.9,9999.1,358.6,""oops"",""left"",""down"",""good_move"",16026.9,3397.9,3021.4,12629.1,376.5,""smooth"",""left"",""left"",""good_move"",19251.7,3222.5,2908.3,16029.2,314.2,""smooth"",""left"",""left"",""good_move"",22638.1,3384.4,2003.3,19253.7,1381.1,""oops"",""left"",""right"",""bad_move"",26287.8,3648.3,3283,22639.5,365.3,""smooth"",""up"",""up"",""bad_move"",29605.8,3316.5,2208.2,26289.3,1108.3,""oops"",""left"",""up"",""bad_move"",33829.9,4222.5,2767.4,29607.4,1455.1,""oops"",""down"",""right"",""bad_move"",37356.2,3525.3,2721.8,33830.9,803.5,""smooth"",""right"",""down"",""good_move"",39815.5,2458.3,1896.5,37357.2,561.8,""smooth"",""left"",""left"",""good_move"",44306,4489.3,2248.5,39816.7,2240.8,""oops"",""left"",""up"",""bad_move"",59055.8,14748.5,2275.9,56399.1,380.8,""oops"",""left"",""left"",""good_move"",63907.1,4850.6,2227.4,59056.6,2623.1,""oops"",""down"",""left"",""good_move"",68646.4,4738.1,2480.3,63908.3,2257.9,""oops"",""down"",""up"",""bad_move"",73450.6,4802.5,4477.4,68648.1,325.1,""while_blue"",""down"",""right"",""bad_move"",76737.7,3285.8,2882.3,73451.9,403.5,""oops"",""left"",""right"",""bad_move"",83899,7160.6,2973.2,80362.8,563,""smooth"",""down"",""down"",""good_move"",87239.5,3339.4,2817.6,83900.1,521.8,""smooth"",""left"",""left"",""good_move"",90440.4,3199.9,1982.9,87240.5,1217,""error"",""-"",""-"",""no_move"",94750.8,4306.9,2033.5,91446.2,1271.1,""smooth"",""left"",""left"",""good_move"",101037.4,6285.7,1551.2,94751.7,4734.5,""error"",""-"",""-"",""no_move"",105224.2,4186.2,2666.6,102053.7,503.9,""oops"",""left"",""right"",""bad_move"",108635.3,3409,2369,105226.3,1040,""smooth"",""left"",""left"",""good_move"",118807.9,10170.7,1645,116567,595.9,""smooth"",""left"",""left"",""good_move"",128966.2,10157.5,1580,126768.5,617.8,""oops"",""down"",""down"",""good_move"",131815.8,2848.7,2070.1,128967.1,778.6,""oops"",""down"",""down"",""good_move"",134918.8,3101.9,2655,131816.9,446.9,""oops"",""left"",""right"",""bad_move"",137428.5,2508.5,1948.2,134920,560.3,""smooth"",""left"",""left"",""good_move"",144891.9,7462.3,2490,137429.7,4972.2,""oops"",""left"",""up"",""bad_move"",159172.6,14280,2520.3,156115.3,537,""oops"",""down"",""right"",""bad_move""]"
"29473","","<div style=""width:500px;"">
  <p>What determined the result of this run?</p>
  </div>","24","html-slider-response","54","952817","0.0-7.0-1.8","67","1","2025-07-30 08:56:32","36c45c0696341be0efffe67d72a12abb","41.150.226.50","Mozilla/5.0 (Windows NT 10.0; Win64; x64) AppleWebKit/537.36 (KHTML, like Gecko) Chrome/138.0.0.0 Safari/537.36","WebKit","Chrome","138.0.0.0","Windows","10.0","https://app.prolific.com/","en-GB,en-US;q=0.9,en;q=0.8","67adeb124ea5587ac8afa3ac","687a360dabe5252b5ada7185","6889da7a83a51d8ecf6ca94f","0","67adeb124ea5587ac8afa3ac","0","2025-07-30T09:12:31.379Z","","","","AttribQ","","","","","","","","","","","50","","","","","","","","","","","","","","","","","","","","","","","","","","",""
"3184","","<div style=""width:500px;"">
  <p>How much control did you have over the ball?</p>
  </div>","13","html-slider-response","55","956006","0.0-7.0-2.8","67","1","2025-07-30 08:56:32","36c45c0696341be0efffe67d72a12abb","41.150.226.50","Mozilla/5.0 (Windows NT 10.0; Win64; x64) AppleWebKit/537.36 (KHTML, like Gecko) Chrome/138.0.0.0 Safari/537.36","WebKit","Chrome","138.0.0.0","Windows","10.0","https://app.prolific.com/","en-GB,en-US;q=0.9,en;q=0.8","67adeb124ea5587ac8afa3ac","687a360dabe5252b5ada7185","6889da7a83a51d8ecf6ca94f","0","67adeb124ea5587ac8afa3ac","0","2025-07-30T09:12:34.569Z","","","","ControlQ","","","","","","","","","","","50","","","","","","","","","","","","","","","","","","","","","","","","","","",""
"1893","","<div style=""width:500px;"">
  <p>How would you describe your current emotional state?</p>
  </div>","83","html-slider-response","56","957904","0.0-7.0-3.8","67","1","2025-07-30 08:56:32","36c45c0696341be0efffe67d72a12abb","41.150.226.50","Mozilla/5.0 (Windows NT 10.0; Win64; x64) AppleWebKit/537.36 (KHTML, like Gecko) Chrome/138.0.0.0 Safari/537.36","WebKit","Chrome","138.0.0.0","Windows","10.0","https://app.prolific.com/","en-GB,en-US;q=0.9,en;q=0.8","67adeb124ea5587ac8afa3ac","687a360dabe5252b5ada7185","6889da7a83a51d8ecf6ca94f","0","67adeb124ea5587ac8afa3ac","0","2025-07-30T09:12:36.467Z","","","","StressQ","","","","","","","","","","","50","","","","","","","","","","","","","","","","","","","","","","","","","","",""
"2285","","<div style=""width:500px;"">
  <p>What best describes how you currently feel?</p>
  </div>","40","html-slider-response","57","960194","0.0-7.0-4.8","67","1","2025-07-30 08:56:32","36c45c0696341be0efffe67d72a12abb","41.150.226.50","Mozilla/5.0 (Windows NT 10.0; Win64; x64) AppleWebKit/537.36 (KHTML, like Gecko) Chrome/138.0.0.0 Safari/537.36","WebKit","Chrome","138.0.0.0","Windows","10.0","https://app.prolific.com/","en-GB,en-US;q=0.9,en;q=0.8","67adeb124ea5587ac8afa3ac","687a360dabe5252b5ada7185","6889da7a83a51d8ecf6ca94f","0","67adeb124ea5587ac8afa3ac","0","2025-07-30T09:12:38.757Z","","","","MotivationQ","","","","","","","","","","","50","","","","","","","","","","","","","","","","","","","","","","","","","","",""
"","","","","ctl-task-cpt","58","994016","0.0-7.0-0.9","67","1","2025-07-30 08:56:32","36c45c0696341be0efffe67d72a12abb","41.150.226.50","Mozilla/5.0 (Windows NT 10.0; Win64; x64) AppleWebKit/537.36 (KHTML, like Gecko) Chrome/138.0.0.0 Safari/537.36","WebKit","Chrome","138.0.0.0","Windows","10.0","https://app.prolific.com/","en-GB,en-US;q=0.9,en;q=0.8","67adeb124ea5587ac8afa3ac","687a360dabe5252b5ada7185","6889da7a83a51d8ecf6ca94f","0","67adeb124ea5587ac8afa3ac","0","2025-07-30T09:13:12.578Z","","","","","","","","","","","","","","","","win-only","2","g1:SE,g2:NW","0.5","10","0","969323.6","1905.7","6959.9","30762.4","1","4","8","6","1","1","1","1","0","0.007575757575757576","2164.3","3000","1930","[""down"",""right""]","{""num_key_presses"":4,""num_perfect"":3,""num_errors"":0,""num_randdir"":1,""num_randdir_good_moves"":1,""num_whilered"":0,""num_whileblue"":0,""num_blue"":1,""num_good_moves"":4}","[301.22232142857143,293.12857142857143,0.5,301.22232142857143,293.12857142857143,101.1,301.22232142857143,293.12857142857143,202,301.22232142857143,293.12857142857143,351.2,301.22232142857143,293.12857142857143,509.3,301.22232142857143,294.12857142857143,610,311.22232142857143,335.12857142857143,720.2,330.22232142857143,399.12857142857143,833,344.22232142857143,411.12857142857143,945.1,388.22232142857143,426.12857142857143,1055.5,390.22232142857143,427.12857142857143,1197.5,406.22232142857143,440.12857142857143,1354.5,582.2223214285714,581.1285714285714,1462.4,592.2223214285714,591.1285714285714,1577.8,592.2223214285714,591.1285714285714,1725.6,592.2223214285714,591.1285714285714,1855.8,569.2223214285714,579.1285714285714,1975.1,569.2223214285714,579.1285714285714,2137,569.2223214285714,579.1285714285714,2240.9,569.2223214285714,579.1285714285714,2351.2,569.2223214285714,579.1285714285714,2500.6,569.2223214285714,579.1285714285714,2651,569.2223214285714,579.1285714285714,2796.7,569.2223214285714,579.1285714285714,2940.4,569.2223214285714,579.1285714285714,3081.7,569.2223214285714,579.1285714285714,3189.5,569.2223214285714,579.1285714285714,3290.4,569.2223214285714,579.1285714285714,3440.8,569.2223214285714,579.1285714285714,3590.9,569.2223214285714,579.1285714285714,3735.7,569.2223214285714,579.1285714285714,3837.6,569.2223214285714,579.1285714285714,3990.1,569.2223214285714,579.1285714285714,4091.1,569.2223214285714,579.1285714285714,4241.2,569.2223214285714,579.1285714285714,4394.9,569.2223214285714,579.1285714285714,4499.1,569.2223214285714,579.1285714285714,4649.9,569.2223214285714,579.1285714285714,4752.9,569.2223214285714,579.1285714285714,4898.9,569.2223214285714,579.1285714285714,4998.9]","[2865.8,2865.9,1000,0,1865.9,""smooth"",""down"",""down"",""good_move"",13588.5,10721.4,2648.2,2867.1,8073.2,""smooth"",""down"",""down"",""good_move"",20081.2,6491.7,2049.9,17561.6,469.7,""smooth"",""right"",""right"",""good_move"",22518.8,2436.9,1925.2,20082,511.7,""oops"",""right"",""right"",""good_move""]"
"7800","","<div style=""width:500px;"">
  <p>What determined the result of this run?</p>
  </div>","78","html-slider-response","59","1001821","0.0-7.0-1.9","67","1","2025-07-30 08:56:32","36c45c0696341be0efffe67d72a12abb","41.150.226.50","Mozilla/5.0 (Windows NT 10.0; Win64; x64) AppleWebKit/537.36 (KHTML, like Gecko) Chrome/138.0.0.0 Safari/537.36","WebKit","Chrome","138.0.0.0","Windows","10.0","https://app.prolific.com/","en-GB,en-US;q=0.9,en;q=0.8","67adeb124ea5587ac8afa3ac","687a360dabe5252b5ada7185","6889da7a83a51d8ecf6ca94f","0","67adeb124ea5587ac8afa3ac","0","2025-07-30T09:13:20.384Z","","","","AttribQ","","","","","","","","","","","50","","","","","","","","","","","","","","","","","","","","","","","","","","",""
"3928","","<div style=""width:500px;"">
  <p>How much control did you have over the ball?</p>
  </div>","66","html-slider-response","60","1005756","0.0-7.0-2.9","67","1","2025-07-30 08:56:32","36c45c0696341be0efffe67d72a12abb","41.150.226.50","Mozilla/5.0 (Windows NT 10.0; Win64; x64) AppleWebKit/537.36 (KHTML, like Gecko) Chrome/138.0.0.0 Safari/537.36","WebKit","Chrome","138.0.0.0","Windows","10.0","https://app.prolific.com/","en-GB,en-US;q=0.9,en;q=0.8","67adeb124ea5587ac8afa3ac","687a360dabe5252b5ada7185","6889da7a83a51d8ecf6ca94f","0","67adeb124ea5587ac8afa3ac","0","2025-07-30T09:13:24.318Z","","","","ControlQ","","","","","","","","","","","50","","","","","","","","","","","","","","","","","","","","","","","","","","",""
"2530","","<div style=""width:500px;"">
  <p>How would you describe your current emotional state?</p>
  </div>","26","html-slider-response","61","1008291","0.0-7.0-3.9","67","1","2025-07-30 08:56:32","36c45c0696341be0efffe67d72a12abb","41.150.226.50","Mozilla/5.0 (Windows NT 10.0; Win64; x64) AppleWebKit/537.36 (KHTML, like Gecko) Chrome/138.0.0.0 Safari/537.36","WebKit","Chrome","138.0.0.0","Windows","10.0","https://app.prolific.com/","en-GB,en-US;q=0.9,en;q=0.8","67adeb124ea5587ac8afa3ac","687a360dabe5252b5ada7185","6889da7a83a51d8ecf6ca94f","0","67adeb124ea5587ac8afa3ac","0","2025-07-30T09:13:26.853Z","","","","StressQ","","","","","","","","","","","50","","","","","","","","","","","","","","","","","","","","","","","","","","",""
"6541","","<div style=""width:500px;"">
  <p>What best describes how you currently feel?</p>
  </div>","69","html-slider-response","62","1014840","0.0-7.0-4.9","67","1","2025-07-30 08:56:32","36c45c0696341be0efffe67d72a12abb","41.150.226.50","Mozilla/5.0 (Windows NT 10.0; Win64; x64) AppleWebKit/537.36 (KHTML, like Gecko) Chrome/138.0.0.0 Safari/537.36","WebKit","Chrome","138.0.0.0","Windows","10.0","https://app.prolific.com/","en-GB,en-US;q=0.9,en;q=0.8","67adeb124ea5587ac8afa3ac","687a360dabe5252b5ada7185","6889da7a83a51d8ecf6ca94f","0","67adeb124ea5587ac8afa3ac","0","2025-07-30T09:13:33.402Z","","","","MotivationQ","","","","","","","","","","","50","","","","","","","","","","","","","","","","","","","","","","","","","","",""
"","","","","ctl-task-cpt","63","1057003","0.0-7.0-0.10","67","1","2025-07-30 08:56:32","36c45c0696341be0efffe67d72a12abb","41.150.226.50","Mozilla/5.0 (Windows NT 10.0; Win64; x64) AppleWebKit/537.36 (KHTML, like Gecko) Chrome/138.0.0.0 Safari/537.36","WebKit","Chrome","138.0.0.0","Windows","10.0","https://app.prolific.com/","en-GB,en-US;q=0.9,en;q=0.8","67adeb124ea5587ac8afa3ac","687a360dabe5252b5ada7185","6889da7a83a51d8ecf6ca94f","0","67adeb124ea5587ac8afa3ac","0","2025-07-30T09:14:15.565Z","","","","","","","","","","","","","","","","win-only","1","g1:NE,g2:SW","0.6","11","0","1023971.6","1220","6265.9","39123.3","1","4","8","6","2","8","8","9","1","0.06818181818181818","2992.6","3000","2040","[""down"",""left""]","{""num_key_presses"":6,""num_perfect"":4,""num_errors"":0,""num_randdir"":2,""num_randdir_good_moves"":2,""num_whilered"":0,""num_whileblue"":0,""num_blue"":4,""num_good_moves"":6}","[293.22232142857143,299.12857142857143,0,293.22232142857143,299.12857142857143,100.2,293.22232142857143,299.12857142857143,274.3,293.22232142857143,299.12857142857143,449.2,382.22232142857143,207.12857142857143,636.4,382.22232142857143,207.12857142857143,805.6,535.2223214285714,100.12857142857143,1004.5,547.2223214285714,95.12857142857143,1108.6,547.2223214285714,95.12857142857143,1308.3,547.2223214285714,74.12857142857143,1435.2,547.2223214285714,74.12857142857143,1535.4,547.2223214285714,74.12857142857143,1717.2,545.2223214285714,79.12857142857143,1909.1,545.2223214285714,79.12857142857143,2094,545.2223214285714,79.12857142857143,2291.9,464.22232142857143,148.12857142857143,2393.8,110.22232142857143,509.12857142857143,2494.5,108.22232142857143,513.1285714285714,2683.9,78.22232142857143,532.1285714285714,2802.2,78.22232142857143,532.1285714285714,3012.4,78.22232142857143,532.1285714285714,3115.6,78.22232142857143,532.1285714285714,3218,78.22232142857143,532.1285714285714,3398.6,78.22232142857143,532.1285714285714,3581,78.22232142857143,532.1285714285714,3761.3,78.22232142857143,532.1285714285714,3937.2,78.22232142857143,532.1285714285714,4114.8,78.22232142857143,532.1285714285714,4291.7,78.22232142857143,532.1285714285714,4483.8,78.22232142857143,532.1285714285714,4591.3,78.22232142857143,532.1285714285714,4773.5,78.22232142857143,532.1285714285714,4957.4]","[1619.4,1619.4,1000,0,619.4,""smooth"",""down"",""down"",""good_move"",6440.3,4820,2581.1,1620.3,2238.9,""smooth"",""left"",""left"",""good_move"",14100.8,7659.2,2519.6,10672.1,909.1,""smooth"",""left"",""left"",""good_move"",23445.1,9342.3,2255.2,20796.7,393.2,""oops"",""down"",""down"",""good_move"",25921,2474.4,2038.8,23446.7,435.5,""oops"",""down"",""left"",""good_move"",32567.4,6642.8,2564.1,29551.6,451.7,""smooth"",""down"",""down"",""good_move""]"
"3054","","<div style=""width:500px;"">
  <p>What determined the result of this run?</p>
  </div>","85","html-slider-response","64","1060059","0.0-7.0-1.10","67","1","2025-07-30 08:56:32","36c45c0696341be0efffe67d72a12abb","41.150.226.50","Mozilla/5.0 (Windows NT 10.0; Win64; x64) AppleWebKit/537.36 (KHTML, like Gecko) Chrome/138.0.0.0 Safari/537.36","WebKit","Chrome","138.0.0.0","Windows","10.0","https://app.prolific.com/","en-GB,en-US;q=0.9,en;q=0.8","67adeb124ea5587ac8afa3ac","687a360dabe5252b5ada7185","6889da7a83a51d8ecf6ca94f","0","67adeb124ea5587ac8afa3ac","0","2025-07-30T09:14:18.621Z","","","","AttribQ","","","","","","","","","","","50","","","","","","","","","","","","","","","","","","","","","","","","","","",""
"2904","","<div style=""width:500px;"">
  <p>How much control did you have over the ball?</p>
  </div>","63","html-slider-response","65","1062965","0.0-7.0-2.10","67","1","2025-07-30 08:56:32","36c45c0696341be0efffe67d72a12abb","41.150.226.50","Mozilla/5.0 (Windows NT 10.0; Win64; x64) AppleWebKit/537.36 (KHTML, like Gecko) Chrome/138.0.0.0 Safari/537.36","WebKit","Chrome","138.0.0.0","Windows","10.0","https://app.prolific.com/","en-GB,en-US;q=0.9,en;q=0.8","67adeb124ea5587ac8afa3ac","687a360dabe5252b5ada7185","6889da7a83a51d8ecf6ca94f","0","67adeb124ea5587ac8afa3ac","0","2025-07-30T09:14:21.528Z","","","","ControlQ","","","","","","","","","","","50","","","","","","","","","","","","","","","","","","","","","","","","","","",""
"2355","","<div style=""width:500px;"">
  <p>How would you describe your current emotional state?</p>
  </div>","21","html-slider-response","66","1065326","0.0-7.0-3.10","67","1","2025-07-30 08:56:32","36c45c0696341be0efffe67d72a12abb","41.150.226.50","Mozilla/5.0 (Windows NT 10.0; Win64; x64) AppleWebKit/537.36 (KHTML, like Gecko) Chrome/138.0.0.0 Safari/537.36","WebKit","Chrome","138.0.0.0","Windows","10.0","https://app.prolific.com/","en-GB,en-US;q=0.9,en;q=0.8","67adeb124ea5587ac8afa3ac","687a360dabe5252b5ada7185","6889da7a83a51d8ecf6ca94f","0","67adeb124ea5587ac8afa3ac","0","2025-07-30T09:14:23.888Z","","","","StressQ","","","","","","","","","","","50","","","","","","","","","","","","","","","","","","","","","","","","","","",""
"3415","","<div style=""width:500px;"">
  <p>What best describes how you currently feel?</p>
  </div>","69","html-slider-response","67","1068743","0.0-7.0-4.10","67","1","2025-07-30 08:56:32","36c45c0696341be0efffe67d72a12abb","41.150.226.50","Mozilla/5.0 (Windows NT 10.0; Win64; x64) AppleWebKit/537.36 (KHTML, like Gecko) Chrome/138.0.0.0 Safari/537.36","WebKit","Chrome","138.0.0.0","Windows","10.0","https://app.prolific.com/","en-GB,en-US;q=0.9,en;q=0.8","67adeb124ea5587ac8afa3ac","687a360dabe5252b5ada7185","6889da7a83a51d8ecf6ca94f","0","67adeb124ea5587ac8afa3ac","0","2025-07-30T09:14:27.306Z","","","","MotivationQ","","","","","","","","","","","50","","","","","","","","","","","","","","","","","","","","","","","","","","",""
"","","","","ctl-task-cpt","68","1143323","0.0-7.0-0.11","67","1","2025-07-30 08:56:32","36c45c0696341be0efffe67d72a12abb","41.150.226.50","Mozilla/5.0 (Windows NT 10.0; Win64; x64) AppleWebKit/537.36 (KHTML, like Gecko) Chrome/138.0.0.0 Safari/537.36","WebKit","Chrome","138.0.0.0","Windows","10.0","https://app.prolific.com/","en-GB,en-US;q=0.9,en;q=0.8","67adeb124ea5587ac8afa3ac","687a360dabe5252b5ada7185","6889da7a83a51d8ecf6ca94f","0","67adeb124ea5587ac8afa3ac","0","2025-07-30T09:15:41.885Z","","","","","","","","","","","","","","","","win-only","1","g1:NE,g2:SW","0.7","12","0","1077869.3","1109.9","6126.5","71533.9","1","4","4","6","2","4","4","13","9","0.09848484848484848","1420.5","3000","785","[""down"",""left""]","{""num_key_presses"":14,""num_perfect"":9,""num_errors"":0,""num_randdir"":5,""num_randdir_good_moves"":1,""num_whilered"":0,""num_whileblue"":0,""num_blue"":3,""num_good_moves"":10}","[300.22232142857143,296.12857142857143,3.6,300.22232142857143,296.12857142857143,106.4,300.22232142857143,296.12857142857143,221.7,300.22232142857143,296.12857142857143,332.7,300.22232142857143,296.12857142857143,441.4,300.22232142857143,296.12857142857143,544.9,299.22232142857143,298.12857142857143,659.5,182.22232142857143,421.12857142857143,767.2,143.22232142857143,450.12857142857143,882.1,143.22232142857143,450.12857142857143,988.5,116.22232142857143,482.12857142857143,1099,87.22232142857143,515.1285714285714,1207.3,87.22232142857143,515.1285714285714,1309.2,87.22232142857143,515.1285714285714,1419.2,87.22232142857143,515.1285714285714,1530.6,87.22232142857143,515.1285714285714,1640.9,87.22232142857143,515.1285714285714,1748.8,87.22232142857143,515.1285714285714,1859.2,87.22232142857143,515.1285714285714,1964.9,87.22232142857143,515.1285714285714,2069.9,87.22232142857143,515.1285714285714,2171.9,87.22232142857143,515.1285714285714,2278.2,87.22232142857143,515.1285714285714,2386.6,87.22232142857143,515.1285714285714,2487.7,87.22232142857143,515.1285714285714,2600.3,87.22232142857143,515.1285714285714,2702.6,87.22232142857143,515.1285714285714,2804.7,87.22232142857143,515.1285714285714,2917.7,87.22232142857143,515.1285714285714,3019.6,87.22232142857143,515.1285714285714,3138.9,87.22232142857143,515.1285714285714,3247.4,87.22232142857143,515.1285714285714,3352.9,87.22232142857143,515.1285714285714,3454.1,87.22232142857143,515.1285714285714,3573.6,87.22232142857143,515.1285714285714,3687.6,87.22232142857143,515.1285714285714,3791.4,87.22232142857143,515.1285714285714,3896.6,87.22232142857143,515.1285714285714,4017.3,87.22232142857143,515.1285714285714,4129,87.22232142857143,515.1285714285714,4236.8,87.22232142857143,515.1285714285714,4339.3,87.22232142857143,515.1285714285714,4446.3,87.22232142857143,515.1285714285714,4551.4,87.22232142857143,515.1285714285714,4670.3,87.22232142857143,515.1285714285714,4777.7,87.22232142857143,515.1285714285714,4885.7,87.22232142857143,515.1285714285714,4992.4]","[1654.1,1654.1,1000,0,654.1,""oops"",""down"",""up"",""bad_move"",5163.9,3505.9,3092.8,1658,413.1,""smooth"",""left"",""left"",""good_move"",11957.3,6791.3,2396.6,9014.9,545.8,""smooth"",""down"",""down"",""good_move"",16064,4105.7,2180.1,11958.3,1925.6,""smooth"",""left"",""left"",""good_move"",20938.5,4872.4,2176.5,16066.2,2695.8,""smooth"",""down"",""down"",""good_move"",24550.8,3610.8,2721.6,20940,889.2,""smooth"",""left"",""left"",""good_move"",29914.2,5362.4,2867.5,24551.9,2494.9,""smooth"",""down"",""down"",""good_move"",35754.9,5840,1778.5,33379.9,596.5,""oops"",""down"",""up"",""bad_move"",41864.8,6108.9,2051.3,35755.9,4057.6,""oops"",""down"",""right"",""bad_move"",44683.1,2817.3,2197.4,41865.8,619.9,""smooth"",""down"",""down"",""good_move"",47737.1,3053,2004,44684.1,1049,""oops"",""down"",""down"",""good_move"",50761.1,3022.2,2511.4,47738.9,510.8,""oops"",""left"",""up"",""bad_move"",61325.7,10563.1,3385.7,57528.3,411.7,""smooth"",""down"",""down"",""good_move"",64822.3,3495.5,2409.8,61326.8,1085.7,""smooth"",""left"",""left"",""good_move""]"
"5512","","<div style=""width:500px;"">
  <p>What determined the result of this run?</p>
  </div>","59","html-slider-response","69","1148839","0.0-7.0-1.11","67","1","2025-07-30 08:56:32","36c45c0696341be0efffe67d72a12abb","41.150.226.50","Mozilla/5.0 (Windows NT 10.0; Win64; x64) AppleWebKit/537.36 (KHTML, like Gecko) Chrome/138.0.0.0 Safari/537.36","WebKit","Chrome","138.0.0.0","Windows","10.0","https://app.prolific.com/","en-GB,en-US;q=0.9,en;q=0.8","67adeb124ea5587ac8afa3ac","687a360dabe5252b5ada7185","6889da7a83a51d8ecf6ca94f","0","67adeb124ea5587ac8afa3ac","0","2025-07-30T09:15:47.401Z","","","","AttribQ","","","","","","","","","","","50","","","","","","","","","","","","","","","","","","","","","","","","","","",""
"1975","","<div style=""width:500px;"">
  <p>How much control did you have over the ball?</p>
  </div>","82","html-slider-response","70","1150817","0.0-7.0-2.11","67","1","2025-07-30 08:56:32","36c45c0696341be0efffe67d72a12abb","41.150.226.50","Mozilla/5.0 (Windows NT 10.0; Win64; x64) AppleWebKit/537.36 (KHTML, like Gecko) Chrome/138.0.0.0 Safari/537.36","WebKit","Chrome","138.0.0.0","Windows","10.0","https://app.prolific.com/","en-GB,en-US;q=0.9,en;q=0.8","67adeb124ea5587ac8afa3ac","687a360dabe5252b5ada7185","6889da7a83a51d8ecf6ca94f","0","67adeb124ea5587ac8afa3ac","0","2025-07-30T09:15:49.379Z","","","","ControlQ","","","","","","","","","","","50","","","","","","","","","","","","","","","","","","","","","","","","","","",""
"3075","","<div style=""width:500px;"">
  <p>How would you describe your current emotional state?</p>
  </div>","4","html-slider-response","71","1153897","0.0-7.0-3.11","67","1","2025-07-30 08:56:32","36c45c0696341be0efffe67d72a12abb","41.150.226.50","Mozilla/5.0 (Windows NT 10.0; Win64; x64) AppleWebKit/537.36 (KHTML, like Gecko) Chrome/138.0.0.0 Safari/537.36","WebKit","Chrome","138.0.0.0","Windows","10.0","https://app.prolific.com/","en-GB,en-US;q=0.9,en;q=0.8","67adeb124ea5587ac8afa3ac","687a360dabe5252b5ada7185","6889da7a83a51d8ecf6ca94f","0","67adeb124ea5587ac8afa3ac","0","2025-07-30T09:15:52.459Z","","","","StressQ","","","","","","","","","","","50","","","","","","","","","","","","","","","","","","","","","","","","","","",""
"2450","","<div style=""width:500px;"">
  <p>What best describes how you currently feel?</p>
  </div>","83","html-slider-response","72","1156352","0.0-7.0-4.11","67","1","2025-07-30 08:56:32","36c45c0696341be0efffe67d72a12abb","41.150.226.50","Mozilla/5.0 (Windows NT 10.0; Win64; x64) AppleWebKit/537.36 (KHTML, like Gecko) Chrome/138.0.0.0 Safari/537.36","WebKit","Chrome","138.0.0.0","Windows","10.0","https://app.prolific.com/","en-GB,en-US;q=0.9,en;q=0.8","67adeb124ea5587ac8afa3ac","687a360dabe5252b5ada7185","6889da7a83a51d8ecf6ca94f","0","67adeb124ea5587ac8afa3ac","0","2025-07-30T09:15:54.914Z","","","","MotivationQ","","","","","","","","","","","50","","","","","","","","","","","","","","","","","","","","","","","","","","",""
"","","","","ctl-task-cpt","73","1195766","0.0-7.0-0.12","67","1","2025-07-30 08:56:32","36c45c0696341be0efffe67d72a12abb","41.150.226.50","Mozilla/5.0 (Windows NT 10.0; Win64; x64) AppleWebKit/537.36 (KHTML, like Gecko) Chrome/138.0.0.0 Safari/537.36","WebKit","Chrome","138.0.0.0","Windows","10.0","https://app.prolific.com/","en-GB,en-US;q=0.9,en;q=0.8","67adeb124ea5587ac8afa3ac","687a360dabe5252b5ada7185","6889da7a83a51d8ecf6ca94f","0","67adeb124ea5587ac8afa3ac","0","2025-07-30T09:16:34.328Z","","","","","","","","","","","","","","","","win-only","0","g1:NW,g2:SE","0.8","13","0","1165481.5","1276.3","6322.7","36382","1","4","4","6","2","4","4","17","13","0.12878787878787878","2164.1","3000","2590","[""down"",""right""]","{""num_key_presses"":6,""num_perfect"":5,""num_errors"":0,""num_randdir"":1,""num_randdir_good_moves"":1,""num_whilered"":0,""num_whileblue"":0,""num_blue"":3,""num_good_moves"":6}","[290.22232142857143,293.12857142857143,0.6,290.22232142857143,293.12857142857143,112.3,290.22232142857143,293.12857142857143,227.6,290.22232142857143,293.12857142857143,352.5,290.22232142857143,293.12857142857143,463.2,290.22232142857143,293.12857142857143,572.1,374.22232142857143,380.12857142857143,693.1,400.22232142857143,409.12857142857143,802.5,362.22232142857143,385.12857142857143,924.9,362.22232142857143,385.12857142857143,1041.7,192.22232142857143,193.12857142857143,1167.4,184.22232142857143,181.12857142857143,1278.9,369.22232142857143,361.12857142857143,1394.7,605.2223214285714,571.1285714285714,1516.8,605.2223214285714,571.1285714285714,1626,605.2223214285714,571.1285714285714,1739.5,545.2223214285714,547.1285714285714,1865.4,544.2223214285714,547.1285714285714,1973.2,544.2223214285714,547.1285714285714,2087.2,544.2223214285714,547.1285714285714,2205,544.2223214285714,547.1285714285714,2317.7,544.2223214285714,547.1285714285714,2429.2,544.2223214285714,547.1285714285714,2537.9,544.2223214285714,547.1285714285714,2647.3,544.2223214285714,547.1285714285714,2750.4,544.2223214285714,547.1285714285714,2860.8,544.2223214285714,547.1285714285714,2970.1,544.2223214285714,547.1285714285714,3073,544.2223214285714,547.1285714285714,3184.4,544.2223214285714,547.1285714285714,3284.9,544.2223214285714,547.1285714285714,3392.7,544.2223214285714,547.1285714285714,3498.3,544.2223214285714,547.1285714285714,3602,544.2223214285714,547.1285714285714,3707.2,544.2223214285714,547.1285714285714,3810,544.2223214285714,547.1285714285714,3919,544.2223214285714,547.1285714285714,4029.4,544.2223214285714,547.1285714285714,4135.1,544.2223214285714,547.1285714285714,4245.2,544.2223214285714,547.1285714285714,4352.2,544.2223214285714,547.1285714285714,4457.2,544.2223214285714,547.1285714285714,4563.2,544.2223214285714,547.1285714285714,4672.6,544.2223214285714,547.1285714285714,4774.9,544.2223214285714,547.1285714285714,4882.2,544.2223214285714,547.1285714285714,4988.7]","[2345.5,2345.5,1000,0,1345.5,""smooth"",""down"",""down"",""good_move"",5685.6,3338.9,2646.1,2346.7,692.8,""smooth"",""right"",""right"",""good_move"",8634.6,2948,2446.6,5686.6,501.4,""oops"",""right"",""right"",""good_move"",15630.4,6993.4,2230.4,12883.9,516.1,""smooth"",""down"",""down"",""good_move"",23038,7406.8,3198.4,19266.3,573.4,""smooth"",""right"",""right"",""good_move"",29767,6727.2,2956.9,26400.4,409.7,""smooth"",""down"",""down"",""good_move""]"
"3461","","<div style=""width:500px;"">
  <p>What determined the result of this run?</p>
  </div>","83","html-slider-response","74","1199228","0.0-7.0-1.12","67","1","2025-07-30 08:56:32","36c45c0696341be0efffe67d72a12abb","41.150.226.50","Mozilla/5.0 (Windows NT 10.0; Win64; x64) AppleWebKit/537.36 (KHTML, like Gecko) Chrome/138.0.0.0 Safari/537.36","WebKit","Chrome","138.0.0.0","Windows","10.0","https://app.prolific.com/","en-GB,en-US;q=0.9,en;q=0.8","67adeb124ea5587ac8afa3ac","687a360dabe5252b5ada7185","6889da7a83a51d8ecf6ca94f","0","67adeb124ea5587ac8afa3ac","0","2025-07-30T09:16:37.790Z","","","","AttribQ","","","","","","","","","","","50","","","","","","","","","","","","","","","","","","","","","","","","","","",""
"2307","","<div style=""width:500px;"">
  <p>How much control did you have over the ball?</p>
  </div>","74","html-slider-response","75","1201538","0.0-7.0-2.12","67","1","2025-07-30 08:56:32","36c45c0696341be0efffe67d72a12abb","41.150.226.50","Mozilla/5.0 (Windows NT 10.0; Win64; x64) AppleWebKit/537.36 (KHTML, like Gecko) Chrome/138.0.0.0 Safari/537.36","WebKit","Chrome","138.0.0.0","Windows","10.0","https://app.prolific.com/","en-GB,en-US;q=0.9,en;q=0.8","67adeb124ea5587ac8afa3ac","687a360dabe5252b5ada7185","6889da7a83a51d8ecf6ca94f","0","67adeb124ea5587ac8afa3ac","0","2025-07-30T09:16:40.100Z","","","","ControlQ","","","","","","","","","","","50","","","","","","","","","","","","","","","","","","","","","","","","","","",""
"1951","","<div style=""width:500px;"">
  <p>How would you describe your current emotional state?</p>
  </div>","19","html-slider-response","76","1203492","0.0-7.0-3.12","67","1","2025-07-30 08:56:32","36c45c0696341be0efffe67d72a12abb","41.150.226.50","Mozilla/5.0 (Windows NT 10.0; Win64; x64) AppleWebKit/537.36 (KHTML, like Gecko) Chrome/138.0.0.0 Safari/537.36","WebKit","Chrome","138.0.0.0","Windows","10.0","https://app.prolific.com/","en-GB,en-US;q=0.9,en;q=0.8","67adeb124ea5587ac8afa3ac","687a360dabe5252b5ada7185","6889da7a83a51d8ecf6ca94f","0","67adeb124ea5587ac8afa3ac","0","2025-07-30T09:16:42.055Z","","","","StressQ","","","","","","","","","","","50","","","","","","","","","","","","","","","","","","","","","","","","","","",""
"2610","","<div style=""width:500px;"">
  <p>What best describes how you currently feel?</p>
  </div>","70","html-slider-response","77","1206104","0.0-7.0-4.12","67","1","2025-07-30 08:56:32","36c45c0696341be0efffe67d72a12abb","41.150.226.50","Mozilla/5.0 (Windows NT 10.0; Win64; x64) AppleWebKit/537.36 (KHTML, like Gecko) Chrome/138.0.0.0 Safari/537.36","WebKit","Chrome","138.0.0.0","Windows","10.0","https://app.prolific.com/","en-GB,en-US;q=0.9,en;q=0.8","67adeb124ea5587ac8afa3ac","687a360dabe5252b5ada7185","6889da7a83a51d8ecf6ca94f","0","67adeb124ea5587ac8afa3ac","0","2025-07-30T09:16:44.667Z","","","","MotivationQ","","","","","","","","","","","50","","","","","","","","","","","","","","","","","","","","","","","","","","",""
