"rt","response_timestamp","stimulus","response","trial_type","trial_index","time_elapsed","internal_node_id","run_id","condition","recorded_at","source_code_version","ip","user_agent","device","browser","browser_version","platform","platform_version","referer","accept_language","PROLIFIC_PID","STUDY_ID","SESSION_ID","BATCH","prolific_id","batch","realtime","success","question_order","question_id","eventType","responses","item_order","radio_event_ids","radio_event_times","key_event_times","mouse_event_times","straightlining","zigzagging","honeypot","view_history","slider_start","which_type","canvas_config","goals_layout","control_level","trial_number","tutorial_trial_number","trial_start_time","phase1_start_time","phase2_start_time","phase3_start_time","goal_1_value","goal_1_distance","goal_2_value","goal_2_distance","goal_selected","outcome","outcome_total","participant_final_score","participant_initial_score","participant_final_score_prop","goal_choice_rt","allocated_time","allocated_time_remaining","goal_direction","counts","mouse_movements","key_presses"
"4447","1754488080075","<p style='font-size:40px;line-height:1.25'><strong>Welcome to the experiment!</strong></p><p style='font-size:1.1em;line-height:1.25'>Thank you for participanting in our experiment again! You will be asked to play the Dysfunctional Ball Game again. We will briefly recap the rules before we start.</p><p style='font-size:1.1em;line-height:1.25'>Press <strong>Next</strong> to continue.</p>","0","custom-html-button-response","0","4451","0.0-0.0","204","1","2025-08-06 13:47:48","36c45c0696341be0efffe67d72a12abb","41.13.176.246","Mozilla/5.0 (Windows NT 10.0; Win64; x64) AppleWebKit/537.36 (KHTML, like Gecko) Chrome/138.0.0.0 Safari/537.36 Edg/138.0.0.0","WebKit","Edge","138.0.0.0","Windows","10.0","https://app.prolific.com/","en-US,en;q=0.9","67b89f64c09d83ec36fdd403","6877649eabb845cf142cd221","68935a67e1146a6f44803cdf","1","67b89f64c09d83ec36fdd403","1","2025-08-06T13:48:00.077Z","","","","","","","","","","","","","","","","","","","","","","","","","","","","","","","","","","","","","","","","","",""
"8806","","","","fullscreen","1","14263","0.0-1.0","204","1","2025-08-06 13:47:48","36c45c0696341be0efffe67d72a12abb","41.13.176.246","Mozilla/5.0 (Windows NT 10.0; Win64; x64) AppleWebKit/537.36 (KHTML, like Gecko) Chrome/138.0.0.0 Safari/537.36 Edg/138.0.0.0","WebKit","Edge","138.0.0.0","Windows","10.0","https://app.prolific.com/","en-US,en;q=0.9","67b89f64c09d83ec36fdd403","6877649eabb845cf142cd221","68935a67e1146a6f44803cdf","1","67b89f64c09d83ec36fdd403","1","","true","","","","","","","","","","","","","","","","","","","","","","","","","","","","","","","","","","","","","","","","",""
"22190","1754488112081"," <p style='font-size:1.1em;line-height:1.25'>Thank you for closing all other tabs.</p><p style='font-size:1.1em;line-height:1.25'>We will now invite you to fill in some questionnaires, before starting the game.<br>This will take about 5 minutes.<br></p><p style='font-size:1.1em;line-height:1.25'>Press the <strong>Next</strong> button to continue.</p>","0","custom-html-button-response","2","36456","0.0-2.0","204","1","2025-08-06 13:47:48","36c45c0696341be0efffe67d72a12abb","41.13.176.246","Mozilla/5.0 (Windows NT 10.0; Win64; x64) AppleWebKit/537.36 (KHTML, like Gecko) Chrome/138.0.0.0 Safari/537.36 Edg/138.0.0.0","WebKit","Edge","138.0.0.0","Windows","10.0","https://app.prolific.com/","en-US,en;q=0.9","67b89f64c09d83ec36fdd403","6877649eabb845cf142cd221","68935a67e1146a6f44803cdf","1","67b89f64c09d83ec36fdd403","1","2025-08-06T13:48:32.082Z","","","","","","","","","","","","","","","","","","","","","","","","","","","","","","","","","","","","","","","","","",""
"3573","","","{""assigned_sex"":""female""}","survey-multi-choice","3","40034","0.0-3.0-0.0","204","1","2025-08-06 13:47:48","36c45c0696341be0efffe67d72a12abb","41.13.176.246","Mozilla/5.0 (Windows NT 10.0; Win64; x64) AppleWebKit/537.36 (KHTML, like Gecko) Chrome/138.0.0.0 Safari/537.36 Edg/138.0.0.0","WebKit","Edge","138.0.0.0","Windows","10.0","https://app.prolific.com/","en-US,en;q=0.9","67b89f64c09d83ec36fdd403","6877649eabb845cf142cd221","68935a67e1146a6f44803cdf","1","67b89f64c09d83ec36fdd403","1","","","[0]","0","demographics","","","","","","","","","","","","","","","","","","","","","","","","","","","","","","","","","","","","","",""
"1311","1754488116971","<p style='font-size:1.1em;line-height:1.25'>In the following, we will perform a baseline assessment. This means that we will ask you a few questions relating to your experiences over the past month.<br></p><p style='font-size:1.1em;line-height:1.25'>Press the <strong>Next</strong> button to continue.</p>","0","custom-html-button-response","4","41346","0.0-4.0-0.0","204","1","2025-08-06 13:47:48","36c45c0696341be0efffe67d72a12abb","41.13.176.246","Mozilla/5.0 (Windows NT 10.0; Win64; x64) AppleWebKit/537.36 (KHTML, like Gecko) Chrome/138.0.0.0 Safari/537.36 Edg/138.0.0.0","WebKit","Edge","138.0.0.0","Windows","10.0","https://app.prolific.com/","en-US,en;q=0.9","67b89f64c09d83ec36fdd403","6877649eabb845cf142cd221","68935a67e1146a6f44803cdf","1","67b89f64c09d83ec36fdd403","1","2025-08-06T13:48:36.972Z","","","","","","","","","","","","","","","","","","","","","","","","","","","","","","","","","","","","","","","","","",""
"27679.899999976158","","","","survey-template","5","69032","0.0-4.0-1.0","204","1","2025-08-06 13:47:48","36c45c0696341be0efffe67d72a12abb","41.13.176.246","Mozilla/5.0 (Windows NT 10.0; Win64; x64) AppleWebKit/537.36 (KHTML, like Gecko) Chrome/138.0.0.0 Safari/537.36 Edg/138.0.0.0","WebKit","Edge","138.0.0.0","Windows","10.0","https://app.prolific.com/","en-US,en;q=0.9","67b89f64c09d83ec36fdd403","6877649eabb845cf142cd221","68935a67e1146a6f44803cdf","1","67b89f64c09d83ec36fdd403","1","2025-08-06T13:49:04.658Z","","","","pss","{""Q01"":""3"",""Q02"":""2"",""Q03"":""3"",""Q04"":""2"",""Q05"":""2"",""Q06"":""2"",""Q07"":""2"",""Q08"":""2"",""Q09"":""2"",""Q10"":""2""}","[0,1,2,3,4,5,6,7,8,9]","[""Q01"",""Q02"",""Q03"",""Q04"",""Q05"",""Q06"",""Q07"",""Q08"",""Q09"",""Q10""]","[7383.899999976158,12158.799999952316,13454.200000047684,14874.799999952316,17687.399999976158,19824,21686,22833.200000047684,24710.600000023842,25830.5]","[]","[0.3999999761581421,7383.899999976158,9832,11337.899999976158,12158.799999952316,13454.200000047684,14874.799999952316,17033.600000023842,17687.399999976158,19824,20761.399999976158,21686,22833.200000047684,24710.600000023842,25830.5,27677]","0.8","0.3333333333333333","0","","","","","","","","","","","","","","","","","","","","","","","","","","","","",""
"2706","1754488147366","<p style='font-size:1.1em;line-height:1.25'>Thank you for your answers! Now we will ask you a few more questions relating to your feelings in the last 24 hours.<br></p><p style='font-size:1.1em;line-height:1.25'>Press the <strong>Next</strong> button to continue.</p>","0","custom-html-button-response","6","71741","0.0-4.0-2.0","204","1","2025-08-06 13:47:48","36c45c0696341be0efffe67d72a12abb","41.13.176.246","Mozilla/5.0 (Windows NT 10.0; Win64; x64) AppleWebKit/537.36 (KHTML, like Gecko) Chrome/138.0.0.0 Safari/537.36 Edg/138.0.0.0","WebKit","Edge","138.0.0.0","Windows","10.0","https://app.prolific.com/","en-US,en;q=0.9","67b89f64c09d83ec36fdd403","6877649eabb845cf142cd221","68935a67e1146a6f44803cdf","1","67b89f64c09d83ec36fdd403","1","2025-08-06T13:49:07.367Z","","","","","","","","","","","","","","","","","","","","","","","","","","","","","","","","","","","","","","","","","",""
"64816.5","","","","survey-template","7","136564","0.0-4.0-3.0","204","1","2025-08-06 13:47:48","36c45c0696341be0efffe67d72a12abb","41.13.176.246","Mozilla/5.0 (Windows NT 10.0; Win64; x64) AppleWebKit/537.36 (KHTML, like Gecko) Chrome/138.0.0.0 Safari/537.36 Edg/138.0.0.0","WebKit","Edge","138.0.0.0","Windows","10.0","https://app.prolific.com/","en-US,en;q=0.9","67b89f64c09d83ec36fdd403","6877649eabb845cf142cd221","68935a67e1146a6f44803cdf","1","67b89f64c09d83ec36fdd403","1","2025-08-06T13:50:12.190Z","","","","drsp","{""Q01"":""2"",""Q02"":""1"",""Q03"":""1"",""Q04"":""1"",""Q05"":""1"",""Q06"":""1"",""Q07"":""1"",""Q08"":""1"",""Q09"":""1"",""Q10"":""1"",""Q11"":""1"",""Q12"":""1"",""Q13"":""1"",""Q14"":""1"",""Q15"":""1"",""Q16"":""1"",""Q17"":""1"",""Q18"":""1"",""Q19"":""1"",""Q20"":""1"",""Q21"":""1"",""Q22"":""1""}","[0,1,2,3,4,5,6,7,8,9,10,11,12,13,14,15,16,17,18,19,20,21]","[""Q01"",""Q01"",""Q02"",""Q02"",""Q03"",""Q04"",""Q05"",""Q06"",""Q07"",""Q08"",""Q09"",""Q10"",""Q11"",""Q12"",""Q13"",""Q14"",""Q15"",""Q16"",""Q17"",""Q18"",""Q19"",""Q20"",""Q21"",""Q22""]","[4157.600000023842,4300.199999928474,6056.100000023842,8003,9448.899999976158,10371,11280.600000023842,14002.899999976158,15787,22093.100000023842,24791.199999928474,26052.899999976158,29180.799999952316,30510.299999952316,34265,35534.10000002384,37069.199999928474,38501.299999952316,41667,44386.799999952316,46219,48250.89999997616,49479.299999952316,52118.299999952316]","[]","[0.19999992847442627,4157.600000023842,4300.199999928474,6056.100000023842,8003,9448.899999976158,10371,11280.600000023842,13079.100000023842,14002.899999976158,14933.799999952316,15787,18790,20497.199999928474,21315.600000023842,22093.100000023842,23802.699999928474,24791.199999928474,26052.899999976158,27987.199999928474,29180.799999952316,30510.299999952316,31150.399999976158,34265,35534.10000002384,37069.199999928474,38501.299999952316,40697.299999952316,41667,44386.799999952316,46219,48250.89999997616,49479.299999952316,50720.799999952316,52118.299999952316,64811.299999952316]","0.9545454545454546","0.047619047619047616","0","","","","","","","","","","","","","","","","","","","","","","","","","","","","",""
"11764.899999976158","","","","survey-template","8","148333","0.0-4.0-4.0","204","1","2025-08-06 13:47:48","36c45c0696341be0efffe67d72a12abb","41.13.176.246","Mozilla/5.0 (Windows NT 10.0; Win64; x64) AppleWebKit/537.36 (KHTML, like Gecko) Chrome/138.0.0.0 Safari/537.36 Edg/138.0.0.0","WebKit","Edge","138.0.0.0","Windows","10.0","https://app.prolific.com/","en-US,en;q=0.9","67b89f64c09d83ec36fdd403","6877649eabb845cf142cd221","68935a67e1146a6f44803cdf","1","67b89f64c09d83ec36fdd403","1","2025-08-06T13:50:23.960Z","","","","stress","{""Q01"":""1"",""Q02"":""4"",""Q03"":""1""}","[0,1,2]","[""Q01"",""Q02"",""Q03""]","[4064.899999976158,8129.199999928474,10450]","[]","[4064.899999976158,8129.199999928474,9760.899999976158,10450,11764]","1","0","0","","","","","","","","","","","","","","","","","","","","","","","","","","","","",""
"3250","","","","instructions","9","151585","0.0-5.0-0.0","204","1","2025-08-06 13:47:48","36c45c0696341be0efffe67d72a12abb","41.13.176.246","Mozilla/5.0 (Windows NT 10.0; Win64; x64) AppleWebKit/537.36 (KHTML, like Gecko) Chrome/138.0.0.0 Safari/537.36 Edg/138.0.0.0","WebKit","Edge","138.0.0.0","Windows","10.0","https://app.prolific.com/","en-US,en;q=0.9","67b89f64c09d83ec36fdd403","6877649eabb845cf142cd221","68935a67e1146a6f44803cdf","1","67b89f64c09d83ec36fdd403","1","","","","","","","","","","","","","","","[{""page_index"":0,""viewing_time"":3249}]","","","","","","","","","","","","","","","","","","","","","","","","","","","",""
"5123","","<p>Before you start with this game please answer the following three questions yourself. </p>
  <p>Through this game, we measure several aspects of your cognitive performance, such as reaction times, multi-tasking capabilities </p>
  <p>and the ability to assess the situation you are in.</p>
  <p></p>
  <p><b>How good do you usually are in such tasks?</b></p>","87","html-slider-response","10","156711","0.0-6.0-0.0","204","1","2025-08-06 13:47:48","36c45c0696341be0efffe67d72a12abb","41.13.176.246","Mozilla/5.0 (Windows NT 10.0; Win64; x64) AppleWebKit/537.36 (KHTML, like Gecko) Chrome/138.0.0.0 Safari/537.36 Edg/138.0.0.0","WebKit","Edge","138.0.0.0","Windows","10.0","https://app.prolific.com/","en-US,en;q=0.9","67b89f64c09d83ec36fdd403","6877649eabb845cf142cd221","68935a67e1146a6f44803cdf","1","67b89f64c09d83ec36fdd403","1","2025-08-06T13:50:32.337Z","","","","PreSkillQ","","","","","","","","","","","50","","","","","","","","","","","","","","","","","","","","","","","","","","",""
"4387","","<div style=""width:500px;"">
  <p>How well do you think you will perform in this task compared to other participants?</p>
  </div>","75","html-slider-response","11","161100","0.0-6.0-1.0","204","1","2025-08-06 13:47:48","36c45c0696341be0efffe67d72a12abb","41.13.176.246","Mozilla/5.0 (Windows NT 10.0; Win64; x64) AppleWebKit/537.36 (KHTML, like Gecko) Chrome/138.0.0.0 Safari/537.36 Edg/138.0.0.0","WebKit","Edge","138.0.0.0","Windows","10.0","https://app.prolific.com/","en-US,en;q=0.9","67b89f64c09d83ec36fdd403","6877649eabb845cf142cd221","68935a67e1146a6f44803cdf","1","67b89f64c09d83ec36fdd403","1","2025-08-06T13:50:36.726Z","","","","PrePerfQ","","","","","","","","","","","50","","","","","","","","","","","","","","","","","","","","","","","","","","",""
"2808","","<div style=""width:500px;"">
  <p>What best describes how you currently feel?</p>
  </div>","79","html-slider-response","12","163909","0.0-6.0-2.0","204","1","2025-08-06 13:47:48","36c45c0696341be0efffe67d72a12abb","41.13.176.246","Mozilla/5.0 (Windows NT 10.0; Win64; x64) AppleWebKit/537.36 (KHTML, like Gecko) Chrome/138.0.0.0 Safari/537.36 Edg/138.0.0.0","WebKit","Edge","138.0.0.0","Windows","10.0","https://app.prolific.com/","en-US,en;q=0.9","67b89f64c09d83ec36fdd403","6877649eabb845cf142cd221","68935a67e1146a6f44803cdf","1","67b89f64c09d83ec36fdd403","1","2025-08-06T13:50:39.535Z","","","","PreMotivationQ","","","","","","","","","","","50","","","","","","","","","","","","","","","","","","","","","","","","","","",""
"","","","","ctl-task-cpt","13","195951","0.0-7.0-0.0","204","1","2025-08-06 13:47:48","36c45c0696341be0efffe67d72a12abb","41.13.176.246","Mozilla/5.0 (Windows NT 10.0; Win64; x64) AppleWebKit/537.36 (KHTML, like Gecko) Chrome/138.0.0.0 Safari/537.36 Edg/138.0.0.0","WebKit","Edge","138.0.0.0","Windows","10.0","https://app.prolific.com/","en-US,en;q=0.9","67b89f64c09d83ec36fdd403","6877649eabb845cf142cd221","68935a67e1146a6f44803cdf","1","67b89f64c09d83ec36fdd403","1","2025-08-06T13:51:11.577Z","","","","","","","","","","","","","","","","win-only","2","g1:SE,g2:NW","1","1","0","166777.9","4515.1","9516.9","29035.3","1","4","8","6","2","8","6","6","0","0.045454545454545456","2150.7","3000","1290","[""left"",""up""]","{""num_key_presses"":7,""num_perfect"":5,""num_errors"":2,""num_randdir"":0,""num_randdir_good_moves"":0,""num_whilered"":0,""num_whileblue"":1,""num_blue"":1,""num_good_moves"":6}","[299.22232142857143,295.12857142857143,0.4,299.22232142857143,295.12857142857143,101.7,299.22232142857143,295.12857142857143,202.1,299.22232142857143,295.12857142857143,305.8,299.22232142857143,295.12857142857143,406.2,299.22232142857143,295.12857142857143,510.9,299.22232142857143,295.12857142857143,615.5,299.22232142857143,295.12857142857143,718,309.22232142857143,300.12857142857143,821.5,469.22232142857143,343.12857142857143,928.9,483.22232142857143,386.12857142857143,1030.3,483.22232142857143,386.12857142857143,1130.4,336.22232142857143,151.12857142857143,1230.6,221.22232142857143,-43.871428571428574,1334.4,205.22232142857143,-83.87142857142857,1436.7,205.22232142857143,-83.87142857142857,1541.8,205.22232142857143,-83.87142857142857,1641.8,86.22232142857143,-20.871428571428574,1745.9,59.222321428571426,-17.871428571428574,1847.2,49.222321428571426,-10.871428571428574,1951.5,45.222321428571426,17.128571428571426,2052.7,53.222321428571426,60.128571428571426,2165.2,53.222321428571426,60.128571428571426,2266.2,53.222321428571426,60.128571428571426,2366.2,53.222321428571426,60.128571428571426,2476,53.222321428571426,60.128571428571426,2576.6,53.222321428571426,60.128571428571426,2677.7,53.222321428571426,60.128571428571426,2779.8,53.222321428571426,60.128571428571426,2880.8,53.222321428571426,60.128571428571426,2980.9,53.222321428571426,60.128571428571426,3082.5,53.222321428571426,60.128571428571426,3182.7,53.222321428571426,60.128571428571426,3286.4,53.222321428571426,60.128571428571426,3386.4,53.222321428571426,60.128571428571426,3491.6,53.222321428571426,60.128571428571426,3595.7,53.222321428571426,60.128571428571426,3698.6,53.222321428571426,60.128571428571426,3802.4,53.222321428571426,60.128571428571426,3906.2,53.222321428571426,60.128571428571426,4012.2,53.222321428571426,60.128571428571426,4116.1,53.222321428571426,60.128571428571426,4216.1,53.222321428571426,60.128571428571426,4321.8,53.222321428571426,60.128571428571426,4427.6,53.222321428571426,60.128571428571426,4531.9,53.222321428571426,60.128571428571426,4636.3,53.222321428571426,60.128571428571426,4741.2,53.222321428571426,60.128571428571426,4851.3,53.222321428571426,60.128571428571426,4951.5]","[439.5,439.5,1000,0,-560.5,""error"",""-"",""-"",""no_move"",3710,3270.1,1831.6,1444.8,433.6,""smooth"",""up"",""up"",""good_move"",6366.8,2656,2323.6,3711,332.3,""smooth"",""up"",""up"",""good_move"",9717.4,3350.2,2994.6,6367.2,355.6,""while_blue"",""left"",""left"",""good_move"",12848.9,3131.1,2609.3,9717.8,521.8,""smooth"",""left"",""left"",""good_move"",16250,3400.8,3003.8,12849.2,397,""smooth"",""left"",""left"",""good_move"",19413.7,3163.4,2788.3,16250.4,375,""smooth"",""up"",""up"",""good_move""]"
"4260","","<div style=""width:500px;"">
  <p>What determined the result of this run?</p>
  </div>","100","html-slider-response","14","200213","0.0-7.0-1.0","204","1","2025-08-06 13:47:48","36c45c0696341be0efffe67d72a12abb","41.13.176.246","Mozilla/5.0 (Windows NT 10.0; Win64; x64) AppleWebKit/537.36 (KHTML, like Gecko) Chrome/138.0.0.0 Safari/537.36 Edg/138.0.0.0","WebKit","Edge","138.0.0.0","Windows","10.0","https://app.prolific.com/","en-US,en;q=0.9","67b89f64c09d83ec36fdd403","6877649eabb845cf142cd221","68935a67e1146a6f44803cdf","1","67b89f64c09d83ec36fdd403","1","2025-08-06T13:51:15.839Z","","","","AttribQ","","","","","","","","","","","50","","","","","","","","","","","","","","","","","","","","","","","","","","",""
"4722","","<div style=""width:500px;"">
  <p>How much control did you have over the ball?</p>
  </div>","100","html-slider-response","15","204937","0.0-7.0-2.0","204","1","2025-08-06 13:47:48","36c45c0696341be0efffe67d72a12abb","41.13.176.246","Mozilla/5.0 (Windows NT 10.0; Win64; x64) AppleWebKit/537.36 (KHTML, like Gecko) Chrome/138.0.0.0 Safari/537.36 Edg/138.0.0.0","WebKit","Edge","138.0.0.0","Windows","10.0","https://app.prolific.com/","en-US,en;q=0.9","67b89f64c09d83ec36fdd403","6877649eabb845cf142cd221","68935a67e1146a6f44803cdf","1","67b89f64c09d83ec36fdd403","1","2025-08-06T13:51:20.563Z","","","","ControlQ","","","","","","","","","","","50","","","","","","","","","","","","","","","","","","","","","","","","","","",""
"2977","","<div style=""width:500px;"">
  <p>How would you describe your current emotional state?</p>
  </div>","5","html-slider-response","16","207915","0.0-7.0-3.0","204","1","2025-08-06 13:47:48","36c45c0696341be0efffe67d72a12abb","41.13.176.246","Mozilla/5.0 (Windows NT 10.0; Win64; x64) AppleWebKit/537.36 (KHTML, like Gecko) Chrome/138.0.0.0 Safari/537.36 Edg/138.0.0.0","WebKit","Edge","138.0.0.0","Windows","10.0","https://app.prolific.com/","en-US,en;q=0.9","67b89f64c09d83ec36fdd403","6877649eabb845cf142cd221","68935a67e1146a6f44803cdf","1","67b89f64c09d83ec36fdd403","1","2025-08-06T13:51:23.541Z","","","","StressQ","","","","","","","","","","","50","","","","","","","","","","","","","","","","","","","","","","","","","","",""
"5945","","<div style=""width:500px;"">
  <p>What best describes how you currently feel?</p>
  </div>","85","html-slider-response","17","213862","0.0-7.0-4.0","204","1","2025-08-06 13:47:48","36c45c0696341be0efffe67d72a12abb","41.13.176.246","Mozilla/5.0 (Windows NT 10.0; Win64; x64) AppleWebKit/537.36 (KHTML, like Gecko) Chrome/138.0.0.0 Safari/537.36 Edg/138.0.0.0","WebKit","Edge","138.0.0.0","Windows","10.0","https://app.prolific.com/","en-US,en;q=0.9","67b89f64c09d83ec36fdd403","6877649eabb845cf142cd221","68935a67e1146a6f44803cdf","1","67b89f64c09d83ec36fdd403","1","2025-08-06T13:51:29.488Z","","","","MotivationQ","","","","","","","","","","","50","","","","","","","","","","","","","","","","","","","","","","","","","","",""
"","","","","ctl-task-cpt","18","241831","0.0-7.0-0.1","204","1","2025-08-06 13:47:48","36c45c0696341be0efffe67d72a12abb","41.13.176.246","Mozilla/5.0 (Windows NT 10.0; Win64; x64) AppleWebKit/537.36 (KHTML, like Gecko) Chrome/138.0.0.0 Safari/537.36 Edg/138.0.0.0","WebKit","Edge","138.0.0.0","Windows","10.0","https://app.prolific.com/","en-US,en;q=0.9","67b89f64c09d83ec36fdd403","6877649eabb845cf142cd221","68935a67e1146a6f44803cdf","1","67b89f64c09d83ec36fdd403","1","2025-08-06T13:51:57.458Z","","","","","","","","","","","","","","","","win-only","0","g1:NW,g2:SE","0.9","2","0","216727.8","1653.7","6656.6","24962.6","1","4","4","6","2","4","2","8","6","0.06060606060606061","1253.8","3000","1225","[""down"",""right""]","{""num_key_presses"":7,""num_perfect"":5,""num_errors"":2,""num_randdir"":0,""num_randdir_good_moves"":0,""num_whilered"":0,""num_whileblue"":1,""num_blue"":1,""num_good_moves"":6}","[293.22232142857143,295.12857142857143,0.2,293.22232142857143,295.12857142857143,106.8,293.22232142857143,295.12857142857143,206.8,293.22232142857143,295.12857142857143,307.4,292.22232142857143,294.12857142857143,407.4,289.22232142857143,293.12857142857143,507.4,287.22232142857143,291.12857142857143,607.7,285.22232142857143,290.12857142857143,707.8,391.22232142857143,411.12857142857143,815.6,452.22232142857143,472.12857142857143,917.8,477.22232142857143,484.12857142857143,1017.9,521.2223214285714,503.12857142857143,1120.2,531.2223214285714,510.12857142857143,1222.9,532.2223214285714,512.1285714285714,1329.8,532.2223214285714,512.1285714285714,1430.9,532.2223214285714,512.1285714285714,1532.3,532.2223214285714,512.1285714285714,1632.3,532.2223214285714,512.1285714285714,1734.2,532.2223214285714,512.1285714285714,1835.1,532.2223214285714,512.1285714285714,1938,532.2223214285714,512.1285714285714,2041.9,532.2223214285714,512.1285714285714,2146.4,532.2223214285714,512.1285714285714,2247.9,532.2223214285714,512.1285714285714,2352,532.2223214285714,512.1285714285714,2452.9,532.2223214285714,512.1285714285714,2558,532.2223214285714,512.1285714285714,2662.5,532.2223214285714,512.1285714285714,2767,532.2223214285714,512.1285714285714,2875.4,532.2223214285714,512.1285714285714,2977,532.2223214285714,512.1285714285714,3085.2,532.2223214285714,512.1285714285714,3199.5,532.2223214285714,512.1285714285714,3314.9,532.2223214285714,512.1285714285714,3417.3,532.2223214285714,512.1285714285714,3522.8,532.2223214285714,512.1285714285714,3631.7,532.2223214285714,512.1285714285714,3732.9,532.2223214285714,512.1285714285714,3837.4,532.2223214285714,512.1285714285714,3937.7,532.2223214285714,512.1285714285714,4042.7,532.2223214285714,512.1285714285714,4148.8,532.2223214285714,512.1285714285714,4249.2,532.2223214285714,512.1285714285714,4352.3,532.2223214285714,512.1285714285714,4457.5,532.2223214285714,512.1285714285714,4557.7,532.2223214285714,512.1285714285714,4665.5,532.2223214285714,512.1285714285714,4765.5,532.2223214285714,512.1285714285714,4866.9,532.2223214285714,512.1285714285714,4968.5]","[1460.9,1460.8,1000,0.1,460.8,""smooth"",""right"",""right"",""good_move"",4410.6,2948.7,2628.6,1461.9,320.1,""smooth"",""down"",""down"",""good_move"",7729.8,3318.8,3007.9,4411,310.9,""while_blue"",""down"",""down"",""good_move"",11495.7,3765.6,3340.6,7730.2,425,""smooth"",""right"",""right"",""good_move"",14520.2,3024.2,2623.9,11496,400.3,""smooth"",""right"",""right"",""good_move"",14706.5,185.9,3244.1,14520.6,-3058.2,""error"",""-"",""-"",""no_move"",18155.8,3448.7,2073.8,15708,374.1,""smooth"",""down"",""down"",""good_move""]"
"3560","","<div style=""width:500px;"">
  <p>What determined the result of this run?</p>
  </div>","100","html-slider-response","19","245393","0.0-7.0-1.1","204","1","2025-08-06 13:47:48","36c45c0696341be0efffe67d72a12abb","41.13.176.246","Mozilla/5.0 (Windows NT 10.0; Win64; x64) AppleWebKit/537.36 (KHTML, like Gecko) Chrome/138.0.0.0 Safari/537.36 Edg/138.0.0.0","WebKit","Edge","138.0.0.0","Windows","10.0","https://app.prolific.com/","en-US,en;q=0.9","67b89f64c09d83ec36fdd403","6877649eabb845cf142cd221","68935a67e1146a6f44803cdf","1","67b89f64c09d83ec36fdd403","1","2025-08-06T13:52:01.019Z","","","","AttribQ","","","","","","","","","","","50","","","","","","","","","","","","","","","","","","","","","","","","","","",""
"4053","","<div style=""width:500px;"">
  <p>How much control did you have over the ball?</p>
  </div>","88","html-slider-response","20","249448","0.0-7.0-2.1","204","1","2025-08-06 13:47:48","36c45c0696341be0efffe67d72a12abb","41.13.176.246","Mozilla/5.0 (Windows NT 10.0; Win64; x64) AppleWebKit/537.36 (KHTML, like Gecko) Chrome/138.0.0.0 Safari/537.36 Edg/138.0.0.0","WebKit","Edge","138.0.0.0","Windows","10.0","https://app.prolific.com/","en-US,en;q=0.9","67b89f64c09d83ec36fdd403","6877649eabb845cf142cd221","68935a67e1146a6f44803cdf","1","67b89f64c09d83ec36fdd403","1","2025-08-06T13:52:05.074Z","","","","ControlQ","","","","","","","","","","","50","","","","","","","","","","","","","","","","","","","","","","","","","","",""
"4933","","<div style=""width:500px;"">
  <p>How would you describe your current emotional state?</p>
  </div>","6","html-slider-response","21","254383","0.0-7.0-3.1","204","1","2025-08-06 13:47:48","36c45c0696341be0efffe67d72a12abb","41.13.176.246","Mozilla/5.0 (Windows NT 10.0; Win64; x64) AppleWebKit/537.36 (KHTML, like Gecko) Chrome/138.0.0.0 Safari/537.36 Edg/138.0.0.0","WebKit","Edge","138.0.0.0","Windows","10.0","https://app.prolific.com/","en-US,en;q=0.9","67b89f64c09d83ec36fdd403","6877649eabb845cf142cd221","68935a67e1146a6f44803cdf","1","67b89f64c09d83ec36fdd403","1","2025-08-06T13:52:10.009Z","","","","StressQ","","","","","","","","","","","50","","","","","","","","","","","","","","","","","","","","","","","","","","",""
"3810","","<div style=""width:500px;"">
  <p>What best describes how you currently feel?</p>
  </div>","97","html-slider-response","22","258195","0.0-7.0-4.1","204","1","2025-08-06 13:47:48","36c45c0696341be0efffe67d72a12abb","41.13.176.246","Mozilla/5.0 (Windows NT 10.0; Win64; x64) AppleWebKit/537.36 (KHTML, like Gecko) Chrome/138.0.0.0 Safari/537.36 Edg/138.0.0.0","WebKit","Edge","138.0.0.0","Windows","10.0","https://app.prolific.com/","en-US,en;q=0.9","67b89f64c09d83ec36fdd403","6877649eabb845cf142cd221","68935a67e1146a6f44803cdf","1","67b89f64c09d83ec36fdd403","1","2025-08-06T13:52:13.822Z","","","","MotivationQ","","","","","","","","","","","50","","","","","","","","","","","","","","","","","","","","","","","","","","",""
"","","","","ctl-task-cpt","23","286455","0.0-7.0-0.2","204","1","2025-08-06 13:47:48","36c45c0696341be0efffe67d72a12abb","41.13.176.246","Mozilla/5.0 (Windows NT 10.0; Win64; x64) AppleWebKit/537.36 (KHTML, like Gecko) Chrome/138.0.0.0 Safari/537.36 Edg/138.0.0.0","WebKit","Edge","138.0.0.0","Windows","10.0","https://app.prolific.com/","en-US,en;q=0.9","67b89f64c09d83ec36fdd403","6877649eabb845cf142cd221","68935a67e1146a6f44803cdf","1","67b89f64c09d83ec36fdd403","1","2025-08-06T13:52:42.081Z","","","","","","","","","","","","","","","","win-only","3","g1:SW,g2:NE","0.8","3","0","261062.6","1880.9","6881.7","25242","1","4","4","6","2","4","3","11","8","0.08333333333333333","1199.5","3000","1245","[""up"",""right""]","{""num_key_presses"":6,""num_perfect"":4,""num_errors"":1,""num_randdir"":1,""num_randdir_good_moves"":1,""num_whilered"":0,""num_whileblue"":1,""num_blue"":2,""num_good_moves"":6}","[300.22232142857143,289.12857142857143,0.1,300.22232142857143,289.12857142857143,100.4,300.22232142857143,289.12857142857143,205.1,300.22232142857143,289.12857142857143,315.5,300.22232142857143,289.12857142857143,429.2,300.22232142857143,289.12857142857143,530.5,295.22232142857143,296.12857142857143,631.2,298.22232142857143,287.12857142857143,745.7,432.22232142857143,117.12857142857143,850.3,522.2223214285714,36.128571428571426,963,539.2223214285714,29.128571428571426,1066.6,541.2223214285714,29.128571428571426,1170.7,542.2223214285714,29.128571428571426,1271,542.2223214285714,29.128571428571426,1383.6,542.2223214285714,29.128571428571426,1485.5,542.2223214285714,29.128571428571426,1596,542.2223214285714,29.128571428571426,1700.8,542.2223214285714,29.128571428571426,1810.5,548.2223214285714,32.128571428571426,1911.2,739.2223214285714,23.128571428571426,2011.4,739.2223214285714,23.128571428571426,2111.5,739.2223214285714,23.128571428571426,2215,739.2223214285714,23.128571428571426,2315.5,739.2223214285714,23.128571428571426,2416,739.2223214285714,23.128571428571426,2520.8,739.2223214285714,23.128571428571426,2628.6,739.2223214285714,23.128571428571426,2731.3,739.2223214285714,23.128571428571426,2835.5,739.2223214285714,23.128571428571426,2943.6,739.2223214285714,23.128571428571426,3048.1,739.2223214285714,23.128571428571426,3151.2,739.2223214285714,23.128571428571426,3258.5,739.2223214285714,23.128571428571426,3359,739.2223214285714,23.128571428571426,3460.2,739.2223214285714,23.128571428571426,3562.8,739.2223214285714,23.128571428571426,3665.4,739.2223214285714,23.128571428571426,3765.6,739.2223214285714,23.128571428571426,3865.7,739.2223214285714,23.128571428571426,3965.9,739.2223214285714,23.128571428571426,4067.6,739.2223214285714,23.128571428571426,4172,739.2223214285714,23.128571428571426,4277.6,739.2223214285714,23.128571428571426,4381.2,739.2223214285714,23.128571428571426,4485.5,739.2223214285714,23.128571428571426,4593.9,739.2223214285714,23.128571428571426,4695.3,739.2223214285714,23.128571428571426,4800.8,739.2223214285714,23.128571428571426,4901]","[1434,1434,1000,0,434,""smooth"",""right"",""right"",""good_move"",3439.9,2005.4,1549.8,1434.5,455.6,""oops"",""right"",""right"",""good_move"",9557.5,6117.3,2710.4,6500.6,346.5,""smooth"",""up"",""up"",""good_move"",13254.2,3696.2,3350.2,9558,346,""smooth"",""up"",""up"",""good_move"",15175.5,1921.1,1528.6,13254.4,392.5,""smooth"",""right"",""right"",""good_move"",18240.9,3065.2,2797.5,15175.7,267.7,""while_blue"",""up"",""up"",""good_move""]"
"3426","","<div style=""width:500px;"">
  <p>What determined the result of this run?</p>
  </div>","98","html-slider-response","24","289883","0.0-7.0-1.2","204","1","2025-08-06 13:47:48","36c45c0696341be0efffe67d72a12abb","41.13.176.246","Mozilla/5.0 (Windows NT 10.0; Win64; x64) AppleWebKit/537.36 (KHTML, like Gecko) Chrome/138.0.0.0 Safari/537.36 Edg/138.0.0.0","WebKit","Edge","138.0.0.0","Windows","10.0","https://app.prolific.com/","en-US,en;q=0.9","67b89f64c09d83ec36fdd403","6877649eabb845cf142cd221","68935a67e1146a6f44803cdf","1","67b89f64c09d83ec36fdd403","1","2025-08-06T13:52:45.509Z","","","","AttribQ","","","","","","","","","","","50","","","","","","","","","","","","","","","","","","","","","","","","","","",""
"4186","","<div style=""width:500px;"">
  <p>How much control did you have over the ball?</p>
  </div>","94","html-slider-response","25","294070","0.0-7.0-2.2","204","1","2025-08-06 13:47:48","36c45c0696341be0efffe67d72a12abb","41.13.176.246","Mozilla/5.0 (Windows NT 10.0; Win64; x64) AppleWebKit/537.36 (KHTML, like Gecko) Chrome/138.0.0.0 Safari/537.36 Edg/138.0.0.0","WebKit","Edge","138.0.0.0","Windows","10.0","https://app.prolific.com/","en-US,en;q=0.9","67b89f64c09d83ec36fdd403","6877649eabb845cf142cd221","68935a67e1146a6f44803cdf","1","67b89f64c09d83ec36fdd403","1","2025-08-06T13:52:49.697Z","","","","ControlQ","","","","","","","","","","","50","","","","","","","","","","","","","","","","","","","","","","","","","","",""
"11820","","<div style=""width:500px;"">
  <p>How would you describe your current emotional state?</p>
  </div>","7","html-slider-response","26","305893","0.0-7.0-3.2","204","1","2025-08-06 13:47:48","36c45c0696341be0efffe67d72a12abb","41.13.176.246","Mozilla/5.0 (Windows NT 10.0; Win64; x64) AppleWebKit/537.36 (KHTML, like Gecko) Chrome/138.0.0.0 Safari/537.36 Edg/138.0.0.0","WebKit","Edge","138.0.0.0","Windows","10.0","https://app.prolific.com/","en-US,en;q=0.9","67b89f64c09d83ec36fdd403","6877649eabb845cf142cd221","68935a67e1146a6f44803cdf","1","67b89f64c09d83ec36fdd403","1","2025-08-06T13:53:01.519Z","","","","StressQ","","","","","","","","","","","50","","","","","","","","","","","","","","","","","","","","","","","","","","",""
"7125","","<div style=""width:500px;"">
  <p>What best describes how you currently feel?</p>
  </div>","95","html-slider-response","27","313020","0.0-7.0-4.2","204","1","2025-08-06 13:47:48","36c45c0696341be0efffe67d72a12abb","41.13.176.246","Mozilla/5.0 (Windows NT 10.0; Win64; x64) AppleWebKit/537.36 (KHTML, like Gecko) Chrome/138.0.0.0 Safari/537.36 Edg/138.0.0.0","WebKit","Edge","138.0.0.0","Windows","10.0","https://app.prolific.com/","en-US,en;q=0.9","67b89f64c09d83ec36fdd403","6877649eabb845cf142cd221","68935a67e1146a6f44803cdf","1","67b89f64c09d83ec36fdd403","1","2025-08-06T13:53:08.647Z","","","","MotivationQ","","","","","","","","","","","50","","","","","","","","","","","","","","","","","","","","","","","","","","",""
"","","","","ctl-task-cpt","28","362952","0.0-7.0-0.3","204","1","2025-08-06 13:47:48","36c45c0696341be0efffe67d72a12abb","41.13.176.246","Mozilla/5.0 (Windows NT 10.0; Win64; x64) AppleWebKit/537.36 (KHTML, like Gecko) Chrome/138.0.0.0 Safari/537.36 Edg/138.0.0.0","WebKit","Edge","138.0.0.0","Windows","10.0","https://app.prolific.com/","en-US,en;q=0.9","67b89f64c09d83ec36fdd403","6877649eabb845cf142cd221","68935a67e1146a6f44803cdf","1","67b89f64c09d83ec36fdd403","1","2025-08-06T13:53:58.578Z","","","","","","","","","","","","","","","","win-only","1","g1:NE,g2:SW","0.7","4","0","315889.7","1119.4","6120.7","46910.5","1","4","8","6","2","-8","-8","3","11","0.022727272727272728","1134.8","3000","-2370","[""down"",""left""]","{""num_key_presses"":10,""num_perfect"":7,""num_errors"":0,""num_randdir"":3,""num_randdir_good_moves"":0,""num_whilered"":0,""num_whileblue"":0,""num_blue"":3,""num_good_moves"":7}","[288.22232142857143,298.12857142857143,0.4,288.22232142857143,298.12857142857143,100.9,288.22232142857143,298.12857142857143,202.4,288.22232142857143,298.12857142857143,306,288.22232142857143,298.12857142857143,406.9,288.22232142857143,298.12857142857143,516.8,293.22232142857143,297.12857142857143,621.2,206.22232142857143,414.12857142857143,721.7,89.22232142857143,569.1285714285714,822.3,70.22232142857143,585.1285714285714,926.6,64.22232142857143,588.1285714285714,1027.2,61.222321428571426,588.1285714285714,1139.3,61.222321428571426,588.1285714285714,1241.6,61.222321428571426,588.1285714285714,1345.6,61.222321428571426,588.1285714285714,1446.3,67.22232142857143,573.1285714285714,1548.9,67.22232142857143,573.1285714285714,1654.8,67.22232142857143,573.1285714285714,1772.8,67.22232142857143,573.1285714285714,1874.5,67.22232142857143,573.1285714285714,1976.2,67.22232142857143,573.1285714285714,2076.5,67.22232142857143,573.1285714285714,2177,67.22232142857143,571.1285714285714,2277.5,62.222321428571426,561.1285714285714,2385.6,62.222321428571426,561.1285714285714,2486.9,62.222321428571426,561.1285714285714,2592,62.222321428571426,561.1285714285714,2694.8,62.222321428571426,561.1285714285714,2804.5,62.222321428571426,561.1285714285714,2906.9,62.222321428571426,561.1285714285714,3017.2,62.222321428571426,561.1285714285714,3119.3,62.222321428571426,561.1285714285714,3220.9,62.222321428571426,561.1285714285714,3321.4,62.222321428571426,561.1285714285714,3421.9,62.222321428571426,561.1285714285714,3522.1,62.222321428571426,561.1285714285714,3631.4,62.222321428571426,561.1285714285714,3731.4,62.222321428571426,561.1285714285714,3832.8,62.222321428571426,561.1285714285714,3939.4,62.222321428571426,561.1285714285714,4046.6,62.222321428571426,561.1285714285714,4147.1,62.222321428571426,561.1285714285714,4251.9,62.222321428571426,561.1285714285714,4356.3,62.222321428571426,561.1285714285714,4457.5,62.222321428571426,561.1285714285714,4565,62.222321428571426,561.1285714285714,4666.3,62.222321428571426,561.1285714285714,4766.4,62.222321428571426,561.1285714285714,4867.1,62.222321428571426,561.1285714285714,4967.4]","[1421.4,1421.4,1000,0,421.4,""smooth"",""left"",""left"",""good_move"",4341.7,2919.9,2644.8,1421.8,275.1,""oops"",""down"",""up"",""bad_move"",7047.7,2705.6,2357.3,4342.1,348.3,""smooth"",""left"",""left"",""good_move"",9525.9,2478,2185.3,7047.9,292.7,""oops"",""down"",""up"",""bad_move"",16195.4,6669.2,2870.7,12930.3,394.4,""smooth"",""down"",""down"",""good_move"",19432.8,3236.9,2878.9,16195.9,358,""smooth"",""left"",""left"",""good_move"",21743.2,2310.3,1928.1,19433,382.2,""smooth"",""down"",""down"",""good_move"",24526.5,2783,2436,21743.5,347,""smooth"",""down"",""down"",""good_move"",27509.1,2982.3,2699.7,24526.8,282.6,""oops"",""down"",""right"",""bad_move"",33676.4,6166.9,2120.4,31130.3,425.7,""smooth"",""down"",""down"",""good_move""]"
"7151","","<div style=""width:500px;"">
  <p>What determined the result of this run?</p>
  </div>","98","html-slider-response","29","370104","0.0-7.0-1.3","204","1","2025-08-06 13:47:48","36c45c0696341be0efffe67d72a12abb","41.13.176.246","Mozilla/5.0 (Windows NT 10.0; Win64; x64) AppleWebKit/537.36 (KHTML, like Gecko) Chrome/138.0.0.0 Safari/537.36 Edg/138.0.0.0","WebKit","Edge","138.0.0.0","Windows","10.0","https://app.prolific.com/","en-US,en;q=0.9","67b89f64c09d83ec36fdd403","6877649eabb845cf142cd221","68935a67e1146a6f44803cdf","1","67b89f64c09d83ec36fdd403","1","2025-08-06T13:54:05.730Z","","","","AttribQ","","","","","","","","","","","50","","","","","","","","","","","","","","","","","","","","","","","","","","",""
"3914","","<div style=""width:500px;"">
  <p>How much control did you have over the ball?</p>
  </div>","90","html-slider-response","30","374020","0.0-7.0-2.3","204","1","2025-08-06 13:47:48","36c45c0696341be0efffe67d72a12abb","41.13.176.246","Mozilla/5.0 (Windows NT 10.0; Win64; x64) AppleWebKit/537.36 (KHTML, like Gecko) Chrome/138.0.0.0 Safari/537.36 Edg/138.0.0.0","WebKit","Edge","138.0.0.0","Windows","10.0","https://app.prolific.com/","en-US,en;q=0.9","67b89f64c09d83ec36fdd403","6877649eabb845cf142cd221","68935a67e1146a6f44803cdf","1","67b89f64c09d83ec36fdd403","1","2025-08-06T13:54:09.646Z","","","","ControlQ","","","","","","","","","","","50","","","","","","","","","","","","","","","","","","","","","","","","","","",""
"6571","","<div style=""width:500px;"">
  <p>How would you describe your current emotional state?</p>
  </div>","9","html-slider-response","31","380593","0.0-7.0-3.3","204","1","2025-08-06 13:47:48","36c45c0696341be0efffe67d72a12abb","41.13.176.246","Mozilla/5.0 (Windows NT 10.0; Win64; x64) AppleWebKit/537.36 (KHTML, like Gecko) Chrome/138.0.0.0 Safari/537.36 Edg/138.0.0.0","WebKit","Edge","138.0.0.0","Windows","10.0","https://app.prolific.com/","en-US,en;q=0.9","67b89f64c09d83ec36fdd403","6877649eabb845cf142cd221","68935a67e1146a6f44803cdf","1","67b89f64c09d83ec36fdd403","1","2025-08-06T13:54:16.219Z","","","","StressQ","","","","","","","","","","","50","","","","","","","","","","","","","","","","","","","","","","","","","","",""
"3835","","<div style=""width:500px;"">
  <p>What best describes how you currently feel?</p>
  </div>","85","html-slider-response","32","384430","0.0-7.0-4.3","204","1","2025-08-06 13:47:48","36c45c0696341be0efffe67d72a12abb","41.13.176.246","Mozilla/5.0 (Windows NT 10.0; Win64; x64) AppleWebKit/537.36 (KHTML, like Gecko) Chrome/138.0.0.0 Safari/537.36 Edg/138.0.0.0","WebKit","Edge","138.0.0.0","Windows","10.0","https://app.prolific.com/","en-US,en;q=0.9","67b89f64c09d83ec36fdd403","6877649eabb845cf142cd221","68935a67e1146a6f44803cdf","1","67b89f64c09d83ec36fdd403","1","2025-08-06T13:54:20.056Z","","","","MotivationQ","","","","","","","","","","","50","","","","","","","","","","","","","","","","","","","","","","","","","","",""
"","","","","ctl-task-cpt","33","438009","0.0-7.0-0.4","204","1","2025-08-06 13:47:48","36c45c0696341be0efffe67d72a12abb","41.13.176.246","Mozilla/5.0 (Windows NT 10.0; Win64; x64) AppleWebKit/537.36 (KHTML, like Gecko) Chrome/138.0.0.0 Safari/537.36 Edg/138.0.0.0","WebKit","Edge","138.0.0.0","Windows","10.0","https://app.prolific.com/","en-US,en;q=0.9","67b89f64c09d83ec36fdd403","6877649eabb845cf142cd221","68935a67e1146a6f44803cdf","1","67b89f64c09d83ec36fdd403","1","2025-08-06T13:55:13.635Z","","","","","","","","","","","","","","","","win-only","1","g1:NE,g2:SW","0.6","5","0","387297.3","1365.5","6367.2","50556.8","1","4","4","6","2","-4","-6","0","3","0","1147.9","3000","-2400","[""down"",""left""]","{""num_key_presses"":10,""num_perfect"":5,""num_errors"":2,""num_randdir"":3,""num_randdir_good_moves"":1,""num_whilered"":0,""num_whileblue"":1,""num_blue"":5,""num_good_moves"":6}","[299.22232142857143,299.12857142857143,0.2,299.22232142857143,299.12857142857143,100.9,299.22232142857143,299.12857142857143,201.4,299.22232142857143,299.12857142857143,305.5,299.22232142857143,299.12857142857143,410.2,299.22232142857143,299.12857142857143,510.7,289.22232142857143,308.12857142857143,611.3,178.22232142857143,453.12857142857143,724,116.22232142857143,529.1285714285714,825,92.22232142857143,547.1285714285714,926.9,87.22232142857143,548.1285714285714,1030,82.22232142857143,548.1285714285714,1131.8,81.22232142857143,548.1285714285714,1234.6,81.22232142857143,548.1285714285714,1339.6,81.22232142857143,548.1285714285714,1446.7,81.22232142857143,548.1285714285714,1562.3,81.22232142857143,548.1285714285714,1669.7,81.22232142857143,548.1285714285714,1770.4,81.22232142857143,548.1285714285714,1871.2,81.22232142857143,548.1285714285714,1981.6,81.22232142857143,548.1285714285714,2086.2,81.22232142857143,548.1285714285714,2200.2,81.22232142857143,548.1285714285714,2300.5,81.22232142857143,548.1285714285714,2400.5,81.22232142857143,548.1285714285714,2506.2,81.22232142857143,548.1285714285714,2606.2,81.22232142857143,548.1285714285714,2711.5,80.22232142857143,548.1285714285714,2818.4,80.22232142857143,548.1285714285714,2921.2,79.22232142857143,548.1285714285714,3025.8,79.22232142857143,548.1285714285714,3129.5,79.22232142857143,548.1285714285714,3231.4,79.22232142857143,548.1285714285714,3331.7,117.22232142857143,535.1285714285714,3431.8,167.22232142857143,525.1285714285714,3532.3,173.22232142857143,525.1285714285714,3634.1,174.22232142857143,525.1285714285714,3735.9,622.2223214285714,683.1285714285714,3848.1,661.2223214285714,673.1285714285714,3951.7,544.2223214285714,616.1285714285714,4056.7,473.22232142857143,588.1285714285714,4161.6,405.22232142857143,556.1285714285714,4266.6,375.22232142857143,548.1285714285714,4371.3,319.22232142857143,541.1285714285714,4476.3,266.22232142857143,538.1285714285714,4585.3,191.22232142857143,529.1285714285714,4685.6,100.22232142857143,522.1285714285714,4786.4,90.22232142857143,522.1285714285714,4886.6,89.22232142857143,522.1285714285714,4987.3]","[1441.5,1441.5,1000,0,441.5,""oops"",""down"",""down"",""good_move"",8839.5,7397.4,3259.4,5219.3,360.8,""smooth"",""left"",""left"",""good_move"",9593.2,753.2,1683.1,8840,-929.9,""error"",""-"",""-"",""no_move"",16946,7352.5,2433.3,14209.4,303.3,""while_blue"",""down"",""up"",""bad_move"",19252.6,2306.1,1552.4,16946.5,753.7,""oops"",""down"",""right"",""bad_move"",22141.8,2888.7,2549.2,19253.1,339.5,""smooth"",""down"",""down"",""good_move"",28578,6435.5,2262.7,25935.1,380.2,""smooth"",""left"",""left"",""good_move"",31805.5,3226.6,2788.4,28578.9,438.2,""smooth"",""down"",""down"",""good_move"",38085.7,6279.8,2882.5,34792.7,410.5,""oops"",""left"",""right"",""bad_move"",41248.2,3162.1,2749,38086.2,413,""smooth"",""down"",""down"",""good_move""]"
"4653","","<div style=""width:500px;"">
  <p>What determined the result of this run?</p>
  </div>","6","html-slider-response","34","442664","0.0-7.0-1.4","204","1","2025-08-06 13:47:48","36c45c0696341be0efffe67d72a12abb","41.13.176.246","Mozilla/5.0 (Windows NT 10.0; Win64; x64) AppleWebKit/537.36 (KHTML, like Gecko) Chrome/138.0.0.0 Safari/537.36 Edg/138.0.0.0","WebKit","Edge","138.0.0.0","Windows","10.0","https://app.prolific.com/","en-US,en;q=0.9","67b89f64c09d83ec36fdd403","6877649eabb845cf142cd221","68935a67e1146a6f44803cdf","1","67b89f64c09d83ec36fdd403","1","2025-08-06T13:55:18.290Z","","","","AttribQ","","","","","","","","","","","50","","","","","","","","","","","","","","","","","","","","","","","","","","",""
"5273","","<div style=""width:500px;"">
  <p>How much control did you have over the ball?</p>
  </div>","20","html-slider-response","35","447938","0.0-7.0-2.4","204","1","2025-08-06 13:47:48","36c45c0696341be0efffe67d72a12abb","41.13.176.246","Mozilla/5.0 (Windows NT 10.0; Win64; x64) AppleWebKit/537.36 (KHTML, like Gecko) Chrome/138.0.0.0 Safari/537.36 Edg/138.0.0.0","WebKit","Edge","138.0.0.0","Windows","10.0","https://app.prolific.com/","en-US,en;q=0.9","67b89f64c09d83ec36fdd403","6877649eabb845cf142cd221","68935a67e1146a6f44803cdf","1","67b89f64c09d83ec36fdd403","1","2025-08-06T13:55:23.564Z","","","","ControlQ","","","","","","","","","","","50","","","","","","","","","","","","","","","","","","","","","","","","","","",""
"4240","","<div style=""width:500px;"">
  <p>How would you describe your current emotional state?</p>
  </div>","22","html-slider-response","36","452182","0.0-7.0-3.4","204","1","2025-08-06 13:47:48","36c45c0696341be0efffe67d72a12abb","41.13.176.246","Mozilla/5.0 (Windows NT 10.0; Win64; x64) AppleWebKit/537.36 (KHTML, like Gecko) Chrome/138.0.0.0 Safari/537.36 Edg/138.0.0.0","WebKit","Edge","138.0.0.0","Windows","10.0","https://app.prolific.com/","en-US,en;q=0.9","67b89f64c09d83ec36fdd403","6877649eabb845cf142cd221","68935a67e1146a6f44803cdf","1","67b89f64c09d83ec36fdd403","1","2025-08-06T13:55:27.808Z","","","","StressQ","","","","","","","","","","","50","","","","","","","","","","","","","","","","","","","","","","","","","","",""
"6321","","<div style=""width:500px;"">
  <p>What best describes how you currently feel?</p>
  </div>","84","html-slider-response","37","458505","0.0-7.0-4.4","204","1","2025-08-06 13:47:48","36c45c0696341be0efffe67d72a12abb","41.13.176.246","Mozilla/5.0 (Windows NT 10.0; Win64; x64) AppleWebKit/537.36 (KHTML, like Gecko) Chrome/138.0.0.0 Safari/537.36 Edg/138.0.0.0","WebKit","Edge","138.0.0.0","Windows","10.0","https://app.prolific.com/","en-US,en;q=0.9","67b89f64c09d83ec36fdd403","6877649eabb845cf142cd221","68935a67e1146a6f44803cdf","1","67b89f64c09d83ec36fdd403","1","2025-08-06T13:55:34.131Z","","","","MotivationQ","","","","","","","","","","","50","","","","","","","","","","","","","","","","","","","","","","","","","","",""
"","","","","ctl-task-cpt","38","513920","0.0-7.0-0.5","204","1","2025-08-06 13:47:48","36c45c0696341be0efffe67d72a12abb","41.13.176.246","Mozilla/5.0 (Windows NT 10.0; Win64; x64) AppleWebKit/537.36 (KHTML, like Gecko) Chrome/138.0.0.0 Safari/537.36 Edg/138.0.0.0","WebKit","Edge","138.0.0.0","Windows","10.0","https://app.prolific.com/","en-US,en;q=0.9","67b89f64c09d83ec36fdd403","6877649eabb845cf142cd221","68935a67e1146a6f44803cdf","1","67b89f64c09d83ec36fdd403","1","2025-08-06T13:56:29.546Z","","","","","","","","","","","","","","","","win-only","0","g1:NW,g2:SE","0.5","6","0","461373.1","1598.6","6600","52383","1","4","8","6","2","-8","-10","0","0","0","1579.2","3000","-2355","[""down"",""right""]","{""num_key_presses"":13,""num_perfect"":6,""num_errors"":2,""num_randdir"":5,""num_randdir_good_moves"":1,""num_whilered"":0,""num_whileblue"":0,""num_blue"":1,""num_good_moves"":7}","[302.22232142857143,292.12857142857143,0.3,302.22232142857143,292.12857142857143,101.9,302.22232142857143,292.12857142857143,208.6,302.22232142857143,292.12857142857143,320.1,302.22232142857143,292.12857142857143,424.4,301.22232142857143,292.12857142857143,526.2,301.22232142857143,291.12857142857143,630.2,319.22232142857143,304.12857142857143,734.4,533.2223214285714,491.12857142857143,835.7,651.2223214285714,584.1285714285714,942.9,652.2223214285714,586.1285714285714,1050.9,652.2223214285714,585.1285714285714,1158.6,641.2223214285714,584.1285714285714,1262,573.2223214285714,558.1285714285714,1367.8,561.2223214285714,545.1285714285714,1471.7,553.2223214285714,541.1285714285714,1575.6,553.2223214285714,541.1285714285714,1678.7,553.2223214285714,541.1285714285714,1779.8,553.2223214285714,541.1285714285714,1885.5,553.2223214285714,541.1285714285714,1989.2,553.2223214285714,541.1285714285714,2101.7,553.2223214285714,541.1285714285714,2211.5,553.2223214285714,541.1285714285714,2316.8,553.2223214285714,541.1285714285714,2419.6,553.2223214285714,541.1285714285714,2523.6,553.2223214285714,541.1285714285714,2624.8,553.2223214285714,541.1285714285714,2728.4,553.2223214285714,541.1285714285714,2828.5,553.2223214285714,541.1285714285714,2939.8,553.2223214285714,541.1285714285714,3042.9,553.2223214285714,541.1285714285714,3150.1,553.2223214285714,541.1285714285714,3253.4,553.2223214285714,541.1285714285714,3356.8,553.2223214285714,541.1285714285714,3457.6,553.2223214285714,541.1285714285714,3563.3,553.2223214285714,541.1285714285714,3670.6,553.2223214285714,541.1285714285714,3773.4,553.2223214285714,541.1285714285714,3881.7,553.2223214285714,541.1285714285714,3992.9,553.2223214285714,541.1285714285714,4104.8,553.2223214285714,541.1285714285714,4210.8,553.2223214285714,541.1285714285714,4313.1,553.2223214285714,541.1285714285714,4413.2,553.2223214285714,541.1285714285714,4516,553.2223214285714,541.1285714285714,4620,553.2223214285714,541.1285714285714,4723.7,553.2223214285714,541.1285714285714,4828.2,553.2223214285714,541.1285714285714,4928.5]","[1452.6,1452.7,1000,0,452.7,""oops"",""right"",""left"",""bad_move"",4409.6,2956.3,2621.2,1453.4,335,""oops"",""down"",""up"",""bad_move"",7060.2,2649.6,2124.1,4410.6,525.5,""oops"",""right"",""up"",""bad_move"",10275.3,3215,2866.1,7060.4,348.9,""oops"",""right"",""left"",""bad_move"",16769.5,6493.7,2657,13753.8,358.7,""smooth"",""down"",""down"",""good_move"",19944.9,3175,2636.1,16769.9,538.9,""smooth"",""down"",""down"",""good_move"",23319.1,3373.9,3057.9,19945.2,316,""oops"",""right"",""down"",""good_move"",26566.6,3247.1,2947.2,23319.5,299.9,""smooth"",""right"",""right"",""good_move"",29414.2,2847,2476,26567.2,371,""smooth"",""right"",""right"",""good_move"",32714.3,3299.8,2994.2,29414.5,305.6,""smooth"",""right"",""right"",""good_move"",36040.9,3326.2,3015,32714.7,311.2,""smooth"",""down"",""down"",""good_move"",38726.7,2685.5,3147.8,36041.2,-462.3,""error"",""-"",""-"",""no_move"",41974.7,3247.4,3251.3,39732.4,-1009,""error"",""-"",""-"",""no_move""]"
"3870","","<div style=""width:500px;"">
  <p>What determined the result of this run?</p>
  </div>","1","html-slider-response","39","517793","0.0-7.0-1.5","204","1","2025-08-06 13:47:48","36c45c0696341be0efffe67d72a12abb","41.13.176.246","Mozilla/5.0 (Windows NT 10.0; Win64; x64) AppleWebKit/537.36 (KHTML, like Gecko) Chrome/138.0.0.0 Safari/537.36 Edg/138.0.0.0","WebKit","Edge","138.0.0.0","Windows","10.0","https://app.prolific.com/","en-US,en;q=0.9","67b89f64c09d83ec36fdd403","6877649eabb845cf142cd221","68935a67e1146a6f44803cdf","1","67b89f64c09d83ec36fdd403","1","2025-08-06T13:56:33.419Z","","","","AttribQ","","","","","","","","","","","50","","","","","","","","","","","","","","","","","","","","","","","","","","",""
"7030","","<div style=""width:500px;"">
  <p>How much control did you have over the ball?</p>
  </div>","8","html-slider-response","40","524826","0.0-7.0-2.5","204","1","2025-08-06 13:47:48","36c45c0696341be0efffe67d72a12abb","41.13.176.246","Mozilla/5.0 (Windows NT 10.0; Win64; x64) AppleWebKit/537.36 (KHTML, like Gecko) Chrome/138.0.0.0 Safari/537.36 Edg/138.0.0.0","WebKit","Edge","138.0.0.0","Windows","10.0","https://app.prolific.com/","en-US,en;q=0.9","67b89f64c09d83ec36fdd403","6877649eabb845cf142cd221","68935a67e1146a6f44803cdf","1","67b89f64c09d83ec36fdd403","1","2025-08-06T13:56:40.452Z","","","","ControlQ","","","","","","","","","","","50","","","","","","","","","","","","","","","","","","","","","","","","","","",""
"4405","","<div style=""width:500px;"">
  <p>How would you describe your current emotional state?</p>
  </div>","74","html-slider-response","41","529233","0.0-7.0-3.5","204","1","2025-08-06 13:47:48","36c45c0696341be0efffe67d72a12abb","41.13.176.246","Mozilla/5.0 (Windows NT 10.0; Win64; x64) AppleWebKit/537.36 (KHTML, like Gecko) Chrome/138.0.0.0 Safari/537.36 Edg/138.0.0.0","WebKit","Edge","138.0.0.0","Windows","10.0","https://app.prolific.com/","en-US,en;q=0.9","67b89f64c09d83ec36fdd403","6877649eabb845cf142cd221","68935a67e1146a6f44803cdf","1","67b89f64c09d83ec36fdd403","1","2025-08-06T13:56:44.860Z","","","","StressQ","","","","","","","","","","","50","","","","","","","","","","","","","","","","","","","","","","","","","","",""
"7070","","<div style=""width:500px;"">
  <p>What best describes how you currently feel?</p>
  </div>","12","html-slider-response","42","536306","0.0-7.0-4.5","204","1","2025-08-06 13:47:48","36c45c0696341be0efffe67d72a12abb","41.13.176.246","Mozilla/5.0 (Windows NT 10.0; Win64; x64) AppleWebKit/537.36 (KHTML, like Gecko) Chrome/138.0.0.0 Safari/537.36 Edg/138.0.0.0","WebKit","Edge","138.0.0.0","Windows","10.0","https://app.prolific.com/","en-US,en;q=0.9","67b89f64c09d83ec36fdd403","6877649eabb845cf142cd221","68935a67e1146a6f44803cdf","1","67b89f64c09d83ec36fdd403","1","2025-08-06T13:56:51.932Z","","","","MotivationQ","","","","","","","","","","","50","","","","","","","","","","","","","","","","","","","","","","","","","","",""
"","","","","ctl-task-cpt","43","596174","0.0-7.0-0.6","204","1","2025-08-06 13:47:48","36c45c0696341be0efffe67d72a12abb","41.13.176.246","Mozilla/5.0 (Windows NT 10.0; Win64; x64) AppleWebKit/537.36 (KHTML, like Gecko) Chrome/138.0.0.0 Safari/537.36 Edg/138.0.0.0","WebKit","Edge","138.0.0.0","Windows","10.0","https://app.prolific.com/","en-US,en;q=0.9","67b89f64c09d83ec36fdd403","6877649eabb845cf142cd221","68935a67e1146a6f44803cdf","1","67b89f64c09d83ec36fdd403","1","2025-08-06T13:57:51.800Z","","","","","","","","","","","","","","","","win-only","3","g1:SW,g2:NE","0.4","7","0","539173","1005.2","6007.3","56846.9","1","4","4","6","2","-4","-6","0","0","0","1750.6","3000","-2145","[""up"",""right""]","{""num_key_presses"":11,""num_perfect"":3,""num_errors"":2,""num_randdir"":6,""num_randdir_good_moves"":4,""num_whilered"":0,""num_whileblue"":2,""num_blue"":7,""num_good_moves"":7}","[299.22232142857143,299.12857142857143,0.2,299.22232142857143,299.12857142857143,101.5,299.22232142857143,299.12857142857143,202.1,299.22232142857143,299.12857142857143,313.4,299.22232142857143,299.12857142857143,416.6,299.22232142857143,299.12857142857143,522.2,299.22232142857143,299.12857142857143,628,299.22232142857143,299.12857142857143,729.2,184.22232142857143,393.12857142857143,834.4,179.22232142857143,383.12857142857143,938,353.22232142857143,276.12857142857143,1046.7,511.22232142857143,155.12857142857143,1148.2,563.2223214285714,107.12857142857143,1257.2,582.2223214285714,89.12857142857143,1364.3,579.2223214285714,86.12857142857143,1482.7,561.2223214285714,80.12857142857143,1587.1,558.2223214285714,78.12857142857143,1701.5,558.2223214285714,78.12857142857143,1816,558.2223214285714,78.12857142857143,1917.3,558.2223214285714,78.12857142857143,2025,558.2223214285714,78.12857142857143,2126.7,558.2223214285714,78.12857142857143,2227.6,558.2223214285714,78.12857142857143,2335.6,558.2223214285714,78.12857142857143,2437.8,558.2223214285714,78.12857142857143,2545.7,558.2223214285714,78.12857142857143,2653.7,558.2223214285714,78.12857142857143,2758.2,558.2223214285714,78.12857142857143,2862.5,558.2223214285714,78.12857142857143,2966.6,558.2223214285714,78.12857142857143,3067.1,558.2223214285714,78.12857142857143,3172.8,558.2223214285714,78.12857142857143,3277,558.2223214285714,78.12857142857143,3385.4,558.2223214285714,78.12857142857143,3492.3,558.2223214285714,78.12857142857143,3594.1,558.2223214285714,78.12857142857143,3697.8,558.2223214285714,78.12857142857143,3801.3,558.2223214285714,78.12857142857143,3902.3,558.2223214285714,78.12857142857143,4007.4,558.2223214285714,78.12857142857143,4107.9,558.2223214285714,78.12857142857143,4211.4,558.2223214285714,78.12857142857143,4312.5,558.2223214285714,78.12857142857143,4413.9,558.2223214285714,78.12857142857143,4517.2,558.2223214285714,78.12857142857143,4623.1,558.2223214285714,78.12857142857143,4724.5,558.2223214285714,78.12857142857143,4836.1,558.2223214285714,78.12857142857143,4936.3]","[1340.5,1340.5,1000,0,340.5,""oops"",""up"",""right"",""good_move"",10160.7,8819.5,2824.1,7001.3,335.3,""oops"",""up"",""down"",""bad_move"",18411.7,8250.6,3511.4,14416.6,483.7,""oops"",""right"",""right"",""good_move"",21698.1,3285.9,2887.7,18412.2,398.2,""oops"",""right"",""down"",""bad_move"",24011.5,2312.8,1938.6,21698.7,374.2,""oops"",""right"",""right"",""good_move"",27558.6,3546.8,2706.8,24011.8,840,""smooth"",""right"",""up"",""good_move"",34091.2,6532.2,2174.6,31289.3,627.3,""smooth"",""up"",""up"",""good_move"",37454.4,3362.7,2938.4,34091.8,424.2,""smooth"",""up"",""up"",""good_move"",39751.4,2296.8,1953.9,37454.6,342.9,""while_blue"",""up"",""down"",""bad_move"",42552.3,2800.1,2436.9,39752.3,363.1,""oops"",""up"",""up"",""good_move"",45020.7,2468,2337,42552.7,131,""while_blue"",""right"",""down"",""bad_move""]"
"16247","","<div style=""width:500px;"">
  <p>What determined the result of this run?</p>
  </div>","90","html-slider-response","44","612424","0.0-7.0-1.6","204","1","2025-08-06 13:47:48","36c45c0696341be0efffe67d72a12abb","41.13.176.246","Mozilla/5.0 (Windows NT 10.0; Win64; x64) AppleWebKit/537.36 (KHTML, like Gecko) Chrome/138.0.0.0 Safari/537.36 Edg/138.0.0.0","WebKit","Edge","138.0.0.0","Windows","10.0","https://app.prolific.com/","en-US,en;q=0.9","67b89f64c09d83ec36fdd403","6877649eabb845cf142cd221","68935a67e1146a6f44803cdf","1","67b89f64c09d83ec36fdd403","1","2025-08-06T13:58:08.050Z","","","","AttribQ","","","","","","","","","","","50","","","","","","","","","","","","","","","","","","","","","","","","","","",""
"8853","","<div style=""width:500px;"">
  <p>How much control did you have over the ball?</p>
  </div>","11","html-slider-response","45","621279","0.0-7.0-2.6","204","1","2025-08-06 13:47:48","36c45c0696341be0efffe67d72a12abb","41.13.176.246","Mozilla/5.0 (Windows NT 10.0; Win64; x64) AppleWebKit/537.36 (KHTML, like Gecko) Chrome/138.0.0.0 Safari/537.36 Edg/138.0.0.0","WebKit","Edge","138.0.0.0","Windows","10.0","https://app.prolific.com/","en-US,en;q=0.9","67b89f64c09d83ec36fdd403","6877649eabb845cf142cd221","68935a67e1146a6f44803cdf","1","67b89f64c09d83ec36fdd403","1","2025-08-06T13:58:16.905Z","","","","ControlQ","","","","","","","","","","","50","","","","","","","","","","","","","","","","","","","","","","","","","","",""
"5455","","<div style=""width:500px;"">
  <p>How would you describe your current emotional state?</p>
  </div>","83","html-slider-response","46","626735","0.0-7.0-3.6","204","1","2025-08-06 13:47:48","36c45c0696341be0efffe67d72a12abb","41.13.176.246","Mozilla/5.0 (Windows NT 10.0; Win64; x64) AppleWebKit/537.36 (KHTML, like Gecko) Chrome/138.0.0.0 Safari/537.36 Edg/138.0.0.0","WebKit","Edge","138.0.0.0","Windows","10.0","https://app.prolific.com/","en-US,en;q=0.9","67b89f64c09d83ec36fdd403","6877649eabb845cf142cd221","68935a67e1146a6f44803cdf","1","67b89f64c09d83ec36fdd403","1","2025-08-06T13:58:22.362Z","","","","StressQ","","","","","","","","","","","50","","","","","","","","","","","","","","","","","","","","","","","","","","",""
"5608","","<div style=""width:500px;"">
  <p>What best describes how you currently feel?</p>
  </div>","78","html-slider-response","47","632345","0.0-7.0-4.6","204","1","2025-08-06 13:47:48","36c45c0696341be0efffe67d72a12abb","41.13.176.246","Mozilla/5.0 (Windows NT 10.0; Win64; x64) AppleWebKit/537.36 (KHTML, like Gecko) Chrome/138.0.0.0 Safari/537.36 Edg/138.0.0.0","WebKit","Edge","138.0.0.0","Windows","10.0","https://app.prolific.com/","en-US,en;q=0.9","67b89f64c09d83ec36fdd403","6877649eabb845cf142cd221","68935a67e1146a6f44803cdf","1","67b89f64c09d83ec36fdd403","1","2025-08-06T13:58:27.971Z","","","","MotivationQ","","","","","","","","","","","50","","","","","","","","","","","","","","","","","","","","","","","","","","",""
"","","","","ctl-task-cpt","48","681469","0.0-7.0-0.7","204","1","2025-08-06 13:47:48","36c45c0696341be0efffe67d72a12abb","41.13.176.246","Mozilla/5.0 (Windows NT 10.0; Win64; x64) AppleWebKit/537.36 (KHTML, like Gecko) Chrome/138.0.0.0 Safari/537.36 Edg/138.0.0.0","WebKit","Edge","138.0.0.0","Windows","10.0","https://app.prolific.com/","en-US,en;q=0.9","67b89f64c09d83ec36fdd403","6877649eabb845cf142cd221","68935a67e1146a6f44803cdf","1","67b89f64c09d83ec36fdd403","1","2025-08-06T13:59:17.095Z","","","","","","","","","","","","","","","","win-only","3","g1:SW,g2:NE","0.3","8","0","635213.8","1127.8","6132.2","46102.9","1","4","8","6","2","-8","-8","0","0","0","1024.5","3000","-1985","[""up"",""right""]","{""num_key_presses"":10,""num_perfect"":3,""num_errors"":0,""num_randdir"":7,""num_randdir_good_moves"":2,""num_whilered"":0,""num_whileblue"":0,""num_blue"":3,""num_good_moves"":4}","[294.22232142857143,300.12857142857143,0.3,294.22232142857143,300.12857142857143,104.1,294.22232142857143,300.12857142857143,217.9,294.22232142857143,300.12857142857143,320.2,294.22232142857143,300.12857142857143,431,371.22232142857143,212.12857142857143,552.6,482.22232142857143,112.12857142857143,674,512.2223214285714,87.12857142857143,785.9,516.2223214285714,81.12857142857143,887.1,517.2223214285714,79.12857142857143,990.2,517.2223214285714,79.12857142857143,1090.5,517.2223214285714,79.12857142857143,1193.1,517.2223214285714,79.12857142857143,1299.5,517.2223214285714,79.12857142857143,1400.8,517.2223214285714,79.12857142857143,1503.2,517.2223214285714,79.12857142857143,1607.7,517.2223214285714,79.12857142857143,1710.8,517.2223214285714,79.12857142857143,1811.2,517.2223214285714,79.12857142857143,1917.8,517.2223214285714,79.12857142857143,2019.6,517.2223214285714,79.12857142857143,2130.2,517.2223214285714,79.12857142857143,2241.8,517.2223214285714,79.12857142857143,2348,517.2223214285714,79.12857142857143,2457.5,517.2223214285714,79.12857142857143,2564.8,517.2223214285714,79.12857142857143,2670.5,517.2223214285714,79.12857142857143,2772.7,517.2223214285714,79.12857142857143,2872.9,517.2223214285714,79.12857142857143,2976,517.2223214285714,79.12857142857143,3082.1,517.2223214285714,79.12857142857143,3185.3,517.2223214285714,79.12857142857143,3289.4,517.2223214285714,79.12857142857143,3391.3,517.2223214285714,79.12857142857143,3495.5,517.2223214285714,79.12857142857143,3601.8,517.2223214285714,79.12857142857143,3705.6,517.2223214285714,79.12857142857143,3806.9,517.2223214285714,79.12857142857143,3907.1,517.2223214285714,79.12857142857143,4010.3,517.2223214285714,79.12857142857143,4113.7,517.2223214285714,79.12857142857143,4217,517.2223214285714,79.12857142857143,4321.5,517.2223214285714,79.12857142857143,4424.9,517.2223214285714,79.12857142857143,4530.7,517.2223214285714,79.12857142857143,4639.8,517.2223214285714,79.12857142857143,4743.3,517.2223214285714,79.12857142857143,4846.4,517.2223214285714,79.12857142857143,4950.7]","[1425.6,1425.6,1000,0,425.6,""oops"",""up"",""right"",""good_move"",4640.7,3214.5,2855.4,1426.2,359.1,""oops"",""up"",""left"",""bad_move"",6986.9,2345.7,1757.8,4641.3,587.9,""oops"",""up"",""left"",""bad_move"",9650.6,2663.4,2328.4,6987.2,335,""oops"",""up"",""left"",""bad_move"",15280.3,5629.4,2306.9,12590.5,382.9,""smooth"",""up"",""up"",""good_move"",17790.8,2510,1933.8,15280.8,576.2,""oops"",""up"",""down"",""bad_move"",20835.9,3044.7,2592.3,17791.2,452.4,""oops"",""up"",""down"",""bad_move"",23892,3055.9,2603.4,20836.2,452.5,""smooth"",""right"",""right"",""good_move"",26814.7,2922,2499.1,23892.7,422.9,""smooth"",""down"",""down"",""bad_move"",37564.3,10749.2,3152.3,34056.4,355.7,""oops"",""right"",""up"",""good_move""]"
"4477","","<div style=""width:500px;"">
  <p>What determined the result of this run?</p>
  </div>","5","html-slider-response","49","685949","0.0-7.0-1.7","204","1","2025-08-06 13:47:48","36c45c0696341be0efffe67d72a12abb","41.13.176.246","Mozilla/5.0 (Windows NT 10.0; Win64; x64) AppleWebKit/537.36 (KHTML, like Gecko) Chrome/138.0.0.0 Safari/537.36 Edg/138.0.0.0","WebKit","Edge","138.0.0.0","Windows","10.0","https://app.prolific.com/","en-US,en;q=0.9","67b89f64c09d83ec36fdd403","6877649eabb845cf142cd221","68935a67e1146a6f44803cdf","1","67b89f64c09d83ec36fdd403","1","2025-08-06T13:59:21.575Z","","","","AttribQ","","","","","","","","","","","50","","","","","","","","","","","","","","","","","","","","","","","","","","",""
"5392","","<div style=""width:500px;"">
  <p>How much control did you have over the ball?</p>
  </div>","18","html-slider-response","50","691342","0.0-7.0-2.7","204","1","2025-08-06 13:47:48","36c45c0696341be0efffe67d72a12abb","41.13.176.246","Mozilla/5.0 (Windows NT 10.0; Win64; x64) AppleWebKit/537.36 (KHTML, like Gecko) Chrome/138.0.0.0 Safari/537.36 Edg/138.0.0.0","WebKit","Edge","138.0.0.0","Windows","10.0","https://app.prolific.com/","en-US,en;q=0.9","67b89f64c09d83ec36fdd403","6877649eabb845cf142cd221","68935a67e1146a6f44803cdf","1","67b89f64c09d83ec36fdd403","1","2025-08-06T13:59:26.968Z","","","","ControlQ","","","","","","","","","","","50","","","","","","","","","","","","","","","","","","","","","","","","","","",""
"5941","","<div style=""width:500px;"">
  <p>How would you describe your current emotional state?</p>
  </div>","74","html-slider-response","51","697285","0.0-7.0-3.7","204","1","2025-08-06 13:47:48","36c45c0696341be0efffe67d72a12abb","41.13.176.246","Mozilla/5.0 (Windows NT 10.0; Win64; x64) AppleWebKit/537.36 (KHTML, like Gecko) Chrome/138.0.0.0 Safari/537.36 Edg/138.0.0.0","WebKit","Edge","138.0.0.0","Windows","10.0","https://app.prolific.com/","en-US,en;q=0.9","67b89f64c09d83ec36fdd403","6877649eabb845cf142cd221","68935a67e1146a6f44803cdf","1","67b89f64c09d83ec36fdd403","1","2025-08-06T13:59:32.911Z","","","","StressQ","","","","","","","","","","","50","","","","","","","","","","","","","","","","","","","","","","","","","","",""
"2968","","<div style=""width:500px;"">
  <p>What best describes how you currently feel?</p>
  </div>","89","html-slider-response","52","700255","0.0-7.0-4.7","204","1","2025-08-06 13:47:48","36c45c0696341be0efffe67d72a12abb","41.13.176.246","Mozilla/5.0 (Windows NT 10.0; Win64; x64) AppleWebKit/537.36 (KHTML, like Gecko) Chrome/138.0.0.0 Safari/537.36 Edg/138.0.0.0","WebKit","Edge","138.0.0.0","Windows","10.0","https://app.prolific.com/","en-US,en;q=0.9","67b89f64c09d83ec36fdd403","6877649eabb845cf142cd221","68935a67e1146a6f44803cdf","1","67b89f64c09d83ec36fdd403","1","2025-08-06T13:59:35.881Z","","","","MotivationQ","","","","","","","","","","","50","","","","","","","","","","","","","","","","","","","","","","","","","","",""
"","","","","ctl-task-cpt","53","729438","0.0-7.0-0.8","204","1","2025-08-06 13:47:48","36c45c0696341be0efffe67d72a12abb","41.13.176.246","Mozilla/5.0 (Windows NT 10.0; Win64; x64) AppleWebKit/537.36 (KHTML, like Gecko) Chrome/138.0.0.0 Safari/537.36 Edg/138.0.0.0","WebKit","Edge","138.0.0.0","Windows","10.0","https://app.prolific.com/","en-US,en;q=0.9","67b89f64c09d83ec36fdd403","6877649eabb845cf142cd221","68935a67e1146a6f44803cdf","1","67b89f64c09d83ec36fdd403","1","2025-08-06T14:00:05.065Z","","","","","","","","","","","","","","","","win-only","0","g1:NW,g2:SE","0.4","9","0","703122.5","1586.4","6587.8","26155.2","1","4","4","6","2","4","4","4","0","0.030303030303030304","1418.1","3000","1330","[""down"",""right""]","{""num_key_presses"":6,""num_perfect"":2,""num_errors"":0,""num_randdir"":4,""num_randdir_good_moves"":4,""num_whilered"":0,""num_whileblue"":0,""num_blue"":1,""num_good_moves"":6}","[294.22232142857143,298.12857142857143,0.2,294.22232142857143,298.12857142857143,101.1,294.22232142857143,298.12857142857143,201.2,294.22232142857143,298.12857142857143,301.3,294.22232142857143,298.12857142857143,402.9,294.22232142857143,298.12857142857143,506.9,279.22232142857143,295.12857142857143,607.7,365.22232142857143,403.12857142857143,713,546.2223214285714,615.1285714285714,816.4,573.2223214285714,624.1285714285714,922.8,574.2223214285714,624.1285714285714,1024.6,574.2223214285714,622.1285714285714,1127.2,558.2223214285714,592.1285714285714,1238.7,548.2223214285714,570.1285714285714,1342,548.2223214285714,569.1285714285714,1443,548.2223214285714,569.1285714285714,1547.8,548.2223214285714,569.1285714285714,1656.6,548.2223214285714,569.1285714285714,1768.8,551.2223214285714,565.1285714285714,1872.7,560.2223214285714,555.1285714285714,1977.8,560.2223214285714,555.1285714285714,2081.4,560.2223214285714,555.1285714285714,2185.6,560.2223214285714,555.1285714285714,2294.7,560.2223214285714,555.1285714285714,2398.5,560.2223214285714,555.1285714285714,2509.3,560.2223214285714,555.1285714285714,2615,560.2223214285714,555.1285714285714,2717.3,560.2223214285714,555.1285714285714,2821,560.2223214285714,555.1285714285714,2921.2,560.2223214285714,555.1285714285714,3028.6,560.2223214285714,555.1285714285714,3137.6,560.2223214285714,555.1285714285714,3242.5,560.2223214285714,555.1285714285714,3346.3,560.2223214285714,555.1285714285714,3456.7,560.2223214285714,555.1285714285714,3557.7,560.2223214285714,555.1285714285714,3657.7,560.2223214285714,555.1285714285714,3762.3,560.2223214285714,554.1285714285714,3865.7,560.2223214285714,554.1285714285714,3967,560.2223214285714,554.1285714285714,4067.3,560.2223214285714,554.1285714285714,4170.7,560.2223214285714,554.1285714285714,4276.7,560.2223214285714,554.1285714285714,4378.4,560.2223214285714,554.1285714285714,4481.6,560.2223214285714,554.1285714285714,4582.8,560.2223214285714,554.1285714285714,4687.1,560.2223214285714,554.1285714285714,4790.9,560.2223214285714,554.1285714285714,4893.1]","[3837,3837,1395.8,2002.4,438.8,""oops"",""right"",""down"",""good_move"",7172.5,3334.9,2951.8,3837.6,383.1,""oops"",""right"",""down"",""good_move"",9615.7,2442.6,1977.9,7173.1,464.7,""oops"",""right"",""right"",""good_move"",13334.9,3718.6,3178.8,9616.3,539.8,""smooth"",""right"",""right"",""good_move"",16388.3,3053.1,2737.3,13335.2,315.8,""oops"",""right"",""down"",""good_move"",19442.2,3053.4,2724.8,16388.8,328.6,""smooth"",""right"",""right"",""good_move""]"
"5626","","<div style=""width:500px;"">
  <p>What determined the result of this run?</p>
  </div>","92","html-slider-response","54","735066","0.0-7.0-1.8","204","1","2025-08-06 13:47:48","36c45c0696341be0efffe67d72a12abb","41.13.176.246","Mozilla/5.0 (Windows NT 10.0; Win64; x64) AppleWebKit/537.36 (KHTML, like Gecko) Chrome/138.0.0.0 Safari/537.36 Edg/138.0.0.0","WebKit","Edge","138.0.0.0","Windows","10.0","https://app.prolific.com/","en-US,en;q=0.9","67b89f64c09d83ec36fdd403","6877649eabb845cf142cd221","68935a67e1146a6f44803cdf","1","67b89f64c09d83ec36fdd403","1","2025-08-06T14:00:10.693Z","","","","AttribQ","","","","","","","","","","","50","","","","","","","","","","","","","","","","","","","","","","","","","","",""
"6998","","<div style=""width:500px;"">
  <p>How much control did you have over the ball?</p>
  </div>","2","html-slider-response","55","742066","0.0-7.0-2.8","204","1","2025-08-06 13:47:48","36c45c0696341be0efffe67d72a12abb","41.13.176.246","Mozilla/5.0 (Windows NT 10.0; Win64; x64) AppleWebKit/537.36 (KHTML, like Gecko) Chrome/138.0.0.0 Safari/537.36 Edg/138.0.0.0","WebKit","Edge","138.0.0.0","Windows","10.0","https://app.prolific.com/","en-US,en;q=0.9","67b89f64c09d83ec36fdd403","6877649eabb845cf142cd221","68935a67e1146a6f44803cdf","1","67b89f64c09d83ec36fdd403","1","2025-08-06T14:00:17.692Z","","","","ControlQ","","","","","","","","","","","50","","","","","","","","","","","","","","","","","","","","","","","","","","",""
"9124","","<div style=""width:500px;"">
  <p>How would you describe your current emotional state?</p>
  </div>","63","html-slider-response","56","751192","0.0-7.0-3.8","204","1","2025-08-06 13:47:48","36c45c0696341be0efffe67d72a12abb","41.13.176.246","Mozilla/5.0 (Windows NT 10.0; Win64; x64) AppleWebKit/537.36 (KHTML, like Gecko) Chrome/138.0.0.0 Safari/537.36 Edg/138.0.0.0","WebKit","Edge","138.0.0.0","Windows","10.0","https://app.prolific.com/","en-US,en;q=0.9","67b89f64c09d83ec36fdd403","6877649eabb845cf142cd221","68935a67e1146a6f44803cdf","1","67b89f64c09d83ec36fdd403","1","2025-08-06T14:00:26.818Z","","","","StressQ","","","","","","","","","","","50","","","","","","","","","","","","","","","","","","","","","","","","","","",""
"7704","","<div style=""width:500px;"">
  <p>What best describes how you currently feel?</p>
  </div>","79","html-slider-response","57","758898","0.0-7.0-4.8","204","1","2025-08-06 13:47:48","36c45c0696341be0efffe67d72a12abb","41.13.176.246","Mozilla/5.0 (Windows NT 10.0; Win64; x64) AppleWebKit/537.36 (KHTML, like Gecko) Chrome/138.0.0.0 Safari/537.36 Edg/138.0.0.0","WebKit","Edge","138.0.0.0","Windows","10.0","https://app.prolific.com/","en-US,en;q=0.9","67b89f64c09d83ec36fdd403","6877649eabb845cf142cd221","68935a67e1146a6f44803cdf","1","67b89f64c09d83ec36fdd403","1","2025-08-06T14:00:34.525Z","","","","MotivationQ","","","","","","","","","","","50","","","","","","","","","","","","","","","","","","","","","","","","","","",""
"","","","","ctl-task-cpt","58","803557","0.0-7.0-0.9","204","1","2025-08-06 13:47:48","36c45c0696341be0efffe67d72a12abb","41.13.176.246","Mozilla/5.0 (Windows NT 10.0; Win64; x64) AppleWebKit/537.36 (KHTML, like Gecko) Chrome/138.0.0.0 Safari/537.36 Edg/138.0.0.0","WebKit","Edge","138.0.0.0","Windows","10.0","https://app.prolific.com/","en-US,en;q=0.9","67b89f64c09d83ec36fdd403","6877649eabb845cf142cd221","68935a67e1146a6f44803cdf","1","67b89f64c09d83ec36fdd403","1","2025-08-06T14:01:19.183Z","","","","","","","","","","","","","","","","win-only","3","g1:SW,g2:NE","0.5","10","0","761766.5","3854.8","8867.4","41636.4","1","4","8","6","2","8","8","12","4","0.09090909090909091","1209.1","3000","1650","[""up"",""right""]","{""num_key_presses"":6,""num_perfect"":3,""num_errors"":0,""num_randdir"":3,""num_randdir_good_moves"":3,""num_whilered"":0,""num_whileblue"":0,""num_blue"":5,""num_good_moves"":6}","[296.22232142857143,295.12857142857143,0.4,296.22232142857143,295.12857142857143,104.6,296.22232142857143,295.12857142857143,208.8,296.22232142857143,295.12857142857143,314.7,296.22232142857143,295.12857142857143,417.9,296.22232142857143,295.12857142857143,520.8,308.22232142857143,275.12857142857143,625.5,452.22232142857143,58.128571428571426,726.2,502.22232142857143,-8.871428571428574,833.7,508.22232142857143,-9.871428571428574,934.5,523.2223214285714,3.1285714285714263,1040.1,530.2223214285714,25.128571428571426,1141.4,539.2223214285714,42.128571428571426,1253.7,539.2223214285714,42.128571428571426,1367.4,539.2223214285714,42.128571428571426,1473.7,539.2223214285714,42.128571428571426,1586.4,537.2223214285714,42.128571428571426,1690.2,536.2223214285714,42.128571428571426,1797.3,535.2223214285714,42.128571428571426,1901.5,535.2223214285714,42.128571428571426,2002.9,534.2223214285714,43.128571428571426,2104.4,530.2223214285714,75.12857142857143,2209.8,515.2223214285714,121.12857142857143,2311.8,515.2223214285714,121.12857142857143,2412,515.2223214285714,121.12857142857143,2513.6,515.2223214285714,121.12857142857143,2618.2,515.2223214285714,121.12857142857143,2736.7,515.2223214285714,121.12857142857143,2839.5,515.2223214285714,121.12857142857143,2943.3,515.2223214285714,121.12857142857143,3055.5,515.2223214285714,121.12857142857143,3169.7,515.2223214285714,121.12857142857143,3281.6,515.2223214285714,121.12857142857143,3382.7,515.2223214285714,121.12857142857143,3486.9,515.2223214285714,121.12857142857143,3593.4,515.2223214285714,121.12857142857143,3695.5,515.2223214285714,121.12857142857143,3796.5,515.2223214285714,121.12857142857143,3904.1,515.2223214285714,121.12857142857143,4004.7,515.2223214285714,121.12857142857143,4109.9,515.2223214285714,121.12857142857143,4210,515.2223214285714,121.12857142857143,4315,515.2223214285714,121.12857142857143,4420.2,515.2223214285714,121.12857142857143,4524.1,515.2223214285714,121.12857142857143,4635.1,515.2223214285714,121.12857142857143,4737.7,515.2223214285714,121.12857142857143,4849.5,515.2223214285714,121.12857142857143,4958.7]","[4556.4,4556.4,2218.4,2012.3,325.7,""oops"",""right"",""up"",""good_move"",18840.7,14283.2,2930.2,15489,421.5,""oops"",""right"",""right"",""good_move"",24854.5,6013.2,2245.9,22078.5,530.1,""smooth"",""right"",""right"",""good_move"",27444.4,2589.5,2194,24854.9,395.5,""smooth"",""up"",""up"",""good_move"",30219.8,2774.9,2428,27444.9,346.9,""smooth"",""right"",""right"",""good_move"",32640.4,2420.3,1968.9,30220.1,451.4,""oops"",""up"",""up"",""good_move""]"
"2278","","<div style=""width:500px;"">
  <p>What determined the result of this run?</p>
  </div>","75","html-slider-response","59","805838","0.0-7.0-1.9","204","1","2025-08-06 13:47:48","36c45c0696341be0efffe67d72a12abb","41.13.176.246","Mozilla/5.0 (Windows NT 10.0; Win64; x64) AppleWebKit/537.36 (KHTML, like Gecko) Chrome/138.0.0.0 Safari/537.36 Edg/138.0.0.0","WebKit","Edge","138.0.0.0","Windows","10.0","https://app.prolific.com/","en-US,en;q=0.9","67b89f64c09d83ec36fdd403","6877649eabb845cf142cd221","68935a67e1146a6f44803cdf","1","67b89f64c09d83ec36fdd403","1","2025-08-06T14:01:21.464Z","","","","AttribQ","","","","","","","","","","","50","","","","","","","","","","","","","","","","","","","","","","","","","","",""
"3376","","<div style=""width:500px;"">
  <p>How much control did you have over the ball?</p>
  </div>","84","html-slider-response","60","809217","0.0-7.0-2.9","204","1","2025-08-06 13:47:48","36c45c0696341be0efffe67d72a12abb","41.13.176.246","Mozilla/5.0 (Windows NT 10.0; Win64; x64) AppleWebKit/537.36 (KHTML, like Gecko) Chrome/138.0.0.0 Safari/537.36 Edg/138.0.0.0","WebKit","Edge","138.0.0.0","Windows","10.0","https://app.prolific.com/","en-US,en;q=0.9","67b89f64c09d83ec36fdd403","6877649eabb845cf142cd221","68935a67e1146a6f44803cdf","1","67b89f64c09d83ec36fdd403","1","2025-08-06T14:01:24.843Z","","","","ControlQ","","","","","","","","","","","50","","","","","","","","","","","","","","","","","","","","","","","","","","",""
"3776","","<div style=""width:500px;"">
  <p>How would you describe your current emotional state?</p>
  </div>","56","html-slider-response","61","812996","0.0-7.0-3.9","204","1","2025-08-06 13:47:48","36c45c0696341be0efffe67d72a12abb","41.13.176.246","Mozilla/5.0 (Windows NT 10.0; Win64; x64) AppleWebKit/537.36 (KHTML, like Gecko) Chrome/138.0.0.0 Safari/537.36 Edg/138.0.0.0","WebKit","Edge","138.0.0.0","Windows","10.0","https://app.prolific.com/","en-US,en;q=0.9","67b89f64c09d83ec36fdd403","6877649eabb845cf142cd221","68935a67e1146a6f44803cdf","1","67b89f64c09d83ec36fdd403","1","2025-08-06T14:01:28.622Z","","","","StressQ","","","","","","","","","","","50","","","","","","","","","","","","","","","","","","","","","","","","","","",""
"3275","","<div style=""width:500px;"">
  <p>What best describes how you currently feel?</p>
  </div>","87","html-slider-response","62","816273","0.0-7.0-4.9","204","1","2025-08-06 13:47:48","36c45c0696341be0efffe67d72a12abb","41.13.176.246","Mozilla/5.0 (Windows NT 10.0; Win64; x64) AppleWebKit/537.36 (KHTML, like Gecko) Chrome/138.0.0.0 Safari/537.36 Edg/138.0.0.0","WebKit","Edge","138.0.0.0","Windows","10.0","https://app.prolific.com/","en-US,en;q=0.9","67b89f64c09d83ec36fdd403","6877649eabb845cf142cd221","68935a67e1146a6f44803cdf","1","67b89f64c09d83ec36fdd403","1","2025-08-06T14:01:31.899Z","","","","MotivationQ","","","","","","","","","","","50","","","","","","","","","","","","","","","","","","","","","","","","","","",""
"","","","","ctl-task-cpt","63","872756","0.0-7.0-0.10","204","1","2025-08-06 13:47:48","36c45c0696341be0efffe67d72a12abb","41.13.176.246","Mozilla/5.0 (Windows NT 10.0; Win64; x64) AppleWebKit/537.36 (KHTML, like Gecko) Chrome/138.0.0.0 Safari/537.36 Edg/138.0.0.0","WebKit","Edge","138.0.0.0","Windows","10.0","https://app.prolific.com/","en-US,en;q=0.9","67b89f64c09d83ec36fdd403","6877649eabb845cf142cd221","68935a67e1146a6f44803cdf","1","67b89f64c09d83ec36fdd403","1","2025-08-06T14:02:28.382Z","","","","","","","","","","","","","","","","win-only","2","g1:SE,g2:NW","0.6","11","0","819141","1382.3","6385.6","53455.4","1","4","8","6","2","8","7","19","12","0.14393939393939395","1619.4","3000","1615","[""left"",""up""]","{""num_key_presses"":10,""num_perfect"":6,""num_errors"":1,""num_randdir"":3,""num_randdir_good_moves"":1,""num_whilered"":0,""num_whileblue"":1,""num_blue"":6,""num_good_moves"":8}","[291.22232142857143,303.12857142857143,0.3,291.22232142857143,303.12857142857143,101,291.22232142857143,303.12857142857143,210.4,291.22232142857143,303.12857142857143,319.8,291.22232142857143,303.12857142857143,432.7,291.22232142857143,303.12857142857143,536.5,291.22232142857143,303.12857142857143,647.8,295.22232142857143,305.12857142857143,751.1,153.22232142857143,194.12857142857143,873.4,41.222321428571426,82.12857142857143,973.9,9.222321428571426,40.128571428571426,1083.7,-3.7776785714285737,30.128571428571426,1193.2,-46.777678571428574,-21.871428571428574,1302.3,-21.777678571428574,-7.871428571428574,1404.7,9.222321428571426,11.128571428571426,1508.8,20.222321428571426,22.128571428571426,1611,21.222321428571426,24.128571428571426,1717.4,31.222321428571426,28.128571428571426,1823.4,31.222321428571426,28.128571428571426,1926.4,31.222321428571426,28.128571428571426,2030,31.222321428571426,28.128571428571426,2132.5,31.222321428571426,28.128571428571426,2235.5,31.222321428571426,28.128571428571426,2341.8,31.222321428571426,28.128571428571426,2446.5,31.222321428571426,28.128571428571426,2557,31.222321428571426,28.128571428571426,2661.4,31.222321428571426,28.128571428571426,2775.5,31.222321428571426,28.128571428571426,2894,31.222321428571426,28.128571428571426,3015.8,31.222321428571426,28.128571428571426,3119.1,31.222321428571426,28.128571428571426,3233.7,31.222321428571426,28.128571428571426,3333.8,31.222321428571426,28.128571428571426,3438.4,31.222321428571426,28.128571428571426,3541.3,31.222321428571426,28.128571428571426,3646.1,31.222321428571426,28.128571428571426,3748.8,31.222321428571426,28.128571428571426,3850.9,31.222321428571426,28.128571428571426,3954.6,31.222321428571426,28.128571428571426,4059,31.222321428571426,28.128571428571426,4165.6,31.222321428571426,28.128571428571426,4266.4,31.222321428571426,28.128571428571426,4376.3,31.222321428571426,28.128571428571426,4482.6,31.222321428571426,28.128571428571426,4622.1,31.222321428571426,28.128571428571426,4731.7,31.222321428571426,28.128571428571426,4832.5,31.222321428571426,28.128571428571426,4936.3]","[1415.6,1415.6,1000,0,415.6,""smooth"",""up"",""up"",""good_move"",4784.3,3368.1,3019.2,1416.2,348.9,""smooth"",""left"",""left"",""good_move"",8471.7,3686.8,2650.1,4784.9,1036.7,""oops"",""up"",""left"",""good_move"",14004.2,5532.1,1679.7,11919.4,405.1,""oops"",""up"",""right"",""bad_move"",21136.1,7131.5,3081.5,17692.7,361.9,""smooth"",""up"",""up"",""good_move"",27769.7,6632.8,1911.6,25480.7,377.4,""oops"",""left"",""down"",""bad_move"",29539.9,1769.8,1340.3,27770.2,429.5,""smooth"",""left"",""left"",""good_move"",40703.1,11162.3,3068.2,37327.1,307.8,""smooth"",""up"",""up"",""good_move"",44143.2,3439.6,3105.6,40703.6,334,""while_blue"",""left"",""up"",""good_move"",46913.4,2769.8,2205.3,44143.6,564.5,""smooth"",""left"",""left"",""good_move""]"
"5697","","<div style=""width:500px;"">
  <p>What determined the result of this run?</p>
  </div>","79","html-slider-response","64","878456","0.0-7.0-1.10","204","1","2025-08-06 13:47:48","36c45c0696341be0efffe67d72a12abb","41.13.176.246","Mozilla/5.0 (Windows NT 10.0; Win64; x64) AppleWebKit/537.36 (KHTML, like Gecko) Chrome/138.0.0.0 Safari/537.36 Edg/138.0.0.0","WebKit","Edge","138.0.0.0","Windows","10.0","https://app.prolific.com/","en-US,en;q=0.9","67b89f64c09d83ec36fdd403","6877649eabb845cf142cd221","68935a67e1146a6f44803cdf","1","67b89f64c09d83ec36fdd403","1","2025-08-06T14:02:34.082Z","","","","AttribQ","","","","","","","","","","","50","","","","","","","","","","","","","","","","","","","","","","","","","","",""
"2663","","<div style=""width:500px;"">
  <p>How much control did you have over the ball?</p>
  </div>","82","html-slider-response","65","881121","0.0-7.0-2.10","204","1","2025-08-06 13:47:48","36c45c0696341be0efffe67d72a12abb","41.13.176.246","Mozilla/5.0 (Windows NT 10.0; Win64; x64) AppleWebKit/537.36 (KHTML, like Gecko) Chrome/138.0.0.0 Safari/537.36 Edg/138.0.0.0","WebKit","Edge","138.0.0.0","Windows","10.0","https://app.prolific.com/","en-US,en;q=0.9","67b89f64c09d83ec36fdd403","6877649eabb845cf142cd221","68935a67e1146a6f44803cdf","1","67b89f64c09d83ec36fdd403","1","2025-08-06T14:02:36.747Z","","","","ControlQ","","","","","","","","","","","50","","","","","","","","","","","","","","","","","","","","","","","","","","",""
"4622","","<div style=""width:500px;"">
  <p>How would you describe your current emotional state?</p>
  </div>","53","html-slider-response","66","885745","0.0-7.0-3.10","204","1","2025-08-06 13:47:48","36c45c0696341be0efffe67d72a12abb","41.13.176.246","Mozilla/5.0 (Windows NT 10.0; Win64; x64) AppleWebKit/537.36 (KHTML, like Gecko) Chrome/138.0.0.0 Safari/537.36 Edg/138.0.0.0","WebKit","Edge","138.0.0.0","Windows","10.0","https://app.prolific.com/","en-US,en;q=0.9","67b89f64c09d83ec36fdd403","6877649eabb845cf142cd221","68935a67e1146a6f44803cdf","1","67b89f64c09d83ec36fdd403","1","2025-08-06T14:02:41.371Z","","","","StressQ","","","","","","","","","","","50","","","","","","","","","","","","","","","","","","","","","","","","","","",""
"3758","","<div style=""width:500px;"">
  <p>What best describes how you currently feel?</p>
  </div>","83","html-slider-response","67","889506","0.0-7.0-4.10","204","1","2025-08-06 13:47:48","36c45c0696341be0efffe67d72a12abb","41.13.176.246","Mozilla/5.0 (Windows NT 10.0; Win64; x64) AppleWebKit/537.36 (KHTML, like Gecko) Chrome/138.0.0.0 Safari/537.36 Edg/138.0.0.0","WebKit","Edge","138.0.0.0","Windows","10.0","https://app.prolific.com/","en-US,en;q=0.9","67b89f64c09d83ec36fdd403","6877649eabb845cf142cd221","68935a67e1146a6f44803cdf","1","67b89f64c09d83ec36fdd403","1","2025-08-06T14:02:45.132Z","","","","MotivationQ","","","","","","","","","","","50","","","","","","","","","","","","","","","","","","","","","","","","","","",""
"","","","","ctl-task-cpt","68","960951","0.0-7.0-0.11","204","1","2025-08-06 13:47:48","36c45c0696341be0efffe67d72a12abb","41.13.176.246","Mozilla/5.0 (Windows NT 10.0; Win64; x64) AppleWebKit/537.36 (KHTML, like Gecko) Chrome/138.0.0.0 Safari/537.36 Edg/138.0.0.0","WebKit","Edge","138.0.0.0","Windows","10.0","https://app.prolific.com/","en-US,en;q=0.9","67b89f64c09d83ec36fdd403","6877649eabb845cf142cd221","68935a67e1146a6f44803cdf","1","67b89f64c09d83ec36fdd403","1","2025-08-06T14:03:56.577Z","","","","","","","","","","","","","","","","win-only","2","g1:SE,g2:NW","0.7","12","0","892373.5","2229.9","7244.5","68423.7","1","4","4","6","2","4","2","21","19","0.1590909090909091","1251.6","3000","1170","[""left"",""up""]","{""num_key_presses"":15,""num_perfect"":10,""num_errors"":2,""num_randdir"":3,""num_randdir_good_moves"":0,""num_whilered"":0,""num_whileblue"":1,""num_blue"":6,""num_good_moves"":10}","[299.22232142857143,292.12857142857143,0.2,299.22232142857143,292.12857142857143,105.1,299.22232142857143,292.12857142857143,210.9,299.22232142857143,292.12857142857143,316.3,299.22232142857143,292.12857142857143,426.7,289.22232142857143,283.12857142857143,527.2,260.22232142857143,244.12857142857143,638.3,233.22232142857143,221.12857142857143,745.7,192.22232142857143,175.12857142857143,853.5,114.22232142857143,97.12857142857143,985.9,79.22232142857143,67.12857142857143,1087.2,73.22232142857143,63.128571428571426,1189.9,73.22232142857143,64.12857142857143,1295.9,73.22232142857143,64.12857142857143,1398.3,73.22232142857143,64.12857142857143,1504.5,73.22232142857143,64.12857142857143,1628.1,73.22232142857143,64.12857142857143,1728.7,73.22232142857143,66.12857142857143,1837.4,74.22232142857143,69.12857142857143,1951.3,91.22232142857143,96.12857142857143,2063.1,106.22232142857143,128.12857142857143,2173.5,172.22232142857143,251.12857142857143,2295,198.22232142857143,283.12857142857143,2410,198.22232142857143,283.12857142857143,2516.5,198.22232142857143,283.12857142857143,2618.1,198.22232142857143,283.12857142857143,2739.6,198.22232142857143,283.12857142857143,2847,198.22232142857143,283.12857142857143,2961.7,198.22232142857143,283.12857142857143,3075.3,198.22232142857143,283.12857142857143,3190.1,198.22232142857143,283.12857142857143,3298.6,198.22232142857143,283.12857142857143,3400.5,198.22232142857143,283.12857142857143,3505.7,198.22232142857143,283.12857142857143,3606.4,198.22232142857143,283.12857142857143,3710.4,198.22232142857143,283.12857142857143,3815.3,198.22232142857143,283.12857142857143,3924.6,198.22232142857143,283.12857142857143,4025.9,198.22232142857143,283.12857142857143,4137.7,198.22232142857143,283.12857142857143,4246.1,198.22232142857143,283.12857142857143,4353.6,198.22232142857143,283.12857142857143,4469.7,198.22232142857143,283.12857142857143,4578.8,198.22232142857143,283.12857142857143,4679.7,198.22232142857143,283.12857142857143,4792.9,198.22232142857143,283.12857142857143,4909.1]","[1493.9,1493.9,1000,0,493.9,""smooth"",""up"",""up"",""good_move"",4390.9,2896.6,2510.2,1494.3,386.4,""smooth"",""left"",""left"",""good_move"",10200.8,5809.4,2229.2,7584,387.6,""smooth"",""up"",""up"",""good_move"",13663.4,3462.3,2791.4,10201.1,670.9,""smooth"",""left"",""left"",""good_move"",17648.3,3984.5,2722,13663.8,1262.5,""smooth"",""up"",""up"",""good_move"",20503.7,2855.1,2533.8,17648.6,321.3,""oops"",""left"",""down"",""bad_move"",23636,3131.7,2591.1,20504.3,540.6,""smooth"",""left"",""left"",""good_move"",27843.1,4206.8,2189.6,23636.3,2017.2,""oops"",""up"",""right"",""bad_move"",30471.4,2627.7,2262.5,27843.7,365.2,""while_blue"",""up"",""right"",""bad_move"",37817.1,7345.3,2431,37151.3,-1765.2,""error"",""-"",""-"",""no_move"",45299,7481.6,2322.9,42372.3,603.8,""smooth"",""up"",""up"",""good_move"",48403.1,3103.7,2566.6,45299.4,537.1,""oops"",""left"",""right"",""bad_move"",50993.3,2589.9,2096.5,48403.4,493.4,""smooth"",""left"",""left"",""good_move"",54255,3261.2,2638.2,50993.8,623,""smooth"",""left"",""left"",""good_move"",60819.2,6564,3258.7,57126,434.5,""smooth"",""left"",""left"",""good_move""]"
"5042","","<div style=""width:500px;"">
  <p>What determined the result of this run?</p>
  </div>","73","html-slider-response","69","965995","0.0-7.0-1.11","204","1","2025-08-06 13:47:48","36c45c0696341be0efffe67d72a12abb","41.13.176.246","Mozilla/5.0 (Windows NT 10.0; Win64; x64) AppleWebKit/537.36 (KHTML, like Gecko) Chrome/138.0.0.0 Safari/537.36 Edg/138.0.0.0","WebKit","Edge","138.0.0.0","Windows","10.0","https://app.prolific.com/","en-US,en;q=0.9","67b89f64c09d83ec36fdd403","6877649eabb845cf142cd221","68935a67e1146a6f44803cdf","1","67b89f64c09d83ec36fdd403","1","2025-08-06T14:04:01.621Z","","","","AttribQ","","","","","","","","","","","50","","","","","","","","","","","","","","","","","","","","","","","","","","",""
"2547","","<div style=""width:500px;"">
  <p>How much control did you have over the ball?</p>
  </div>","72","html-slider-response","70","968545","0.0-7.0-2.11","204","1","2025-08-06 13:47:48","36c45c0696341be0efffe67d72a12abb","41.13.176.246","Mozilla/5.0 (Windows NT 10.0; Win64; x64) AppleWebKit/537.36 (KHTML, like Gecko) Chrome/138.0.0.0 Safari/537.36 Edg/138.0.0.0","WebKit","Edge","138.0.0.0","Windows","10.0","https://app.prolific.com/","en-US,en;q=0.9","67b89f64c09d83ec36fdd403","6877649eabb845cf142cd221","68935a67e1146a6f44803cdf","1","67b89f64c09d83ec36fdd403","1","2025-08-06T14:04:04.171Z","","","","ControlQ","","","","","","","","","","","50","","","","","","","","","","","","","","","","","","","","","","","","","","",""
"3425","","<div style=""width:500px;"">
  <p>How would you describe your current emotional state?</p>
  </div>","70","html-slider-response","71","971973","0.0-7.0-3.11","204","1","2025-08-06 13:47:48","36c45c0696341be0efffe67d72a12abb","41.13.176.246","Mozilla/5.0 (Windows NT 10.0; Win64; x64) AppleWebKit/537.36 (KHTML, like Gecko) Chrome/138.0.0.0 Safari/537.36 Edg/138.0.0.0","WebKit","Edge","138.0.0.0","Windows","10.0","https://app.prolific.com/","en-US,en;q=0.9","67b89f64c09d83ec36fdd403","6877649eabb845cf142cd221","68935a67e1146a6f44803cdf","1","67b89f64c09d83ec36fdd403","1","2025-08-06T14:04:07.599Z","","","","StressQ","","","","","","","","","","","50","","","","","","","","","","","","","","","","","","","","","","","","","","",""
"4145","","<div style=""width:500px;"">
  <p>What best describes how you currently feel?</p>
  </div>","86","html-slider-response","72","976120","0.0-7.0-4.11","204","1","2025-08-06 13:47:48","36c45c0696341be0efffe67d72a12abb","41.13.176.246","Mozilla/5.0 (Windows NT 10.0; Win64; x64) AppleWebKit/537.36 (KHTML, like Gecko) Chrome/138.0.0.0 Safari/537.36 Edg/138.0.0.0","WebKit","Edge","138.0.0.0","Windows","10.0","https://app.prolific.com/","en-US,en;q=0.9","67b89f64c09d83ec36fdd403","6877649eabb845cf142cd221","68935a67e1146a6f44803cdf","1","67b89f64c09d83ec36fdd403","1","2025-08-06T14:04:11.747Z","","","","MotivationQ","","","","","","","","","","","50","","","","","","","","","","","","","","","","","","","","","","","","","","",""
"","","","","ctl-task-cpt","73","1004758","0.0-7.0-0.12","204","1","2025-08-06 13:47:48","36c45c0696341be0efffe67d72a12abb","41.13.176.246","Mozilla/5.0 (Windows NT 10.0; Win64; x64) AppleWebKit/537.36 (KHTML, like Gecko) Chrome/138.0.0.0 Safari/537.36 Edg/138.0.0.0","WebKit","Edge","138.0.0.0","Windows","10.0","https://app.prolific.com/","en-US,en;q=0.9","67b89f64c09d83ec36fdd403","6877649eabb845cf142cd221","68935a67e1146a6f44803cdf","1","67b89f64c09d83ec36fdd403","1","2025-08-06T14:04:40.384Z","","","","","","","","","","","","","","","","win-only","3","g1:SW,g2:NE","0.8","13","0","978989.5","1440.4","6442.2","25607.9","1","4","4","6","2","4","3","24","21","0.18181818181818182","1331.4","3000","2305","[""up"",""right""]","{""num_key_presses"":7,""num_perfect"":5,""num_errors"":1,""num_randdir"":1,""num_randdir_good_moves"":1,""num_whilered"":0,""num_whileblue"":0,""num_blue"":0,""num_good_moves"":6}","[297.22232142857143,289.12857142857143,0.4,297.22232142857143,289.12857142857143,100.3,297.22232142857143,289.12857142857143,201.7,297.22232142857143,289.12857142857143,311.5,297.22232142857143,289.12857142857143,418.2,303.22232142857143,280.12857142857143,523.4,405.22232142857143,157.12857142857143,633.8,453.22232142857143,113.12857142857143,733.9,475.22232142857143,109.12857142857143,837.9,497.22232142857143,99.12857142857143,958.1,506.22232142857143,93.12857142857143,1063.3,508.22232142857143,92.12857142857143,1178.5,509.22232142857143,92.12857142857143,1299.5,509.22232142857143,92.12857142857143,1413.9,509.22232142857143,92.12857142857143,1520.1,509.22232142857143,92.12857142857143,1620.9,509.22232142857143,92.12857142857143,1725.5,509.22232142857143,92.12857142857143,1836.3,509.22232142857143,92.12857142857143,1938.7,509.22232142857143,92.12857142857143,2054.4,549.2223214285714,53.128571428571426,2166.5,567.2223214285714,31.128571428571426,2276.1,567.2223214285714,31.128571428571426,2391.8,567.2223214285714,31.128571428571426,2502.6,567.2223214285714,31.128571428571426,2606.8,567.2223214285714,31.128571428571426,2719.4,567.2223214285714,31.128571428571426,2829.9,567.2223214285714,31.128571428571426,2941.8,567.2223214285714,31.128571428571426,3048,567.2223214285714,31.128571428571426,3155.3,567.2223214285714,31.128571428571426,3268.5,567.2223214285714,31.128571428571426,3373.7,567.2223214285714,31.128571428571426,3485.8,567.2223214285714,31.128571428571426,3609.2,567.2223214285714,31.128571428571426,3714.6,567.2223214285714,31.128571428571426,3817.5,567.2223214285714,31.128571428571426,3920.7,567.2223214285714,31.128571428571426,4028.7,567.2223214285714,31.128571428571426,4132.3,567.2223214285714,31.128571428571426,4232.7,567.2223214285714,31.128571428571426,4341.2,567.2223214285714,31.128571428571426,4449.9,567.2223214285714,31.128571428571426,4553.7,567.2223214285714,31.128571428571426,4683.5,567.2223214285714,31.128571428571426,4793.9,567.2223214285714,31.128571428571426,4896.6]","[1439.9,1439.9,1000,0,439.9,""smooth"",""right"",""right"",""good_move"",4571.2,3130.3,2730.3,1440.9,400,""oops"",""up"",""right"",""good_move"",4962.4,390.8,1839.2,4571.6,-1448.4,""error"",""-"",""-"",""no_move"",9579.8,4617.2,3118,5969,492.8,""smooth"",""up"",""up"",""good_move"",12086.8,2506.5,2096.8,9580.4,409.6,""smooth"",""right"",""right"",""good_move"",14602.5,2515.2,1990.9,12087.3,524.3,""smooth"",""up"",""up"",""good_move"",18992.8,4389.9,1863.7,14602.9,2526.2,""smooth"",""up"",""up"",""good_move""]"
"4060","","<div style=""width:500px;"">
  <p>What determined the result of this run?</p>
  </div>","78","html-slider-response","74","1008821","0.0-7.0-1.12","204","1","2025-08-06 13:47:48","36c45c0696341be0efffe67d72a12abb","41.13.176.246","Mozilla/5.0 (Windows NT 10.0; Win64; x64) AppleWebKit/537.36 (KHTML, like Gecko) Chrome/138.0.0.0 Safari/537.36 Edg/138.0.0.0","WebKit","Edge","138.0.0.0","Windows","10.0","https://app.prolific.com/","en-US,en;q=0.9","67b89f64c09d83ec36fdd403","6877649eabb845cf142cd221","68935a67e1146a6f44803cdf","1","67b89f64c09d83ec36fdd403","1","2025-08-06T14:04:44.447Z","","","","AttribQ","","","","","","","","","","","50","","","","","","","","","","","","","","","","","","","","","","","","","","",""
"2879","","<div style=""width:500px;"">
  <p>How much control did you have over the ball?</p>
  </div>","78","html-slider-response","75","1011703","0.0-7.0-2.12","204","1","2025-08-06 13:47:48","36c45c0696341be0efffe67d72a12abb","41.13.176.246","Mozilla/5.0 (Windows NT 10.0; Win64; x64) AppleWebKit/537.36 (KHTML, like Gecko) Chrome/138.0.0.0 Safari/537.36 Edg/138.0.0.0","WebKit","Edge","138.0.0.0","Windows","10.0","https://app.prolific.com/","en-US,en;q=0.9","67b89f64c09d83ec36fdd403","6877649eabb845cf142cd221","68935a67e1146a6f44803cdf","1","67b89f64c09d83ec36fdd403","1","2025-08-06T14:04:47.329Z","","","","ControlQ","","","","","","","","","","","50","","","","","","","","","","","","","","","","","","","","","","","","","","",""
"3011","","<div style=""width:500px;"">
  <p>How would you describe your current emotional state?</p>
  </div>","69","html-slider-response","76","1014716","0.0-7.0-3.12","204","1","2025-08-06 13:47:48","36c45c0696341be0efffe67d72a12abb","41.13.176.246","Mozilla/5.0 (Windows NT 10.0; Win64; x64) AppleWebKit/537.36 (KHTML, like Gecko) Chrome/138.0.0.0 Safari/537.36 Edg/138.0.0.0","WebKit","Edge","138.0.0.0","Windows","10.0","https://app.prolific.com/","en-US,en;q=0.9","67b89f64c09d83ec36fdd403","6877649eabb845cf142cd221","68935a67e1146a6f44803cdf","1","67b89f64c09d83ec36fdd403","1","2025-08-06T14:04:50.342Z","","","","StressQ","","","","","","","","","","","50","","","","","","","","","","","","","","","","","","","","","","","","","","",""
"3903","","<div style=""width:500px;"">
  <p>What best describes how you currently feel?</p>
