"rt","response_timestamp","stimulus","response","trial_type","trial_index","time_elapsed","internal_node_id","run_id","condition","recorded_at","source_code_version","ip","user_agent","device","browser","browser_version","platform","platform_version","referer","accept_language","PROLIFIC_PID","STUDY_ID","SESSION_ID","BATCH","prolific_id","batch","realtime","success","question_order","question_id","eventType","responses","item_order","radio_event_ids","radio_event_times","key_event_times","mouse_event_times","straightlining","zigzagging","honeypot","view_history","slider_start","which_type","canvas_config","goals_layout","control_level","trial_number","tutorial_trial_number","trial_start_time","phase1_start_time","phase2_start_time","phase3_start_time","goal_1_value","goal_1_distance","goal_2_value","goal_2_distance","goal_selected","outcome","outcome_total","participant_final_score","participant_initial_score","participant_final_score_prop","goal_choice_rt","allocated_time","allocated_time_remaining","goal_direction","counts","mouse_movements","key_presses"
"34842","1754470213627","<p style='font-size:40px;line-height:1.25'><strong>Welcome to the experiment!</strong></p><p style='font-size:1.1em;line-height:1.25'>Thank you for participanting in our experiment again! You will be asked to play the Dysfunctional Ball Game again. We will briefly recap the rules before we start.</p><p style='font-size:1.1em;line-height:1.25'>Press <strong>Next</strong> to continue.</p>","0","custom-html-button-response","0","34847","0.0-0.0","125","1","2025-08-06 08:50:09","36c45c0696341be0efffe67d72a12abb","105.245.115.102","Mozilla/5.0 (Windows NT 10.0; Win64; x64) AppleWebKit/537.36 (KHTML, like Gecko) Chrome/138.0.0.0 Safari/537.36","WebKit","Chrome","138.0.0.0","Windows","10.0","https://app.prolific.com/","en-US,en;q=0.9","67b9e921b4b5ee4019522dbb","6877649eabb845cf142cd221","6893173507a7746b2b988fe9","1","67b9e921b4b5ee4019522dbb","1","2025-08-06T08:50:13.629Z","","","","","","","","","","","","","","","","","","","","","","","","","","","","","","","","","","","","","","","","","",""
"8263","","","","fullscreen","1","44153","0.0-1.0","125","1","2025-08-06 08:50:09","36c45c0696341be0efffe67d72a12abb","105.245.115.102","Mozilla/5.0 (Windows NT 10.0; Win64; x64) AppleWebKit/537.36 (KHTML, like Gecko) Chrome/138.0.0.0 Safari/537.36","WebKit","Chrome","138.0.0.0","Windows","10.0","https://app.prolific.com/","en-US,en;q=0.9","67b9e921b4b5ee4019522dbb","6877649eabb845cf142cd221","6893173507a7746b2b988fe9","1","67b9e921b4b5ee4019522dbb","1","","true","","","","","","","","","","","","","","","","","","","","","","","","","","","","","","","","","","","","","","","","",""
"10865","1754470233801"," <p style='font-size:1.1em;line-height:1.25'>Thank you for closing all other tabs.</p><p style='font-size:1.1em;line-height:1.25'>We will now invite you to fill in some questionnaires, before starting the game.<br>This will take about 5 minutes.<br></p><p style='font-size:1.1em;line-height:1.25'>Press the <strong>Next</strong> button to continue.</p>","0","custom-html-button-response","2","55020","0.0-2.0","125","1","2025-08-06 08:50:09","36c45c0696341be0efffe67d72a12abb","105.245.115.102","Mozilla/5.0 (Windows NT 10.0; Win64; x64) AppleWebKit/537.36 (KHTML, like Gecko) Chrome/138.0.0.0 Safari/537.36","WebKit","Chrome","138.0.0.0","Windows","10.0","https://app.prolific.com/","en-US,en;q=0.9","67b9e921b4b5ee4019522dbb","6877649eabb845cf142cd221","6893173507a7746b2b988fe9","1","67b9e921b4b5ee4019522dbb","1","2025-08-06T08:50:33.802Z","","","","","","","","","","","","","","","","","","","","","","","","","","","","","","","","","","","","","","","","","",""
"16673","","","{""assigned_sex"":""female""}","survey-multi-choice","3","71697","0.0-3.0-0.0","125","1","2025-08-06 08:50:09","36c45c0696341be0efffe67d72a12abb","105.245.115.102","Mozilla/5.0 (Windows NT 10.0; Win64; x64) AppleWebKit/537.36 (KHTML, like Gecko) Chrome/138.0.0.0 Safari/537.36","WebKit","Chrome","138.0.0.0","Windows","10.0","https://app.prolific.com/","en-US,en;q=0.9","67b9e921b4b5ee4019522dbb","6877649eabb845cf142cd221","6893173507a7746b2b988fe9","1","67b9e921b4b5ee4019522dbb","1","","","[0]","0","demographics","","","","","","","","","","","","","","","","","","","","","","","","","","","","","","","","","","","","","",""
"12949","1754470263429","<p style='font-size:1.1em;line-height:1.25'>In the following, we will perform a baseline assessment. This means that we will ask you a few questions relating to your experiences over the past month.<br></p><p style='font-size:1.1em;line-height:1.25'>Press the <strong>Next</strong> button to continue.</p>","0","custom-html-button-response","4","84648","0.0-4.0-0.0","125","1","2025-08-06 08:50:09","36c45c0696341be0efffe67d72a12abb","105.245.115.102","Mozilla/5.0 (Windows NT 10.0; Win64; x64) AppleWebKit/537.36 (KHTML, like Gecko) Chrome/138.0.0.0 Safari/537.36","WebKit","Chrome","138.0.0.0","Windows","10.0","https://app.prolific.com/","en-US,en;q=0.9","67b9e921b4b5ee4019522dbb","6877649eabb845cf142cd221","6893173507a7746b2b988fe9","1","67b9e921b4b5ee4019522dbb","1","2025-08-06T08:51:03.430Z","","","","","","","","","","","","","","","","","","","","","","","","","","","","","","","","","","","","","","","","","",""
"148402","","","","survey-template","5","233057","0.0-4.0-1.0","125","1","2025-08-06 08:50:09","36c45c0696341be0efffe67d72a12abb","105.245.115.102","Mozilla/5.0 (Windows NT 10.0; Win64; x64) AppleWebKit/537.36 (KHTML, like Gecko) Chrome/138.0.0.0 Safari/537.36","WebKit","Chrome","138.0.0.0","Windows","10.0","https://app.prolific.com/","en-US,en;q=0.9","67b9e921b4b5ee4019522dbb","6877649eabb845cf142cd221","6893173507a7746b2b988fe9","1","67b9e921b4b5ee4019522dbb","1","2025-08-06T08:53:31.838Z","","","","pss","{""Q01"":""1"",""Q02"":""0"",""Q03"":""2"",""Q04"":""0"",""Q05"":""0"",""Q06"":""0"",""Q07"":""0"",""Q08"":""0"",""Q09"":""1"",""Q10"":""1""}","[0,1,2,3,4,5,6,7,8,9]","[""Q01"",""Q02"",""Q02"",""Q03"",""Q03"",""Q04"",""Q05"",""Q06"",""Q07"",""Q08"",""Q09"",""Q10"",""Q09""]","[8366.40000000596,13476.90000000596,16703.90000000596,24348.40000000596,26658.5,37996.70000000298,45024.40000000596,62976.70000000298,72979,105393.80000001192,112946.10000000894,126070,133323.10000000894]","[]","[0.10000000894069672,8366.40000000596,13476.90000000596,16703.90000000596,24348.40000000596,26658.5,37996.70000000298,45024.40000000596,62976.70000000298,72979,105393.80000001192,112946.10000000894,126070,133323.10000000894,148396.5]","0.4","0.3333333333333333","0","","","","","","","","","","","","","","","","","","","","","","","","","","","","",""
"7493","1754470419333","<p style='font-size:1.1em;line-height:1.25'>Thank you for your answers! Now we will ask you a few more questions relating to your feelings in the last 24 hours.<br></p><p style='font-size:1.1em;line-height:1.25'>Press the <strong>Next</strong> button to continue.</p>","0","custom-html-button-response","6","240552","0.0-4.0-2.0","125","1","2025-08-06 08:50:09","36c45c0696341be0efffe67d72a12abb","105.245.115.102","Mozilla/5.0 (Windows NT 10.0; Win64; x64) AppleWebKit/537.36 (KHTML, like Gecko) Chrome/138.0.0.0 Safari/537.36","WebKit","Chrome","138.0.0.0","Windows","10.0","https://app.prolific.com/","en-US,en;q=0.9","67b9e921b4b5ee4019522dbb","6877649eabb845cf142cd221","6893173507a7746b2b988fe9","1","67b9e921b4b5ee4019522dbb","1","2025-08-06T08:53:39.333Z","","","","","","","","","","","","","","","","","","","","","","","","","","","","","","","","","","","","","","","","","",""
"159546.5","","","","survey-template","7","400106","0.0-4.0-3.0","125","1","2025-08-06 08:50:09","36c45c0696341be0efffe67d72a12abb","105.245.115.102","Mozilla/5.0 (Windows NT 10.0; Win64; x64) AppleWebKit/537.36 (KHTML, like Gecko) Chrome/138.0.0.0 Safari/537.36","WebKit","Chrome","138.0.0.0","Windows","10.0","https://app.prolific.com/","en-US,en;q=0.9","67b9e921b4b5ee4019522dbb","6877649eabb845cf142cd221","6893173507a7746b2b988fe9","1","67b9e921b4b5ee4019522dbb","1","2025-08-06T08:56:18.888Z","","","","drsp","{""Q01"":""2"",""Q02"":""0"",""Q03"":""0"",""Q04"":""1"",""Q05"":""1"",""Q06"":""1"",""Q07"":""1"",""Q08"":""0"",""Q09"":""0"",""Q10"":""0"",""Q11"":""0"",""Q12"":""4"",""Q13"":""5"",""Q14"":""2"",""Q15"":""0"",""Q16"":""0"",""Q17"":""1"",""Q18"":""0"",""Q19"":""0"",""Q20"":""0"",""Q21"":""0"",""Q22"":""0""}","[0,1,2,3,4,5,6,7,8,9,10,11,12,13,14,15,16,17,18,19,20,21]","[""Q01"",""Q02"",""Q03"",""Q01"",""Q04"",""Q05"",""Q06"",""Q07"",""Q08"",""Q09"",""Q10"",""Q11"",""Q12"",""Q13"",""Q14"",""Q15"",""Q15"",""Q16"",""Q17"",""Q18"",""Q19"",""Q20"",""Q21"",""Q22""]","[4815.29999999702,6249.29999999702,8144.0999999940395,14686,20597.79999999702,24816.39999999106,52295.29999999702,54722,57989.5,66926.79999999702,69210.79999999702,71246,76155,82817.09999999404,90036.59999999404,93888.69999998808,103235.39999999106,105520,114573.5,116524.69999998808,118801.29999999702,131990,139792.69999998808,148654.89999999106]","[]","[0.19999998807907104,4815.29999999702,6249.29999999702,8144.0999999940395,14686,20597.79999999702,24816.39999999106,52295.29999999702,54722,57989.5,66926.79999999702,69210.79999999702,71246,76155,82817.09999999404,90036.59999999404,93888.69999998808,103235.39999999106,105520,114573.5,116524.69999998808,118801.29999999702,131990,139792.69999998808,148654.89999999106,159536.39999999106]","0.5909090909090909","0.23809523809523808","0","","","","","","","","","","","","","","","","","","","","","","","","","","","","",""
"20126.70000000298","","","","survey-template","8","420237","0.0-4.0-4.0","125","1","2025-08-06 08:50:09","36c45c0696341be0efffe67d72a12abb","105.245.115.102","Mozilla/5.0 (Windows NT 10.0; Win64; x64) AppleWebKit/537.36 (KHTML, like Gecko) Chrome/138.0.0.0 Safari/537.36","WebKit","Chrome","138.0.0.0","Windows","10.0","https://app.prolific.com/","en-US,en;q=0.9","67b9e921b4b5ee4019522dbb","6877649eabb845cf142cd221","6893173507a7746b2b988fe9","1","67b9e921b4b5ee4019522dbb","1","2025-08-06T08:56:39.018Z","","","","stress","{""Q01"":""2"",""Q02"":""0"",""Q03"":""0""}","[0,1,2]","[""Q01"",""Q02"",""Q03""]","[6126.4000000059605,13529.20000000298,17597.90000000596]","[]","[6126.4000000059605,13529.20000000298,17597.90000000596,20124.60000000894]","0.3333333333333333","0.5","0","","","","","","","","","","","","","","","","","","","","","","","","","","","","",""
"8533","","","","instructions","9","428772","0.0-5.0-0.0","125","1","2025-08-06 08:50:09","36c45c0696341be0efffe67d72a12abb","105.245.115.102","Mozilla/5.0 (Windows NT 10.0; Win64; x64) AppleWebKit/537.36 (KHTML, like Gecko) Chrome/138.0.0.0 Safari/537.36","WebKit","Chrome","138.0.0.0","Windows","10.0","https://app.prolific.com/","en-US,en;q=0.9","67b9e921b4b5ee4019522dbb","6877649eabb845cf142cd221","6893173507a7746b2b988fe9","1","67b9e921b4b5ee4019522dbb","1","","","","","","","","","","","","","","","[{""page_index"":0,""viewing_time"":8533}]","","","","","","","","","","","","","","","","","","","","","","","","","","","",""
"11343","","<p>Before you start with this game please answer the following three questions yourself. </p>
  <p>Through this game, we measure several aspects of your cognitive performance, such as reaction times, multi-tasking capabilities </p>
  <p>and the ability to assess the situation you are in.</p>
  <p></p>
  <p><b>How good do you usually are in such tasks?</b></p>","100","html-slider-response","10","440144","0.0-6.0-0.0","125","1","2025-08-06 08:50:09","36c45c0696341be0efffe67d72a12abb","105.245.115.102","Mozilla/5.0 (Windows NT 10.0; Win64; x64) AppleWebKit/537.36 (KHTML, like Gecko) Chrome/138.0.0.0 Safari/537.36","WebKit","Chrome","138.0.0.0","Windows","10.0","https://app.prolific.com/","en-US,en;q=0.9","67b9e921b4b5ee4019522dbb","6877649eabb845cf142cd221","6893173507a7746b2b988fe9","1","67b9e921b4b5ee4019522dbb","1","2025-08-06T08:56:58.925Z","","","","PreSkillQ","","","","","","","","","","","50","","","","","","","","","","","","","","","","","","","","","","","","","","",""
"6048","","<div style=""width:500px;"">
  <p>How well do you think you will perform in this task compared to other participants?</p>
  </div>","99","html-slider-response","11","446195","0.0-6.0-1.0","125","1","2025-08-06 08:50:09","36c45c0696341be0efffe67d72a12abb","105.245.115.102","Mozilla/5.0 (Windows NT 10.0; Win64; x64) AppleWebKit/537.36 (KHTML, like Gecko) Chrome/138.0.0.0 Safari/537.36","WebKit","Chrome","138.0.0.0","Windows","10.0","https://app.prolific.com/","en-US,en;q=0.9","67b9e921b4b5ee4019522dbb","6877649eabb845cf142cd221","6893173507a7746b2b988fe9","1","67b9e921b4b5ee4019522dbb","1","2025-08-06T08:57:04.977Z","","","","PrePerfQ","","","","","","","","","","","50","","","","","","","","","","","","","","","","","","","","","","","","","","",""
"4884","","<div style=""width:500px;"">
  <p>What best describes how you currently feel?</p>
  </div>","99","html-slider-response","12","451081","0.0-6.0-2.0","125","1","2025-08-06 08:50:09","36c45c0696341be0efffe67d72a12abb","105.245.115.102","Mozilla/5.0 (Windows NT 10.0; Win64; x64) AppleWebKit/537.36 (KHTML, like Gecko) Chrome/138.0.0.0 Safari/537.36","WebKit","Chrome","138.0.0.0","Windows","10.0","https://app.prolific.com/","en-US,en;q=0.9","67b9e921b4b5ee4019522dbb","6877649eabb845cf142cd221","6893173507a7746b2b988fe9","1","67b9e921b4b5ee4019522dbb","1","2025-08-06T08:57:09.862Z","","","","PreMotivationQ","","","","","","","","","","","50","","","","","","","","","","","","","","","","","","","","","","","","","","",""
"","","","","ctl-task-cpt","13","484110","0.0-7.0-0.0","125","1","2025-08-06 08:50:09","36c45c0696341be0efffe67d72a12abb","105.245.115.102","Mozilla/5.0 (Windows NT 10.0; Win64; x64) AppleWebKit/537.36 (KHTML, like Gecko) Chrome/138.0.0.0 Safari/537.36","WebKit","Chrome","138.0.0.0","Windows","10.0","https://app.prolific.com/","en-US,en;q=0.9","67b9e921b4b5ee4019522dbb","6877649eabb845cf142cd221","6893173507a7746b2b988fe9","1","67b9e921b4b5ee4019522dbb","1","2025-08-06T08:57:42.891Z","","","","","","","","","","","","","","","","win-only","0","g1:NW,g2:SE","1","1","0","454493.3","7688.9","12694.4","30014.5","1","4","8","6","2","8","8","8","0","0.06060606060606061","1692.9","3000","1260","[""down"",""right""]","{""num_key_presses"":6,""num_perfect"":6,""num_errors"":0,""num_randdir"":0,""num_randdir_good_moves"":0,""num_whilered"":0,""num_whileblue"":0,""num_blue"":0,""num_good_moves"":6}","[299.22232142857143,295.12857142857143,0.8,299.22232142857143,295.12857142857143,101.9,299.22232142857143,295.12857142857143,202,299.22232142857143,295.12857142857143,316.9,299.22232142857143,295.12857142857143,417.5,299.22232142857143,295.12857142857143,519.2,299.22232142857143,295.12857142857143,624,398.22232142857143,442.12857142857143,730,457.22232142857143,502.12857142857143,830.4,505.22232142857143,543.1285714285714,931.3,529.2223214285714,554.1285714285714,1042.9,553.2223214285714,567.1285714285714,1143.9,555.2223214285714,563.1285714285714,1258.5,554.2223214285714,560.1285714285714,1364.1,554.2223214285714,560.1285714285714,1474.4,554.2223214285714,560.1285714285714,1591.1,554.2223214285714,560.1285714285714,1705.5,554.2223214285714,560.1285714285714,1806.9,554.2223214285714,560.1285714285714,1907.7,554.2223214285714,560.1285714285714,2012.6,554.2223214285714,560.1285714285714,2113,554.2223214285714,560.1285714285714,2213.1,554.2223214285714,560.1285714285714,2319.5,554.2223214285714,560.1285714285714,2423.7,554.2223214285714,560.1285714285714,2524.1,554.2223214285714,560.1285714285714,2629.2,554.2223214285714,560.1285714285714,2732.2,554.2223214285714,560.1285714285714,2839.3,554.2223214285714,560.1285714285714,2943.3,554.2223214285714,560.1285714285714,3049.4,554.2223214285714,560.1285714285714,3153.7,554.2223214285714,560.1285714285714,3254,554.2223214285714,560.1285714285714,3363.5,554.2223214285714,560.1285714285714,3463.8,554.2223214285714,560.1285714285714,3573.6,554.2223214285714,560.1285714285714,3673.6,554.2223214285714,560.1285714285714,3773.8,554.2223214285714,560.1285714285714,3874,554.2223214285714,560.1285714285714,3974.2,554.2223214285714,560.1285714285714,4080.3,554.2223214285714,560.1285714285714,4180.3,554.2223214285714,560.1285714285714,4280.3,554.2223214285714,560.1285714285714,4381.3,554.2223214285714,560.1285714285714,4482.1,554.2223214285714,560.1285714285714,4582.2,554.2223214285714,560.1285714285714,4694.4,554.2223214285714,560.1285714285714,4794.6,554.2223214285714,560.1285714285714,4914.7]","[1702.7,1702.6,1000,0.1,702.6,""smooth"",""down"",""down"",""good_move"",5441.7,3737.9,3218.2,1703.8,519.7,""smooth"",""down"",""down"",""good_move"",8601.8,3159.2,2616.1,5442.7,543,""smooth"",""down"",""down"",""good_move"",11536.3,2933.5,2542.6,8602.8,390.9,""smooth"",""right"",""right"",""good_move"",14214.8,2677.4,2050.1,11537.4,627.3,""smooth"",""right"",""right"",""good_move"",17146.6,2930.9,2483.1,14215.8,447.7,""smooth"",""right"",""right"",""good_move""]"
"5149","","<div style=""width:500px;"">
  <p>What determined the result of this run?</p>
  </div>","99","html-slider-response","14","489261","0.0-7.0-1.0","125","1","2025-08-06 08:50:09","36c45c0696341be0efffe67d72a12abb","105.245.115.102","Mozilla/5.0 (Windows NT 10.0; Win64; x64) AppleWebKit/537.36 (KHTML, like Gecko) Chrome/138.0.0.0 Safari/537.36","WebKit","Chrome","138.0.0.0","Windows","10.0","https://app.prolific.com/","en-US,en;q=0.9","67b9e921b4b5ee4019522dbb","6877649eabb845cf142cd221","6893173507a7746b2b988fe9","1","67b9e921b4b5ee4019522dbb","1","2025-08-06T08:57:48.042Z","","","","AttribQ","","","","","","","","","","","50","","","","","","","","","","","","","","","","","","","","","","","","","","",""
"4525","","<div style=""width:500px;"">
  <p>How much control did you have over the ball?</p>
  </div>","100","html-slider-response","15","493788","0.0-7.0-2.0","125","1","2025-08-06 08:50:09","36c45c0696341be0efffe67d72a12abb","105.245.115.102","Mozilla/5.0 (Windows NT 10.0; Win64; x64) AppleWebKit/537.36 (KHTML, like Gecko) Chrome/138.0.0.0 Safari/537.36","WebKit","Chrome","138.0.0.0","Windows","10.0","https://app.prolific.com/","en-US,en;q=0.9","67b9e921b4b5ee4019522dbb","6877649eabb845cf142cd221","6893173507a7746b2b988fe9","1","67b9e921b4b5ee4019522dbb","1","2025-08-06T08:57:52.569Z","","","","ControlQ","","","","","","","","","","","50","","","","","","","","","","","","","","","","","","","","","","","","","","",""
"4782","","<div style=""width:500px;"">
  <p>How would you describe your current emotional state?</p>
  </div>","0","html-slider-response","16","498572","0.0-7.0-3.0","125","1","2025-08-06 08:50:09","36c45c0696341be0efffe67d72a12abb","105.245.115.102","Mozilla/5.0 (Windows NT 10.0; Win64; x64) AppleWebKit/537.36 (KHTML, like Gecko) Chrome/138.0.0.0 Safari/537.36","WebKit","Chrome","138.0.0.0","Windows","10.0","https://app.prolific.com/","en-US,en;q=0.9","67b9e921b4b5ee4019522dbb","6877649eabb845cf142cd221","6893173507a7746b2b988fe9","1","67b9e921b4b5ee4019522dbb","1","2025-08-06T08:57:57.353Z","","","","StressQ","","","","","","","","","","","50","","","","","","","","","","","","","","","","","","","","","","","","","","",""
"4730","","<div style=""width:500px;"">
  <p>What best describes how you currently feel?</p>
  </div>","100","html-slider-response","17","503305","0.0-7.0-4.0","125","1","2025-08-06 08:50:09","36c45c0696341be0efffe67d72a12abb","105.245.115.102","Mozilla/5.0 (Windows NT 10.0; Win64; x64) AppleWebKit/537.36 (KHTML, like Gecko) Chrome/138.0.0.0 Safari/537.36","WebKit","Chrome","138.0.0.0","Windows","10.0","https://app.prolific.com/","en-US,en;q=0.9","67b9e921b4b5ee4019522dbb","6877649eabb845cf142cd221","6893173507a7746b2b988fe9","1","67b9e921b4b5ee4019522dbb","1","2025-08-06T08:58:02.086Z","","","","MotivationQ","","","","","","","","","","","50","","","","","","","","","","","","","","","","","","","","","","","","","","",""
"","","","","ctl-task-cpt","18","537636","0.0-7.0-0.1","125","1","2025-08-06 08:50:09","36c45c0696341be0efffe67d72a12abb","105.245.115.102","Mozilla/5.0 (Windows NT 10.0; Win64; x64) AppleWebKit/537.36 (KHTML, like Gecko) Chrome/138.0.0.0 Safari/537.36","WebKit","Chrome","138.0.0.0","Windows","10.0","https://app.prolific.com/","en-US,en;q=0.9","67b9e921b4b5ee4019522dbb","6877649eabb845cf142cd221","6893173507a7746b2b988fe9","1","67b9e921b4b5ee4019522dbb","1","2025-08-06T08:58:36.417Z","","","","","","","","","","","","","","","","win-only","2","g1:SE,g2:NW","0.9","2","0","506714.8","7321","12325.6","31325.5","1","4","4","6","2","4","4","12","8","0.09090909090909091","1543.2","3000","1465","[""left"",""up""]","{""num_key_presses"":6,""num_perfect"":6,""num_errors"":0,""num_randdir"":0,""num_randdir_good_moves"":0,""num_whilered"":0,""num_whileblue"":0,""num_blue"":1,""num_good_moves"":6}","[290.22232142857143,295.12857142857143,0.9,290.22232142857143,295.12857142857143,111.4,290.22232142857143,295.12857142857143,212.2,290.22232142857143,295.12857142857143,317.9,290.22232142857143,295.12857142857143,430.3,290.22232142857143,295.12857142857143,533,290.22232142857143,295.12857142857143,633.5,290.22232142857143,295.12857142857143,733.9,268.22232142857143,264.12857142857143,836,195.22232142857143,175.12857142857143,940.7,122.22232142857143,110.12857142857143,1042.6,87.22232142857143,82.12857142857143,1146.9,72.22232142857143,65.12857142857143,1268.6,72.22232142857143,65.12857142857143,1370.8,72.22232142857143,65.12857142857143,1476.9,72.22232142857143,65.12857142857143,1584.7,72.22232142857143,65.12857142857143,1685.5,72.22232142857143,65.12857142857143,1801.8,72.22232142857143,65.12857142857143,1917.9,72.22232142857143,65.12857142857143,2018.5,72.22232142857143,65.12857142857143,2133.1,72.22232142857143,65.12857142857143,2233.3,72.22232142857143,65.12857142857143,2333.5,72.22232142857143,65.12857142857143,2434.6,72.22232142857143,65.12857142857143,2536.6,72.22232142857143,65.12857142857143,2644.2,72.22232142857143,65.12857142857143,2750.6,72.22232142857143,65.12857142857143,2864.9,72.22232142857143,65.12857142857143,2970.7,72.22232142857143,65.12857142857143,3075.6,72.22232142857143,65.12857142857143,3183,72.22232142857143,65.12857142857143,3295.4,72.22232142857143,65.12857142857143,3396.2,72.22232142857143,65.12857142857143,3496.5,72.22232142857143,65.12857142857143,3596.5,72.22232142857143,65.12857142857143,3701.4,72.22232142857143,65.12857142857143,3806.4,72.22232142857143,65.12857142857143,3917.6,72.22232142857143,65.12857142857143,4017.7,72.22232142857143,65.12857142857143,4119.6,72.22232142857143,65.12857142857143,4235.3,72.22232142857143,65.12857142857143,4345.9,72.22232142857143,65.12857142857143,4451.5,72.22232142857143,65.12857142857143,4559,72.22232142857143,65.12857142857143,4666.6,72.22232142857143,65.12857142857143,4785.6,72.22232142857143,65.12857142857143,4885.8,72.22232142857143,65.12857142857143,4991.4]","[1531.1,1531.1,1000,0,531.1,""smooth"",""up"",""up"",""good_move"",4506.1,2973.7,2562.5,1532.4,411.2,""smooth"",""up"",""up"",""good_move"",7007.2,2500.1,2061.6,4507.2,438.4,""smooth"",""up"",""up"",""good_move"",9474.7,2466.5,2107.4,7008.2,359.1,""smooth"",""left"",""left"",""good_move"",12925.9,3449.7,3019.2,9476.2,430.5,""smooth"",""left"",""left"",""good_move"",18869.5,5942.6,2010.2,16287.1,572.2,""smooth"",""left"",""left"",""good_move""]"
"6668","","<div style=""width:500px;"">
  <p>What determined the result of this run?</p>
  </div>","100","html-slider-response","19","544306","0.0-7.0-1.1","125","1","2025-08-06 08:50:09","36c45c0696341be0efffe67d72a12abb","105.245.115.102","Mozilla/5.0 (Windows NT 10.0; Win64; x64) AppleWebKit/537.36 (KHTML, like Gecko) Chrome/138.0.0.0 Safari/537.36","WebKit","Chrome","138.0.0.0","Windows","10.0","https://app.prolific.com/","en-US,en;q=0.9","67b9e921b4b5ee4019522dbb","6877649eabb845cf142cd221","6893173507a7746b2b988fe9","1","67b9e921b4b5ee4019522dbb","1","2025-08-06T08:58:43.087Z","","","","AttribQ","","","","","","","","","","","50","","","","","","","","","","","","","","","","","","","","","","","","","","",""
"4811","","<div style=""width:500px;"">
  <p>How much control did you have over the ball?</p>
  </div>","100","html-slider-response","20","549119","0.0-7.0-2.1","125","1","2025-08-06 08:50:09","36c45c0696341be0efffe67d72a12abb","105.245.115.102","Mozilla/5.0 (Windows NT 10.0; Win64; x64) AppleWebKit/537.36 (KHTML, like Gecko) Chrome/138.0.0.0 Safari/537.36","WebKit","Chrome","138.0.0.0","Windows","10.0","https://app.prolific.com/","en-US,en;q=0.9","67b9e921b4b5ee4019522dbb","6877649eabb845cf142cd221","6893173507a7746b2b988fe9","1","67b9e921b4b5ee4019522dbb","1","2025-08-06T08:58:47.900Z","","","","ControlQ","","","","","","","","","","","50","","","","","","","","","","","","","","","","","","","","","","","","","","",""
"4645","","<div style=""width:500px;"">
  <p>How would you describe your current emotional state?</p>
  </div>","0","html-slider-response","21","553767","0.0-7.0-3.1","125","1","2025-08-06 08:50:09","36c45c0696341be0efffe67d72a12abb","105.245.115.102","Mozilla/5.0 (Windows NT 10.0; Win64; x64) AppleWebKit/537.36 (KHTML, like Gecko) Chrome/138.0.0.0 Safari/537.36","WebKit","Chrome","138.0.0.0","Windows","10.0","https://app.prolific.com/","en-US,en;q=0.9","67b9e921b4b5ee4019522dbb","6877649eabb845cf142cd221","6893173507a7746b2b988fe9","1","67b9e921b4b5ee4019522dbb","1","2025-08-06T08:58:52.548Z","","","","StressQ","","","","","","","","","","","50","","","","","","","","","","","","","","","","","","","","","","","","","","",""
"4208","","<div style=""width:500px;"">
  <p>What best describes how you currently feel?</p>
  </div>","100","html-slider-response","22","557977","0.0-7.0-4.1","125","1","2025-08-06 08:50:09","36c45c0696341be0efffe67d72a12abb","105.245.115.102","Mozilla/5.0 (Windows NT 10.0; Win64; x64) AppleWebKit/537.36 (KHTML, like Gecko) Chrome/138.0.0.0 Safari/537.36","WebKit","Chrome","138.0.0.0","Windows","10.0","https://app.prolific.com/","en-US,en;q=0.9","67b9e921b4b5ee4019522dbb","6877649eabb845cf142cd221","6893173507a7746b2b988fe9","1","67b9e921b4b5ee4019522dbb","1","2025-08-06T08:58:56.758Z","","","","MotivationQ","","","","","","","","","","","50","","","","","","","","","","","","","","","","","","","","","","","","","","",""
"","","","","ctl-task-cpt","23","601857","0.0-7.0-0.2","125","1","2025-08-06 08:50:09","36c45c0696341be0efffe67d72a12abb","105.245.115.102","Mozilla/5.0 (Windows NT 10.0; Win64; x64) AppleWebKit/537.36 (KHTML, like Gecko) Chrome/138.0.0.0 Safari/537.36","WebKit","Chrome","138.0.0.0","Windows","10.0","https://app.prolific.com/","en-US,en;q=0.9","67b9e921b4b5ee4019522dbb","6877649eabb845cf142cd221","6893173507a7746b2b988fe9","1","67b9e921b4b5ee4019522dbb","1","2025-08-06T08:59:40.638Z","","","","","","","","","","","","","","","","win-only","0","g1:NW,g2:SE","0.8","3","0","561388.5","7944.5","12953.3","40856.7","1","4","8","6","2","8","8","20","12","0.15151515151515152","1475","3000","930","[""down"",""right""]","{""num_key_presses"":8,""num_perfect"":6,""num_errors"":0,""num_randdir"":2,""num_randdir_good_moves"":1,""num_whilered"":0,""num_whileblue"":0,""num_blue"":2,""num_good_moves"":7}","[297.22232142857143,297.12857142857143,0.8,297.22232142857143,297.12857142857143,107.8,297.22232142857143,297.12857142857143,208.2,297.22232142857143,297.12857142857143,327.3,297.22232142857143,297.12857142857143,428.9,297.22232142857143,297.12857142857143,538.4,297.22232142857143,297.12857142857143,644.9,316.22232142857143,323.12857142857143,745.6,421.22232142857143,432.12857142857143,862.3,478.22232142857143,487.12857142857143,968.1,517.2223214285714,539.1285714285714,1081.5,530.2223214285714,547.1285714285714,1194.7,538.2223214285714,554.1285714285714,1294.7,538.2223214285714,554.1285714285714,1397.4,538.2223214285714,554.1285714285714,1507.5,538.2223214285714,554.1285714285714,1609,538.2223214285714,554.1285714285714,1712.2,538.2223214285714,554.1285714285714,1830.4,538.2223214285714,554.1285714285714,1938.6,538.2223214285714,554.1285714285714,2045.4,538.2223214285714,554.1285714285714,2147.7,538.2223214285714,554.1285714285714,2258.6,538.2223214285714,554.1285714285714,2382.8,538.2223214285714,554.1285714285714,2499.5,538.2223214285714,554.1285714285714,2615.2,538.2223214285714,554.1285714285714,2732.2,538.2223214285714,554.1285714285714,2833.8,538.2223214285714,554.1285714285714,2935.1,538.2223214285714,554.1285714285714,3036,538.2223214285714,554.1285714285714,3149.4,538.2223214285714,554.1285714285714,3265.7,538.2223214285714,554.1285714285714,3372.4,538.2223214285714,554.1285714285714,3480.5,538.2223214285714,554.1285714285714,3588.2,538.2223214285714,554.1285714285714,3704.8,538.2223214285714,554.1285714285714,3808.7,538.2223214285714,554.1285714285714,3919.8,538.2223214285714,554.1285714285714,4029.4,538.2223214285714,554.1285714285714,4147.4,538.2223214285714,554.1285714285714,4258.5,538.2223214285714,554.1285714285714,4363.3,538.2223214285714,554.1285714285714,4468.3,538.2223214285714,554.1285714285714,4577.6,538.2223214285714,554.1285714285714,4678,538.2223214285714,554.1285714285714,4788.3,538.2223214285714,554.1285714285714,4893.1,538.2223214285714,554.1285714285714,4995.7]","[5270.7,5270.7,2750.9,2004.9,514.9,""oops"",""down"",""up"",""bad_move"",7603.2,2330.4,1784.6,5272.8,545.8,""smooth"",""down"",""down"",""good_move"",10208.1,2603.7,2056.9,7604.4,546.8,""oops"",""down"",""down"",""good_move"",13390,3180.7,2733.8,10209.3,446.9,""smooth"",""down"",""down"",""good_move"",16405,3008,2493,13397,515,""smooth"",""down"",""down"",""good_move"",22193.8,5787.9,2441.5,19307.2,445.1,""smooth"",""right"",""right"",""good_move"",25298.7,3104.1,2550.4,22194.6,553.7,""smooth"",""right"",""right"",""good_move"",27728.5,2428.6,1921.5,25299.9,507.1,""smooth"",""right"",""right"",""good_move""]"
"4491","","<div style=""width:500px;"">
  <p>What determined the result of this run?</p>
  </div>","100","html-slider-response","24","606351","0.0-7.0-1.2","125","1","2025-08-06 08:50:09","36c45c0696341be0efffe67d72a12abb","105.245.115.102","Mozilla/5.0 (Windows NT 10.0; Win64; x64) AppleWebKit/537.36 (KHTML, like Gecko) Chrome/138.0.0.0 Safari/537.36","WebKit","Chrome","138.0.0.0","Windows","10.0","https://app.prolific.com/","en-US,en;q=0.9","67b9e921b4b5ee4019522dbb","6877649eabb845cf142cd221","6893173507a7746b2b988fe9","1","67b9e921b4b5ee4019522dbb","1","2025-08-06T08:59:45.132Z","","","","AttribQ","","","","","","","","","","","50","","","","","","","","","","","","","","","","","","","","","","","","","","",""
"3239","","<div style=""width:500px;"">
  <p>How much control did you have over the ball?</p>
  </div>","100","html-slider-response","25","609593","0.0-7.0-2.2","125","1","2025-08-06 08:50:09","36c45c0696341be0efffe67d72a12abb","105.245.115.102","Mozilla/5.0 (Windows NT 10.0; Win64; x64) AppleWebKit/537.36 (KHTML, like Gecko) Chrome/138.0.0.0 Safari/537.36","WebKit","Chrome","138.0.0.0","Windows","10.0","https://app.prolific.com/","en-US,en;q=0.9","67b9e921b4b5ee4019522dbb","6877649eabb845cf142cd221","6893173507a7746b2b988fe9","1","67b9e921b4b5ee4019522dbb","1","2025-08-06T08:59:48.374Z","","","","ControlQ","","","","","","","","","","","50","","","","","","","","","","","","","","","","","","","","","","","","","","",""
"4748","","<div style=""width:500px;"">
  <p>How would you describe your current emotional state?</p>
  </div>","0","html-slider-response","26","614343","0.0-7.0-3.2","125","1","2025-08-06 08:50:09","36c45c0696341be0efffe67d72a12abb","105.245.115.102","Mozilla/5.0 (Windows NT 10.0; Win64; x64) AppleWebKit/537.36 (KHTML, like Gecko) Chrome/138.0.0.0 Safari/537.36","WebKit","Chrome","138.0.0.0","Windows","10.0","https://app.prolific.com/","en-US,en;q=0.9","67b9e921b4b5ee4019522dbb","6877649eabb845cf142cd221","6893173507a7746b2b988fe9","1","67b9e921b4b5ee4019522dbb","1","2025-08-06T08:59:53.124Z","","","","StressQ","","","","","","","","","","","50","","","","","","","","","","","","","","","","","","","","","","","","","","",""
"5238","","<div style=""width:500px;"">
  <p>What best describes how you currently feel?</p>
  </div>","100","html-slider-response","27","619583","0.0-7.0-4.2","125","1","2025-08-06 08:50:09","36c45c0696341be0efffe67d72a12abb","105.245.115.102","Mozilla/5.0 (Windows NT 10.0; Win64; x64) AppleWebKit/537.36 (KHTML, like Gecko) Chrome/138.0.0.0 Safari/537.36","WebKit","Chrome","138.0.0.0","Windows","10.0","https://app.prolific.com/","en-US,en;q=0.9","67b9e921b4b5ee4019522dbb","6877649eabb845cf142cd221","6893173507a7746b2b988fe9","1","67b9e921b4b5ee4019522dbb","1","2025-08-06T08:59:58.364Z","","","","MotivationQ","","","","","","","","","","","50","","","","","","","","","","","","","","","","","","","","","","","","","","",""
"","","","","ctl-task-cpt","28","658259","0.0-7.0-0.3","125","1","2025-08-06 08:50:09","36c45c0696341be0efffe67d72a12abb","105.245.115.102","Mozilla/5.0 (Windows NT 10.0; Win64; x64) AppleWebKit/537.36 (KHTML, like Gecko) Chrome/138.0.0.0 Safari/537.36","WebKit","Chrome","138.0.0.0","Windows","10.0","https://app.prolific.com/","en-US,en;q=0.9","67b9e921b4b5ee4019522dbb","6877649eabb845cf142cd221","6893173507a7746b2b988fe9","1","67b9e921b4b5ee4019522dbb","1","2025-08-06T09:00:37.040Z","","","","","","","","","","","","","","","","win-only","1","g1:NE,g2:SW","0.7","4","0","622993.8","3627.2","8630.5","35620.8","1","4","4","6","2","4","4","24","20","0.18181818181818182","1413.4","3000","1740","[""down"",""left""]","{""num_key_presses"":6,""num_perfect"":5,""num_errors"":0,""num_randdir"":1,""num_randdir_good_moves"":1,""num_whilered"":0,""num_whileblue"":0,""num_blue"":3,""num_good_moves"":6}","[297.22232142857143,294.12857142857143,0.9,297.22232142857143,294.12857142857143,108,297.22232142857143,294.12857142857143,217.2,297.22232142857143,294.12857142857143,319.6,297.22232142857143,294.12857142857143,420,297.22232142857143,294.12857142857143,523.8,297.22232142857143,294.12857142857143,633.2,206.22232142857143,350.12857142857143,735.9,116.22232142857143,449.12857142857143,836.6,81.22232142857143,500.12857142857143,936.7,49.222321428571426,548.1285714285714,1078.2,48.222321428571426,549.1285714285714,1185.1,48.222321428571426,549.1285714285714,1287.1,48.222321428571426,549.1285714285714,1400.2,48.222321428571426,549.1285714285714,1500.3,48.222321428571426,549.1285714285714,1605.2,48.222321428571426,549.1285714285714,1787,48.222321428571426,549.1285714285714,1913.8,48.222321428571426,549.1285714285714,2014.6,48.222321428571426,549.1285714285714,2117.7,48.222321428571426,549.1285714285714,2218.5,48.222321428571426,549.1285714285714,2375.3,48.222321428571426,549.1285714285714,2506.3,48.222321428571426,549.1285714285714,2606.9,48.222321428571426,549.1285714285714,2717.7,48.222321428571426,549.1285714285714,2857.7,48.222321428571426,549.1285714285714,3027.8,48.222321428571426,549.1285714285714,3129.1,48.222321428571426,549.1285714285714,3261.7,48.222321428571426,549.1285714285714,3394.6,48.222321428571426,549.1285714285714,3500,48.222321428571426,549.1285714285714,3613.6,48.222321428571426,549.1285714285714,3769.7,48.222321428571426,549.1285714285714,3870.7,48.222321428571426,549.1285714285714,4057.7,48.222321428571426,549.1285714285714,4185.1,48.222321428571426,549.1285714285714,4298.4,48.222321428571426,549.1285714285714,4410.4,48.222321428571426,549.1285714285714,4511.2,48.222321428571426,549.1285714285714,4613.2,48.222321428571426,549.1285714285714,4713.3,48.222321428571426,549.1285714285714,4854,48.222321428571426,549.1285714285714,4960]","[1467.6,1467.6,1000,0,467.7,""smooth"",""down"",""down"",""good_move"",11676.6,10207.4,3064.7,8085.3,526.6,""smooth"",""down"",""down"",""good_move"",14620.5,2943.3,2517.4,11677.2,425.9,""smooth"",""left"",""left"",""good_move"",17649.4,3027.7,2530.9,14621.7,496.8,""smooth"",""down"",""down"",""good_move"",24057.4,6407.1,2710.8,20667.2,679.4,""smooth"",""left"",""left"",""good_move"",26764.4,2706.5,1790,24058,916.4,""oops"",""left"",""left"",""good_move""]"
"5167","","<div style=""width:500px;"">
  <p>What determined the result of this run?</p>
  </div>","100","html-slider-response","29","663430","0.0-7.0-1.3","125","1","2025-08-06 08:50:09","36c45c0696341be0efffe67d72a12abb","105.245.115.102","Mozilla/5.0 (Windows NT 10.0; Win64; x64) AppleWebKit/537.36 (KHTML, like Gecko) Chrome/138.0.0.0 Safari/537.36","WebKit","Chrome","138.0.0.0","Windows","10.0","https://app.prolific.com/","en-US,en;q=0.9","67b9e921b4b5ee4019522dbb","6877649eabb845cf142cd221","6893173507a7746b2b988fe9","1","67b9e921b4b5ee4019522dbb","1","2025-08-06T09:00:42.211Z","","","","AttribQ","","","","","","","","","","","50","","","","","","","","","","","","","","","","","","","","","","","","","","",""
"7476","","<div style=""width:500px;"">
  <p>How much control did you have over the ball?</p>
  </div>","100","html-slider-response","30","670909","0.0-7.0-2.3","125","1","2025-08-06 08:50:09","36c45c0696341be0efffe67d72a12abb","105.245.115.102","Mozilla/5.0 (Windows NT 10.0; Win64; x64) AppleWebKit/537.36 (KHTML, like Gecko) Chrome/138.0.0.0 Safari/537.36","WebKit","Chrome","138.0.0.0","Windows","10.0","https://app.prolific.com/","en-US,en;q=0.9","67b9e921b4b5ee4019522dbb","6877649eabb845cf142cd221","6893173507a7746b2b988fe9","1","67b9e921b4b5ee4019522dbb","1","2025-08-06T09:00:49.690Z","","","","ControlQ","","","","","","","","","","","50","","","","","","","","","","","","","","","","","","","","","","","","","","",""
"6883","","<div style=""width:500px;"">
  <p>How would you describe your current emotional state?</p>
  </div>","0","html-slider-response","31","677795","0.0-7.0-3.3","125","1","2025-08-06 08:50:09","36c45c0696341be0efffe67d72a12abb","105.245.115.102","Mozilla/5.0 (Windows NT 10.0; Win64; x64) AppleWebKit/537.36 (KHTML, like Gecko) Chrome/138.0.0.0 Safari/537.36","WebKit","Chrome","138.0.0.0","Windows","10.0","https://app.prolific.com/","en-US,en;q=0.9","67b9e921b4b5ee4019522dbb","6877649eabb845cf142cd221","6893173507a7746b2b988fe9","1","67b9e921b4b5ee4019522dbb","1","2025-08-06T09:00:56.576Z","","","","StressQ","","","","","","","","","","","50","","","","","","","","","","","","","","","","","","","","","","","","","","",""
"7314","","<div style=""width:500px;"">
  <p>What best describes how you currently feel?</p>
  </div>","100","html-slider-response","32","685111","0.0-7.0-4.3","125","1","2025-08-06 08:50:09","36c45c0696341be0efffe67d72a12abb","105.245.115.102","Mozilla/5.0 (Windows NT 10.0; Win64; x64) AppleWebKit/537.36 (KHTML, like Gecko) Chrome/138.0.0.0 Safari/537.36","WebKit","Chrome","138.0.0.0","Windows","10.0","https://app.prolific.com/","en-US,en;q=0.9","67b9e921b4b5ee4019522dbb","6877649eabb845cf142cd221","6893173507a7746b2b988fe9","1","67b9e921b4b5ee4019522dbb","1","2025-08-06T09:01:03.892Z","","","","MotivationQ","","","","","","","","","","","50","","","","","","","","","","","","","","","","","","","","","","","","","","",""
"","","","","ctl-task-cpt","33","730286","0.0-7.0-0.4","125","1","2025-08-06 08:50:09","36c45c0696341be0efffe67d72a12abb","105.245.115.102","Mozilla/5.0 (Windows NT 10.0; Win64; x64) AppleWebKit/537.36 (KHTML, like Gecko) Chrome/138.0.0.0 Safari/537.36","WebKit","Chrome","138.0.0.0","Windows","10.0","https://app.prolific.com/","en-US,en;q=0.9","67b9e921b4b5ee4019522dbb","6877649eabb845cf142cd221","6893173507a7746b2b988fe9","1","67b9e921b4b5ee4019522dbb","1","2025-08-06T09:01:49.067Z","","","","","","","","","","","","","","","","win-only","3","g1:SW,g2:NE","0.6","5","0","688521.8","5861","10864.7","42146","1","4","4","6","2","4","4","28","24","0.21212121212121213","1890.7","3000","1210","[""up"",""right""]","{""num_key_presses"":10,""num_perfect"":6,""num_errors"":0,""num_randdir"":4,""num_randdir_good_moves"":2,""num_whilered"":0,""num_whileblue"":0,""num_blue"":1,""num_good_moves"":8}","[291.22232142857143,292.12857142857143,0.9,291.22232142857143,292.12857142857143,100.3,291.22232142857143,292.12857142857143,208.9,291.22232142857143,292.12857142857143,309.8,291.22232142857143,292.12857142857143,411.1,291.22232142857143,292.12857142857143,535,291.22232142857143,292.12857142857143,635.7,291.22232142857143,292.12857142857143,743.4,291.22232142857143,292.12857142857143,852.7,291.22232142857143,292.12857142857143,984.7,330.22232142857143,265.12857142857143,1104.1,406.22232142857143,148.12857142857143,1216.9,460.22232142857143,62.128571428571426,1322.3,491.22232142857143,46.128571428571426,1422.8,513.2223214285714,31.128571428571426,1529.6,522.2223214285714,30.128571428571426,1640.7,525.2223214285714,31.128571428571426,1753,525.2223214285714,31.128571428571426,1855,525.2223214285714,31.128571428571426,1963.8,525.2223214285714,31.128571428571426,2072.5,525.2223214285714,31.128571428571426,2189.3,525.2223214285714,31.128571428571426,2315.3,525.2223214285714,31.128571428571426,2429.6,525.2223214285714,31.128571428571426,2540.4,525.2223214285714,31.128571428571426,2658.2,525.2223214285714,31.128571428571426,2792.6,525.2223214285714,31.128571428571426,2925.1,525.2223214285714,31.128571428571426,3034.1,525.2223214285714,31.128571428571426,3134.4,525.2223214285714,31.128571428571426,3237.9,525.2223214285714,31.128571428571426,3340.2,525.2223214285714,31.128571428571426,3448.2,525.2223214285714,31.128571428571426,3579.2,525.2223214285714,31.128571428571426,3696.7,525.2223214285714,31.128571428571426,3827.5,525.2223214285714,31.128571428571426,3928.3,525.2223214285714,31.128571428571426,4085.5,525.2223214285714,31.128571428571426,4189.9,525.2223214285714,31.128571428571426,4290.7,525.2223214285714,31.128571428571426,4407.7,525.2223214285714,31.128571428571426,4510.5,525.2223214285714,31.128571428571426,4611.6,525.2223214285714,31.128571428571426,4746.7,525.2223214285714,31.128571428571426,4864,525.2223214285714,31.128571428571426,4990.8]","[1468.9,1468.9,1000,0,468.9,""oops"",""right"",""right"",""good_move"",3975.6,2505.6,2068.3,1470,437.3,""oops"",""up"",""down"",""bad_move"",7248.1,3271.4,2834.1,3976.7,437.3,""smooth"",""right"",""right"",""good_move"",13477.2,6228.3,2762.4,10238.7,476.1,""smooth"",""up"",""up"",""good_move"",16506.4,3028.2,2582.9,13478.2,445.3,""oops"",""up"",""down"",""bad_move"",19114.3,2607,2136.2,16507.4,470.8,""smooth"",""up"",""up"",""good_move"",22155.2,3040,2562.3,19115.2,477.8,""oops"",""up"",""up"",""good_move"",25134,2974.4,2538.6,22159.6,435.8,""smooth"",""right"",""right"",""good_move"",27866.9,2731.6,2189.2,25135.3,542.4,""smooth"",""up"",""up"",""good_move"",31054.5,3185.9,2636.3,27868.6,549.6,""smooth"",""up"",""up"",""good_move""]"
"8562","","<div style=""width:500px;"">
  <p>What determined the result of this run?</p>
  </div>","100","html-slider-response","34","738851","0.0-7.0-1.4","125","1","2025-08-06 08:50:09","36c45c0696341be0efffe67d72a12abb","105.245.115.102","Mozilla/5.0 (Windows NT 10.0; Win64; x64) AppleWebKit/537.36 (KHTML, like Gecko) Chrome/138.0.0.0 Safari/537.36","WebKit","Chrome","138.0.0.0","Windows","10.0","https://app.prolific.com/","en-US,en;q=0.9","67b9e921b4b5ee4019522dbb","6877649eabb845cf142cd221","6893173507a7746b2b988fe9","1","67b9e921b4b5ee4019522dbb","1","2025-08-06T09:01:57.632Z","","","","AttribQ","","","","","","","","","","","50","","","","","","","","","","","","","","","","","","","","","","","","","","",""
"5550","","<div style=""width:500px;"">
  <p>How much control did you have over the ball?</p>
  </div>","100","html-slider-response","35","744404","0.0-7.0-2.4","125","1","2025-08-06 08:50:09","36c45c0696341be0efffe67d72a12abb","105.245.115.102","Mozilla/5.0 (Windows NT 10.0; Win64; x64) AppleWebKit/537.36 (KHTML, like Gecko) Chrome/138.0.0.0 Safari/537.36","WebKit","Chrome","138.0.0.0","Windows","10.0","https://app.prolific.com/","en-US,en;q=0.9","67b9e921b4b5ee4019522dbb","6877649eabb845cf142cd221","6893173507a7746b2b988fe9","1","67b9e921b4b5ee4019522dbb","1","2025-08-06T09:02:03.185Z","","","","ControlQ","","","","","","","","","","","50","","","","","","","","","","","","","","","","","","","","","","","","","","",""
"7734","","<div style=""width:500px;"">
  <p>How would you describe your current emotional state?</p>
  </div>","0","html-slider-response","36","752141","0.0-7.0-3.4","125","1","2025-08-06 08:50:09","36c45c0696341be0efffe67d72a12abb","105.245.115.102","Mozilla/5.0 (Windows NT 10.0; Win64; x64) AppleWebKit/537.36 (KHTML, like Gecko) Chrome/138.0.0.0 Safari/537.36","WebKit","Chrome","138.0.0.0","Windows","10.0","https://app.prolific.com/","en-US,en;q=0.9","67b9e921b4b5ee4019522dbb","6877649eabb845cf142cd221","6893173507a7746b2b988fe9","1","67b9e921b4b5ee4019522dbb","1","2025-08-06T09:02:10.923Z","","","","StressQ","","","","","","","","","","","50","","","","","","","","","","","","","","","","","","","","","","","","","","",""
"8110","","<div style=""width:500px;"">
  <p>What best describes how you currently feel?</p>
  </div>","100","html-slider-response","37","760255","0.0-7.0-4.4","125","1","2025-08-06 08:50:09","36c45c0696341be0efffe67d72a12abb","105.245.115.102","Mozilla/5.0 (Windows NT 10.0; Win64; x64) AppleWebKit/537.36 (KHTML, like Gecko) Chrome/138.0.0.0 Safari/537.36","WebKit","Chrome","138.0.0.0","Windows","10.0","https://app.prolific.com/","en-US,en;q=0.9","67b9e921b4b5ee4019522dbb","6877649eabb845cf142cd221","6893173507a7746b2b988fe9","1","67b9e921b4b5ee4019522dbb","1","2025-08-06T09:02:19.036Z","","","","MotivationQ","","","","","","","","","","","50","","","","","","","","","","","","","","","","","","","","","","","","","","",""
"","","","","ctl-task-cpt","38","825120","0.0-7.0-0.5","125","1","2025-08-06 08:50:09","36c45c0696341be0efffe67d72a12abb","105.245.115.102","Mozilla/5.0 (Windows NT 10.0; Win64; x64) AppleWebKit/537.36 (KHTML, like Gecko) Chrome/138.0.0.0 Safari/537.36","WebKit","Chrome","138.0.0.0","Windows","10.0","https://app.prolific.com/","en-US,en;q=0.9","67b9e921b4b5ee4019522dbb","6877649eabb845cf142cd221","6893173507a7746b2b988fe9","1","67b9e921b4b5ee4019522dbb","1","2025-08-06T09:03:23.901Z","","","","","","","","","","","","","","","","win-only","2","g1:SE,g2:NW","0.5","6","0","763667.6","8281","13288.4","61822.8","1","4","8","6","2","8","7","35","28","0.26515151515151514","1403.8","3000","610","[""left"",""up""]","{""num_key_presses"":16,""num_perfect"":7,""num_errors"":1,""num_randdir"":8,""num_randdir_good_moves"":3,""num_whilered"":0,""num_whileblue"":1,""num_blue"":1,""num_good_moves"":11}","[294.22232142857143,295.12857142857143,0.8,294.22232142857143,295.12857142857143,101.7,294.22232142857143,295.12857142857143,205.9,294.22232142857143,295.12857142857143,362.4,294.22232142857143,295.12857142857143,466.3,294.22232142857143,295.12857142857143,568.8,293.22232142857143,292.12857142857143,673.1,180.22232142857143,177.12857142857143,780.7,59.222321428571426,60.128571428571426,897,28.222321428571426,30.128571428571426,1064.9,30.222321428571426,34.128571428571426,1206.3,30.222321428571426,34.128571428571426,1309.8,30.222321428571426,34.128571428571426,1422.1,30.222321428571426,34.128571428571426,1525.4,30.222321428571426,34.128571428571426,1705.6,30.222321428571426,34.128571428571426,1820.8,30.222321428571426,34.128571428571426,1921.7,30.222321428571426,34.128571428571426,2024.8,30.222321428571426,34.128571428571426,2124.9,30.222321428571426,34.128571428571426,2227,30.222321428571426,34.128571428571426,2337.6,30.222321428571426,34.128571428571426,2497.2,30.222321428571426,34.128571428571426,2604.4,30.222321428571426,34.128571428571426,2710.6,30.222321428571426,34.128571428571426,2858.9,30.222321428571426,34.128571428571426,2959.9,30.222321428571426,34.128571428571426,3072.6,30.222321428571426,34.128571428571426,3216.3,30.222321428571426,34.128571428571426,3356.4,30.222321428571426,34.128571428571426,3467.5,30.222321428571426,34.128571428571426,3574.8,30.222321428571426,34.128571428571426,3736.8,30.222321428571426,34.128571428571426,3838.4,30.222321428571426,34.128571428571426,3938.5,30.222321428571426,34.128571428571426,4066.4,30.222321428571426,34.128571428571426,4179.1,30.222321428571426,34.128571428571426,4304.7,30.222321428571426,34.128571428571426,4460.1,30.222321428571426,34.128571428571426,4603.5,30.222321428571426,34.128571428571426,4742.3,30.222321428571426,34.128571428571426,4842.6,30.222321428571426,34.128571428571426,4974.3]","[1504.4,1504.4,1000,0,504.4,""smooth"",""up"",""up"",""good_move"",5032.9,3527.5,2952,1505.5,575.5,""smooth"",""up"",""up"",""good_move"",8274.4,3240.5,2681.4,5033.9,559.1,""oops"",""left"",""left"",""good_move"",11913.7,3637.8,3080.9,8275.9,556.9,""oops"",""up"",""right"",""bad_move"",14761.3,2846.4,2389.6,11914.9,456.8,""oops"",""left"",""down"",""bad_move"",18016,3253.4,2753.7,14762.6,499.7,""oops"",""up"",""up"",""good_move"",21047.6,3030.7,2666.6,18017,364,""while_blue"",""left"",""left"",""good_move"",24883.7,3835,3243.8,21048.7,591.2,""smooth"",""left"",""left"",""good_move"",27665,2778.7,2338.7,24886.3,440.1,""smooth"",""up"",""up"",""good_move"",31118.7,3444.7,2540.3,27674,904.4,""oops"",""left"",""down"",""bad_move"",33865.2,2745.6,2224.5,31119.6,521.1,""smooth"",""up"",""up"",""good_move"",36476.2,2610.1,1905.5,33866.2,704.6,""oops"",""left"",""down"",""bad_move"",39446,2968.8,2520.7,36477.2,448.1,""oops"",""up"",""down"",""bad_move"",42528,3081,2609.6,39447,471.4,""smooth"",""up"",""up"",""good_move"",45671.1,3142.2,2454.8,42528.9,687.4,""oops"",""left"",""up"",""good_move"",48253.1,2581.1,2091.3,45672.1,489.8,""smooth"",""left"",""left"",""good_move""]"
"9616","","<div style=""width:500px;"">
  <p>What determined the result of this run?</p>
  </div>","57","html-slider-response","39","834738","0.0-7.0-1.5","125","1","2025-08-06 08:50:09","36c45c0696341be0efffe67d72a12abb","105.245.115.102","Mozilla/5.0 (Windows NT 10.0; Win64; x64) AppleWebKit/537.36 (KHTML, like Gecko) Chrome/138.0.0.0 Safari/537.36","WebKit","Chrome","138.0.0.0","Windows","10.0","https://app.prolific.com/","en-US,en;q=0.9","67b9e921b4b5ee4019522dbb","6877649eabb845cf142cd221","6893173507a7746b2b988fe9","1","67b9e921b4b5ee4019522dbb","1","2025-08-06T09:03:33.520Z","","","","AttribQ","","","","","","","","","","","50","","","","","","","","","","","","","","","","","","","","","","","","","","",""
"7467","","<div style=""width:500px;"">
  <p>How much control did you have over the ball?</p>
  </div>","44","html-slider-response","40","842210","0.0-7.0-2.5","125","1","2025-08-06 08:50:09","36c45c0696341be0efffe67d72a12abb","105.245.115.102","Mozilla/5.0 (Windows NT 10.0; Win64; x64) AppleWebKit/537.36 (KHTML, like Gecko) Chrome/138.0.0.0 Safari/537.36","WebKit","Chrome","138.0.0.0","Windows","10.0","https://app.prolific.com/","en-US,en;q=0.9","67b9e921b4b5ee4019522dbb","6877649eabb845cf142cd221","6893173507a7746b2b988fe9","1","67b9e921b4b5ee4019522dbb","1","2025-08-06T09:03:40.991Z","","","","ControlQ","","","","","","","","","","","50","","","","","","","","","","","","","","","","","","","","","","","","","","",""
"5834","","<div style=""width:500px;"">
  <p>How would you describe your current emotional state?</p>
  </div>","6","html-slider-response","41","848047","0.0-7.0-3.5","125","1","2025-08-06 08:50:09","36c45c0696341be0efffe67d72a12abb","105.245.115.102","Mozilla/5.0 (Windows NT 10.0; Win64; x64) AppleWebKit/537.36 (KHTML, like Gecko) Chrome/138.0.0.0 Safari/537.36","WebKit","Chrome","138.0.0.0","Windows","10.0","https://app.prolific.com/","en-US,en;q=0.9","67b9e921b4b5ee4019522dbb","6877649eabb845cf142cd221","6893173507a7746b2b988fe9","1","67b9e921b4b5ee4019522dbb","1","2025-08-06T09:03:46.828Z","","","","StressQ","","","","","","","","","","","50","","","","","","","","","","","","","","","","","","","","","","","","","","",""
"5979","","<div style=""width:500px;"">
  <p>What best describes how you currently feel?</p>
  </div>","99","html-slider-response","42","854029","0.0-7.0-4.5","125","1","2025-08-06 08:50:09","36c45c0696341be0efffe67d72a12abb","105.245.115.102","Mozilla/5.0 (Windows NT 10.0; Win64; x64) AppleWebKit/537.36 (KHTML, like Gecko) Chrome/138.0.0.0 Safari/537.36","WebKit","Chrome","138.0.0.0","Windows","10.0","https://app.prolific.com/","en-US,en;q=0.9","67b9e921b4b5ee4019522dbb","6877649eabb845cf142cd221","6893173507a7746b2b988fe9","1","67b9e921b4b5ee4019522dbb","1","2025-08-06T09:03:52.810Z","","","","MotivationQ","","","","","","","","","","","50","","","","","","","","","","","","","","","","","","","","","","","","","","",""
"","","","","ctl-task-cpt","43","905792","0.0-7.0-0.6","125","1","2025-08-06 08:50:09","36c45c0696341be0efffe67d72a12abb","105.245.115.102","Mozilla/5.0 (Windows NT 10.0; Win64; x64) AppleWebKit/537.36 (KHTML, like Gecko) Chrome/138.0.0.0 Safari/537.36","WebKit","Chrome","138.0.0.0","Windows","10.0","https://app.prolific.com/","en-US,en;q=0.9","67b9e921b4b5ee4019522dbb","6877649eabb845cf142cd221","6893173507a7746b2b988fe9","1","67b9e921b4b5ee4019522dbb","1","2025-08-06T09:04:44.573Z","","","","","","","","","","","","","","","","win-only","0","g1:NW,g2:SE","0.4","7","0","857441.1","20695.6","25716.3","48678.3","1","4","4","6","2","4","4","39","35","0.29545454545454547","1556.5","3000","2110","[""down"",""right""]","{""num_key_presses"":6,""num_perfect"":3,""num_errors"":0,""num_randdir"":3,""num_randdir_good_moves"":3,""num_whilered"":0,""num_whileblue"":0,""num_blue"":2,""num_good_moves"":6}","[294.22232142857143,296.12857142857143,0.9,294.22232142857143,296.12857142857143,174.1,294.22232142857143,296.12857142857143,293.6,294.22232142857143,296.12857142857143,459.7,294.22232142857143,296.12857142857143,627.8,348.22232142857143,358.12857142857143,796.8,484.22232142857143,476.12857142857143,929.1,511.22232142857143,524.1285714285714,1033,518.2223214285714,538.1285714285714,1136.8,525.2223214285714,545.1285714285714,1269.5,525.2223214285714,545.1285714285714,1440.7,525.2223214285714,545.1285714285714,1566.8,525.2223214285714,545.1285714285714,1707.4,525.2223214285714,545.1285714285714,1828.4,525.2223214285714,545.1285714285714,1980.6,525.2223214285714,545.1285714285714,2081.2,525.2223214285714,545.1285714285714,2181.8,525.2223214285714,545.1285714285714,2324.2,525.2223214285714,545.1285714285714,2495.2,525.2223214285714,545.1285714285714,2597.8,525.2223214285714,545.1285714285714,2728.7,525.2223214285714,545.1285714285714,2831.5,525.2223214285714,545.1285714285714,2932.7,525.2223214285714,545.1285714285714,3098.2,525.2223214285714,545.1285714285714,3203.4,525.2223214285714,545.1285714285714,3309.8,525.2223214285714,545.1285714285714,3483.7,525.2223214285714,545.1285714285714,3590.3,525.2223214285714,545.1285714285714,3691.4,525.2223214285714,545.1285714285714,3797.5,525.2223214285714,545.1285714285714,3947.5,525.2223214285714,545.1285714285714,4094.5,525.2223214285714,545.1285714285714,4204,525.2223214285714,545.1285714285714,4332.3,525.2223214285714,545.1285714285714,4491.7,525.2223214285714,545.1285714285714,4618.3,525.2223214285714,545.1285714285714,4718.3,525.2223214285714,545.1285714285714,4856.7,525.2223214285714,545.1285714285714,4973.3]","[1542.4,1542.4,1000,0,542.4,""smooth"",""down"",""down"",""good_move"",4251,2706.1,2181.5,1544.9,524.6,""oops"",""down"",""down"",""good_move"",10428.4,6176.5,2699,7173.6,555.8,""smooth"",""right"",""right"",""good_move"",13810.9,3381.6,2814.8,10429.3,566.8,""oops"",""down"",""right"",""good_move"",19917.1,6100.2,2416.6,16983.1,517.4,""oops"",""down"",""down"",""good_move"",22740.7,2822.9,2413.1,19917.8,409.8,""smooth"",""right"",""right"",""good_move""]"
"5749","","<div style=""width:500px;"">
  <p>What determined the result of this run?</p>
  </div>","100","html-slider-response","44","911544","0.0-7.0-1.6","125","1","2025-08-06 08:50:09","36c45c0696341be0efffe67d72a12abb","105.245.115.102","Mozilla/5.0 (Windows NT 10.0; Win64; x64) AppleWebKit/537.36 (KHTML, like Gecko) Chrome/138.0.0.0 Safari/537.36","WebKit","Chrome","138.0.0.0","Windows","10.0","https://app.prolific.com/","en-US,en;q=0.9","67b9e921b4b5ee4019522dbb","6877649eabb845cf142cd221","6893173507a7746b2b988fe9","1","67b9e921b4b5ee4019522dbb","1","2025-08-06T09:04:50.325Z","","","","AttribQ","","","","","","","","","","","50","","","","","","","","","","","","","","","","","","","","","","","","","","",""
"5426","","<div style=""width:500px;"">
  <p>How much control did you have over the ball?</p>
  </div>","100","html-slider-response","45","916973","0.0-7.0-2.6","125","1","2025-08-06 08:50:09","36c45c0696341be0efffe67d72a12abb","105.245.115.102","Mozilla/5.0 (Windows NT 10.0; Win64; x64) AppleWebKit/537.36 (KHTML, like Gecko) Chrome/138.0.0.0 Safari/537.36","WebKit","Chrome","138.0.0.0","Windows","10.0","https://app.prolific.com/","en-US,en;q=0.9","67b9e921b4b5ee4019522dbb","6877649eabb845cf142cd221","6893173507a7746b2b988fe9","1","67b9e921b4b5ee4019522dbb","1","2025-08-06T09:04:55.755Z","","","","ControlQ","","","","","","","","","","","50","","","","","","","","","","","","","","","","","","","","","","","","","","",""
"5351","","<div style=""width:500px;"">
  <p>How would you describe your current emotional state?</p>
  </div>","0","html-slider-response","46","922327","0.0-7.0-3.6","125","1","2025-08-06 08:50:09","36c45c0696341be0efffe67d72a12abb","105.245.115.102","Mozilla/5.0 (Windows NT 10.0; Win64; x64) AppleWebKit/537.36 (KHTML, like Gecko) Chrome/138.0.0.0 Safari/537.36","WebKit","Chrome","138.0.0.0","Windows","10.0","https://app.prolific.com/","en-US,en;q=0.9","67b9e921b4b5ee4019522dbb","6877649eabb845cf142cd221","6893173507a7746b2b988fe9","1","67b9e921b4b5ee4019522dbb","1","2025-08-06T09:05:01.108Z","","","","StressQ","","","","","","","","","","","50","","","","","","","","","","","","","","","","","","","","","","","","","","",""
"5818","","<div style=""width:500px;"">
  <p>What best describes how you currently feel?</p>
  </div>","100","html-slider-response","47","928150","0.0-7.0-4.6","125","1","2025-08-06 08:50:09","36c45c0696341be0efffe67d72a12abb","105.245.115.102","Mozilla/5.0 (Windows NT 10.0; Win64; x64) AppleWebKit/537.36 (KHTML, like Gecko) Chrome/138.0.0.0 Safari/537.36","WebKit","Chrome","138.0.0.0","Windows","10.0","https://app.prolific.com/","en-US,en;q=0.9","67b9e921b4b5ee4019522dbb","6877649eabb845cf142cd221","6893173507a7746b2b988fe9","1","67b9e921b4b5ee4019522dbb","1","2025-08-06T09:05:06.931Z","","","","MotivationQ","","","","","","","","","","","50","","","","","","","","","","","","","","","","","","","","","","","","","","",""
"","","","","ctl-task-cpt","48","1031803","0.0-7.0-0.7","125","1","2025-08-06 08:50:09","36c45c0696341be0efffe67d72a12abb","105.245.115.102","Mozilla/5.0 (Windows NT 10.0; Win64; x64) AppleWebKit/537.36 (KHTML, like Gecko) Chrome/138.0.0.0 Safari/537.36","WebKit","Chrome","138.0.0.0","Windows","10.0","https://app.prolific.com/","en-US,en;q=0.9","67b9e921b4b5ee4019522dbb","6877649eabb845cf142cd221","6893173507a7746b2b988fe9","1","67b9e921b4b5ee4019522dbb","1","2025-08-06T09:06:50.584Z","","","","","","","","","","","","","","","","win-only","1","g1:NE,g2:SW","0.3","8","0","931562.9","20605","25679","100639.6","1","4","8","6","2","-8","-8","31","39","0.23484848484848486","1716.5","3000","-785","[""down"",""left""]","{""num_key_presses"":18,""num_perfect"":6,""num_errors"":0,""num_randdir"":12,""num_randdir_good_moves"":3,""num_whilered"":0,""num_whileblue"":0,""num_blue"":3,""num_good_moves"":9}","[294.22232142857143,293.12857142857143,0.9,294.22232142857143,293.12857142857143,115.8,294.22232142857143,293.12857142857143,242.5,294.22232142857143,293.12857142857143,349,294.22232142857143,293.12857142857143,450.2,294.22232142857143,293.12857142857143,651,199.22232142857143,334.12857142857143,800.9,121.22232142857143,398.12857142857143,902.1,63.222321428571426,489.12857142857143,1051,50.222321428571426,515.1285714285714,1153.2,40.222321428571426,538.1285714285714,1322.2,44.222321428571426,534.1285714285714,1513.1,44.222321428571426,534.1285714285714,1618.3,44.222321428571426,534.1285714285714,1722.7,44.222321428571426,534.1285714285714,1827.7,44.222321428571426,534.1285714285714,1941.3,44.222321428571426,534.1285714285714,2186.6,44.222321428571426,534.1285714285714,2346.6,44.222321428571426,534.1285714285714,2448.1,44.222321428571426,534.1285714285714,2551,44.222321428571426,534.1285714285714,2698.9,44.222321428571426,534.1285714285714,2799.2,44.222321428571426,534.1285714285714,2915.9,44.222321428571426,534.1285714285714,3024.1,44.222321428571426,534.1285714285714,3162.3,44.222321428571426,534.1285714285714,3279.4,44.222321428571426,534.1285714285714,3384.2,44.222321428571426,534.1285714285714,3558.8,44.222321428571426,534.1285714285714,3659,44.222321428571426,534.1285714285714,3821.3,44.222321428571426,534.1285714285714,3922.4,44.222321428571426,534.1285714285714,4077.3,44.222321428571426,534.1285714285714,4184.3,44.222321428571426,534.1285714285714,4360.3,44.222321428571426,534.1285714285714,4475.9,44.222321428571426,534.1285714285714,4578.5,44.222321428571426,534.1285714285714,4699.5,44.222321428571426,534.1285714285714,4833.3,44.222321428571426,534.1285714285714,4939.9]","[2198.3,2198.3,1000,0,1198.4,""smooth"",""down"",""down"",""good_move"",5603.2,3403.6,2811.5,2199.6,592.1,""smooth"",""left"",""left"",""good_move"",9421.1,3816.8,2917.6,5604.3,899.2,""oops"",""down"",""up"",""bad_move"",13623.2,4200.8,3401.8,9422.4,799,""smooth"",""down"",""down"",""good_move"",16444.3,2820.2,2346.8,13624.1,473.4,""oops"",""down"",""right"",""bad_move"",19044.9,2599.3,2174.7,16445.6,424.6,""oops"",""left"",""down"",""good_move"",22402.1,3356,2809.6,19046.1,546.4,""oops"",""left"",""right"",""bad_move"",28977.4,6574,2876.4,25596.4,504.6,""oops"",""down"",""right"",""bad_move"",31998.3,3020.2,2440.2,28978.1,580,""oops"",""left"",""down"",""good_move"",35035.4,3036.3,2521.9,31999.3,514.3,""oops"",""left"",""up"",""bad_move"",38695.9,3659.3,1983.3,35036.6,1676,""smooth"",""left"",""left"",""good_move"",49675.9,10978.6,2552.7,46453.1,670.1,""smooth"",""left"",""left"",""good_move"",53751.8,4075.3,1826.7,49676.6,2248.5,""oops"",""left"",""left"",""good_move"",57299.8,3547,2108.2,53752.9,1438.8,""oops"",""down"",""right"",""bad_move"",60567,3265.3,2533.1,57301.7,732.2,""oops"",""left"",""right"",""bad_move"",63617.1,3049.2,2518.4,60568,530.8,""oops"",""left"",""up"",""bad_move"",67463.7,3845.3,2962.5,63618.4,882.8,""smooth"",""down"",""down"",""good_move"",71648.8,4183.9,3380.7,67464.9,803.2,""oops"",""left"",""right"",""bad_move""]"
"6879","","<div style=""width:500px;"">
  <p>What determined the result of this run?</p>
  </div>","100","html-slider-response","49","1038685","0.0-7.0-1.7","125","1","2025-08-06 08:50:09","36c45c0696341be0efffe67d72a12abb","105.245.115.102","Mozilla/5.0 (Windows NT 10.0; Win64; x64) AppleWebKit/537.36 (KHTML, like Gecko) Chrome/138.0.0.0 Safari/537.36","WebKit","Chrome","138.0.0.0","Windows","10.0","https://app.prolific.com/","en-US,en;q=0.9","67b9e921b4b5ee4019522dbb","6877649eabb845cf142cd221","6893173507a7746b2b988fe9","1","67b9e921b4b5ee4019522dbb","1","2025-08-06T09:06:57.466Z","","","","AttribQ","","","","","","","","","","","50","","","","","","","","","","","","","","","","","","","","","","","","","","",""
"9404","","<div style=""width:500px;"">
  <p>How much control did you have over the ball?</p>
  </div>","0","html-slider-response","50","1048092","0.0-7.0-2.7","125","1","2025-08-06 08:50:09","36c45c0696341be0efffe67d72a12abb","105.245.115.102","Mozilla/5.0 (Windows NT 10.0; Win64; x64) AppleWebKit/537.36 (KHTML, like Gecko) Chrome/138.0.0.0 Safari/537.36","WebKit","Chrome","138.0.0.0","Windows","10.0","https://app.prolific.com/","en-US,en;q=0.9","67b9e921b4b5ee4019522dbb","6877649eabb845cf142cd221","6893173507a7746b2b988fe9","1","67b9e921b4b5ee4019522dbb","1","2025-08-06T09:07:06.874Z","","","","ControlQ","","","","","","","","","","","50","","","","","","","","","","","","","","","","","","","","","","","","","","",""
"7161","","<div style=""width:500px;"">
  <p>How would you describe your current emotional state?</p>
  </div>","63","html-slider-response","51","1055257","0.0-7.0-3.7","125","1","2025-08-06 08:50:09","36c45c0696341be0efffe67d72a12abb","105.245.115.102","Mozilla/5.0 (Windows NT 10.0; Win64; x64) AppleWebKit/537.36 (KHTML, like Gecko) Chrome/138.0.0.0 Safari/537.36","WebKit","Chrome","138.0.0.0","Windows","10.0","https://app.prolific.com/","en-US,en;q=0.9","67b9e921b4b5ee4019522dbb","6877649eabb845cf142cd221","6893173507a7746b2b988fe9","1","67b9e921b4b5ee4019522dbb","1","2025-08-06T09:07:14.038Z","","","","StressQ","","","","","","","","","","","50","","","","","","","","","","","","","","","","","","","","","","","","","","",""
"7434","","<div style=""width:500px;"">
  <p>What best describes how you currently feel?</p>
  </div>","60","html-slider-response","52","1062694","0.0-7.0-4.7","125","1","2025-08-06 08:50:09","36c45c0696341be0efffe67d72a12abb","105.245.115.102","Mozilla/5.0 (Windows NT 10.0; Win64; x64) AppleWebKit/537.36 (KHTML, like Gecko) Chrome/138.0.0.0 Safari/537.36","WebKit","Chrome","138.0.0.0","Windows","10.0","https://app.prolific.com/","en-US,en;q=0.9","67b9e921b4b5ee4019522dbb","6877649eabb845cf142cd221","6893173507a7746b2b988fe9","1","67b9e921b4b5ee4019522dbb","1","2025-08-06T09:07:21.475Z","","","","MotivationQ","","","","","","","","","","","50","","","","","","","","","","","","","","","","","","","","","","","","","","",""
"","","","","ctl-task-cpt","53","1315571","0.0-7.0-0.8","125","1","2025-08-06 08:50:09","36c45c0696341be0efffe67d72a12abb","105.245.115.102","Mozilla/5.0 (Windows NT 10.0; Win64; x64) AppleWebKit/537.36 (KHTML, like Gecko) Chrome/138.0.0.0 Safari/537.36","WebKit","Chrome","138.0.0.0","Windows","10.0","https://app.prolific.com/","en-US,en;q=0.9","67b9e921b4b5ee4019522dbb","6877649eabb845cf142cd221","6893173507a7746b2b988fe9","1","67b9e921b4b5ee4019522dbb","1","2025-08-06T09:11:34.352Z","","","","","","","","","","","","","","","","win-only","2","g1:SE,g2:NW","0.4","9","0","1066106.8","22817.3","27956.3","249796.5","1","4","4","6","2","4","4","35","31","0.26515151515151514","1943.6","3000","200","[""left"",""up""]","{""num_key_presses"":36,""num_perfect"":14,""num_errors"":0,""num_randdir"":22,""num_randdir_good_moves"":7,""num_whilered"":0,""num_whileblue"":0,""num_blue"":6,""num_good_moves"":21}","[291.22232142857143,293.12857142857143,1.3,291.22232142857143,293.12857142857143,253.7,291.22232142857143,293.12857142857143,361.9,291.22232142857143,293.12857142857143,479.5,291.22232142857143,293.12857142857143,747,291.22232142857143,293.12857142857143,857.9,259.22232142857143,231.12857142857143,979.2,101.22232142857143,60.128571428571426,1246.2,84.22232142857143,56.128571428571426,1355.1,70.22232142857143,55.128571428571426,1466.5,58.222321428571426,54.128571428571426,1588.7,54.222321428571426,55.128571428571426,1697.1,54.222321428571426,55.128571428571426,1924.4,54.222321428571426,55.128571428571426,2030.8,54.222321428571426,55.128571428571426,2133,54.222321428571426,55.128571428571426,2367.8,54.222321428571426,55.128571428571426,2469.2,54.222321428571426,55.128571428571426,2577.5,54.222321428571426,55.128571428571426,2782.1,54.222321428571426,55.128571428571426,2896.1,54.222321428571426,55.128571428571426,3130.1,54.222321428571426,55.128571428571426,3241.3,54.222321428571426,55.128571428571426,3353,54.222321428571426,55.128571428571426,3516.3,54.222321428571426,55.128571428571426,3619.2,54.222321428571426,55.128571428571426,3720.8,54.222321428571426,55.128571428571426,3908.2,54.222321428571426,55.128571428571426,4008.6,54.222321428571426,55.128571428571426,4120.2,54.222321428571426,55.128571428571426,4293.6,54.222321428571426,55.128571428571426,4405.8,54.222321428571426,55.128571428571426,4670.2,54.222321428571426,55.128571428571426,4786.2,54.222321428571426,55.128571428571426,4897.2]","[1489.4,1489.4,1000,0,489.4,""oops"",""up"",""right"",""bad_move"",4844.9,3354.3,2745.4,1490.6,608.9,""oops"",""up"",""down"",""bad_move"",7646.4,2800.3,2092.8,4846.1,707.5,""oops"",""up"",""down"",""bad_move"",14564.3,6916.3,2747.8,11114.3,702.3,""oops"",""left"",""left"",""good_move"",19074.6,4509.5,3174.8,14565.2,1334.7,""smooth"",""up"",""up"",""good_move"",23544.9,4469.1,3074.1,19075.9,1395,""oops"",""up"",""right"",""bad_move"",27345.1,3799,3002.8,23546.1,796.3,""smooth"",""up"",""up"",""good_move"",32456.4,5110.5,3024.6,27345.9,2085.9,""oops"",""up"",""left"",""good_move"",41450.3,8993,2417.9,38309.9,722.5,""smooth"",""up"",""up"",""good_move"",47226.7,5775.7,2318.3,41451,3457.4,""smooth"",""left"",""left"",""good_move"",60287.7,13060.3,2186.9,57294,806.8,""smooth"",""left"",""left"",""good_move"",64813.7,4525.5,2362.8,60288.2,2162.7,""smooth"",""up"",""up"",""good_move"",69905.8,5091,2582.4,64814.8,2508.6,""oops"",""up"",""up"",""good_move"",75321.9,5414.8,2340.2,69907.1,3074.6,""oops"",""left"",""right"",""bad_move"",78772.2,3448.1,2854.5,75324.1,593.6,""oops"",""left"",""down"",""bad_move"",82465.6,3691.5,3026.1,78774.1,665.4,""smooth"",""left"",""left"",""good_move"",88800.5,6333.9,2185.1,82466.6,4148.8,""oops"",""up"",""right"",""bad_move"",91832.7,3031.3,2335.3,88801.5,696,""smooth"",""left"",""left"",""good_move"",98062.3,6228.3,1834.6,91834,4393.7,""oops"",""left"",""right"",""bad_move"",101937.2,3874.2,3135.2,98063.1,739,""oops"",""left"",""right"",""bad_move"",104664.6,2726.5,1999.9,101938.2,726.6,""smooth"",""left"",""left"",""good_move"",110884.8,6219,2528.8,104665.9,3690.1,""smooth"",""up"",""up"",""good_move"",124280.7,13395.3,3240.4,120539.6,500.7,""smooth"",""left"",""left"",""good_move"",134169.2,9887.7,2034.9,124281.5,7852.8,""oops"",""left"",""right"",""bad_move"",137295.9,3125.9,2320.1,134170,805.8,""smooth"",""left"",""left"",""good_move"",147606,10308.9,2825.8,137297.1,7483.1,""oops"",""left"",""right"",""bad_move"",150335.2,2728.6,2145.8,147606.7,582.7,""oops"",""left"",""right"",""bad_move"",153596.5,3260.3,2585,150336.2,675.3,""oops"",""left"",""left"",""good_move"",164122.2,10524.6,1980.8,153597.6,8543.8,""oops"",""left"",""down"",""bad_move"",167645.6,3522.7,2781.6,164122.9,741.1,""oops"",""up"",""down"",""bad_move"",170634.4,2987.7,2434.2,167646.7,553.5,""oops"",""up"",""up"",""good_move"",181732.2,11096.8,2414.7,170635.5,8682,""oops"",""left"",""down"",""bad_move"",185321.8,3588.9,2995.8,181733,593,""oops"",""up"",""up"",""good_move"",199452.2,14129.2,2198.7,196723.3,530.2,""smooth"",""left"",""left"",""good_move"",210427.4,10974.5,2607.9,199453,8366.5,""oops"",""up"",""up"",""good_move"",221429.1,11000,2424.3,210429.1,8575.7,""smooth"",""left"",""left"",""good_move""]"
"7523","","<div style=""width:500px;"">
  <p>What determined the result of this run?</p>
  </div>","0","html-slider-response","54","1323102","0.0-7.0-1.8","125","1","2025-08-06 08:50:09","36c45c0696341be0efffe67d72a12abb","105.245.115.102","Mozilla/5.0 (Windows NT 10.0; Win64; x64) AppleWebKit/537.36 (KHTML, like Gecko) Chrome/138.0.0.0 Safari/537.36","WebKit","Chrome","138.0.0.0","Windows","10.0","https://app.prolific.com/","en-US,en;q=0.9","67b9e921b4b5ee4019522dbb","6877649eabb845cf142cd221","6893173507a7746b2b988fe9","1","67b9e921b4b5ee4019522dbb","1","2025-08-06T09:11:41.883Z","","","","AttribQ","","","","","","","","","","","50","","","","","","","","","","","","","","","","","","","","","","","","","","",""
"4988","","<div style=""width:500px;"">
  <p>How much control did you have over the ball?</p>
  </div>","7","html-slider-response","55","1328098","0.0-7.0-2.8","125","1","2025-08-06 08:50:09","36c45c0696341be0efffe67d72a12abb","105.245.115.102","Mozilla/5.0 (Windows NT 10.0; Win64; x64) AppleWebKit/537.36 (KHTML, like Gecko) Chrome/138.0.0.0 Safari/537.36","WebKit","Chrome","138.0.0.0","Windows","10.0","https://app.prolific.com/","en-US,en;q=0.9","67b9e921b4b5ee4019522dbb","6877649eabb845cf142cd221","6893173507a7746b2b988fe9","1","67b9e921b4b5ee4019522dbb","1","2025-08-06T09:11:46.879Z","","","","ControlQ","","","","","","","","","","","50","","","","","","","","","","","","","","","","","","","","","","","","","","",""
"4682","","<div style=""width:500px;"">
  <p>How would you describe your current emotional state?</p>
  </div>","27","html-slider-response","56","1332792","0.0-7.0-3.8","125","1","2025-08-06 08:50:09","36c45c0696341be0efffe67d72a12abb","105.245.115.102","Mozilla/5.0 (Windows NT 10.0; Win64; x64) AppleWebKit/537.36 (KHTML, like Gecko) Chrome/138.0.0.0 Safari/537.36","WebKit","Chrome","138.0.0.0","Windows","10.0","https://app.prolific.com/","en-US,en;q=0.9","67b9e921b4b5ee4019522dbb","6877649eabb845cf142cd221","6893173507a7746b2b988fe9","1","67b9e921b4b5ee4019522dbb","1","2025-08-06T09:11:51.573Z","","","","StressQ","","","","","","","","","","","50","","","","","","","","","","","","","","","","","","","","","","","","","","",""
"15171","","<div style=""width:500px;"">
  <p>What best describes how you currently feel?</p>
  </div>","100","html-slider-response","57","1347976","0.0-7.0-4.8","125","1","2025-08-06 08:50:09","36c45c0696341be0efffe67d72a12abb","105.245.115.102","Mozilla/5.0 (Windows NT 10.0; Win64; x64) AppleWebKit/537.36 (KHTML, like Gecko) Chrome/138.0.0.0 Safari/537.36","WebKit","Chrome","138.0.0.0","Windows","10.0","https://app.prolific.com/","en-US,en;q=0.9","67b9e921b4b5ee4019522dbb","6877649eabb845cf142cd221","6893173507a7746b2b988fe9","1","67b9e921b4b5ee4019522dbb","1","2025-08-06T09:12:06.757Z","","","","MotivationQ","","","","","","","","","","","50","","","","","","","","","","","","","","","","","","","","","","","","","","",""
"","","","","ctl-task-cpt","58","1447226","0.0-7.0-0.9","125","1","2025-08-06 08:50:09","36c45c0696341be0efffe67d72a12abb","105.245.115.102","Mozilla/5.0 (Windows NT 10.0; Win64; x64) AppleWebKit/537.36 (KHTML, like Gecko) Chrome/138.0.0.0 Safari/537.36","WebKit","Chrome","138.0.0.0","Windows","10.0","https://app.prolific.com/","en-US,en;q=0.9","67b9e921b4b5ee4019522dbb","6877649eabb845cf142cd221","6893173507a7746b2b988fe9","1","67b9e921b4b5ee4019522dbb","1","2025-08-06T09:13:46.007Z","","","","","","","","","","","","","","","","win-only","0","g1:NW,g2:SE","0.5","10","0","1351397.3","5124","10191.8","96138.7","1","4","8","6","2","8","8","43","35","0.32575757575757575","1818.5","3000","1805","[""down"",""right""]","{""num_key_presses"":13,""num_perfect"":7,""num_errors"":0,""num_randdir"":6,""num_randdir_good_moves"":3,""num_whilered"":0,""num_whileblue"":0,""num_blue"":2,""num_good_moves"":10}","[297.22232142857143,295.12857142857143,0.6,297.22232142857143,295.12857142857143,181.8,297.22232142857143,295.12857142857143,307.9,297.22232142857143,295.12857142857143,415.4,297.22232142857143,295.12857142857143,527.8,297.22232142857143,295.12857142857143,637.5,297.22232142857143,295.12857142857143,744.8,297.22232142857143,295.12857142857143,984.1,463.22232142857143,441.12857142857143,1117.8,497.22232142857143,495.12857142857143,1250.1,508.22232142857143,520.1285714285714,1378.5,517.2223214285714,529.1285714285714,1502.7,527.2223214285714,538.1285714285714,1620,529.2223214285714,541.1285714285714,1727.2,529.2223214285714,541.1285714285714,1843.2,529.2223214285714,541.1285714285714,1950.1,529.2223214285714,541.1285714285714,2061.2,529.2223214285714,541.1285714285714,2169.4,529.2223214285714,541.1285714285714,2276.6,529.2223214285714,541.1285714285714,2384.6,529.2223214285714,541.1285714285714,2492.7,529.2223214285714,541.1285714285714,2600.7,529.2223214285714,541.1285714285714,2707.9,529.2223214285714,541.1285714285714,2815.5,529.2223214285714,541.1285714285714,2922.9,529.2223214285714,541.1285714285714,3030.1,529.2223214285714,541.1285714285714,3140.4,529.2223214285714,541.1285714285714,3248.4,529.2223214285714,541.1285714285714,3357.6,529.2223214285714,541.1285714285714,3465.5,529.2223214285714,541.1285714285714,3572.6,529.2223214285714,541.1285714285714,3680.8,529.2223214285714,541.1285714285714,3787.9,529.2223214285714,541.1285714285714,3895.8,529.2223214285714,541.1285714285714,4003.3,529.2223214285714,541.1285714285714,4112.2,529.2223214285714,541.1285714285714,4219,529.2223214285714,541.1285714285714,4499,529.2223214285714,541.1285714285714,4655.8,529.2223214285714,541.1285714285714,4862.4]","[1652.9,1652.9,1000,0,652.9,""oops"",""down"",""right"",""good_move"",7987.3,6332.7,2432.3,4833.7,721.3,""smooth"",""down"",""down"",""good_move"",20442.5,12454.2,2858.7,7988.3,9595.5,""oops"",""down"",""left"",""bad_move"",40324.4,19881.2,2632.4,20443.3,17248.7,""smooth"",""down"",""down"",""good_move"",46203.5,5878.2,1592.9,43798.8,811.8,""smooth"",""right"",""right"",""good_move"",49746.1,3541.6,2158.4,46204.6,1383.2,""smooth"",""right"",""right"",""good_move"",52927.7,3179.7,2551.7,49748,628,""oops"",""right"",""up"",""bad_move"",68231.4,15302.4,3187.1,52929,12115.3,""oops"",""down"",""right"",""good_move"",71058,2826,2152,68232.1,673.9,""smooth"",""down"",""down"",""good_move"",74563.4,3504.4,3047.4,71059.1,456.9,""oops"",""down"",""up"",""bad_move"",79582.4,5017.8,2534.9,74564.6,2482.9,""smooth"",""down"",""down"",""good_move"",83094.3,3510.6,2909.3,79583.8,601.2,""smooth"",""down"",""down"",""good_move"",85861.7,2766.3,2218.9,83095.6,547.4,""oops"",""right"",""right"",""good_move""]"
"4827","","<div style=""width:500px;"">
  <p>What determined the result of this run?</p>
  </div>","100","html-slider-response","59","1452055","0.0-7.0-1.9","125","1","2025-08-06 08:50:09","36c45c0696341be0efffe67d72a12abb","105.245.115.102","Mozilla/5.0 (Windows NT 10.0; Win64; x64) AppleWebKit/537.36 (KHTML, like Gecko) Chrome/138.0.0.0 Safari/537.36","WebKit","Chrome","138.0.0.0","Windows","10.0","https://app.prolific.com/","en-US,en;q=0.9","67b9e921b4b5ee4019522dbb","6877649eabb845cf142cd221","6893173507a7746b2b988fe9","1","67b9e921b4b5ee4019522dbb","1","2025-08-06T09:13:50.836Z","","","","AttribQ","","","","","","","","","","","50","","","","","","","","","","","","","","","","","","","","","","","","","","",""
"7766","","<div style=""width:500px;"">
  <p>How much control did you have over the ball?</p>
  </div>","84","html-slider-response","60","1459826","0.0-7.0-2.9","125","1","2025-08-06 08:50:09","36c45c0696341be0efffe67d72a12abb","105.245.115.102","Mozilla/5.0 (Windows NT 10.0; Win64; x64) AppleWebKit/537.36 (KHTML, like Gecko) Chrome/138.0.0.0 Safari/537.36","WebKit","Chrome","138.0.0.0","Windows","10.0","https://app.prolific.com/","en-US,en;q=0.9","67b9e921b4b5ee4019522dbb","6877649eabb845cf142cd221","6893173507a7746b2b988fe9","1","67b9e921b4b5ee4019522dbb","1","2025-08-06T09:13:58.607Z","","","","ControlQ","","","","","","","","","","","50","","","","","","","","","","","","","","","","","","","","","","","","","","",""
"9014","","<div style=""width:500px;"">
  <p>How would you describe your current emotional state?</p>
  </div>","4","html-slider-response","61","1468845","0.0-7.0-3.9","125","1","2025-08-06 08:50:09","36c45c0696341be0efffe67d72a12abb","105.245.115.102","Mozilla/5.0 (Windows NT 10.0; Win64; x64) AppleWebKit/537.36 (KHTML, like Gecko) Chrome/138.0.0.0 Safari/537.36","WebKit","Chrome","138.0.0.0","Windows","10.0","https://app.prolific.com/","en-US,en;q=0.9","67b9e921b4b5ee4019522dbb","6877649eabb845cf142cd221","6893173507a7746b2b988fe9","1","67b9e921b4b5ee4019522dbb","1","2025-08-06T09:14:07.626Z","","","","StressQ","","","","","","","","","","","50","","","","","","","","","","","","","","","","","","","","","","","","","","",""
"4248","","<div style=""width:500px;"">
  <p>What best describes how you currently feel?</p>
  </div>","100","html-slider-response","62","1473099","0.0-7.0-4.9","125","1","2025-08-06 08:50:09","36c45c0696341be0efffe67d72a12abb","105.245.115.102","Mozilla/5.0 (Windows NT 10.0; Win64; x64) AppleWebKit/537.36 (KHTML, like Gecko) Chrome/138.0.0.0 Safari/537.36","WebKit","Chrome","138.0.0.0","Windows","10.0","https://app.prolific.com/","en-US,en;q=0.9","67b9e921b4b5ee4019522dbb","6877649eabb845cf142cd221","6893173507a7746b2b988fe9","1","67b9e921b4b5ee4019522dbb","1","2025-08-06T09:14:11.880Z","","","","MotivationQ","","","","","","","","","","","50","","","","","","","","","","","","","","","","","","","","","","","","","","",""
"","","","","ctl-task-cpt","63","1511589","0.0-7.0-0.10","125","1","2025-08-06 08:50:09","36c45c0696341be0efffe67d72a12abb","105.245.115.102","Mozilla/5.0 (Windows NT 10.0; Win64; x64) AppleWebKit/537.36 (KHTML, like Gecko) Chrome/138.0.0.0 Safari/537.36","WebKit","Chrome","138.0.0.0","Windows","10.0","https://app.prolific.com/","en-US,en;q=0.9","67b9e921b4b5ee4019522dbb","6877649eabb845cf142cd221","6893173507a7746b2b988fe9","1","67b9e921b4b5ee4019522dbb","1","2025-08-06T09:14:50.370Z","","","","","","","","","","","","","","","","win-only","3","g1:SW,g2:NE","0.6","11","0","1476513.7","10077.8","15110.2","35415.8","1","4","8","6","1","1","1","44","43","0.3333333333333333","2261.9","3000","2770","[""down"",""left""]","{""num_key_presses"":4,""num_perfect"":4,""num_errors"":0,""num_randdir"":0,""num_randdir_good_moves"":0,""num_whilered"":0,""num_whileblue"":0,""num_blue"":0,""num_good_moves"":4}","[295.22232142857143,296.12857142857143,7.9,295.22232142857143,296.12857142857143,135.8,295.22232142857143,296.12857142857143,266.4,295.22232142857143,296.12857142857143,388.1,295.22232142857143,296.12857142857143,517.7,295.22232142857143,296.12857142857143,651.7,295.22232142857143,296.12857142857143,779.7,296.22232142857143,296.12857142857143,912,264.22232142857143,320.12857142857143,1021.9,243.22232142857143,342.12857142857143,1153.2,243.22232142857143,342.12857142857143,1276.4,206.22232142857143,349.12857142857143,1376.4,111.22232142857143,396.12857142857143,1477.6,33.222321428571426,455.12857142857143,1622.1,28.222321428571426,480.12857142857143,1723.8,41.222321428571426,504.12857142857143,1869.3,41.222321428571426,515.1285714285714,1973.3,38.222321428571426,527.1285714285714,2078.5,38.222321428571426,527.1285714285714,2203,38.222321428571426,527.1285714285714,2341,38.222321428571426,527.1285714285714,2466.6,38.222321428571426,527.1285714285714,2598.7,38.222321428571426,527.1285714285714,2724.1,38.222321428571426,527.1285714285714,2845.9,38.222321428571426,527.1285714285714,2971.8,38.222321428571426,527.1285714285714,3072.7,38.222321428571426,527.1285714285714,3204.3,38.222321428571426,527.1285714285714,3334.6,38.222321428571426,527.1285714285714,3459.9,38.222321428571426,527.1285714285714,3584.9,38.222321428571426,527.1285714285714,3711.5,38.222321428571426,527.1285714285714,3837.7,38.222321428571426,527.1285714285714,3963.6,38.222321428571426,527.1285714285714,4099.2,38.222321428571426,527.1285714285714,4228.4,38.222321428571426,527.1285714285714,4356.9,38.222321428571426,527.1285714285714,4481.8,38.222321428571426,527.1285714285714,4608.6,38.222321428571426,527.1285714285714,4730.3,38.222321428571426,527.1285714285714,4858,38.222321428571426,527.1285714285714,4986]","[1649.9,1649.9,1000,0,649.9,""smooth"",""down"",""down"",""good_move"",4600.5,2949.3,2208.9,1651.2,740.4,""smooth"",""down"",""down"",""good_move"",7541.4,2939.9,2029.5,4601.5,910.4,""smooth"",""left"",""left"",""good_move"",19105.2,11562.8,2135.5,7542.4,9427.3,""smooth"",""left"",""left"",""good_move""]"
"5445","","<div style=""width:500px;"">
  <p>What determined the result of this run?</p>
  </div>","100","html-slider-response","64","1517042","0.0-7.0-1.10","125","1","2025-08-06 08:50:09","36c45c0696341be0efffe67d72a12abb","105.245.115.102","Mozilla/5.0 (Windows NT 10.0; Win64; x64) AppleWebKit/537.36 (KHTML, like Gecko) Chrome/138.0.0.0 Safari/537.36","WebKit","Chrome","138.0.0.0","Windows","10.0","https://app.prolific.com/","en-US,en;q=0.9","67b9e921b4b5ee4019522dbb","6877649eabb845cf142cd221","6893173507a7746b2b988fe9","1","67b9e921b4b5ee4019522dbb","1","2025-08-06T09:14:55.823Z","","","","AttribQ","","","","","","","","","","","50","","","","","","","","","","","","","","","","","","","","","","","","","","",""
"5811","","<div style=""width:500px;"">
  <p>How much control did you have over the ball?</p>
  </div>","100","html-slider-response","65","1522857","0.0-7.0-2.10","125","1","2025-08-06 08:50:09","36c45c0696341be0efffe67d72a12abb","105.245.115.102","Mozilla/5.0 (Windows NT 10.0; Win64; x64) AppleWebKit/537.36 (KHTML, like Gecko) Chrome/138.0.0.0 Safari/537.36","WebKit","Chrome","138.0.0.0","Windows","10.0","https://app.prolific.com/","en-US,en;q=0.9","67b9e921b4b5ee4019522dbb","6877649eabb845cf142cd221","6893173507a7746b2b988fe9","1","67b9e921b4b5ee4019522dbb","1","2025-08-06T09:15:01.638Z","","","","ControlQ","","","","","","","","","","","50","","","","","","","","","","","","","","","","","","","","","","","","","","",""
"3244","","<div style=""width:500px;"">
  <p>How would you describe your current emotional state?</p>
  </div>","1","html-slider-response","66","1526119","0.0-7.0-3.10","125","1","2025-08-06 08:50:09","36c45c0696341be0efffe67d72a12abb","105.245.115.102","Mozilla/5.0 (Windows NT 10.0; Win64; x64) AppleWebKit/537.36 (KHTML, like Gecko) Chrome/138.0.0.0 Safari/537.36","WebKit","Chrome","138.0.0.0","Windows","10.0","https://app.prolific.com/","en-US,en;q=0.9","67b9e921b4b5ee4019522dbb","6877649eabb845cf142cd221","6893173507a7746b2b988fe9","1","67b9e921b4b5ee4019522dbb","1","2025-08-06T09:15:04.901Z","","","","StressQ","","","","","","","","","","","50","","","","","","","","","","","","","","","","","","","","","","","","","","",""
"5396","","<div style=""width:500px;"">
  <p>What best describes how you currently feel?</p>
  </div>","100","html-slider-response","67","1531520","0.0-7.0-4.10","125","1","2025-08-06 08:50:09","36c45c0696341be0efffe67d72a12abb","105.245.115.102","Mozilla/5.0 (Windows NT 10.0; Win64; x64) AppleWebKit/537.36 (KHTML, like Gecko) Chrome/138.0.0.0 Safari/537.36","WebKit","Chrome","138.0.0.0","Windows","10.0","https://app.prolific.com/","en-US,en;q=0.9","67b9e921b4b5ee4019522dbb","6877649eabb845cf142cd221","6893173507a7746b2b988fe9","1","67b9e921b4b5ee4019522dbb","1","2025-08-06T09:15:10.301Z","","","","MotivationQ","","","","","","","","","","","50","","","","","","","","","","","","","","","","","","","","","","","","","","",""
"","","","","ctl-task-cpt","68","1624417","0.0-7.0-0.11","125","1","2025-08-06 08:50:09","36c45c0696341be0efffe67d72a12abb","105.245.115.102","Mozilla/5.0 (Windows NT 10.0; Win64; x64) AppleWebKit/537.36 (KHTML, like Gecko) Chrome/138.0.0.0 Safari/537.36","WebKit","Chrome","138.0.0.0","Windows","10.0","https://app.prolific.com/","en-US,en;q=0.9","67b9e921b4b5ee4019522dbb","6877649eabb845cf142cd221","6893173507a7746b2b988fe9","1","67b9e921b4b5ee4019522dbb","1","2025-08-06T09:16:43.198Z","","","","","","","","","","","","","","","","win-only","1","g1:NE,g2:SW","0.7","12","0","1534934.3","12039.9","17055.8","89810.9","1","4","4","6","2","4","4","48","44","0.36363636363636365","1749.9","3000","2390","[""down"",""left""]","{""num_key_presses"":11,""num_perfect"":8,""num_errors"":0,""num_randdir"":3,""num_randdir_good_moves"":1,""num_whilered"":0,""num_whileblue"":0,""num_blue"":0,""num_good_moves"":9}","[298.22232142857143,297.12857142857143,1,298.22232142857143,297.12857142857143,128.1,298.22232142857143,297.12857142857143,260.9,298.22232142857143,297.12857142857143,392,298.22232142857143,297.12857142857143,531.6,272.22232142857143,297.12857142857143,681.3,174.22232142857143,347.12857142857143,788.4,111.22232142857143,403.12857142857143,888.9,35.222321428571426,505.12857142857143,990.7,23.222321428571426,543.1285714285714,1097.9,33.222321428571426,548.1285714285714,1199.8,37.222321428571426,548.1285714285714,1343.2,37.222321428571426,548.1285714285714,1479.6,37.222321428571426,548.1285714285714,1608.6,37.222321428571426,548.1285714285714,1751.7,37.222321428571426,548.1285714285714,1887.7,37.222321428571426,548.1285714285714,2023,37.222321428571426,548.1285714285714,2156.5,37.222321428571426,548.1285714285714,2288.1,37.222321428571426,548.1285714285714,2422.7,37.222321428571426,548.1285714285714,2554.5,37.222321428571426,548.1285714285714,2689.1,37.222321428571426,548.1285714285714,2825.1,37.222321428571426,548.1285714285714,2959.2,37.222321428571426,548.1285714285714,3096,37.222321428571426,548.1285714285714,3230.3,37.222321428571426,548.1285714285714,3363.9,37.222321428571426,548.1285714285714,3495.2,37.222321428571426,548.1285714285714,3641.1,37.222321428571426,548.1285714285714,3769.1,37.222321428571426,548.1285714285714,3901.4,37.222321428571426,548.1285714285714,4035.3,37.222321428571426,548.1285714285714,4174.6,37.222321428571426,548.1285714285714,4309,37.222321428571426,548.1285714285714,4440,37.222321428571426,548.1285714285714,4573.7,37.222321428571426,548.1285714285714,4706.6,37.222321428571426,548.1285714285714,4840.3,37.222321428571426,548.1285714285714,4972]","[1541,1541,1000,0,541,""oops"",""down"",""down"",""good_move"",4362.5,2820.5,2126.3,1542,694.2,""oops"",""down"",""right"",""bad_move"",7679.4,3315.5,2692,4363.9,623.5,""smooth"",""down"",""down"",""good_move"",10918.8,3238.4,2342.3,7680.4,896.1,""smooth"",""left"",""left"",""good_move"",22410.9,11491,2780.9,10920,8710,""smooth"",""left"",""left"",""good_move"",34732.7,12320.8,2149.5,22411.9,10171.3,""smooth"",""left"",""left"",""good_move"",48140.8,13407.4,2017.9,34733.4,11389.5,""oops"",""down"",""up"",""bad_move"",62138.9,13982.4,2236.2,48156.6,11746.2,""smooth"",""down"",""down"",""good_move"",65155,3015.4,2149.3,62139.6,866.1,""smooth"",""down"",""down"",""good_move"",68358.8,3202.8,2274.8,65156,928,""smooth"",""down"",""down"",""good_move"",71608.5,3248.7,2671.1,68359.8,577.6,""smooth"",""left"",""left"",""good_move""]"
"7989","","<div style=""width:500px;"">
  <p>What determined the result of this run?</p>
  </div>","74","html-slider-response","69","1632412","0.0-7.0-1.11","125","1","2025-08-06 08:50:09","36c45c0696341be0efffe67d72a12abb","105.245.115.102","Mozilla/5.0 (Windows NT 10.0; Win64; x64) AppleWebKit/537.36 (KHTML, like Gecko) Chrome/138.0.0.0 Safari/537.36","WebKit","Chrome","138.0.0.0","Windows","10.0","https://app.prolific.com/","en-US,en;q=0.9","67b9e921b4b5ee4019522dbb","6877649eabb845cf142cd221","6893173507a7746b2b988fe9","1","67b9e921b4b5ee4019522dbb","1","2025-08-06T09:16:51.194Z","","","","AttribQ","","","","","","","","","","","50","","","","","","","","","","","","","","","","","","","","","","","","","","",""
"3655","","<div style=""width:500px;"">
  <p>How much control did you have over the ball?</p>
  </div>","93","html-slider-response","70","1636076","0.0-7.0-2.11","125","1","2025-08-06 08:50:09","36c45c0696341be0efffe67d72a12abb","105.245.115.102","Mozilla/5.0 (Windows NT 10.0; Win64; x64) AppleWebKit/537.36 (KHTML, like Gecko) Chrome/138.0.0.0 Safari/537.36","WebKit","Chrome","138.0.0.0","Windows","10.0","https://app.prolific.com/","en-US,en;q=0.9","67b9e921b4b5ee4019522dbb","6877649eabb845cf142cd221","6893173507a7746b2b988fe9","1","67b9e921b4b5ee4019522dbb","1","2025-08-06T09:16:54.857Z","","","","ControlQ","","","","","","","","","","","50","","","","","","","","","","","","","","","","","","","","","","","","","","",""
"6542","","<div style=""width:500px;"">
  <p>How would you describe your current emotional state?</p>
  </div>","6","html-slider-response","71","1642626","0.0-7.0-3.11","125","1","2025-08-06 08:50:09","36c45c0696341be0efffe67d72a12abb","105.245.115.102","Mozilla/5.0 (Windows NT 10.0; Win64; x64) AppleWebKit/537.36 (KHTML, like Gecko) Chrome/138.0.0.0 Safari/537.36","WebKit","Chrome","138.0.0.0","Windows","10.0","https://app.prolific.com/","en-US,en;q=0.9","67b9e921b4b5ee4019522dbb","6877649eabb845cf142cd221","6893173507a7746b2b988fe9","1","67b9e921b4b5ee4019522dbb","1","2025-08-06T09:17:01.407Z","","","","StressQ","","","","","","","","","","","50","","","","","","","","","","","","","","","","","","","","","","","","","","",""
"4081","","<div style=""width:500px;"">
  <p>What best describes how you currently feel?</p>
  </div>","99","html-slider-response","72","1646715","0.0-7.0-4.11","125","1","2025-08-06 08:50:09","36c45c0696341be0efffe67d72a12abb","105.245.115.102","Mozilla/5.0 (Windows NT 10.0; Win64; x64) AppleWebKit/537.36 (KHTML, like Gecko) Chrome/138.0.0.0 Safari/537.36","WebKit","Chrome","138.0.0.0","Windows","10.0","https://app.prolific.com/","en-US,en;q=0.9","67b9e921b4b5ee4019522dbb","6877649eabb845cf142cd221","6893173507a7746b2b988fe9","1","67b9e921b4b5ee4019522dbb","1","2025-08-06T09:17:05.496Z","","","","MotivationQ","","","","","","","","","","","50","","","","","","","","","","","","","","","","","","","","","","","","","","",""
"","","","","ctl-task-cpt","73","1752740","0.0-7.0-0.12","125","1","2025-08-06 08:50:09","36c45c0696341be0efffe67d72a12abb","105.245.115.102","Mozilla/5.0 (Windows NT 10.0; Win64; x64) AppleWebKit/537.36 (KHTML, like Gecko) Chrome/138.0.0.0 Safari/537.36","WebKit","Chrome","138.0.0.0","Windows","10.0","https://app.prolific.com/","en-US,en;q=0.9","67b9e921b4b5ee4019522dbb","6877649eabb845cf142cd221","6893173507a7746b2b988fe9","1","67b9e921b4b5ee4019522dbb","1","2025-08-06T09:18:51.521Z","","","","","","","","","","","","","","","","win-only","1","g1:NE,g2:SW","0.8","13","0","1650133.1","3994.1","9051.8","102860.1","1","4","8","6","2","8","7","55","48","0.4166666666666667","1673.5","3000","2710","[""down"",""left""]","{""num_key_presses"":9,""num_perfect"":6,""num_errors"":1,""num_randdir"":2,""num_randdir_good_moves"":1,""num_whilered"":0,""num_whileblue"":1,""num_blue"":2,""num_good_moves"":8}","[294.22232142857143,296.12857142857143,1.6,294.22232142857143,296.12857142857143,173.6,294.22232142857143,296.12857142857143,348.6,294.22232142857143,296.12857142857143,525.1,294.22232142857143,296.12857142857143,693.9,294.22232142857143,296.12857142857143,877.5,196.22232142857143,339.12857142857143,979.5,70.22232142857143,479.12857142857143,1179.2,55.222321428571426,513.1285714285714,1370.4,55.222321428571426,518.1285714285714,1554.3,55.222321428571426,518.1285714285714,1744,55.222321428571426,518.1285714285714,1920.7,55.222321428571426,518.1285714285714,2093.1,55.222321428571426,518.1285714285714,2265.8,55.222321428571426,518.1285714285714,2442.1,55.222321428571426,518.1285714285714,2617.2,55.222321428571426,518.1285714285714,2790.5,55.222321428571426,518.1285714285714,2962.6,55.222321428571426,518.1285714285714,3063.2,55.222321428571426,518.1285714285714,3235.9,55.222321428571426,518.1285714285714,3489.1,55.222321428571426,518.1285714285714,3666.9,55.222321428571426,518.1285714285714,3838.9,55.222321428571426,518.1285714285714,4017,55.222321428571426,518.1285714285714,4191.2,55.222321428571426,518.1285714285714,4364.4,55.222321428571426,518.1285714285714,4541.1,55.222321428571426,518.1285714285714,4714.5,55.222321428571426,518.1285714285714,4885.1]","[1559,1559,1000,0,559,""smooth"",""down"",""down"",""good_move"",5362.8,3802.6,2930.3,1560.2,872.3,""smooth"",""down"",""down"",""good_move"",8029.4,2665.6,1844.6,5363.8,821,""smooth"",""down"",""down"",""good_move"",10922.6,2891.9,2101.7,8030.7,790.2,""smooth"",""down"",""down"",""good_move"",14245.4,3321.7,2854.1,10923.7,467.7,""while_blue"",""left"",""left"",""good_move"",32902.6,18655.9,2235,14246.7,16420.9,""oops"",""left"",""up"",""bad_move"",57430.2,24526.8,3274.4,32903.4,21252.4,""smooth"",""left"",""left"",""good_move"",84369,26937.9,2548,57431.1,24389.9,""smooth"",""down"",""down"",""good_move"",91130.1,6760,2548.2,87944.4,637.5,""oops"",""left"",""left"",""good_move""]"
"4574","","<div style=""width:500px;"">
  <p>What determined the result of this run?</p>
  </div>","79","html-slider-response","74","1757327","0.0-7.0-1.12","125","1","2025-08-06 08:50:09","36c45c0696341be0efffe67d72a12abb","105.245.115.102","Mozilla/5.0 (Windows NT 10.0; Win64; x64) AppleWebKit/537.36 (KHTML, like Gecko) Chrome/138.0.0.0 Safari/537.36","WebKit","Chrome","138.0.0.0","Windows","10.0","https://app.prolific.com/","en-US,en;q=0.9","67b9e921b4b5ee4019522dbb","6877649eabb845cf142cd221","6893173507a7746b2b988fe9","1","67b9e921b4b5ee4019522dbb","1","2025-08-06T09:18:56.108Z","","","","AttribQ","","","","","","","","","","","50","","","","","","","","","","","","","","","","","","","","","","","","","","",""
"4292","","<div style=""width:500px;"">
  <p>How much control did you have over the ball?</p>
  </div>","67","html-slider-response","75","1761630","0.0-7.0-2.12","125","1","2025-08-06 08:50:09","36c45c0696341be0efffe67d72a12abb","105.245.115.102","Mozilla/5.0 (Windows NT 10.0; Win64; x64) AppleWebKit/537.36 (KHTML, like Gecko) Chrome/138.0.0.0 Safari/537.36","WebKit","Chrome","138.0.0.0","Windows","10.0","https://app.prolific.com/","en-US,en;q=0.9","67b9e921b4b5ee4019522dbb","6877649eabb845cf142cd221","6893173507a7746b2b988fe9","1","67b9e921b4b5ee4019522dbb","1","2025-08-06T09:19:00.412Z","","","","ControlQ","","","","","","","","","","","50","","","","","","","","","","","","","","","","","","","","","","","","","","",""
"3636","","<div style=""width:500px;"">
  <p>How would you describe your current emotional state?</p>
  </div>","23","html-slider-response","76","1765279","0.0-7.0-3.12","125","1","2025-08-06 08:50:09","36c45c0696341be0efffe67d72a12abb","105.245.115.102","Mozilla/5.0 (Windows NT 10.0; Win64; x64) AppleWebKit/537.36 (KHTML, like Gecko) Chrome/138.0.0.0 Safari/537.36","WebKit","Chrome","138.0.0.0","Windows","10.0","https://app.prolific.com/","en-US,en;q=0.9","67b9e921b4b5ee4019522dbb","6877649eabb845cf142cd221","6893173507a7746b2b988fe9","1","67b9e921b4b5ee4019522dbb","1","2025-08-06T09:19:04.060Z","","","","StressQ","","","","","","","","","","","50","","","","","","","","","","","","","","","","","","","","","","","","","","",""
"3510","","<div style=""width:500px;"">
  <p>What best describes how you currently feel?</p>
  </div>","98","html-slider-response","77","1768801","0.0-7.0-4.12","125","1","2025-08-06 08:50:09","36c45c0696341be0efffe67d72a12abb","105.245.115.102","Mozilla/5.0 (Windows NT 10.0; Win64; x64) AppleWebKit/537.36 (KHTML, like Gecko) Chrome/138.0.0.0 Safari/537.36","WebKit","Chrome","138.0.0.0","Windows","10.0","https://app.prolific.com/","en-US,en;q=0.9","67b9e921b4b5ee4019522dbb","6877649eabb845cf142cd221","6893173507a7746b2b988fe9","1","67b9e921b4b5ee4019522dbb","1","2025-08-06T09:19:07.582Z","","","","MotivationQ","","","","","","","","","","","50","","","","","","","","","","","","","","","","","","","","","","","","","","",""
