"rt","response_timestamp","stimulus","response","trial_type","trial_index","time_elapsed","internal_node_id","run_id","condition","recorded_at","source_code_version","ip","user_agent","device","browser","browser_version","platform","platform_version","referer","accept_language","PROLIFIC_PID","STUDY_ID","SESSION_ID","BATCH","prolific_id","batch","realtime","success","question_order","question_id","eventType","responses","item_order","radio_event_ids","radio_event_times","key_event_times","mouse_event_times","straightlining","zigzagging","honeypot","view_history","slider_start","which_type","canvas_config","goals_layout","control_level","trial_number","tutorial_trial_number","trial_start_time","phase1_start_time","phase2_start_time","phase3_start_time","goal_1_value","goal_1_distance","goal_2_value","goal_2_distance","goal_selected","outcome","outcome_total","participant_final_score","participant_initial_score","participant_final_score_prop","goal_choice_rt","allocated_time","allocated_time_remaining","goal_direction","counts","mouse_movements","key_presses"
"12368","1753866258587","<p style='font-size:40px;line-height:1.25'><strong>Welcome to the experiment!</strong></p><p style='font-size:1.1em;line-height:1.25'>Thank you for participanting in our experiment again! You will be asked to play the Dysfunctional Ball Game again. We will briefly recap the rules before we start.</p><p style='font-size:1.1em;line-height:1.25'>Press <strong>Next</strong> to continue.</p>","0","custom-html-button-response","0","12371","0.0-0.0","72","1","2025-07-30 09:03:56","36c45c0696341be0efffe67d72a12abb","197.184.166.214","Mozilla/5.0 (Windows NT 10.0; Win64; x64) AppleWebKit/537.36 (KHTML, like Gecko) Chrome/138.0.0.0 Safari/537.36","WebKit","Chrome","138.0.0.0","Windows","10.0","https://app.prolific.com/","en-GB,en-US;q=0.9,en;q=0.8","67bfed4a6c0630c5f857b23e","687a360dabe5252b5ada7185","6889df7a1edcf2f91ded5943","0","67bfed4a6c0630c5f857b23e","0","2025-07-30T09:04:18.589Z","","","","","","","","","","","","","","","","","","","","","","","","","","","","","","","","","","","","","","","","","",""
"5055","","","","fullscreen","1","18454","0.0-1.0","72","1","2025-07-30 09:03:56","36c45c0696341be0efffe67d72a12abb","197.184.166.214","Mozilla/5.0 (Windows NT 10.0; Win64; x64) AppleWebKit/537.36 (KHTML, like Gecko) Chrome/138.0.0.0 Safari/537.36","WebKit","Chrome","138.0.0.0","Windows","10.0","https://app.prolific.com/","en-GB,en-US;q=0.9,en;q=0.8","67bfed4a6c0630c5f857b23e","687a360dabe5252b5ada7185","6889df7a1edcf2f91ded5943","0","67bfed4a6c0630c5f857b23e","0","","true","","","","","","","","","","","","","","","","","","","","","","","","","","","","","","","","","","","","","","","","",""
"218078","1753866482750"," <p style='font-size:1.1em;line-height:1.25'>Thank you for closing all other tabs.</p><p style='font-size:1.1em;line-height:1.25'>We will now invite you to fill in some questionnaires, before starting the game.<br>This will take about 5 minutes.<br></p><p style='font-size:1.1em;line-height:1.25'>Press the <strong>Next</strong> button to continue.</p>","0","custom-html-button-response","2","236536","0.0-2.0","72","1","2025-07-30 09:03:56","36c45c0696341be0efffe67d72a12abb","197.184.166.214","Mozilla/5.0 (Windows NT 10.0; Win64; x64) AppleWebKit/537.36 (KHTML, like Gecko) Chrome/138.0.0.0 Safari/537.36","WebKit","Chrome","138.0.0.0","Windows","10.0","https://app.prolific.com/","en-GB,en-US;q=0.9,en;q=0.8","67bfed4a6c0630c5f857b23e","687a360dabe5252b5ada7185","6889df7a1edcf2f91ded5943","0","67bfed4a6c0630c5f857b23e","0","2025-07-30T09:08:02.753Z","","","","","","","","","","","","","","","","","","","","","","","","","","","","","","","","","","","","","","","","","",""
"4606","","","{""assigned_sex"":""female""}","survey-multi-choice","3","241154","0.0-3.0-0.0","72","1","2025-07-30 09:03:56","36c45c0696341be0efffe67d72a12abb","197.184.166.214","Mozilla/5.0 (Windows NT 10.0; Win64; x64) AppleWebKit/537.36 (KHTML, like Gecko) Chrome/138.0.0.0 Safari/537.36","WebKit","Chrome","138.0.0.0","Windows","10.0","https://app.prolific.com/","en-GB,en-US;q=0.9,en;q=0.8","67bfed4a6c0630c5f857b23e","687a360dabe5252b5ada7185","6889df7a1edcf2f91ded5943","0","67bfed4a6c0630c5f857b23e","0","","","[0]","0","demographics","","","","","","","","","","","","","","","","","","","","","","","","","","","","","","","","","","","","","",""
"3864","1753866491236","<p style='font-size:1.1em;line-height:1.25'>In the following, we will perform a baseline assessment. This means that we will ask you a few questions relating to your experiences over the past month.<br></p><p style='font-size:1.1em;line-height:1.25'>Press the <strong>Next</strong> button to continue.</p>","0","custom-html-button-response","4","245020","0.0-4.0-0.0","72","1","2025-07-30 09:03:56","36c45c0696341be0efffe67d72a12abb","197.184.166.214","Mozilla/5.0 (Windows NT 10.0; Win64; x64) AppleWebKit/537.36 (KHTML, like Gecko) Chrome/138.0.0.0 Safari/537.36","WebKit","Chrome","138.0.0.0","Windows","10.0","https://app.prolific.com/","en-GB,en-US;q=0.9,en;q=0.8","67bfed4a6c0630c5f857b23e","687a360dabe5252b5ada7185","6889df7a1edcf2f91ded5943","0","67bfed4a6c0630c5f857b23e","0","2025-07-30T09:08:11.237Z","","","","","","","","","","","","","","","","","","","","","","","","","","","","","","","","","","","","","","","","","",""
"254364.89999985695","","","","survey-template","5","499425","0.0-4.0-1.0","72","1","2025-07-30 09:03:56","36c45c0696341be0efffe67d72a12abb","197.184.166.214","Mozilla/5.0 (Windows NT 10.0; Win64; x64) AppleWebKit/537.36 (KHTML, like Gecko) Chrome/138.0.0.0 Safari/537.36","WebKit","Chrome","138.0.0.0","Windows","10.0","https://app.prolific.com/","en-GB,en-US;q=0.9,en;q=0.8","67bfed4a6c0630c5f857b23e","687a360dabe5252b5ada7185","6889df7a1edcf2f91ded5943","0","67bfed4a6c0630c5f857b23e","0","2025-07-30T09:12:25.642Z","","","","pss","{""Q01"":""0"",""Q02"":""0"",""Q03"":""0"",""Q04"":""0"",""Q05"":""0"",""Q06"":""0"",""Q07"":""0"",""Q08"":""0"",""Q09"":""0"",""Q10"":""0""}","[0,1,2,3,4,5,6,7,8,9]","[""Q01"",""Q02"",""Q03"",""Q04"",""Q06"",""Q05"",""Q07"",""Q10"",""Q09"",""Q08""]","[126192.5,130443.59999990463,131725.89999985695,134875.29999995232,140994.59999990463,145557.29999995232,151901.79999995232,237703.39999985695,249263.89999985695,252824.79999995232]","[]","[0.19999980926513672,126192.5,128325,130443.59999990463,131725.89999985695,134875.29999995232,137731.5,140994.59999990463,145557.29999995232,151901.79999995232,237703.39999985695,249263.89999985695,252824.79999995232,254362.79999995232]","0.6","0.4444444444444444","0","","","","","","","","","","","","","","","","","","","","","","","","","","","","",""
"4238","1753866749881","<p style='font-size:1.1em;line-height:1.25'>Thank you for your answers! Now we will ask you a few more questions relating to your feelings in the last 24 hours.<br></p><p style='font-size:1.1em;line-height:1.25'>Press the <strong>Next</strong> button to continue.</p>","0","custom-html-button-response","6","503668","0.0-4.0-2.0","72","1","2025-07-30 09:03:56","36c45c0696341be0efffe67d72a12abb","197.184.166.214","Mozilla/5.0 (Windows NT 10.0; Win64; x64) AppleWebKit/537.36 (KHTML, like Gecko) Chrome/138.0.0.0 Safari/537.36","WebKit","Chrome","138.0.0.0","Windows","10.0","https://app.prolific.com/","en-GB,en-US;q=0.9,en;q=0.8","67bfed4a6c0630c5f857b23e","687a360dabe5252b5ada7185","6889df7a1edcf2f91ded5943","0","67bfed4a6c0630c5f857b23e","0","2025-07-30T09:12:29.886Z","","","","","","","","","","","","","","","","","","","","","","","","","","","","","","","","","","","","","","","","","",""
"119763","","","","survey-template","7","623460","0.0-4.0-3.0","72","1","2025-07-30 09:03:56","36c45c0696341be0efffe67d72a12abb","197.184.166.214","Mozilla/5.0 (Windows NT 10.0; Win64; x64) AppleWebKit/537.36 (KHTML, like Gecko) Chrome/138.0.0.0 Safari/537.36","WebKit","Chrome","138.0.0.0","Windows","10.0","https://app.prolific.com/","en-GB,en-US;q=0.9,en;q=0.8","67bfed4a6c0630c5f857b23e","687a360dabe5252b5ada7185","6889df7a1edcf2f91ded5943","0","67bfed4a6c0630c5f857b23e","0","2025-07-30T09:14:29.678Z","","","","drsp","{""Q01"":""0"",""Q02"":""0"",""Q03"":""0"",""Q04"":""0"",""Q05"":""0"",""Q06"":""0"",""Q07"":""0"",""Q08"":""0"",""Q09"":""0"",""Q10"":""0"",""Q11"":""0"",""Q12"":""2"",""Q13"":""5"",""Q14"":""4"",""Q15"":""1"",""Q16"":""0"",""Q17"":""0"",""Q18"":""0"",""Q19"":""1"",""Q20"":""0"",""Q21"":""0"",""Q22"":""0""}","[0,1,2,3,4,5,6,7,8,9,10,11,12,13,14,15,16,17,18,19,20,21]","[""Q01"",""Q02"",""Q03"",""Q04"",""Q05"",""Q06"",""Q07"",""Q08"",""Q09"",""Q10"",""Q11"",""Q12"",""Q13"",""Q14"",""Q15"",""Q16"",""Q17"",""Q18"",""Q19"",""Q20"",""Q21"",""Q22""]","[2659.9000000953674,5271.900000095367,6131.5,7015.5,8162.5,11940,13168.300000190735,35984.90000009537,65116.300000190735,69572.40000009537,70867.90000009537,75000.70000004768,79519.80000019073,84868.10000014305,87203,89005.20000004768,90528.80000019073,91468.40000009537,93782.10000014305,108369.30000019073,111642.70000004768,113884.30000019073]","[]","[0.3000001907348633,2659.9000000953674,3516,4501.800000190735,5271.900000095367,6131.5,7015.5,8162.5,9332.600000143051,10300.200000047684,11940,13168.300000190735,34643.200000047684,35984.90000009537,65116.300000190735,66445.80000019073,67608.90000009537,68548.30000019073,69572.40000009537,70867.90000009537,75000.70000004768,78403.60000014305,79519.80000019073,84868.10000014305,87203,89005.20000004768,90528.80000019073,91468.40000009537,93782.10000014305,108369.30000019073,109634.90000009537,111642.70000004768,113196.30000019073,113884.30000019073,119748.10000014305]","0.7727272727272727","0.19047619047619047","0","","","","","","","","","","","","","","","","","","","","","","","","","","","","",""
"9188.799999952316","","","","survey-template","8","632660","0.0-4.0-4.0","72","1","2025-07-30 09:03:56","36c45c0696341be0efffe67d72a12abb","197.184.166.214","Mozilla/5.0 (Windows NT 10.0; Win64; x64) AppleWebKit/537.36 (KHTML, like Gecko) Chrome/138.0.0.0 Safari/537.36","WebKit","Chrome","138.0.0.0","Windows","10.0","https://app.prolific.com/","en-GB,en-US;q=0.9,en;q=0.8","67bfed4a6c0630c5f857b23e","687a360dabe5252b5ada7185","6889df7a1edcf2f91ded5943","0","67bfed4a6c0630c5f857b23e","0","2025-07-30T09:14:38.877Z","","","","stress","{""Q01"":""0"",""Q02"":""0"",""Q03"":""0""}","[0,1,2]","[""Q01"",""Q02"",""Q03""]","[3739.600000143051,5514.700000047684,7967]","[]","[3739.600000143051,5514.700000047684,7967,9185.299999952316]","0.6666666666666666","1","0","","","","","","","","","","","","","","","","","","","","","","","","","","","","",""
"227745","","","","instructions","9","860409","0.0-5.0-0.0","72","1","2025-07-30 09:03:56","36c45c0696341be0efffe67d72a12abb","197.184.166.214","Mozilla/5.0 (Windows NT 10.0; Win64; x64) AppleWebKit/537.36 (KHTML, like Gecko) Chrome/138.0.0.0 Safari/537.36","WebKit","Chrome","138.0.0.0","Windows","10.0","https://app.prolific.com/","en-GB,en-US;q=0.9,en;q=0.8","67bfed4a6c0630c5f857b23e","687a360dabe5252b5ada7185","6889df7a1edcf2f91ded5943","0","67bfed4a6c0630c5f857b23e","0","","","","","","","","","","","","","","","[{""page_index"":0,""viewing_time"":227745}]","","","","","","","","","","","","","","","","","","","","","","","","","","","",""
"5757","","<p>Before you start with this game please answer the following three questions yourself. </p>
  <p>Through this game, we measure several aspects of your cognitive performance, such as reaction times, multi-tasking capabilities </p>
  <p>and the ability to assess the situation you are in.</p>
  <p></p>
  <p><b>How good do you usually are in such tasks?</b></p>","96","html-slider-response","10","866240","0.0-6.0-0.0","72","1","2025-07-30 09:03:56","36c45c0696341be0efffe67d72a12abb","197.184.166.214","Mozilla/5.0 (Windows NT 10.0; Win64; x64) AppleWebKit/537.36 (KHTML, like Gecko) Chrome/138.0.0.0 Safari/537.36","WebKit","Chrome","138.0.0.0","Windows","10.0","https://app.prolific.com/","en-GB,en-US;q=0.9,en;q=0.8","67bfed4a6c0630c5f857b23e","687a360dabe5252b5ada7185","6889df7a1edcf2f91ded5943","0","67bfed4a6c0630c5f857b23e","0","2025-07-30T09:18:32.457Z","","","","PreSkillQ","","","","","","","","","","","50","","","","","","","","","","","","","","","","","","","","","","","","","","",""
"3853","","<div style=""width:500px;"">
  <p>How well do you think you will perform in this task compared to other participants?</p>
  </div>","97","html-slider-response","11","870096","0.0-6.0-1.0","72","1","2025-07-30 09:03:56","36c45c0696341be0efffe67d72a12abb","197.184.166.214","Mozilla/5.0 (Windows NT 10.0; Win64; x64) AppleWebKit/537.36 (KHTML, like Gecko) Chrome/138.0.0.0 Safari/537.36","WebKit","Chrome","138.0.0.0","Windows","10.0","https://app.prolific.com/","en-GB,en-US;q=0.9,en;q=0.8","67bfed4a6c0630c5f857b23e","687a360dabe5252b5ada7185","6889df7a1edcf2f91ded5943","0","67bfed4a6c0630c5f857b23e","0","2025-07-30T09:18:36.313Z","","","","PrePerfQ","","","","","","","","","","","50","","","","","","","","","","","","","","","","","","","","","","","","","","",""
"3250","","<div style=""width:500px;"">
  <p>What best describes how you currently feel?</p>
  </div>","52","html-slider-response","12","873350","0.0-6.0-2.0","72","1","2025-07-30 09:03:56","36c45c0696341be0efffe67d72a12abb","197.184.166.214","Mozilla/5.0 (Windows NT 10.0; Win64; x64) AppleWebKit/537.36 (KHTML, like Gecko) Chrome/138.0.0.0 Safari/537.36","WebKit","Chrome","138.0.0.0","Windows","10.0","https://app.prolific.com/","en-GB,en-US;q=0.9,en;q=0.8","67bfed4a6c0630c5f857b23e","687a360dabe5252b5ada7185","6889df7a1edcf2f91ded5943","0","67bfed4a6c0630c5f857b23e","0","2025-07-30T09:18:39.567Z","","","","PreMotivationQ","","","","","","","","","","","50","","","","","","","","","","","","","","","","","","","","","","","","","","",""
"","","","","ctl-task-cpt","13","961230","0.0-7.0-0.0","72","1","2025-07-30 09:03:56","36c45c0696341be0efffe67d72a12abb","197.184.166.214","Mozilla/5.0 (Windows NT 10.0; Win64; x64) AppleWebKit/537.36 (KHTML, like Gecko) Chrome/138.0.0.0 Safari/537.36","WebKit","Chrome","138.0.0.0","Windows","10.0","https://app.prolific.com/","en-GB,en-US;q=0.9,en;q=0.8","67bfed4a6c0630c5f857b23e","687a360dabe5252b5ada7185","6889df7a1edcf2f91ded5943","0","67bfed4a6c0630c5f857b23e","0","2025-07-30T09:20:07.447Z","","","","","","","","","","","","","","","","win-only","2","g1:SE,g2:NW","1","1","0","876145.2","60972.2","65983","84836.8","1","4","4","6","2","4","3","3","0","0.022727272727272728","3108","3000","1050","[""left"",""up""]","{""num_key_presses"":8,""num_perfect"":6,""num_errors"":1,""num_randdir"":0,""num_randdir_good_moves"":0,""num_whilered"":1,""num_whileblue"":0,""num_blue"":0,""num_good_moves"":6}","[411.5714133126395,421.57142761775424,4.2,411.5714133126395,421.57142761775424,105,411.5714133126395,421.57142761775424,209.5,411.5714133126395,421.57142761775424,311,411.5714133126395,421.57142761775424,414.7,411.5714133126395,421.57142761775424,519.2,411.5714133126395,421.57142761775424,624.4,411.5714133126395,421.57142761775424,724.9,411.5714133126395,421.57142761775424,829.6,411.5714133126395,421.57142761775424,937.6,411.5714133126395,421.57142761775424,1039.8,411.5714133126395,421.57142761775424,1149.2,411.5714133126395,421.57142761775424,1254.7,435.3214133126395,417.82142761775424,1358,506.5714133126395,419.07142761775424,1462.8,586.5714133126395,475.32142761775424,1572.1,586.5714133126395,475.32142761775424,1678.5,586.5714133126395,475.32142761775424,1781.3,591.5714133126395,481.57142761775424,1888.1,625.3214133126395,605.3214276177542,1994.9,601.5714133126395,631.5714276177542,2098.3,337.8214133126395,304.07142761775424,2203.3,336.5714133126395,301.57142761775424,2304.9,336.5714133126395,301.57142761775424,2410,336.5714133126395,301.57142761775424,2512.1,89.0714133126395,82.82142761775425,2615.8,55.32141331263951,55.32142761775425,2726.3,52.82141331263951,52.82142761775425,2828.3,52.82141331263951,51.57142761775425,2933.2,52.82141331263951,51.57142761775425,3037.9,52.82141331263951,51.57142761775425,3142.3,52.82141331263951,51.57142761775425,3243.3,52.82141331263951,51.57142761775425,3346.4,52.82141331263951,51.57142761775425,3454.1,52.82141331263951,51.57142761775425,3558.9,52.82141331263951,51.57142761775425,3664.9,52.82141331263951,51.57142761775425,3772.1,52.82141331263951,51.57142761775425,3877.1,52.82141331263951,51.57142761775425,3983.3,52.82141331263951,51.57142761775425,4091.9,52.82141331263951,51.57142761775425,4194.6,52.82141331263951,51.57142761775425,4294.6,52.82141331263951,51.57142761775425,4399.9,52.82141331263951,51.57142761775425,4504.9,52.82141331263951,51.57142761775425,4607.4,52.82141331263951,51.57142761775425,4711.6,52.82141331263951,51.57142761775425,4816.6,52.82141331263951,51.57142761775425,4921.1]","[808.2,808.3,1000,0,-191.7,""error"",""-"",""-"",""no_move"",1501,690.6,1000,0,501,""while_red"",""-"",""-"",""no_move"",4855.1,4044.7,2328.3,1814.8,712,""smooth"",""left"",""left"",""good_move"",7966,3104.6,2500.9,4861.4,603.7,""smooth"",""up"",""up"",""good_move"",10951.8,2984.2,2522,7967.6,462.2,""smooth"",""up"",""up"",""good_move"",13332.2,2378.4,1795.3,10953.8,583.2,""smooth"",""left"",""left"",""good_move"",16317,2982.9,2590,13334.1,392.9,""smooth"",""up"",""up"",""good_move"",18731,2412.6,2040.4,16318.4,372.2,""smooth"",""left"",""left"",""good_move""]"
"3335","","<div style=""width:500px;"">
  <p>What determined the result of this run?</p>
  </div>","100","html-slider-response","14","964568","0.0-7.0-1.0","72","1","2025-07-30 09:03:56","36c45c0696341be0efffe67d72a12abb","197.184.166.214","Mozilla/5.0 (Windows NT 10.0; Win64; x64) AppleWebKit/537.36 (KHTML, like Gecko) Chrome/138.0.0.0 Safari/537.36","WebKit","Chrome","138.0.0.0","Windows","10.0","https://app.prolific.com/","en-GB,en-US;q=0.9,en;q=0.8","67bfed4a6c0630c5f857b23e","687a360dabe5252b5ada7185","6889df7a1edcf2f91ded5943","0","67bfed4a6c0630c5f857b23e","0","2025-07-30T09:20:10.785Z","","","","AttribQ","","","","","","","","","","","50","","","","","","","","","","","","","","","","","","","","","","","","","","",""
"2969","","<div style=""width:500px;"">
  <p>How much control did you have over the ball?</p>
  </div>","100","html-slider-response","15","967539","0.0-7.0-2.0","72","1","2025-07-30 09:03:56","36c45c0696341be0efffe67d72a12abb","197.184.166.214","Mozilla/5.0 (Windows NT 10.0; Win64; x64) AppleWebKit/537.36 (KHTML, like Gecko) Chrome/138.0.0.0 Safari/537.36","WebKit","Chrome","138.0.0.0","Windows","10.0","https://app.prolific.com/","en-GB,en-US;q=0.9,en;q=0.8","67bfed4a6c0630c5f857b23e","687a360dabe5252b5ada7185","6889df7a1edcf2f91ded5943","0","67bfed4a6c0630c5f857b23e","0","2025-07-30T09:20:13.756Z","","","","ControlQ","","","","","","","","","","","50","","","","","","","","","","","","","","","","","","","","","","","","","","",""
"6609","","<div style=""width:500px;"">
  <p>How would you describe your current emotional state?</p>
  </div>","0","html-slider-response","16","974151","0.0-7.0-3.0","72","1","2025-07-30 09:03:56","36c45c0696341be0efffe67d72a12abb","197.184.166.214","Mozilla/5.0 (Windows NT 10.0; Win64; x64) AppleWebKit/537.36 (KHTML, like Gecko) Chrome/138.0.0.0 Safari/537.36","WebKit","Chrome","138.0.0.0","Windows","10.0","https://app.prolific.com/","en-GB,en-US;q=0.9,en;q=0.8","67bfed4a6c0630c5f857b23e","687a360dabe5252b5ada7185","6889df7a1edcf2f91ded5943","0","67bfed4a6c0630c5f857b23e","0","2025-07-30T09:20:20.368Z","","","","StressQ","","","","","","","","","","","50","","","","","","","","","","","","","","","","","","","","","","","","","","",""
"4501","","<div style=""width:500px;"">
  <p>What best describes how you currently feel?</p>
  </div>","98","html-slider-response","17","978657","0.0-7.0-4.0","72","1","2025-07-30 09:03:56","36c45c0696341be0efffe67d72a12abb","197.184.166.214","Mozilla/5.0 (Windows NT 10.0; Win64; x64) AppleWebKit/537.36 (KHTML, like Gecko) Chrome/138.0.0.0 Safari/537.36","WebKit","Chrome","138.0.0.0","Windows","10.0","https://app.prolific.com/","en-GB,en-US;q=0.9,en;q=0.8","67bfed4a6c0630c5f857b23e","687a360dabe5252b5ada7185","6889df7a1edcf2f91ded5943","0","67bfed4a6c0630c5f857b23e","0","2025-07-30T09:20:24.874Z","","","","MotivationQ","","","","","","","","","","","50","","","","","","","","","","","","","","","","","","","","","","","","","","",""
"","","","","ctl-task-cpt","18","1044199","0.0-7.0-0.1","72","1","2025-07-30 09:03:56","36c45c0696341be0efffe67d72a12abb","197.184.166.214","Mozilla/5.0 (Windows NT 10.0; Win64; x64) AppleWebKit/537.36 (KHTML, like Gecko) Chrome/138.0.0.0 Safari/537.36","WebKit","Chrome","138.0.0.0","Windows","10.0","https://app.prolific.com/","en-GB,en-US;q=0.9,en;q=0.8","67bfed4a6c0630c5f857b23e","687a360dabe5252b5ada7185","6889df7a1edcf2f91ded5943","0","67bfed4a6c0630c5f857b23e","0","2025-07-30T09:21:30.416Z","","","","","","","","","","","","","","","","win-only","0","g1:NW,g2:SE","0.9","2","0","981430.4","34549.1","39551.6","62523.2","1","4","8","6","2","8","8","11","3","0.08333333333333333","1848.4","3000","1325","[""down"",""right""]","{""num_key_presses"":6,""num_perfect"":6,""num_errors"":0,""num_randdir"":0,""num_randdir_good_moves"":0,""num_whilered"":0,""num_whileblue"":0,""num_blue"":2,""num_good_moves"":6}","[422.8214133126395,421.57142761775424,1,422.8214133126395,421.57142761775424,100.5,422.8214133126395,421.57142761775424,209.8,422.8214133126395,421.57142761775424,316.2,422.8214133126395,421.57142761775424,425,422.8214133126395,421.57142761775424,526.3,422.8214133126395,421.57142761775424,628.9,422.8214133126395,421.57142761775424,737.2,422.8214133126395,421.57142761775424,843.4,430.3214133126395,406.57142761775424,946.9,732.8214133126395,564.0714276177542,1058.2,800.3214133126395,646.5714276177542,1165.6,800.3214133126395,646.5714276177542,1268.5,800.3214133126395,646.5714276177542,1374.6,804.0714133126395,702.8214276177542,1479.3,785.3214133126395,757.8214276177542,1581.6,775.3214133126395,761.5714276177542,1681.8,775.3214133126395,761.5714276177542,1784.1,775.3214133126395,761.5714276177542,1893.2,775.3214133126395,761.5714276177542,1993.2,775.3214133126395,761.5714276177542,2095.4,775.3214133126395,761.5714276177542,2196.5,775.3214133126395,761.5714276177542,2301.2,775.3214133126395,761.5714276177542,2408.8,775.3214133126395,761.5714276177542,2510.2,775.3214133126395,761.5714276177542,2617,775.3214133126395,761.5714276177542,2726.8,775.3214133126395,761.5714276177542,2826.8,775.3214133126395,761.5714276177542,2928.8,775.3214133126395,761.5714276177542,3033.1,775.3214133126395,761.5714276177542,3133.5,775.3214133126395,761.5714276177542,3243.6,775.3214133126395,761.5714276177542,3352.3,775.3214133126395,761.5714276177542,3453.5,775.3214133126395,761.5714276177542,3556.4,775.3214133126395,761.5714276177542,3658.2,775.3214133126395,761.5714276177542,3758.3,775.3214133126395,761.5714276177542,3865.7,775.3214133126395,761.5714276177542,3968.4,775.3214133126395,761.5714276177542,4074.8,775.3214133126395,761.5714276177542,4175,775.3214133126395,761.5714276177542,4276.3,775.3214133126395,761.5714276177542,4379.7,775.3214133126395,761.5714276177542,4482.6,775.3214133126395,761.5714276177542,4593.7,775.3214133126395,761.5714276177542,4698.9,775.3214133126395,761.5714276177542,4809.2,775.3214133126395,761.5714276177542,4914.9]","[4850.3,4850.3,2384.2,2010.7,455.5,""smooth"",""down"",""down"",""good_move"",7983,3123.9,2704.6,4859.2,419.3,""smooth"",""down"",""down"",""good_move"",10747.7,2755.8,2368.4,7991.9,387.4,""smooth"",""right"",""right"",""good_move"",18082.2,7318,2931.2,14713.7,437.4,""smooth"",""right"",""right"",""good_move"",20661.6,2578.8,2089.1,18082.9,489.6,""smooth"",""down"",""down"",""good_move"",22841.4,2178.1,1696.6,20663.3,481.5,""smooth"",""right"",""right"",""good_move""]"
"4456","","<div style=""width:500px;"">
  <p>What determined the result of this run?</p>
  </div>","99","html-slider-response","19","1048658","0.0-7.0-1.1","72","1","2025-07-30 09:03:56","36c45c0696341be0efffe67d72a12abb","197.184.166.214","Mozilla/5.0 (Windows NT 10.0; Win64; x64) AppleWebKit/537.36 (KHTML, like Gecko) Chrome/138.0.0.0 Safari/537.36","WebKit","Chrome","138.0.0.0","Windows","10.0","https://app.prolific.com/","en-GB,en-US;q=0.9,en;q=0.8","67bfed4a6c0630c5f857b23e","687a360dabe5252b5ada7185","6889df7a1edcf2f91ded5943","0","67bfed4a6c0630c5f857b23e","0","2025-07-30T09:21:34.875Z","","","","AttribQ","","","","","","","","","","","50","","","","","","","","","","","","","","","","","","","","","","","","","","",""
"4424","","<div style=""width:500px;"">
  <p>How much control did you have over the ball?</p>
  </div>","97","html-slider-response","20","1053085","0.0-7.0-2.1","72","1","2025-07-30 09:03:56","36c45c0696341be0efffe67d72a12abb","197.184.166.214","Mozilla/5.0 (Windows NT 10.0; Win64; x64) AppleWebKit/537.36 (KHTML, like Gecko) Chrome/138.0.0.0 Safari/537.36","WebKit","Chrome","138.0.0.0","Windows","10.0","https://app.prolific.com/","en-GB,en-US;q=0.9,en;q=0.8","67bfed4a6c0630c5f857b23e","687a360dabe5252b5ada7185","6889df7a1edcf2f91ded5943","0","67bfed4a6c0630c5f857b23e","0","2025-07-30T09:21:39.302Z","","","","ControlQ","","","","","","","","","","","50","","","","","","","","","","","","","","","","","","","","","","","","","","",""
"4964","","<div style=""width:500px;"">
  <p>How would you describe your current emotional state?</p>
  </div>","2","html-slider-response","21","1058051","0.0-7.0-3.1","72","1","2025-07-30 09:03:56","36c45c0696341be0efffe67d72a12abb","197.184.166.214","Mozilla/5.0 (Windows NT 10.0; Win64; x64) AppleWebKit/537.36 (KHTML, like Gecko) Chrome/138.0.0.0 Safari/537.36","WebKit","Chrome","138.0.0.0","Windows","10.0","https://app.prolific.com/","en-GB,en-US;q=0.9,en;q=0.8","67bfed4a6c0630c5f857b23e","687a360dabe5252b5ada7185","6889df7a1edcf2f91ded5943","0","67bfed4a6c0630c5f857b23e","0","2025-07-30T09:21:44.268Z","","","","StressQ","","","","","","","","","","","50","","","","","","","","","","","","","","","","","","","","","","","","","","",""
"3457","","<div style=""width:500px;"">
  <p>What best describes how you currently feel?</p>
  </div>","97","html-slider-response","22","1061512","0.0-7.0-4.1","72","1","2025-07-30 09:03:56","36c45c0696341be0efffe67d72a12abb","197.184.166.214","Mozilla/5.0 (Windows NT 10.0; Win64; x64) AppleWebKit/537.36 (KHTML, like Gecko) Chrome/138.0.0.0 Safari/537.36","WebKit","Chrome","138.0.0.0","Windows","10.0","https://app.prolific.com/","en-GB,en-US;q=0.9,en;q=0.8","67bfed4a6c0630c5f857b23e","687a360dabe5252b5ada7185","6889df7a1edcf2f91ded5943","0","67bfed4a6c0630c5f857b23e","0","2025-07-30T09:21:47.729Z","","","","MotivationQ","","","","","","","","","","","50","","","","","","","","","","","","","","","","","","","","","","","","","","",""
"","","","","ctl-task-cpt","23","1351113","0.0-7.0-0.2","72","1","2025-07-30 09:03:56","36c45c0696341be0efffe67d72a12abb","197.184.166.214","Mozilla/5.0 (Windows NT 10.0; Win64; x64) AppleWebKit/537.36 (KHTML, like Gecko) Chrome/138.0.0.0 Safari/537.36","WebKit","Chrome","138.0.0.0","Windows","10.0","https://app.prolific.com/","en-GB,en-US;q=0.9,en;q=0.8","67bfed4a6c0630c5f857b23e","687a360dabe5252b5ada7185","6889df7a1edcf2f91ded5943","0","67bfed4a6c0630c5f857b23e","0","2025-07-30T09:26:37.330Z","","","","","","","","","","","","","","","","win-only","1","g1:NE,g2:SW","0.8","3","0","1064275.7","267557","272575.7","286578.5","1","4","4","6","1","1","1","12","11","0.09090909090909091","2127.7","3000","1675","[""up"",""right""]","{""num_key_presses"":4,""num_perfect"":4,""num_errors"":0,""num_randdir"":0,""num_randdir_good_moves"":0,""num_whilered"":0,""num_whileblue"":0,""num_blue"":1,""num_good_moves"":4}","[416.5714133126395,410.32142761775424,1.4,416.5714133126395,410.32142761775424,101.9,416.5714133126395,410.32142761775424,202.4,416.5714133126395,410.32142761775424,307.8,416.5714133126395,410.32142761775424,409.6,416.5714133126395,410.32142761775424,514.3,402.8214133126395,386.57142761775424,625.4,396.5714133126395,360.32142761775424,727.8,301.5714133126395,454.07142761775424,843.7,297.8214133126395,520.3214276177542,951.7,297.8214133126395,520.3214276177542,1052.7,305.3214133126395,481.57142761775424,1162.8,624.0714133126395,304.07142761775424,1268.6,624.0714133126395,304.07142761775424,1370.9,624.0714133126395,304.07142761775424,1482.6,691.5714133126395,141.57142761775424,1586.5,726.5714133126395,87.82142761775425,1692.5,751.5714133126395,87.82142761775425,1792.9,764.0714133126395,79.07142761775425,1903.8,764.0714133126395,79.07142761775425,2007.8,764.0714133126395,79.07142761775425,2115.3,764.0714133126395,79.07142761775425,2222.6,764.0714133126395,79.07142761775425,2326.4,764.0714133126395,79.07142761775425,2433.8,764.0714133126395,79.07142761775425,2537,764.0714133126395,79.07142761775425,2644.6,764.0714133126395,79.07142761775425,2755.2,764.0714133126395,79.07142761775425,2857.8,764.0714133126395,79.07142761775425,2959.2,764.0714133126395,79.07142761775425,3060.1,764.0714133126395,79.07142761775425,3160.1,764.0714133126395,79.07142761775425,3260.4,764.0714133126395,79.07142761775425,3360.6,764.0714133126395,79.07142761775425,3470.1,764.0714133126395,79.07142761775425,3574.1,764.0714133126395,79.07142761775425,3675.3,764.0714133126395,79.07142761775425,3784.8,764.0714133126395,79.07142761775425,3887.9,764.0714133126395,79.07142761775425,3990.5,764.0714133126395,79.07142761775425,4101.9,764.0714133126395,79.07142761775425,4209.9,764.0714133126395,79.07142761775425,4309.9,764.0714133126395,79.07142761775425,4419.5,764.0714133126395,79.07142761775425,4522,764.0714133126395,79.07142761775425,4635.5,764.0714133126395,79.07142761775425,4738.5,764.0714133126395,79.07142761775425,4838.5,764.0714133126395,79.07142761775425,4941.6]","[1387.8,1387.8,1000,0,387.8,""smooth"",""up"",""up"",""good_move"",7189.5,5799.4,1934.5,4824.6,430.4,""smooth"",""right"",""right"",""good_move"",11287.9,4097.3,3100.9,7190.6,996.4,""smooth"",""up"",""up"",""good_move"",13835.5,2546.2,2020.7,11289.3,525.5,""smooth"",""right"",""right"",""good_move""]"
"7242","","<div style=""width:500px;"">
  <p>What determined the result of this run?</p>
  </div>","99","html-slider-response","24","1358357","0.0-7.0-1.2","72","1","2025-07-30 09:03:56","36c45c0696341be0efffe67d72a12abb","197.184.166.214","Mozilla/5.0 (Windows NT 10.0; Win64; x64) AppleWebKit/537.36 (KHTML, like Gecko) Chrome/138.0.0.0 Safari/537.36","WebKit","Chrome","138.0.0.0","Windows","10.0","https://app.prolific.com/","en-GB,en-US;q=0.9,en;q=0.8","67bfed4a6c0630c5f857b23e","687a360dabe5252b5ada7185","6889df7a1edcf2f91ded5943","0","67bfed4a6c0630c5f857b23e","0","2025-07-30T09:26:44.575Z","","","","AttribQ","","","","","","","","","","","50","","","","","","","","","","","","","","","","","","","","","","","","","","",""
"3001","","<div style=""width:500px;"">
  <p>How much control did you have over the ball?</p>
  </div>","94","html-slider-response","25","1361362","0.0-7.0-2.2","72","1","2025-07-30 09:03:56","36c45c0696341be0efffe67d72a12abb","197.184.166.214","Mozilla/5.0 (Windows NT 10.0; Win64; x64) AppleWebKit/537.36 (KHTML, like Gecko) Chrome/138.0.0.0 Safari/537.36","WebKit","Chrome","138.0.0.0","Windows","10.0","https://app.prolific.com/","en-GB,en-US;q=0.9,en;q=0.8","67bfed4a6c0630c5f857b23e","687a360dabe5252b5ada7185","6889df7a1edcf2f91ded5943","0","67bfed4a6c0630c5f857b23e","0","2025-07-30T09:26:47.579Z","","","","ControlQ","","","","","","","","","","","50","","","","","","","","","","","","","","","","","","","","","","","","","","",""
"2772","","<div style=""width:500px;"">
  <p>How would you describe your current emotional state?</p>
  </div>","10","html-slider-response","26","1364137","0.0-7.0-3.2","72","1","2025-07-30 09:03:56","36c45c0696341be0efffe67d72a12abb","197.184.166.214","Mozilla/5.0 (Windows NT 10.0; Win64; x64) AppleWebKit/537.36 (KHTML, like Gecko) Chrome/138.0.0.0 Safari/537.36","WebKit","Chrome","138.0.0.0","Windows","10.0","https://app.prolific.com/","en-GB,en-US;q=0.9,en;q=0.8","67bfed4a6c0630c5f857b23e","687a360dabe5252b5ada7185","6889df7a1edcf2f91ded5943","0","67bfed4a6c0630c5f857b23e","0","2025-07-30T09:26:50.354Z","","","","StressQ","","","","","","","","","","","50","","","","","","","","","","","","","","","","","","","","","","","","","","",""
"2724","","<div style=""width:500px;"">
  <p>What best describes how you currently feel?</p>
  </div>","98","html-slider-response","27","1366863","0.0-7.0-4.2","72","1","2025-07-30 09:03:56","36c45c0696341be0efffe67d72a12abb","197.184.166.214","Mozilla/5.0 (Windows NT 10.0; Win64; x64) AppleWebKit/537.36 (KHTML, like Gecko) Chrome/138.0.0.0 Safari/537.36","WebKit","Chrome","138.0.0.0","Windows","10.0","https://app.prolific.com/","en-GB,en-US;q=0.9,en;q=0.8","67bfed4a6c0630c5f857b23e","687a360dabe5252b5ada7185","6889df7a1edcf2f91ded5943","0","67bfed4a6c0630c5f857b23e","0","2025-07-30T09:26:53.080Z","","","","MotivationQ","","","","","","","","","","","50","","","","","","","","","","","","","","","","","","","","","","","","","","",""
"","","","","ctl-task-cpt","28","1416391","0.0-7.0-0.3","72","1","2025-07-30 09:03:56","36c45c0696341be0efffe67d72a12abb","197.184.166.214","Mozilla/5.0 (Windows NT 10.0; Win64; x64) AppleWebKit/537.36 (KHTML, like Gecko) Chrome/138.0.0.0 Safari/537.36","WebKit","Chrome","138.0.0.0","Windows","10.0","https://app.prolific.com/","en-GB,en-US;q=0.9,en;q=0.8","67bfed4a6c0630c5f857b23e","687a360dabe5252b5ada7185","6889df7a1edcf2f91ded5943","0","67bfed4a6c0630c5f857b23e","0","2025-07-30T09:27:42.608Z","","","","","","","","","","","","","","","","win-only","1","g1:NE,g2:SW","0.7","4","0","1369626.1","1273","6275.5","46521.2","1","4","8","6","2","-8","-8","4","12","0.030303030303030304","1320.2","3000","-1590","[""down"",""left""]","{""num_key_presses"":8,""num_perfect"":5,""num_errors"":0,""num_randdir"":3,""num_randdir_good_moves"":1,""num_whilered"":0,""num_whileblue"":0,""num_blue"":4,""num_good_moves"":6}","[410.3214133126395,422.82142761775424,1.4,410.3214133126395,422.82142761775424,102.4,410.3214133126395,422.82142761775424,204.6,410.3214133126395,422.82142761775424,317,410.3214133126395,422.82142761775424,419.8,410.3214133126395,422.82142761775424,524.2,319.0714133126395,466.57142761775424,632.8,135.3214133126395,650.3214276177542,740.3,109.0714133126395,696.5714276177542,857.2,90.3214133126395,712.8214276177542,968.2,76.5714133126395,732.8214276177542,1084.9,72.8214133126395,741.5714276177542,1185.8,72.8214133126395,741.5714276177542,1290.5,72.8214133126395,741.5714276177542,1393.4,72.8214133126395,741.5714276177542,1499.2,72.8214133126395,741.5714276177542,1601.9,72.8214133126395,741.5714276177542,1702.9,72.8214133126395,741.5714276177542,1818.9,72.8214133126395,741.5714276177542,1924.2,72.8214133126395,741.5714276177542,2025.2,72.8214133126395,741.5714276177542,2136.2,72.8214133126395,741.5714276177542,2241,72.8214133126395,741.5714276177542,2350.3,72.8214133126395,741.5714276177542,2451,72.8214133126395,741.5714276177542,2556,72.8214133126395,741.5714276177542,2660.6,72.8214133126395,741.5714276177542,2771,72.8214133126395,741.5714276177542,2881.2,72.8214133126395,741.5714276177542,2987.6,72.8214133126395,741.5714276177542,3089.2,72.8214133126395,741.5714276177542,3190.4,72.8214133126395,741.5714276177542,3291.7,72.8214133126395,741.5714276177542,3399.3,72.8214133126395,741.5714276177542,3499.4,72.8214133126395,741.5714276177542,3602.5,72.8214133126395,741.5714276177542,3703.2,72.8214133126395,741.5714276177542,3805,72.8214133126395,741.5714276177542,3905.2,72.8214133126395,741.5714276177542,4006.7,72.8214133126395,741.5714276177542,4107.6,72.8214133126395,741.5714276177542,4214.6,72.8214133126395,741.5714276177542,4326.1,72.8214133126395,741.5714276177542,4433.4,72.8214133126395,741.5714276177542,4537.6,72.8214133126395,741.5714276177542,4641.3,72.8214133126395,741.5714276177542,4741.6,72.8214133126395,741.5714276177542,4854.5,72.8214133126395,741.5714276177542,4955.3]","[2400,2400,1000,0,1400,""smooth"",""down"",""down"",""good_move"",8265.2,5859.6,1958.2,5828.7,478.3,""oops"",""left"",""right"",""bad_move"",14673.3,6406.9,2586.8,11672.6,413.9,""oops"",""down"",""right"",""bad_move"",18212.2,3538.2,2928.3,14674,609.9,""smooth"",""down"",""down"",""good_move"",27574.1,9360.5,2840.7,24305.2,428.2,""smooth"",""left"",""left"",""good_move"",31500.1,3921.9,2520.2,27578.2,1401.7,""smooth"",""down"",""down"",""good_move"",34499.3,2997.2,2502,31502.1,495.2,""smooth"",""left"",""left"",""good_move"",37495.8,2993.1,2577.6,34502.7,415.5,""oops"",""left"",""left"",""good_move""]"
"8902","","<div style=""width:500px;"">
  <p>What determined the result of this run?</p>
  </div>","14","html-slider-response","29","1425298","0.0-7.0-1.3","72","1","2025-07-30 09:03:56","36c45c0696341be0efffe67d72a12abb","197.184.166.214","Mozilla/5.0 (Windows NT 10.0; Win64; x64) AppleWebKit/537.36 (KHTML, like Gecko) Chrome/138.0.0.0 Safari/537.36","WebKit","Chrome","138.0.0.0","Windows","10.0","https://app.prolific.com/","en-GB,en-US;q=0.9,en;q=0.8","67bfed4a6c0630c5f857b23e","687a360dabe5252b5ada7185","6889df7a1edcf2f91ded5943","0","67bfed4a6c0630c5f857b23e","0","2025-07-30T09:27:51.515Z","","","","AttribQ","","","","","","","","","","","50","","","","","","","","","","","","","","","","","","","","","","","","","","",""
"4636","","<div style=""width:500px;"">
  <p>How much control did you have over the ball?</p>
  </div>","10","html-slider-response","30","1429942","0.0-7.0-2.3","72","1","2025-07-30 09:03:56","36c45c0696341be0efffe67d72a12abb","197.184.166.214","Mozilla/5.0 (Windows NT 10.0; Win64; x64) AppleWebKit/537.36 (KHTML, like Gecko) Chrome/138.0.0.0 Safari/537.36","WebKit","Chrome","138.0.0.0","Windows","10.0","https://app.prolific.com/","en-GB,en-US;q=0.9,en;q=0.8","67bfed4a6c0630c5f857b23e","687a360dabe5252b5ada7185","6889df7a1edcf2f91ded5943","0","67bfed4a6c0630c5f857b23e","0","2025-07-30T09:27:56.159Z","","","","ControlQ","","","","","","","","","","","50","","","","","","","","","","","","","","","","","","","","","","","","","","",""
"4263","","<div style=""width:500px;"">
  <p>How would you describe your current emotional state?</p>
  </div>","4","html-slider-response","31","1434208","0.0-7.0-3.3","72","1","2025-07-30 09:03:56","36c45c0696341be0efffe67d72a12abb","197.184.166.214","Mozilla/5.0 (Windows NT 10.0; Win64; x64) AppleWebKit/537.36 (KHTML, like Gecko) Chrome/138.0.0.0 Safari/537.36","WebKit","Chrome","138.0.0.0","Windows","10.0","https://app.prolific.com/","en-GB,en-US;q=0.9,en;q=0.8","67bfed4a6c0630c5f857b23e","687a360dabe5252b5ada7185","6889df7a1edcf2f91ded5943","0","67bfed4a6c0630c5f857b23e","0","2025-07-30T09:28:00.425Z","","","","StressQ","","","","","","","","","","","50","","","","","","","","","","","","","","","","","","","","","","","","","","",""
"56162","","<div style=""width:500px;"">
  <p>What best describes how you currently feel?</p>
  </div>","96","html-slider-response","32","1490371","0.0-7.0-4.3","72","1","2025-07-30 09:03:56","36c45c0696341be0efffe67d72a12abb","197.184.166.214","Mozilla/5.0 (Windows NT 10.0; Win64; x64) AppleWebKit/537.36 (KHTML, like Gecko) Chrome/138.0.0.0 Safari/537.36","WebKit","Chrome","138.0.0.0","Windows","10.0","https://app.prolific.com/","en-GB,en-US;q=0.9,en;q=0.8","67bfed4a6c0630c5f857b23e","687a360dabe5252b5ada7185","6889df7a1edcf2f91ded5943","0","67bfed4a6c0630c5f857b23e","0","2025-07-30T09:28:56.589Z","","","","MotivationQ","","","","","","","","","","","50","","","","","","","","","","","","","","","","","","","","","","","","","","",""
"","","","","ctl-task-cpt","33","1515696","0.0-7.0-0.4","72","1","2025-07-30 09:03:56","36c45c0696341be0efffe67d72a12abb","197.184.166.214","Mozilla/5.0 (Windows NT 10.0; Win64; x64) AppleWebKit/537.36 (KHTML, like Gecko) Chrome/138.0.0.0 Safari/537.36","WebKit","Chrome","138.0.0.0","Windows","10.0","https://app.prolific.com/","en-GB,en-US;q=0.9,en;q=0.8","67bfed4a6c0630c5f857b23e","687a360dabe5252b5ada7185","6889df7a1edcf2f91ded5943","0","67bfed4a6c0630c5f857b23e","0","2025-07-30T09:29:21.913Z","","","","","","","","","","","","","","","","win-only","2","g1:SE,g2:NW","0.6","5","0","1493135","5130","10143.4","22298.9","1","4","8","6","2","-8","-8","0","4","0","1403.2","3000","-1930","[""left"",""up""]","{""num_key_presses"":1,""num_perfect"":1,""num_errors"":0,""num_randdir"":0,""num_randdir_good_moves"":0,""num_whilered"":0,""num_whileblue"":0,""num_blue"":1,""num_good_moves"":1}","[412.8214133126395,416.57142761775424,1.4,412.8214133126395,416.57142761775424,106.1,412.8214133126395,416.57142761775424,208.4,412.8214133126395,416.57142761775424,316.8,412.8214133126395,416.57142761775424,419.8,412.8214133126395,416.57142761775424,521.4,412.8214133126395,416.57142761775424,624.3,412.8214133126395,416.57142761775424,737.3,157.8214133126395,131.57142761775424,845.6,157.8214133126395,131.57142761775424,950.3,157.8214133126395,131.57142761775424,1060.5,86.5714133126395,104.07142761775425,1163.7,59.07141331263951,91.57142761775425,1266,59.07141331263951,91.57142761775425,1371.9,59.07141331263951,91.57142761775425,1473.4,59.07141331263951,91.57142761775425,1584.5,59.07141331263951,91.57142761775425,1687.5,59.07141331263951,91.57142761775425,1796,59.07141331263951,91.57142761775425,1908.5,59.07141331263951,91.57142761775425,2018.5,59.07141331263951,91.57142761775425,2130.1,59.07141331263951,91.57142761775425,2232.1,59.07141331263951,91.57142761775425,2334.7,59.07141331263951,91.57142761775425,2438.3,59.07141331263951,91.57142761775425,2540.3,59.07141331263951,91.57142761775425,2647.7,59.07141331263951,91.57142761775425,2752.2,59.07141331263951,91.57142761775425,2853.2,59.07141331263951,91.57142761775425,2958,59.07141331263951,91.57142761775425,3058.1,59.07141331263951,91.57142761775425,3167.2,59.07141331263951,91.57142761775425,3267.7,59.07141331263951,91.57142761775425,3379.1,59.07141331263951,91.57142761775425,3482.8,59.07141331263951,91.57142761775425,3597.9,59.07141331263951,91.57142761775425,3703.9,59.07141331263951,91.57142761775425,3805.5,59.07141331263951,91.57142761775425,3906.7,59.07141331263951,91.57142761775425,4007.6,59.07141331263951,91.57142761775425,4115.9,59.07141331263951,91.57142761775425,4216.5,59.07141331263951,91.57142761775425,4321.7,59.07141331263951,91.57142761775425,4423.6,59.07141331263951,91.57142761775425,4535.7,59.07141331263951,91.57142761775425,4638,59.07141331263951,91.57142761775425,4740.6,59.07141331263951,91.57142761775425,4841.4,59.07141331263951,91.57142761775425,4941.8]","[3982.7,3982.7,1000,0,2982.7,""smooth"",""up"",""up"",""good_move""]"
"585379","","<div style=""width:500px;"">
  <p>What determined the result of this run?</p>
  </div>","92","html-slider-response","34","2101076","0.0-7.0-1.4","72","1","2025-07-30 09:03:56","36c45c0696341be0efffe67d72a12abb","197.184.166.214","Mozilla/5.0 (Windows NT 10.0; Win64; x64) AppleWebKit/537.36 (KHTML, like Gecko) Chrome/138.0.0.0 Safari/537.36","WebKit","Chrome","138.0.0.0","Windows","10.0","https://app.prolific.com/","en-GB,en-US;q=0.9,en;q=0.8","67bfed4a6c0630c5f857b23e","687a360dabe5252b5ada7185","6889df7a1edcf2f91ded5943","0","67bfed4a6c0630c5f857b23e","0","2025-07-30T09:39:07.293Z","","","","AttribQ","","","","","","","","","","","50","","","","","","","","","","","","","","","","","","","","","","","","","","",""
"9650","","<div style=""width:500px;"">
  <p>How much control did you have over the ball?</p>
  </div>","7","html-slider-response","35","2110729","0.0-7.0-2.4","72","1","2025-07-30 09:03:56","36c45c0696341be0efffe67d72a12abb","197.184.166.214","Mozilla/5.0 (Windows NT 10.0; Win64; x64) AppleWebKit/537.36 (KHTML, like Gecko) Chrome/138.0.0.0 Safari/537.36","WebKit","Chrome","138.0.0.0","Windows","10.0","https://app.prolific.com/","en-GB,en-US;q=0.9,en;q=0.8","67bfed4a6c0630c5f857b23e","687a360dabe5252b5ada7185","6889df7a1edcf2f91ded5943","0","67bfed4a6c0630c5f857b23e","0","2025-07-30T09:39:16.946Z","","","","ControlQ","","","","","","","","","","","50","","","","","","","","","","","","","","","","","","","","","","","","","","",""
"2648","","<div style=""width:500px;"">
  <p>How would you describe your current emotional state?</p>
  </div>","5","html-slider-response","36","2113381","0.0-7.0-3.4","72","1","2025-07-30 09:03:56","36c45c0696341be0efffe67d72a12abb","197.184.166.214","Mozilla/5.0 (Windows NT 10.0; Win64; x64) AppleWebKit/537.36 (KHTML, like Gecko) Chrome/138.0.0.0 Safari/537.36","WebKit","Chrome","138.0.0.0","Windows","10.0","https://app.prolific.com/","en-GB,en-US;q=0.9,en;q=0.8","67bfed4a6c0630c5f857b23e","687a360dabe5252b5ada7185","6889df7a1edcf2f91ded5943","0","67bfed4a6c0630c5f857b23e","0","2025-07-30T09:39:19.598Z","","","","StressQ","","","","","","","","","","","50","","","","","","","","","","","","","","","","","","","","","","","","","","",""
"3915","","<div style=""width:500px;"">
  <p>What best describes how you currently feel?</p>
  </div>","93","html-slider-response","37","2117299","0.0-7.0-4.4","72","1","2025-07-30 09:03:56","36c45c0696341be0efffe67d72a12abb","197.184.166.214","Mozilla/5.0 (Windows NT 10.0; Win64; x64) AppleWebKit/537.36 (KHTML, like Gecko) Chrome/138.0.0.0 Safari/537.36","WebKit","Chrome","138.0.0.0","Windows","10.0","https://app.prolific.com/","en-GB,en-US;q=0.9,en;q=0.8","67bfed4a6c0630c5f857b23e","687a360dabe5252b5ada7185","6889df7a1edcf2f91ded5943","0","67bfed4a6c0630c5f857b23e","0","2025-07-30T09:39:23.516Z","","","","MotivationQ","","","","","","","","","","","50","","","","","","","","","","","","","","","","","","","","","","","","","","",""
"","","","","ctl-task-cpt","38","2256412","0.0-7.0-0.5","72","1","2025-07-30 09:03:56","36c45c0696341be0efffe67d72a12abb","197.184.166.214","Mozilla/5.0 (Windows NT 10.0; Win64; x64) AppleWebKit/537.36 (KHTML, like Gecko) Chrome/138.0.0.0 Safari/537.36","WebKit","Chrome","138.0.0.0","Windows","10.0","https://app.prolific.com/","en-GB,en-US;q=0.9,en;q=0.8","67bfed4a6c0630c5f857b23e","687a360dabe5252b5ada7185","6889df7a1edcf2f91ded5943","0","67bfed4a6c0630c5f857b23e","0","2025-07-30T09:41:42.630Z","","","","","","","","","","","","","","","","win-only","1","g1:NE,g2:SW","0.5","6","0","2120065.1","84684.7","89692.2","136086.6","1","4","4","6","1","1","1","1","0","0.007575757575757576","1874.6","3000","160","[""up"",""right""]","{""num_key_presses"":14,""num_perfect"":6,""num_errors"":0,""num_randdir"":8,""num_randdir_good_moves"":3,""num_whilered"":0,""num_whileblue"":0,""num_blue"":2,""num_good_moves"":9}","[421.071420942034,420.57142857142856,1.5,421.071420942034,420.57142857142856,103.2,421.071420942034,420.57142857142856,206.1,421.071420942034,420.57142857142856,308.7,421.071420942034,420.57142857142856,421.1,421.071420942034,420.57142857142856,535.5,421.071420942034,420.57142857142856,640,421.071420942034,420.57142857142856,743.8,451.071420942034,323.07142857142856,850.7,508.571420942034,246.82142857142856,955.8,508.571420942034,246.82142857142856,1056.2,508.571420942034,246.82142857142856,1158.1,631.071420942034,211.82142857142856,1260.2,721.071420942034,174.32142857142856,1371.1,743.571420942034,119.32142857142857,1473.4,749.821420942034,89.32142857142857,1583.8,746.071420942034,76.82142857142857,1687.2,746.071420942034,76.82142857142857,1791.6,746.071420942034,76.82142857142857,1899.5,746.071420942034,76.82142857142857,2005.2,746.071420942034,76.82142857142857,2108.2,746.071420942034,76.82142857142857,2210.1,746.071420942034,76.82142857142857,2318.2,746.071420942034,76.82142857142857,2438.3,746.071420942034,76.82142857142857,2539.7,746.071420942034,76.82142857142857,2653.3,746.071420942034,76.82142857142857,2759.2,746.071420942034,76.82142857142857,2865.9,746.071420942034,76.82142857142857,2970.8,746.071420942034,76.82142857142857,3076.7,746.071420942034,76.82142857142857,3183.2,746.071420942034,76.82142857142857,3289.6,746.071420942034,76.82142857142857,3390.6,746.071420942034,76.82142857142857,3492.2,746.071420942034,76.82142857142857,3602.8,746.071420942034,76.82142857142857,3708,746.071420942034,76.82142857142857,3817.7,746.071420942034,76.82142857142857,3921.8,746.071420942034,76.82142857142857,4025.7,746.071420942034,76.82142857142857,4136.5,746.071420942034,76.82142857142857,4241.6,746.071420942034,76.82142857142857,4352.4,746.071420942034,76.82142857142857,4456.2,746.071420942034,76.82142857142857,4560.4,746.071420942034,76.82142857142857,4668.7,746.071420942034,76.82142857142857,4773,746.071420942034,76.82142857142857,4874.7,746.071420942034,76.82142857142857,4984]","[1551.5,1551.5,1000,0,551.5,""oops"",""up"",""down"",""bad_move"",4631.2,3078.2,2632.5,1553,445.7,""smooth"",""up"",""up"",""good_move"",7251.1,2617.7,2150.6,4633.4,467.1,""smooth"",""up"",""up"",""good_move"",10160.9,2904,2487.7,7256.9,416.3,""oops"",""up"",""down"",""bad_move"",16196.3,6030.5,1810.8,13881.6,503.9,""oops"",""right"",""left"",""bad_move"",19446.7,3248.5,2671.5,16198.2,577,""smooth"",""right"",""right"",""good_move"",23433.9,3985.4,3594.8,19448.5,390.6,""oops"",""right"",""left"",""bad_move"",25478.6,2043.1,1630.1,23435.5,413,""oops"",""up"",""down"",""bad_move"",28951.7,3470.9,3084.2,25480.8,386.7,""smooth"",""right"",""right"",""good_move"",32146.2,3187.3,2766.2,28959,421,""smooth"",""up"",""up"",""good_move"",38067.7,5919.8,1861.9,35793,412.8,""smooth"",""up"",""up"",""good_move"",40230.2,2151.8,1341.7,38078.4,810.1,""oops"",""right"",""up"",""good_move"",42999,2767.5,2396.2,40231.5,371.3,""oops"",""right"",""right"",""good_move"",46215,3214.4,2859.4,43000.6,355,""oops"",""right"",""right"",""good_move""]"
"5951","","<div style=""width:500px;"">
  <p>What determined the result of this run?</p>
  </div>","94","html-slider-response","39","2262375","0.0-7.0-1.5","72","1","2025-07-30 09:03:56","36c45c0696341be0efffe67d72a12abb","197.184.166.214","Mozilla/5.0 (Windows NT 10.0; Win64; x64) AppleWebKit/537.36 (KHTML, like Gecko) Chrome/138.0.0.0 Safari/537.36","WebKit","Chrome","138.0.0.0","Windows","10.0","https://app.prolific.com/","en-GB,en-US;q=0.9,en;q=0.8","67bfed4a6c0630c5f857b23e","687a360dabe5252b5ada7185","6889df7a1edcf2f91ded5943","0","67bfed4a6c0630c5f857b23e","0","2025-07-30T09:41:48.592Z","","","","AttribQ","","","","","","","","","","","50","","","","","","","","","","","","","","","","","","","","","","","","","","",""
"2898","","<div style=""width:500px;"">
  <p>How much control did you have over the ball?</p>
  </div>","92","html-slider-response","40","2265275","0.0-7.0-2.5","72","1","2025-07-30 09:03:56","36c45c0696341be0efffe67d72a12abb","197.184.166.214","Mozilla/5.0 (Windows NT 10.0; Win64; x64) AppleWebKit/537.36 (KHTML, like Gecko) Chrome/138.0.0.0 Safari/537.36","WebKit","Chrome","138.0.0.0","Windows","10.0","https://app.prolific.com/","en-GB,en-US;q=0.9,en;q=0.8","67bfed4a6c0630c5f857b23e","687a360dabe5252b5ada7185","6889df7a1edcf2f91ded5943","0","67bfed4a6c0630c5f857b23e","0","2025-07-30T09:41:51.492Z","","","","ControlQ","","","","","","","","","","","50","","","","","","","","","","","","","","","","","","","","","","","","","","",""
"2884","","<div style=""width:500px;"">
  <p>How would you describe your current emotional state?</p>
  </div>","12","html-slider-response","41","2268161","0.0-7.0-3.5","72","1","2025-07-30 09:03:56","36c45c0696341be0efffe67d72a12abb","197.184.166.214","Mozilla/5.0 (Windows NT 10.0; Win64; x64) AppleWebKit/537.36 (KHTML, like Gecko) Chrome/138.0.0.0 Safari/537.36","WebKit","Chrome","138.0.0.0","Windows","10.0","https://app.prolific.com/","en-GB,en-US;q=0.9,en;q=0.8","67bfed4a6c0630c5f857b23e","687a360dabe5252b5ada7185","6889df7a1edcf2f91ded5943","0","67bfed4a6c0630c5f857b23e","0","2025-07-30T09:41:54.378Z","","","","StressQ","","","","","","","","","","","50","","","","","","","","","","","","","","","","","","","","","","","","","","",""
"3042","","<div style=""width:500px;"">
  <p>What best describes how you currently feel?</p>
  </div>","97","html-slider-response","42","2271205","0.0-7.0-4.5","72","1","2025-07-30 09:03:56","36c45c0696341be0efffe67d72a12abb","197.184.166.214","Mozilla/5.0 (Windows NT 10.0; Win64; x64) AppleWebKit/537.36 (KHTML, like Gecko) Chrome/138.0.0.0 Safari/537.36","WebKit","Chrome","138.0.0.0","Windows","10.0","https://app.prolific.com/","en-GB,en-US;q=0.9,en;q=0.8","67bfed4a6c0630c5f857b23e","687a360dabe5252b5ada7185","6889df7a1edcf2f91ded5943","0","67bfed4a6c0630c5f857b23e","0","2025-07-30T09:41:57.422Z","","","","MotivationQ","","","","","","","","","","","50","","","","","","","","","","","","","","","","","","","","","","","","","","",""
"","","","","ctl-task-cpt","43","2354207","0.0-7.0-0.6","72","1","2025-07-30 09:03:56","36c45c0696341be0efffe67d72a12abb","197.184.166.214","Mozilla/5.0 (Windows NT 10.0; Win64; x64) AppleWebKit/537.36 (KHTML, like Gecko) Chrome/138.0.0.0 Safari/537.36","WebKit","Chrome","138.0.0.0","Windows","10.0","https://app.prolific.com/","en-GB,en-US;q=0.9,en;q=0.8","67bfed4a6c0630c5f857b23e","687a360dabe5252b5ada7185","6889df7a1edcf2f91ded5943","0","67bfed4a6c0630c5f857b23e","0","2025-07-30T09:43:20.424Z","","","","","","","","","","","","","","","","win-only","0","g1:NW,g2:SE","0.4","7","0","2273967.9","6629.5","11647","79979.7","1","4","4","6","2","-4","-4","0","1","0","2391.2","3000","-1215","[""down"",""right""]","{""num_key_presses"":18,""num_perfect"":8,""num_errors"":0,""num_randdir"":10,""num_randdir_good_moves"":1,""num_whilered"":0,""num_whileblue"":0,""num_blue"":2,""num_good_moves"":9}","[351.9642857142857,347.21428666796004,1.6,351.9642857142857,347.21428666796004,109.1,351.9642857142857,347.21428666796004,216.1,351.9642857142857,347.21428666796004,316.6,351.9642857142857,347.21428666796004,424.3,351.9642857142857,347.21428666796004,526.6,351.9642857142857,347.21428666796004,635.8,351.9642857142857,347.21428666796004,737.1,351.9642857142857,347.21428666796004,839.1,351.9642857142857,347.21428666796004,959.8,353.2142857142857,335.96428666796004,1059.9,401.9642857142857,302.21428666796004,1169.9,424.4642857142857,302.21428666796004,1281.7,441.9642857142857,325.96428666796004,1389.2,531.9642857142857,487.21428666796004,1490.2,538.2142857142857,497.21428666796004,1627.7,538.2142857142857,497.21428666796004,1737.2,614.4642857142857,612.21428666796,1850.4,649.4642857142857,654.71428666796,1957.5,649.4642857142857,654.71428666796,2069.7,649.4642857142857,654.71428666796,2177.1,649.4642857142857,654.71428666796,2283,649.4642857142857,654.71428666796,2387.1,649.4642857142857,654.71428666796,2487.7,649.4642857142857,654.71428666796,2592.2,649.4642857142857,654.71428666796,2699.9,649.4642857142857,654.71428666796,2805.8,649.4642857142857,654.71428666796,2917.8,649.4642857142857,654.71428666796,3023.6,649.4642857142857,654.71428666796,3125.8,649.4642857142857,654.71428666796,3233.2,649.4642857142857,654.71428666796,3333.7,649.4642857142857,654.71428666796,3441.3,649.4642857142857,654.71428666796,3551.6,649.4642857142857,654.71428666796,3657.3,649.4642857142857,654.71428666796,3770.2,649.4642857142857,654.71428666796,3870.7,649.4642857142857,654.71428666796,3976.9,649.4642857142857,654.71428666796,4077.8,649.4642857142857,654.71428666796,4182.5,649.4642857142857,654.71428666796,4290.8,649.4642857142857,654.71428666796,4394.4,649.4642857142857,654.71428666796,4509.1,649.4642857142857,654.71428666796,4618.2,649.4642857142857,654.71428666796,4729.2,649.4642857142857,654.71428666796,4840.1,649.4642857142857,654.71428666796,4940.2]","[1457,1457,1000,0,457,""oops"",""right"",""up"",""bad_move"",4856.3,3397.8,2929.8,1458.5,468,""oops"",""down"",""left"",""bad_move"",8119.7,3261.3,2891.1,4858.4,370.2,""smooth"",""down"",""down"",""good_move"",11439.7,3318,2834.7,8121.7,483.3,""oops"",""down"",""up"",""bad_move"",15187.5,3743.7,2686.6,11443.8,1057.1,""oops"",""down"",""up"",""bad_move"",19138.4,3949.1,2356.7,15189.3,1592.4,""smooth"",""right"",""right"",""good_move"",22052.1,2911.9,2186.8,19140.2,725.1,""smooth"",""down"",""down"",""good_move"",25041.6,2988.4,2462.7,22053.2,525.7,""oops"",""right"",""up"",""bad_move"",32734.8,7691.6,2640.3,29671.5,423,""smooth"",""down"",""down"",""good_move"",39415.4,6679.2,2550.1,36346.2,519.1,""oops"",""down"",""left"",""bad_move"",42722.1,3304.9,2745.8,39417.2,559.1,""smooth"",""down"",""down"",""good_move"",46691.6,3965.8,2478.7,42725.8,1487.1,""oops"",""down"",""up"",""bad_move"",49968.3,3275.4,2678.8,46693,596.5,""smooth"",""down"",""down"",""good_move"",52874.4,2905,2279.9,49969.4,625.1,""oops"",""down"",""up"",""bad_move"",56268.1,3392.6,2077.2,52875.6,1315.4,""smooth"",""down"",""down"",""good_move"",59086.5,2817.2,2273.3,56269.3,543.9,""oops"",""down"",""left"",""bad_move"",62780.9,3692.7,2108.3,59088.2,1584.4,""oops"",""down"",""right"",""good_move"",65947.5,3164.9,2779.1,62782.6,385.8,""smooth"",""down"",""down"",""good_move""]"
"3605","","<div style=""width:500px;"">
  <p>What determined the result of this run?</p>
  </div>","3","html-slider-response","44","2357816","0.0-7.0-1.6","72","1","2025-07-30 09:03:56","36c45c0696341be0efffe67d72a12abb","197.184.166.214","Mozilla/5.0 (Windows NT 10.0; Win64; x64) AppleWebKit/537.36 (KHTML, like Gecko) Chrome/138.0.0.0 Safari/537.36","WebKit","Chrome","138.0.0.0","Windows","10.0","https://app.prolific.com/","en-GB,en-US;q=0.9,en;q=0.8","67bfed4a6c0630c5f857b23e","687a360dabe5252b5ada7185","6889df7a1edcf2f91ded5943","0","67bfed4a6c0630c5f857b23e","0","2025-07-30T09:43:24.033Z","","","","AttribQ","","","","","","","","","","","50","","","","","","","","","","","","","","","","","","","","","","","","","","",""
"2986","","<div style=""width:500px;"">
  <p>How much control did you have over the ball?</p>
  </div>","5","html-slider-response","45","2360806","0.0-7.0-2.6","72","1","2025-07-30 09:03:56","36c45c0696341be0efffe67d72a12abb","197.184.166.214","Mozilla/5.0 (Windows NT 10.0; Win64; x64) AppleWebKit/537.36 (KHTML, like Gecko) Chrome/138.0.0.0 Safari/537.36","WebKit","Chrome","138.0.0.0","Windows","10.0","https://app.prolific.com/","en-GB,en-US;q=0.9,en;q=0.8","67bfed4a6c0630c5f857b23e","687a360dabe5252b5ada7185","6889df7a1edcf2f91ded5943","0","67bfed4a6c0630c5f857b23e","0","2025-07-30T09:43:27.023Z","","","","ControlQ","","","","","","","","","","","50","","","","","","","","","","","","","","","","","","","","","","","","","","",""
"5244","","<div style=""width:500px;"">
  <p>How would you describe your current emotional state?</p>
  </div>","66","html-slider-response","46","2366055","0.0-7.0-3.6","72","1","2025-07-30 09:03:56","36c45c0696341be0efffe67d72a12abb","197.184.166.214","Mozilla/5.0 (Windows NT 10.0; Win64; x64) AppleWebKit/537.36 (KHTML, like Gecko) Chrome/138.0.0.0 Safari/537.36","WebKit","Chrome","138.0.0.0","Windows","10.0","https://app.prolific.com/","en-GB,en-US;q=0.9,en;q=0.8","67bfed4a6c0630c5f857b23e","687a360dabe5252b5ada7185","6889df7a1edcf2f91ded5943","0","67bfed4a6c0630c5f857b23e","0","2025-07-30T09:43:32.272Z","","","","StressQ","","","","","","","","","","","50","","","","","","","","","","","","","","","","","","","","","","","","","","",""
"3529","","<div style=""width:500px;"">
  <p>What best describes how you currently feel?</p>
  </div>","95","html-slider-response","47","2369586","0.0-7.0-4.6","72","1","2025-07-30 09:03:56","36c45c0696341be0efffe67d72a12abb","197.184.166.214","Mozilla/5.0 (Windows NT 10.0; Win64; x64) AppleWebKit/537.36 (KHTML, like Gecko) Chrome/138.0.0.0 Safari/537.36","WebKit","Chrome","138.0.0.0","Windows","10.0","https://app.prolific.com/","en-GB,en-US;q=0.9,en;q=0.8","67bfed4a6c0630c5f857b23e","687a360dabe5252b5ada7185","6889df7a1edcf2f91ded5943","0","67bfed4a6c0630c5f857b23e","0","2025-07-30T09:43:35.803Z","","","","MotivationQ","","","","","","","","","","","50","","","","","","","","","","","","","","","","","","","","","","","","","","",""