"rt","response_timestamp","stimulus","response","trial_type","trial_index","time_elapsed","internal_node_id","run_id","condition","recorded_at","source_code_version","ip","user_agent","device","browser","browser_version","platform","platform_version","referer","accept_language","PROLIFIC_PID","STUDY_ID","SESSION_ID","BATCH","prolific_id","batch","realtime","success","question_order","question_id","eventType","responses","item_order","radio_event_ids","radio_event_times","key_event_times","mouse_event_times","straightlining","zigzagging","honeypot","view_history","slider_start","which_type","canvas_config","goals_layout","control_level","trial_number","tutorial_trial_number","trial_start_time","phase1_start_time","phase2_start_time","phase3_start_time","goal_1_value","goal_1_distance","goal_2_value","goal_2_distance","goal_selected","outcome","outcome_total","participant_final_score","participant_initial_score","participant_final_score_prop","goal_choice_rt","allocated_time","allocated_time_remaining","goal_direction","counts","mouse_movements","key_presses"
"5148","1754470932916","<p style='font-size:40px;line-height:1.25'><strong>Welcome to the experiment!</strong></p><p style='font-size:1.1em;line-height:1.25'>Thank you for participanting in our experiment again! You will be asked to play the Dysfunctional Ball Game again. We will briefly recap the rules before we start.</p><p style='font-size:1.1em;line-height:1.25'>Press <strong>Next</strong> to continue.</p>","0","custom-html-button-response","0","5154","0.0-0.0","152","1","2025-08-06 09:02:05","36c45c0696341be0efffe67d72a12abb","41.13.114.127","Mozilla/5.0 (Windows NT 10.0; Win64; x64) AppleWebKit/537.36 (KHTML, like Gecko) Chrome/138.0.0.0 Safari/537.36","WebKit","Chrome","138.0.0.0","Windows","10.0","https://app.prolific.com/","en-US,en;q=0.9","67cac9c704712b2393e52905","687a1a965b9f5b85a264363e","689317bd0f9f319eb49bee11","1","67cac9c704712b2393e52905","1","2025-08-06T09:02:12.918Z","","","","","","","","","","","","","","","","","","","","","","","","","","","","","","","","","","","","","","","","","",""
"4689","","","","fullscreen","1","10851","0.0-1.0","152","1","2025-08-06 09:02:05","36c45c0696341be0efffe67d72a12abb","41.13.114.127","Mozilla/5.0 (Windows NT 10.0; Win64; x64) AppleWebKit/537.36 (KHTML, like Gecko) Chrome/138.0.0.0 Safari/537.36","WebKit","Chrome","138.0.0.0","Windows","10.0","https://app.prolific.com/","en-US,en;q=0.9","67cac9c704712b2393e52905","687a1a965b9f5b85a264363e","689317bd0f9f319eb49bee11","1","67cac9c704712b2393e52905","1","","true","","","","","","","","","","","","","","","","","","","","","","","","","","","","","","","","","","","","","","","","",""
"7105","1754470945722"," <p style='font-size:1.1em;line-height:1.25'>Thank you for closing all other tabs.</p><p style='font-size:1.1em;line-height:1.25'>We will now invite you to fill in some questionnaires, before starting the game.<br>This will take about 5 minutes.<br></p><p style='font-size:1.1em;line-height:1.25'>Press the <strong>Next</strong> button to continue.</p>","0","custom-html-button-response","2","17958","0.0-2.0","152","1","2025-08-06 09:02:05","36c45c0696341be0efffe67d72a12abb","41.13.114.127","Mozilla/5.0 (Windows NT 10.0; Win64; x64) AppleWebKit/537.36 (KHTML, like Gecko) Chrome/138.0.0.0 Safari/537.36","WebKit","Chrome","138.0.0.0","Windows","10.0","https://app.prolific.com/","en-US,en;q=0.9","67cac9c704712b2393e52905","687a1a965b9f5b85a264363e","689317bd0f9f319eb49bee11","1","67cac9c704712b2393e52905","1","2025-08-06T09:02:25.722Z","","","","","","","","","","","","","","","","","","","","","","","","","","","","","","","","","","","","","","","","","",""
"6291","","","{""assigned_sex"":""female""}","survey-multi-choice","3","24253","0.0-3.0-0.0","152","1","2025-08-06 09:02:05","36c45c0696341be0efffe67d72a12abb","41.13.114.127","Mozilla/5.0 (Windows NT 10.0; Win64; x64) AppleWebKit/537.36 (KHTML, like Gecko) Chrome/138.0.0.0 Safari/537.36","WebKit","Chrome","138.0.0.0","Windows","10.0","https://app.prolific.com/","en-US,en;q=0.9","67cac9c704712b2393e52905","687a1a965b9f5b85a264363e","689317bd0f9f319eb49bee11","1","67cac9c704712b2393e52905","1","","","[0]","0","demographics","","","","","","","","","","","","","","","","","","","","","","","","","","","","","","","","","","","","","",""
"7119","1754470959137","<p style='font-size:1.1em;line-height:1.25'>In the following, we will perform a baseline assessment. This means that we will ask you a few questions relating to your experiences over the past month.<br></p><p style='font-size:1.1em;line-height:1.25'>Press the <strong>Next</strong> button to continue.</p>","0","custom-html-button-response","4","31373","0.0-4.0-0.0","152","1","2025-08-06 09:02:05","36c45c0696341be0efffe67d72a12abb","41.13.114.127","Mozilla/5.0 (Windows NT 10.0; Win64; x64) AppleWebKit/537.36 (KHTML, like Gecko) Chrome/138.0.0.0 Safari/537.36","WebKit","Chrome","138.0.0.0","Windows","10.0","https://app.prolific.com/","en-US,en;q=0.9","67cac9c704712b2393e52905","687a1a965b9f5b85a264363e","689317bd0f9f319eb49bee11","1","67cac9c704712b2393e52905","1","2025-08-06T09:02:39.138Z","","","","","","","","","","","","","","","","","","","","","","","","","","","","","","","","","","","","","","","","","",""
"54826.10000002384","","","","survey-template","5","86206","0.0-4.0-1.0","152","1","2025-08-06 09:02:05","36c45c0696341be0efffe67d72a12abb","41.13.114.127","Mozilla/5.0 (Windows NT 10.0; Win64; x64) AppleWebKit/537.36 (KHTML, like Gecko) Chrome/138.0.0.0 Safari/537.36","WebKit","Chrome","138.0.0.0","Windows","10.0","https://app.prolific.com/","en-US,en;q=0.9","67cac9c704712b2393e52905","687a1a965b9f5b85a264363e","689317bd0f9f319eb49bee11","1","67cac9c704712b2393e52905","1","2025-08-06T09:03:33.970Z","","","","pss","{""Q01"":""3"",""Q02"":""3"",""Q03"":""2"",""Q04"":""1"",""Q05"":""2"",""Q06"":""2"",""Q07"":""1"",""Q08"":""2"",""Q09"":""3"",""Q10"":""2""}","[0,1,2,3,4,5,6,7,8,9]","[""Q01"",""Q03"",""Q02"",""Q04"",""Q05"",""Q06"",""Q06"",""Q07"",""Q08"",""Q09"",""Q10""]","[5362.5,12229.399999976158,13824.600000023842,16826.5,19545.700000047684,21222,39227.10000002384,42022.10000002384,47243.299999952316,49739.299999952316,51196]","[]","[0.10000002384185791,5362.5,6538.899999976158,7894.299999952316,8979,10949.700000047684,12229.399999976158,13824.600000023842,15438.200000047684,16826.5,19545.700000047684,21222,39227.10000002384,40622.60000002384,42022.10000002384,44323.39999997616,47243.299999952316,49739.299999952316,51196,54822.299999952316]","0.5","0.7777777777777778","0","","","","","","","","","","","","","","","","","","","","","","","","","","","","",""
"2198","1754471016169","<p style='font-size:1.1em;line-height:1.25'>Thank you for your answers! Now we will ask you a few more questions relating to your feelings in the last 24 hours.<br></p><p style='font-size:1.1em;line-height:1.25'>Press the <strong>Next</strong> button to continue.</p>","0","custom-html-button-response","6","88405","0.0-4.0-2.0","152","1","2025-08-06 09:02:05","36c45c0696341be0efffe67d72a12abb","41.13.114.127","Mozilla/5.0 (Windows NT 10.0; Win64; x64) AppleWebKit/537.36 (KHTML, like Gecko) Chrome/138.0.0.0 Safari/537.36","WebKit","Chrome","138.0.0.0","Windows","10.0","https://app.prolific.com/","en-US,en;q=0.9","67cac9c704712b2393e52905","687a1a965b9f5b85a264363e","689317bd0f9f319eb49bee11","1","67cac9c704712b2393e52905","1","2025-08-06T09:03:36.170Z","","","","","","","","","","","","","","","","","","","","","","","","","","","","","","","","","","","","","","","","","",""
"99537.39999997616","","","","survey-template","7","187948","0.0-4.0-3.0","152","1","2025-08-06 09:02:05","36c45c0696341be0efffe67d72a12abb","41.13.114.127","Mozilla/5.0 (Windows NT 10.0; Win64; x64) AppleWebKit/537.36 (KHTML, like Gecko) Chrome/138.0.0.0 Safari/537.36","WebKit","Chrome","138.0.0.0","Windows","10.0","https://app.prolific.com/","en-US,en;q=0.9","67cac9c704712b2393e52905","687a1a965b9f5b85a264363e","689317bd0f9f319eb49bee11","1","67cac9c704712b2393e52905","1","2025-08-06T09:05:15.712Z","","","","drsp","{""Q01"":""1"",""Q02"":""1"",""Q03"":""0"",""Q04"":""3"",""Q05"":""3"",""Q06"":""4"",""Q07"":""1"",""Q08"":""0"",""Q09"":""3"",""Q10"":""1"",""Q11"":""4"",""Q12"":""1"",""Q13"":""5"",""Q14"":""4"",""Q15"":""4"",""Q16"":""4"",""Q17"":""3"",""Q18"":""2"",""Q19"":""1"",""Q20"":""3"",""Q21"":""4"",""Q22"":""3""}","[0,1,2,3,4,5,6,7,8,9,10,11,12,13,14,15,16,17,18,19,20,21]","[""Q01"",""Q02"",""Q03"",""Q04"",""Q05"",""Q06"",""Q07"",""Q08"",""Q08"",""Q09"",""Q10"",""Q11"",""Q11"",""Q12"",""Q13"",""Q14"",""Q15"",""Q16"",""Q17"",""Q18"",""Q19"",""Q20"",""Q21"",""Q22""]","[5383.299999952316,6870,8862.799999952316,13008.299999952316,15395.899999976158,20965.799999952316,22509.5,24792.799999952316,28394.100000023842,38861,43396.60000002384,45529.10000002384,49723.60000002384,54324.5,58460.5,63966.200000047684,69047.79999995232,78771.39999997616,80296.79999995232,83008.29999995232,85515.39999997616,89817,95523.60000002384,97228.29999995232]","[]","[0.10000002384185791,5383.299999952316,6870,8862.799999952316,11337.799999952316,13008.299999952316,15395.899999976158,18992.200000047684,19184.299999952316,20965.799999952316,22509.5,24792.799999952316,26307.100000023842,28394.100000023842,37368.299999952316,38861,43396.60000002384,45529.10000002384,49723.60000002384,52204.60000002384,54324.5,57346.200000047684,58460.5,63966.200000047684,69047.79999995232,74973.5,76112.60000002384,77124.10000002384,78771.39999997616,80296.79999995232,83008.29999995232,85515.39999997616,88197.29999995232,89817,95523.60000002384,97228.29999995232,99529.60000002384]","0.2727272727272727","0.42857142857142855","0","","","","","","","","","","","","","","","","","","","","","","","","","","","","",""
"19365.299999952316","","","","survey-template","8","207316","0.0-4.0-4.0","152","1","2025-08-06 09:02:05","36c45c0696341be0efffe67d72a12abb","41.13.114.127","Mozilla/5.0 (Windows NT 10.0; Win64; x64) AppleWebKit/537.36 (KHTML, like Gecko) Chrome/138.0.0.0 Safari/537.36","WebKit","Chrome","138.0.0.0","Windows","10.0","https://app.prolific.com/","en-US,en;q=0.9","67cac9c704712b2393e52905","687a1a965b9f5b85a264363e","689317bd0f9f319eb49bee11","1","67cac9c704712b2393e52905","1","2025-08-06T09:05:35.080Z","","","","stress","{""Q01"":""3"",""Q02"":""3"",""Q03"":""4""}","[0,1,2]","[""Q01"",""Q02"",""Q03""]","[9172.899999976158,12240.599999904633,18017.199999928474]","[]","[9172.899999976158,12240.599999904633,18017.199999928474,19363.799999952316]","0.3333333333333333","0.5","0","","","","","","","","","","","","","","","","","","","","","","","","","","","","",""
"44872","","","","instructions","9","252190","0.0-5.0-0.0","152","1","2025-08-06 09:02:05","36c45c0696341be0efffe67d72a12abb","41.13.114.127","Mozilla/5.0 (Windows NT 10.0; Win64; x64) AppleWebKit/537.36 (KHTML, like Gecko) Chrome/138.0.0.0 Safari/537.36","WebKit","Chrome","138.0.0.0","Windows","10.0","https://app.prolific.com/","en-US,en;q=0.9","67cac9c704712b2393e52905","687a1a965b9f5b85a264363e","689317bd0f9f319eb49bee11","1","67cac9c704712b2393e52905","1","","","","","","","","","","","","","","","[{""page_index"":0,""viewing_time"":44872}]","","","","","","","","","","","","","","","","","","","","","","","","","","","",""
"9997","","<p>Before you start with this game please answer the following three questions yourself. </p>
  <p>Through this game, we measure several aspects of your cognitive performance, such as reaction times, multi-tasking capabilities </p>
  <p>and the ability to assess the situation you are in.</p>
  <p></p>
  <p><b>How good do you usually are in such tasks?</b></p>","86","html-slider-response","10","262193","0.0-6.0-0.0","152","1","2025-08-06 09:02:05","36c45c0696341be0efffe67d72a12abb","41.13.114.127","Mozilla/5.0 (Windows NT 10.0; Win64; x64) AppleWebKit/537.36 (KHTML, like Gecko) Chrome/138.0.0.0 Safari/537.36","WebKit","Chrome","138.0.0.0","Windows","10.0","https://app.prolific.com/","en-US,en;q=0.9","67cac9c704712b2393e52905","687a1a965b9f5b85a264363e","689317bd0f9f319eb49bee11","1","67cac9c704712b2393e52905","1","2025-08-06T09:06:29.957Z","","","","PreSkillQ","","","","","","","","","","","50","","","","","","","","","","","","","","","","","","","","","","","","","","",""
"5953","","<div style=""width:500px;"">
  <p>How well do you think you will perform in this task compared to other participants?</p>
  </div>","76","html-slider-response","11","268148","0.0-6.0-1.0","152","1","2025-08-06 09:02:05","36c45c0696341be0efffe67d72a12abb","41.13.114.127","Mozilla/5.0 (Windows NT 10.0; Win64; x64) AppleWebKit/537.36 (KHTML, like Gecko) Chrome/138.0.0.0 Safari/537.36","WebKit","Chrome","138.0.0.0","Windows","10.0","https://app.prolific.com/","en-US,en;q=0.9","67cac9c704712b2393e52905","687a1a965b9f5b85a264363e","689317bd0f9f319eb49bee11","1","67cac9c704712b2393e52905","1","2025-08-06T09:06:35.912Z","","","","PrePerfQ","","","","","","","","","","","50","","","","","","","","","","","","","","","","","","","","","","","","","","",""
"5997","","<div style=""width:500px;"">
  <p>What best describes how you currently feel?</p>
  </div>","77","html-slider-response","12","274146","0.0-6.0-2.0","152","1","2025-08-06 09:02:05","36c45c0696341be0efffe67d72a12abb","41.13.114.127","Mozilla/5.0 (Windows NT 10.0; Win64; x64) AppleWebKit/537.36 (KHTML, like Gecko) Chrome/138.0.0.0 Safari/537.36","WebKit","Chrome","138.0.0.0","Windows","10.0","https://app.prolific.com/","en-US,en;q=0.9","67cac9c704712b2393e52905","687a1a965b9f5b85a264363e","689317bd0f9f319eb49bee11","1","67cac9c704712b2393e52905","1","2025-08-06T09:06:41.910Z","","","","PreMotivationQ","","","","","","","","","","","50","","","","","","","","","","","","","","","","","","","","","","","","","","",""
"","","","","ctl-task-cpt","13","310329","0.0-7.0-0.0","152","1","2025-08-06 09:02:05","36c45c0696341be0efffe67d72a12abb","41.13.114.127","Mozilla/5.0 (Windows NT 10.0; Win64; x64) AppleWebKit/537.36 (KHTML, like Gecko) Chrome/138.0.0.0 Safari/537.36","WebKit","Chrome","138.0.0.0","Windows","10.0","https://app.prolific.com/","en-US,en;q=0.9","67cac9c704712b2393e52905","687a1a965b9f5b85a264363e","689317bd0f9f319eb49bee11","1","67cac9c704712b2393e52905","1","2025-08-06T09:07:18.094Z","","","","","","","","","","","","","","","","win-only","2","g1:SE,g2:NW","1","1","0","276721.6","2283.1","7288.2","33173.3","1","4","8","6","2","8","8","8","0","0.06060606060606061","1966.5","3000","1440","[""left"",""up""]","{""num_key_presses"":6,""num_perfect"":6,""num_errors"":0,""num_randdir"":0,""num_randdir_good_moves"":0,""num_whilered"":0,""num_whileblue"":0,""num_blue"":3,""num_good_moves"":6}","[296.22232142857143,292.12857142857143,0.8,296.22232142857143,292.12857142857143,104.6,296.22232142857143,292.12857142857143,204.9,296.22232142857143,292.12857142857143,305.4,296.22232142857143,292.12857142857143,411.8,296.22232142857143,292.12857142857143,512.5,296.22232142857143,292.12857142857143,612.8,296.22232142857143,292.12857142857143,712.9,296.22232142857143,292.12857142857143,814.6,296.22232142857143,292.12857142857143,925,233.22232142857143,240.12857142857143,1034.2,104.22232142857143,162.12857142857143,1140,69.22232142857143,125.12857142857143,1243.5,54.222321428571426,116.12857142857143,1345.2,61.222321428571426,76.12857142857143,1446.1,63.222321428571426,54.128571428571426,1550.2,63.222321428571426,54.128571428571426,1665.6,63.222321428571426,54.128571428571426,1765.6,63.222321428571426,54.128571428571426,1865.9,63.222321428571426,54.128571428571426,1971,63.222321428571426,54.128571428571426,2074.9,63.222321428571426,54.128571428571426,2183.7,63.222321428571426,54.128571428571426,2285.5,63.222321428571426,54.128571428571426,2392,63.222321428571426,54.128571428571426,2492.1,63.222321428571426,54.128571428571426,2592.7,63.222321428571426,54.128571428571426,2695.6,63.222321428571426,54.128571428571426,2804.7,63.222321428571426,54.128571428571426,2904.8,63.222321428571426,54.128571428571426,3009.5,63.222321428571426,54.128571428571426,3114.1,63.222321428571426,54.128571428571426,3218.2,63.222321428571426,54.128571428571426,3321.1,63.222321428571426,54.128571428571426,3425.3,63.222321428571426,54.128571428571426,3535,63.222321428571426,54.128571428571426,3640.8,63.222321428571426,54.128571428571426,3744,63.222321428571426,54.128571428571426,3844.4,63.222321428571426,54.128571428571426,3945.4,63.222321428571426,54.128571428571426,4048.1,63.222321428571426,54.128571428571426,4153.3,63.222321428571426,54.128571428571426,4255.4,63.222321428571426,54.128571428571426,4364.6,63.222321428571426,54.128571428571426,4472.7,63.222321428571426,54.128571428571426,4574.4,63.222321428571426,54.128571428571426,4684.5,63.222321428571426,54.128571428571426,4785.4,63.222321428571426,54.128571428571426,4894.8,63.222321428571426,54.128571428571426,4995.2]","[1501.5,1501.4,1000,0.1,501.4,""smooth"",""left"",""left"",""good_move"",8353.3,6850.7,2573.3,5357,423,""smooth"",""left"",""left"",""good_move"",10600.2,2246.6,1735.6,8353.6,511,""smooth"",""left"",""left"",""good_move"",12662,2060.6,1600.6,10601.4,460,""smooth"",""up"",""up"",""good_move"",22894.8,10230.3,2766.2,19708.9,419.7,""smooth"",""up"",""up"",""good_move"",25746.2,2851.1,2381.4,22895.2,469.7,""smooth"",""up"",""up"",""good_move""]"
"59873","","<div style=""width:500px;"">
  <p>What determined the result of this run?</p>
  </div>","85","html-slider-response","14","370205","0.0-7.0-1.0","152","1","2025-08-06 09:02:05","36c45c0696341be0efffe67d72a12abb","41.13.114.127","Mozilla/5.0 (Windows NT 10.0; Win64; x64) AppleWebKit/537.36 (KHTML, like Gecko) Chrome/138.0.0.0 Safari/537.36","WebKit","Chrome","138.0.0.0","Windows","10.0","https://app.prolific.com/","en-US,en;q=0.9","67cac9c704712b2393e52905","687a1a965b9f5b85a264363e","689317bd0f9f319eb49bee11","1","67cac9c704712b2393e52905","1","2025-08-06T09:08:17.969Z","","","","AttribQ","","","","","","","","","","","50","","","","","","","","","","","","","","","","","","","","","","","","","","",""
"5216","","<div style=""width:500px;"">
  <p>How much control did you have over the ball?</p>
  </div>","88","html-slider-response","15","375422","0.0-7.0-2.0","152","1","2025-08-06 09:02:05","36c45c0696341be0efffe67d72a12abb","41.13.114.127","Mozilla/5.0 (Windows NT 10.0; Win64; x64) AppleWebKit/537.36 (KHTML, like Gecko) Chrome/138.0.0.0 Safari/537.36","WebKit","Chrome","138.0.0.0","Windows","10.0","https://app.prolific.com/","en-US,en;q=0.9","67cac9c704712b2393e52905","687a1a965b9f5b85a264363e","689317bd0f9f319eb49bee11","1","67cac9c704712b2393e52905","1","2025-08-06T09:08:23.186Z","","","","ControlQ","","","","","","","","","","","50","","","","","","","","","","","","","","","","","","","","","","","","","","",""
"4740","","<div style=""width:500px;"">
  <p>How would you describe your current emotional state?</p>
  </div>","13","html-slider-response","16","380164","0.0-7.0-3.0","152","1","2025-08-06 09:02:05","36c45c0696341be0efffe67d72a12abb","41.13.114.127","Mozilla/5.0 (Windows NT 10.0; Win64; x64) AppleWebKit/537.36 (KHTML, like Gecko) Chrome/138.0.0.0 Safari/537.36","WebKit","Chrome","138.0.0.0","Windows","10.0","https://app.prolific.com/","en-US,en;q=0.9","67cac9c704712b2393e52905","687a1a965b9f5b85a264363e","689317bd0f9f319eb49bee11","1","67cac9c704712b2393e52905","1","2025-08-06T09:08:27.928Z","","","","StressQ","","","","","","","","","","","50","","","","","","","","","","","","","","","","","","","","","","","","","","",""
"4105","","<div style=""width:500px;"">
  <p>What best describes how you currently feel?</p>
  </div>","82","html-slider-response","17","384271","0.0-7.0-4.0","152","1","2025-08-06 09:02:05","36c45c0696341be0efffe67d72a12abb","41.13.114.127","Mozilla/5.0 (Windows NT 10.0; Win64; x64) AppleWebKit/537.36 (KHTML, like Gecko) Chrome/138.0.0.0 Safari/537.36","WebKit","Chrome","138.0.0.0","Windows","10.0","https://app.prolific.com/","en-US,en;q=0.9","67cac9c704712b2393e52905","687a1a965b9f5b85a264363e","689317bd0f9f319eb49bee11","1","67cac9c704712b2393e52905","1","2025-08-06T09:08:32.035Z","","","","MotivationQ","","","","","","","","","","","50","","","","","","","","","","","","","","","","","","","","","","","","","","",""
"","","","","ctl-task-cpt","18","422210","0.0-7.0-0.1","152","1","2025-08-06 09:02:05","36c45c0696341be0efffe67d72a12abb","41.13.114.127","Mozilla/5.0 (Windows NT 10.0; Win64; x64) AppleWebKit/537.36 (KHTML, like Gecko) Chrome/138.0.0.0 Safari/537.36","WebKit","Chrome","138.0.0.0","Windows","10.0","https://app.prolific.com/","en-US,en;q=0.9","67cac9c704712b2393e52905","687a1a965b9f5b85a264363e","689317bd0f9f319eb49bee11","1","67cac9c704712b2393e52905","1","2025-08-06T09:09:09.974Z","","","","","","","","","","","","","","","","win-only","1","g1:NE,g2:SW","0.9","2","0","386844.5","1554.3","6559.1","34914.5","1","4","4","6","2","4","3","11","8","0.08333333333333333","1994.3","3000","1180","[""down"",""left""]","{""num_key_presses"":7,""num_perfect"":5,""num_errors"":1,""num_randdir"":1,""num_randdir_good_moves"":1,""num_whilered"":0,""num_whileblue"":0,""num_blue"":2,""num_good_moves"":6}","[247.24598214285714,250.63660714285714,0.4,247.24598214285714,250.63660714285714,103.1,247.24598214285714,250.63660714285714,203.6,247.24598214285714,250.63660714285714,313.2,247.24598214285714,250.63660714285714,416.8,247.24598214285714,250.63660714285714,518.2,247.24598214285714,250.63660714285714,624.6,247.24598214285714,250.63660714285714,725.3,247.24598214285714,250.63660714285714,834,247.24598214285714,250.63660714285714,945.4,229.24598214285714,276.63660714285714,1049,189.24598214285714,332.63660714285714,1149,152.24598214285714,377.63660714285714,1254.8,133.24598214285714,400.63660714285714,1360.3,77.24598214285714,430.63660714285714,1466.1,63.245982142857144,438.63660714285714,1566.6,49.245982142857144,443.63660714285714,1669.2,49.245982142857144,443.63660714285714,1777.1,49.245982142857144,443.63660714285714,1884,49.245982142857144,443.63660714285714,1984.5,49.245982142857144,443.63660714285714,2091.3,49.245982142857144,443.63660714285714,2193.4,49.245982142857144,443.63660714285714,2295.2,49.245982142857144,443.63660714285714,2398.1,49.245982142857144,443.63660714285714,2503.9,49.245982142857144,443.63660714285714,2605.2,49.245982142857144,443.63660714285714,2705.2,49.245982142857144,443.63660714285714,2814.9,49.245982142857144,443.63660714285714,2918.4,49.245982142857144,443.63660714285714,3023.9,49.245982142857144,443.63660714285714,3135.2,49.245982142857144,443.63660714285714,3239.3,49.245982142857144,443.63660714285714,3343.8,49.245982142857144,443.63660714285714,3454.3,49.245982142857144,443.63660714285714,3554.5,49.245982142857144,443.63660714285714,3654.6,49.245982142857144,443.63660714285714,3764.2,49.245982142857144,443.63660714285714,3864.8,49.245982142857144,443.63660714285714,3974.5,49.245982142857144,443.63660714285714,4083.8,49.245982142857144,443.63660714285714,4194,49.245982142857144,443.63660714285714,4302.2,49.245982142857144,443.63660714285714,4407.9,49.245982142857144,443.63660714285714,4514.4,49.245982142857144,443.63660714285714,4618.7,49.245982142857144,443.63660714285714,4722.3,49.245982142857144,443.63660714285714,4822.9,49.245982142857144,443.63660714285714,4927.9]","[481.2,481.3,1000,0,-518.7,""error"",""-"",""-"",""no_move"",4687.3,4205.7,2759.7,1488.8,438.8,""smooth"",""left"",""left"",""good_move"",7668.8,2980.1,2522.7,4688.7,457.4,""smooth"",""left"",""left"",""good_move"",14366.1,6696.7,2414.7,11568.5,383,""smooth"",""down"",""down"",""good_move"",21472.1,7105,2936.2,17963.1,572.8,""smooth"",""down"",""down"",""good_move"",25171.9,3699.5,3154.5,21472.5,545,""oops"",""down"",""down"",""good_move"",28207.7,3035.2,2561.8,25172.6,473.4,""smooth"",""left"",""left"",""good_move""]"
"4178","","<div style=""width:500px;"">
  <p>What determined the result of this run?</p>
  </div>","83","html-slider-response","19","426390","0.0-7.0-1.1","152","1","2025-08-06 09:02:05","36c45c0696341be0efffe67d72a12abb","41.13.114.127","Mozilla/5.0 (Windows NT 10.0; Win64; x64) AppleWebKit/537.36 (KHTML, like Gecko) Chrome/138.0.0.0 Safari/537.36","WebKit","Chrome","138.0.0.0","Windows","10.0","https://app.prolific.com/","en-US,en;q=0.9","67cac9c704712b2393e52905","687a1a965b9f5b85a264363e","689317bd0f9f319eb49bee11","1","67cac9c704712b2393e52905","1","2025-08-06T09:09:14.155Z","","","","AttribQ","","","","","","","","","","","50","","","","","","","","","","","","","","","","","","","","","","","","","","",""
"3919","","<div style=""width:500px;"">
  <p>How much control did you have over the ball?</p>
  </div>","84","html-slider-response","20","430311","0.0-7.0-2.1","152","1","2025-08-06 09:02:05","36c45c0696341be0efffe67d72a12abb","41.13.114.127","Mozilla/5.0 (Windows NT 10.0; Win64; x64) AppleWebKit/537.36 (KHTML, like Gecko) Chrome/138.0.0.0 Safari/537.36","WebKit","Chrome","138.0.0.0","Windows","10.0","https://app.prolific.com/","en-US,en;q=0.9","67cac9c704712b2393e52905","687a1a965b9f5b85a264363e","689317bd0f9f319eb49bee11","1","67cac9c704712b2393e52905","1","2025-08-06T09:09:18.075Z","","","","ControlQ","","","","","","","","","","","50","","","","","","","","","","","","","","","","","","","","","","","","","","",""
"3368","","<div style=""width:500px;"">
  <p>How would you describe your current emotional state?</p>
  </div>","16","html-slider-response","21","433681","0.0-7.0-3.1","152","1","2025-08-06 09:02:05","36c45c0696341be0efffe67d72a12abb","41.13.114.127","Mozilla/5.0 (Windows NT 10.0; Win64; x64) AppleWebKit/537.36 (KHTML, like Gecko) Chrome/138.0.0.0 Safari/537.36","WebKit","Chrome","138.0.0.0","Windows","10.0","https://app.prolific.com/","en-US,en;q=0.9","67cac9c704712b2393e52905","687a1a965b9f5b85a264363e","689317bd0f9f319eb49bee11","1","67cac9c704712b2393e52905","1","2025-08-06T09:09:21.445Z","","","","StressQ","","","","","","","","","","","50","","","","","","","","","","","","","","","","","","","","","","","","","","",""
"3621","","<div style=""width:500px;"">
  <p>What best describes how you currently feel?</p>
  </div>","81","html-slider-response","22","437304","0.0-7.0-4.1","152","1","2025-08-06 09:02:05","36c45c0696341be0efffe67d72a12abb","41.13.114.127","Mozilla/5.0 (Windows NT 10.0; Win64; x64) AppleWebKit/537.36 (KHTML, like Gecko) Chrome/138.0.0.0 Safari/537.36","WebKit","Chrome","138.0.0.0","Windows","10.0","https://app.prolific.com/","en-US,en;q=0.9","67cac9c704712b2393e52905","687a1a965b9f5b85a264363e","689317bd0f9f319eb49bee11","1","67cac9c704712b2393e52905","1","2025-08-06T09:09:25.068Z","","","","MotivationQ","","","","","","","","","","","50","","","","","","","","","","","","","","","","","","","","","","","","","","",""
"","","","","ctl-task-cpt","23","466777","0.0-7.0-0.2","152","1","2025-08-06 09:02:05","36c45c0696341be0efffe67d72a12abb","41.13.114.127","Mozilla/5.0 (Windows NT 10.0; Win64; x64) AppleWebKit/537.36 (KHTML, like Gecko) Chrome/138.0.0.0 Safari/537.36","WebKit","Chrome","138.0.0.0","Windows","10.0","https://app.prolific.com/","en-US,en;q=0.9","67cac9c704712b2393e52905","687a1a965b9f5b85a264363e","689317bd0f9f319eb49bee11","1","67cac9c704712b2393e52905","1","2025-08-06T09:09:54.541Z","","","","","","","","","","","","","","","","win-only","0","g1:NW,g2:SE","0.8","3","0","439878.2","1579.7","6588.6","26465.4","1","4","8","6","2","8","8","19","11","0.14393939393939395","1657.1","3000","1280","[""down"",""right""]","{""num_key_presses"":6,""num_perfect"":5,""num_errors"":0,""num_randdir"":1,""num_randdir_good_moves"":1,""num_whilered"":0,""num_whileblue"":0,""num_blue"":1,""num_good_moves"":6}","[245.24598214285714,248.63660714285714,0.7,245.24598214285714,248.63660714285714,102.4,245.24598214285714,248.63660714285714,218.6,245.24598214285714,248.63660714285714,325.9,245.24598214285714,248.63660714285714,429.4,245.24598214285714,248.63660714285714,545.6,245.24598214285714,248.63660714285714,650,245.24598214285714,248.63660714285714,754.1,245.24598214285714,248.63660714285714,858.8,245.24598214285714,248.63660714285714,960.4,399.24598214285714,395.63660714285714,1072.1,444.24598214285714,442.63660714285714,1177.1,449.24598214285714,442.63660714285714,1291.8,449.24598214285714,443.63660714285714,1400.4,449.24598214285714,443.63660714285714,1512.1,449.24598214285714,443.63660714285714,1625.8,449.24598214285714,443.63660714285714,1726.8,449.24598214285714,443.63660714285714,1830.9,449.24598214285714,443.63660714285714,1935.6,449.24598214285714,443.63660714285714,2037.9,449.24598214285714,443.63660714285714,2145.5,449.24598214285714,443.63660714285714,2258,449.24598214285714,443.63660714285714,2359.8,449.24598214285714,443.63660714285714,2461.5,449.24598214285714,443.63660714285714,2565.7,449.24598214285714,443.63660714285714,2671.1,449.24598214285714,443.63660714285714,2771.3,449.24598214285714,443.63660714285714,2885.3,449.24598214285714,443.63660714285714,2994.8,449.24598214285714,443.63660714285714,3099.4,449.24598214285714,443.63660714285714,3203.8,449.24598214285714,443.63660714285714,3308.6,449.24598214285714,443.63660714285714,3408.6,449.24598214285714,443.63660714285714,3514.3,449.24598214285714,443.63660714285714,3615.7,449.24598214285714,443.63660714285714,3716.2,449.24598214285714,443.63660714285714,3824.1,449.24598214285714,443.63660714285714,3924.1,449.24598214285714,443.63660714285714,4025.5,449.24598214285714,443.63660714285714,4135,449.24598214285714,443.63660714285714,4242.8,449.24598214285714,443.63660714285714,4344.6,449.24598214285714,443.63660714285714,4445.6,449.24598214285714,443.63660714285714,4546.6,449.24598214285714,443.63660714285714,4654.8,449.24598214285714,443.63660714285714,4757.9,449.24598214285714,443.63660714285714,4866.2,449.24598214285714,443.63660714285714,4973.1]","[1542.6,1542.6,1000,0,542.6,""smooth"",""down"",""down"",""good_move"",3825.5,2282.1,1813.6,1543.5,468.5,""oops"",""down"",""down"",""good_move"",7859.8,4033.7,3557.2,3826.2,476.5,""smooth"",""down"",""down"",""good_move"",10355,2494.6,2070.3,7860.4,424.3,""smooth"",""right"",""right"",""good_move"",17319.7,6963.6,2655.1,14160.4,504.2,""smooth"",""right"",""right"",""good_move"",19727.2,2406.6,1907.7,17320.6,498.9,""smooth"",""right"",""right"",""good_move""]"
"4920","","<div style=""width:500px;"">
  <p>What determined the result of this run?</p>
  </div>","67","html-slider-response","24","471699","0.0-7.0-1.2","152","1","2025-08-06 09:02:05","36c45c0696341be0efffe67d72a12abb","41.13.114.127","Mozilla/5.0 (Windows NT 10.0; Win64; x64) AppleWebKit/537.36 (KHTML, like Gecko) Chrome/138.0.0.0 Safari/537.36","WebKit","Chrome","138.0.0.0","Windows","10.0","https://app.prolific.com/","en-US,en;q=0.9","67cac9c704712b2393e52905","687a1a965b9f5b85a264363e","689317bd0f9f319eb49bee11","1","67cac9c704712b2393e52905","1","2025-08-06T09:09:59.463Z","","","","AttribQ","","","","","","","","","","","50","","","","","","","","","","","","","","","","","","","","","","","","","","",""
"4387","","<div style=""width:500px;"">
  <p>How much control did you have over the ball?</p>
  </div>","79","html-slider-response","25","476087","0.0-7.0-2.2","152","1","2025-08-06 09:02:05","36c45c0696341be0efffe67d72a12abb","41.13.114.127","Mozilla/5.0 (Windows NT 10.0; Win64; x64) AppleWebKit/537.36 (KHTML, like Gecko) Chrome/138.0.0.0 Safari/537.36","WebKit","Chrome","138.0.0.0","Windows","10.0","https://app.prolific.com/","en-US,en;q=0.9","67cac9c704712b2393e52905","687a1a965b9f5b85a264363e","689317bd0f9f319eb49bee11","1","67cac9c704712b2393e52905","1","2025-08-06T09:10:03.852Z","","","","ControlQ","","","","","","","","","","","50","","","","","","","","","","","","","","","","","","","","","","","","","","",""
"3337","","<div style=""width:500px;"">
  <p>How would you describe your current emotional state?</p>
  </div>","21","html-slider-response","26","479426","0.0-7.0-3.2","152","1","2025-08-06 09:02:05","36c45c0696341be0efffe67d72a12abb","41.13.114.127","Mozilla/5.0 (Windows NT 10.0; Win64; x64) AppleWebKit/537.36 (KHTML, like Gecko) Chrome/138.0.0.0 Safari/537.36","WebKit","Chrome","138.0.0.0","Windows","10.0","https://app.prolific.com/","en-US,en;q=0.9","67cac9c704712b2393e52905","687a1a965b9f5b85a264363e","689317bd0f9f319eb49bee11","1","67cac9c704712b2393e52905","1","2025-08-06T09:10:07.190Z","","","","StressQ","","","","","","","","","","","50","","","","","","","","","","","","","","","","","","","","","","","","","","",""
"3310","","<div style=""width:500px;"">
  <p>What best describes how you currently feel?</p>
  </div>","72","html-slider-response","27","482738","0.0-7.0-4.2","152","1","2025-08-06 09:02:05","36c45c0696341be0efffe67d72a12abb","41.13.114.127","Mozilla/5.0 (Windows NT 10.0; Win64; x64) AppleWebKit/537.36 (KHTML, like Gecko) Chrome/138.0.0.0 Safari/537.36","WebKit","Chrome","138.0.0.0","Windows","10.0","https://app.prolific.com/","en-US,en;q=0.9","67cac9c704712b2393e52905","687a1a965b9f5b85a264363e","689317bd0f9f319eb49bee11","1","67cac9c704712b2393e52905","1","2025-08-06T09:10:10.502Z","","","","MotivationQ","","","","","","","","","","","50","","","","","","","","","","","","","","","","","","","","","","","","","","",""
"","","","","ctl-task-cpt","28","528691","0.0-7.0-0.3","152","1","2025-08-06 09:02:05","36c45c0696341be0efffe67d72a12abb","41.13.114.127","Mozilla/5.0 (Windows NT 10.0; Win64; x64) AppleWebKit/537.36 (KHTML, like Gecko) Chrome/138.0.0.0 Safari/537.36","WebKit","Chrome","138.0.0.0","Windows","10.0","https://app.prolific.com/","en-US,en;q=0.9","67cac9c704712b2393e52905","687a1a965b9f5b85a264363e","689317bd0f9f319eb49bee11","1","67cac9c704712b2393e52905","1","2025-08-06T09:10:56.455Z","","","","","","","","","","","","","","","","win-only","3","g1:SW,g2:NE","0.7","4","0","485312","1595.2","6599.8","42938.2","1","4","4","6","2","-4","-4","15","19","0.11363636363636363","1565.6","3000","-1685","[""up"",""right""]","{""num_key_presses"":10,""num_perfect"":7,""num_errors"":0,""num_randdir"":3,""num_randdir_good_moves"":0,""num_whilered"":0,""num_whileblue"":0,""num_blue"":1,""num_good_moves"":7}","[248.24598214285714,246.63660714285714,0.3,248.24598214285714,246.63660714285714,103.7,248.24598214285714,246.63660714285714,212.7,248.24598214285714,246.63660714285714,312.8,248.24598214285714,246.63660714285714,414.1,248.24598214285714,246.63660714285714,514.5,248.24598214285714,246.63660714285714,627.5,258.24598214285714,229.63660714285714,730.5,378.24598214285714,75.63660714285714,831.5,430.24598214285714,17.636607142857144,933.5,430.24598214285714,16.636607142857144,1034,436.24598214285714,14.636607142857144,1154.3,442.24598214285714,29.636607142857144,1254.3,443.24598214285714,29.636607142857144,1356.1,443.24598214285714,29.636607142857144,1456.5,443.24598214285714,29.636607142857144,1558.8,443.24598214285714,29.636607142857144,1663,443.24598214285714,29.636607142857144,1765.3,443.24598214285714,29.636607142857144,1872.3,443.24598214285714,29.636607142857144,1972.4,443.24598214285714,29.636607142857144,2083.3,443.24598214285714,29.636607142857144,2192.9,443.24598214285714,29.636607142857144,2299.3,443.24598214285714,29.636607142857144,2402.3,443.24598214285714,29.636607142857144,2512.9,443.24598214285714,29.636607142857144,2622.2,443.24598214285714,29.636607142857144,2729.9,443.24598214285714,29.636607142857144,2831.2,443.24598214285714,29.636607142857144,2943.4,443.24598214285714,29.636607142857144,3054.3,443.24598214285714,29.636607142857144,3162.6,443.24598214285714,29.636607142857144,3263.1,443.24598214285714,29.636607142857144,3377.8,443.24598214285714,29.636607142857144,3482.3,443.24598214285714,29.636607142857144,3583.6,443.24598214285714,29.636607142857144,3688.1,443.24598214285714,29.636607142857144,3792.7,443.24598214285714,29.636607142857144,3904,443.24598214285714,29.636607142857144,4012.7,443.24598214285714,29.636607142857144,4114.4,443.24598214285714,29.636607142857144,4223.8,443.24598214285714,29.636607142857144,4324,443.24598214285714,29.636607142857144,4426.1,443.24598214285714,29.636607142857144,4532.8,443.24598214285714,29.636607142857144,4637,443.24598214285714,29.636607142857144,4754.5,443.24598214285714,29.636607142857144,4865.4,443.24598214285714,29.636607142857144,4966.4]","[1455.3,1455.3,1000,0,455.3,""oops"",""up"",""down"",""bad_move"",4861,3404.5,2895.3,1456.5,509.2,""smooth"",""up"",""up"",""good_move"",7169.3,2307.5,1678.6,4861.8,628.9,""smooth"",""up"",""up"",""good_move"",10438.2,3267.7,2780.9,7170.5,486.8,""oops"",""up"",""left"",""bad_move"",13961.4,3522.6,3033.6,10438.8,489,""smooth"",""up"",""up"",""good_move"",18009.4,4047.3,3595.2,13962.1,452.1,""smooth"",""right"",""right"",""good_move"",20665.6,2655.1,2233.2,18010.5,421.9,""smooth"",""right"",""right"",""good_move"",23671.2,3004.9,2593.7,20666.3,411.2,""oops"",""right"",""left"",""bad_move"",26556.8,2883.6,2450.1,23673.2,433.5,""smooth"",""right"",""right"",""good_move"",30463.2,3905.2,3435.8,26558.1,469.4,""smooth"",""right"",""right"",""good_move""]"
"4719","","<div style=""width:500px;"">
  <p>What determined the result of this run?</p>
  </div>","38","html-slider-response","29","533413","0.0-7.0-1.3","152","1","2025-08-06 09:02:05","36c45c0696341be0efffe67d72a12abb","41.13.114.127","Mozilla/5.0 (Windows NT 10.0; Win64; x64) AppleWebKit/537.36 (KHTML, like Gecko) Chrome/138.0.0.0 Safari/537.36","WebKit","Chrome","138.0.0.0","Windows","10.0","https://app.prolific.com/","en-US,en;q=0.9","67cac9c704712b2393e52905","687a1a965b9f5b85a264363e","689317bd0f9f319eb49bee11","1","67cac9c704712b2393e52905","1","2025-08-06T09:11:01.177Z","","","","AttribQ","","","","","","","","","","","50","","","","","","","","","","","","","","","","","","","","","","","","","","",""
"3815","","<div style=""width:500px;"">
  <p>How much control did you have over the ball?</p>
  </div>","41","html-slider-response","30","537229","0.0-7.0-2.3","152","1","2025-08-06 09:02:05","36c45c0696341be0efffe67d72a12abb","41.13.114.127","Mozilla/5.0 (Windows NT 10.0; Win64; x64) AppleWebKit/537.36 (KHTML, like Gecko) Chrome/138.0.0.0 Safari/537.36","WebKit","Chrome","138.0.0.0","Windows","10.0","https://app.prolific.com/","en-US,en;q=0.9","67cac9c704712b2393e52905","687a1a965b9f5b85a264363e","689317bd0f9f319eb49bee11","1","67cac9c704712b2393e52905","1","2025-08-06T09:11:04.994Z","","","","ControlQ","","","","","","","","","","","50","","","","","","","","","","","","","","","","","","","","","","","","","","",""
"4453","","<div style=""width:500px;"">
  <p>How would you describe your current emotional state?</p>
  </div>","33","html-slider-response","31","541685","0.0-7.0-3.3","152","1","2025-08-06 09:02:05","36c45c0696341be0efffe67d72a12abb","41.13.114.127","Mozilla/5.0 (Windows NT 10.0; Win64; x64) AppleWebKit/537.36 (KHTML, like Gecko) Chrome/138.0.0.0 Safari/537.36","WebKit","Chrome","138.0.0.0","Windows","10.0","https://app.prolific.com/","en-US,en;q=0.9","67cac9c704712b2393e52905","687a1a965b9f5b85a264363e","689317bd0f9f319eb49bee11","1","67cac9c704712b2393e52905","1","2025-08-06T09:11:09.449Z","","","","StressQ","","","","","","","","","","","50","","","","","","","","","","","","","","","","","","","","","","","","","","",""
"3255","","<div style=""width:500px;"">
  <p>What best describes how you currently feel?</p>
  </div>","58","html-slider-response","32","544942","0.0-7.0-4.3","152","1","2025-08-06 09:02:05","36c45c0696341be0efffe67d72a12abb","41.13.114.127","Mozilla/5.0 (Windows NT 10.0; Win64; x64) AppleWebKit/537.36 (KHTML, like Gecko) Chrome/138.0.0.0 Safari/537.36","WebKit","Chrome","138.0.0.0","Windows","10.0","https://app.prolific.com/","en-US,en;q=0.9","67cac9c704712b2393e52905","687a1a965b9f5b85a264363e","689317bd0f9f319eb49bee11","1","67cac9c704712b2393e52905","1","2025-08-06T09:11:12.707Z","","","","MotivationQ","","","","","","","","","","","50","","","","","","","","","","","","","","","","","","","","","","","","","","",""
"","","","","ctl-task-cpt","33","577664","0.0-7.0-0.4","152","1","2025-08-06 09:02:05","36c45c0696341be0efffe67d72a12abb","41.13.114.127","Mozilla/5.0 (Windows NT 10.0; Win64; x64) AppleWebKit/537.36 (KHTML, like Gecko) Chrome/138.0.0.0 Safari/537.36","WebKit","Chrome","138.0.0.0","Windows","10.0","https://app.prolific.com/","en-US,en;q=0.9","67cac9c704712b2393e52905","687a1a965b9f5b85a264363e","689317bd0f9f319eb49bee11","1","67cac9c704712b2393e52905","1","2025-08-06T09:11:45.428Z","","","","","","","","","","","","","","","","win-only","2","g1:SE,g2:NW","0.6","5","0","547516.8","1728.6","6745.9","29686.5","1","4","8","6","2","8","7","22","15","0.16666666666666666","1904.6","3000","1395","[""left"",""up""]","{""num_key_presses"":8,""num_perfect"":4,""num_errors"":1,""num_randdir"":3,""num_randdir_good_moves"":2,""num_whilered"":0,""num_whileblue"":1,""num_blue"":1,""num_good_moves"":7}","[248.24598214285714,251.63660714285714,0.9,248.24598214285714,251.63660714285714,103.3,248.24598214285714,251.63660714285714,213.4,248.24598214285714,251.63660714285714,315.4,248.24598214285714,251.63660714285714,418.7,248.24598214285714,251.63660714285714,537.4,248.24598214285714,251.63660714285714,643.1,248.24598214285714,251.63660714285714,751.5,248.24598214285714,251.63660714285714,855.1,224.24598214285714,241.63660714285714,961.5,57.245982142857144,176.63660714285714,1076.4,42.245982142857144,120.63660714285714,1180.6,35.245982142857144,95.63660714285714,1296.2,35.245982142857144,68.63660714285714,1402.2,35.245982142857144,61.636607142857144,1502.5,35.245982142857144,56.636607142857144,1602.9,35.245982142857144,56.636607142857144,1703,35.245982142857144,56.636607142857144,1803.5,35.245982142857144,56.636607142857144,1909.3,35.245982142857144,56.636607142857144,2013.9,35.245982142857144,56.636607142857144,2114.1,35.245982142857144,56.636607142857144,2214.3,35.245982142857144,56.636607142857144,2321.4,35.245982142857144,56.636607142857144,2435.3,35.245982142857144,56.636607142857144,2535.8,35.245982142857144,56.636607142857144,2640.3,35.245982142857144,56.636607142857144,2748,35.245982142857144,56.636607142857144,2853.4,35.245982142857144,56.636607142857144,2963.7,35.245982142857144,56.636607142857144,3063.7,35.245982142857144,56.636607142857144,3165.7,35.245982142857144,56.636607142857144,3274.1,35.245982142857144,56.636607142857144,3382.3,35.245982142857144,56.636607142857144,3487.5,35.245982142857144,56.636607142857144,3593.3,35.245982142857144,56.636607142857144,3693.4,35.245982142857144,56.636607142857144,3803.4,35.245982142857144,56.636607142857144,3909.7,35.245982142857144,56.636607142857144,4013.7,35.245982142857144,56.636607142857144,4124,35.245982142857144,56.636607142857144,4225.3,35.245982142857144,56.636607142857144,4330.6,35.245982142857144,56.636607142857144,4452.1,35.245982142857144,56.636607142857144,4565.1,35.245982142857144,56.636607142857144,4682.7,35.245982142857144,56.636607142857144,4783.4,35.245982142857144,56.636607142857144,4887.9,35.245982142857144,56.636607142857144,4990.4]","[1410.5,1410.5,1000,0,410.5,""oops"",""left"",""down"",""bad_move"",4352.9,2941.6,2527.1,1411.3,414.5,""smooth"",""left"",""left"",""good_move"",7470,3116.4,2721.1,4353.7,395.2,""smooth"",""up"",""up"",""good_move"",10765.7,3295.1,2907.7,7470.6,387.4,""oops"",""up"",""left"",""good_move"",13476.6,2710.2,2252.1,10766.4,458.1,""smooth"",""up"",""up"",""good_move"",15871.9,2394.9,1929.7,13477,465.2,""smooth"",""up"",""up"",""good_move"",19506.1,3633.4,3221.2,15872.7,412.2,""while_blue"",""up"",""left"",""good_move"",22788.1,3281.1,2829.7,19507,451.4,""oops"",""up"",""up"",""good_move""]"
"7083","","<div style=""width:500px;"">
  <p>What determined the result of this run?</p>
  </div>","59","html-slider-response","34","584750","0.0-7.0-1.4","152","1","2025-08-06 09:02:05","36c45c0696341be0efffe67d72a12abb","41.13.114.127","Mozilla/5.0 (Windows NT 10.0; Win64; x64) AppleWebKit/537.36 (KHTML, like Gecko) Chrome/138.0.0.0 Safari/537.36","WebKit","Chrome","138.0.0.0","Windows","10.0","https://app.prolific.com/","en-US,en;q=0.9","67cac9c704712b2393e52905","687a1a965b9f5b85a264363e","689317bd0f9f319eb49bee11","1","67cac9c704712b2393e52905","1","2025-08-06T09:11:52.514Z","","","","AttribQ","","","","","","","","","","","50","","","","","","","","","","","","","","","","","","","","","","","","","","",""
"5300","","<div style=""width:500px;"">
  <p>How much control did you have over the ball?</p>
  </div>","59","html-slider-response","35","590053","0.0-7.0-2.4","152","1","2025-08-06 09:02:05","36c45c0696341be0efffe67d72a12abb","41.13.114.127","Mozilla/5.0 (Windows NT 10.0; Win64; x64) AppleWebKit/537.36 (KHTML, like Gecko) Chrome/138.0.0.0 Safari/537.36","WebKit","Chrome","138.0.0.0","Windows","10.0","https://app.prolific.com/","en-US,en;q=0.9","67cac9c704712b2393e52905","687a1a965b9f5b85a264363e","689317bd0f9f319eb49bee11","1","67cac9c704712b2393e52905","1","2025-08-06T09:11:57.817Z","","","","ControlQ","","","","","","","","","","","50","","","","","","","","","","","","","","","","","","","","","","","","","","",""
"4884","","<div style=""width:500px;"">
  <p>How would you describe your current emotional state?</p>
  </div>","32","html-slider-response","36","594939","0.0-7.0-3.4","152","1","2025-08-06 09:02:05","36c45c0696341be0efffe67d72a12abb","41.13.114.127","Mozilla/5.0 (Windows NT 10.0; Win64; x64) AppleWebKit/537.36 (KHTML, like Gecko) Chrome/138.0.0.0 Safari/537.36","WebKit","Chrome","138.0.0.0","Windows","10.0","https://app.prolific.com/","en-US,en;q=0.9","67cac9c704712b2393e52905","687a1a965b9f5b85a264363e","689317bd0f9f319eb49bee11","1","67cac9c704712b2393e52905","1","2025-08-06T09:12:02.703Z","","","","StressQ","","","","","","","","","","","50","","","","","","","","","","","","","","","","","","","","","","","","","","",""
"3432","","<div style=""width:500px;"">
  <p>What best describes how you currently feel?</p>
  </div>","58","html-slider-response","37","598374","0.0-7.0-4.4","152","1","2025-08-06 09:02:05","36c45c0696341be0efffe67d72a12abb","41.13.114.127","Mozilla/5.0 (Windows NT 10.0; Win64; x64) AppleWebKit/537.36 (KHTML, like Gecko) Chrome/138.0.0.0 Safari/537.36","WebKit","Chrome","138.0.0.0","Windows","10.0","https://app.prolific.com/","en-US,en;q=0.9","67cac9c704712b2393e52905","687a1a965b9f5b85a264363e","689317bd0f9f319eb49bee11","1","67cac9c704712b2393e52905","1","2025-08-06T09:12:06.138Z","","","","MotivationQ","","","","","","","","","","","50","","","","","","","","","","","","","","","","","","","","","","","","","","",""
"","","","","ctl-task-cpt","38","650297","0.0-7.0-0.5","152","1","2025-08-06 09:02:05","36c45c0696341be0efffe67d72a12abb","41.13.114.127","Mozilla/5.0 (Windows NT 10.0; Win64; x64) AppleWebKit/537.36 (KHTML, like Gecko) Chrome/138.0.0.0 Safari/537.36","WebKit","Chrome","138.0.0.0","Windows","10.0","https://app.prolific.com/","en-US,en;q=0.9","67cac9c704712b2393e52905","687a1a965b9f5b85a264363e","689317bd0f9f319eb49bee11","1","67cac9c704712b2393e52905","1","2025-08-06T09:12:58.062Z","","","","","","","","","","","","","","","","win-only","0","g1:NW,g2:SE","0.5","6","0","600948","1444.6","6447.8","48903.4","1","4","4","6","2","4","4","26","22","0.19696969696969696","1530.6","3000","550","[""down"",""right""]","{""num_key_presses"":10,""num_perfect"":5,""num_errors"":0,""num_randdir"":5,""num_randdir_good_moves"":3,""num_whilered"":0,""num_whileblue"":0,""num_blue"":4,""num_good_moves"":8}","[248.24598214285714,242.63660714285714,0.8,248.24598214285714,242.63660714285714,104.7,248.24598214285714,242.63660714285714,204.9,248.24598214285714,242.63660714285714,307.7,248.24598214285714,242.63660714285714,414.5,248.24598214285714,242.63660714285714,526.6,248.24598214285714,242.63660714285714,634.6,248.24598214285714,242.63660714285714,735.7,322.24598214285714,304.63660714285714,838.1,426.24598214285714,419.63660714285714,953.1,438.24598214285714,425.63660714285714,1063.8,444.24598214285714,428.63660714285714,1165.2,445.24598214285714,428.63660714285714,1274.4,445.24598214285714,428.63660714285714,1376.8,445.24598214285714,428.63660714285714,1477.5,445.24598214285714,428.63660714285714,1579.8,445.24598214285714,428.63660714285714,1685.1,445.24598214285714,428.63660714285714,1793.7,445.24598214285714,428.63660714285714,1895,445.24598214285714,428.63660714285714,2003.4,445.24598214285714,428.63660714285714,2114.6,445.24598214285714,428.63660714285714,2224.6,445.24598214285714,428.63660714285714,2326.3,445.24598214285714,428.63660714285714,2428.1,445.24598214285714,428.63660714285714,2540.8,445.24598214285714,428.63660714285714,2640.8,445.24598214285714,428.63660714285714,2750,445.24598214285714,428.63660714285714,2861.9,445.24598214285714,428.63660714285714,2962.6,445.24598214285714,428.63660714285714,3072.5,445.24598214285714,428.63660714285714,3179.3,445.24598214285714,428.63660714285714,3292.2,445.24598214285714,428.63660714285714,3392.5,445.24598214285714,428.63660714285714,3494.1,445.24598214285714,428.63660714285714,3605.4,445.24598214285714,428.63660714285714,3706.9,445.24598214285714,428.63660714285714,3812.9,445.24598214285714,428.63660714285714,3913,445.24598214285714,428.63660714285714,4014.2,445.24598214285714,428.63660714285714,4119.7,445.24598214285714,428.63660714285714,4230.7,445.24598214285714,428.63660714285714,4338.4,445.24598214285714,428.63660714285714,4447.3,445.24598214285714,428.63660714285714,4562.7,445.24598214285714,428.63660714285714,4670.8,445.24598214285714,428.63660714285714,4778.4,445.24598214285714,428.63660714285714,4878.8,445.24598214285714,428.63660714285714,4985.5]","[1484.2,1484.2,1000,0,484.2,""smooth"",""down"",""down"",""good_move"",4929.7,3444.5,2944.2,1485.2,500.3,""smooth"",""right"",""right"",""good_move"",15170.7,10240.3,2149.1,12566.7,454.9,""oops"",""right"",""down"",""good_move"",18162.3,2990.9,2550.1,15171.4,440.8,""oops"",""right"",""up"",""bad_move"",21622.5,3459.3,3011,18163.2,448.3,""oops"",""right"",""left"",""bad_move"",28058.6,6435.4,2571.3,25060.4,426.9,""smooth"",""right"",""right"",""good_move"",30642.6,2583.4,2117.1,28059.2,466.3,""smooth"",""right"",""right"",""good_move"",33264,2620.6,2216.1,30643.4,404.5,""oops"",""right"",""right"",""good_move"",36160.6,2896.2,2463.4,33264.4,432.8,""smooth"",""down"",""down"",""good_move"",42292.4,6131.3,2336.9,39506.2,449.3,""oops"",""down"",""down"",""good_move""]"
"8301","","<div style=""width:500px;"">
  <p>What determined the result of this run?</p>
  </div>","43","html-slider-response","39","658600","0.0-7.0-1.5","152","1","2025-08-06 09:02:05","36c45c0696341be0efffe67d72a12abb","41.13.114.127","Mozilla/5.0 (Windows NT 10.0; Win64; x64) AppleWebKit/537.36 (KHTML, like Gecko) Chrome/138.0.0.0 Safari/537.36","WebKit","Chrome","138.0.0.0","Windows","10.0","https://app.prolific.com/","en-US,en;q=0.9","67cac9c704712b2393e52905","687a1a965b9f5b85a264363e","689317bd0f9f319eb49bee11","1","67cac9c704712b2393e52905","1","2025-08-06T09:13:06.365Z","","","","AttribQ","","","","","","","","","","","50","","","","","","","","","","","","","","","","","","","","","","","","","","",""
"4401","","<div style=""width:500px;"">
  <p>How much control did you have over the ball?</p>
  </div>","35","html-slider-response","40","663004","0.0-7.0-2.5","152","1","2025-08-06 09:02:05","36c45c0696341be0efffe67d72a12abb","41.13.114.127","Mozilla/5.0 (Windows NT 10.0; Win64; x64) AppleWebKit/537.36 (KHTML, like Gecko) Chrome/138.0.0.0 Safari/537.36","WebKit","Chrome","138.0.0.0","Windows","10.0","https://app.prolific.com/","en-US,en;q=0.9","67cac9c704712b2393e52905","687a1a965b9f5b85a264363e","689317bd0f9f319eb49bee11","1","67cac9c704712b2393e52905","1","2025-08-06T09:13:10.768Z","","","","ControlQ","","","","","","","","","","","50","","","","","","","","","","","","","","","","","","","","","","","","","","",""
"9229","","<div style=""width:500px;"">
  <p>How would you describe your current emotional state?</p>
  </div>","35","html-slider-response","41","672234","0.0-7.0-3.5","152","1","2025-08-06 09:02:05","36c45c0696341be0efffe67d72a12abb","41.13.114.127","Mozilla/5.0 (Windows NT 10.0; Win64; x64) AppleWebKit/537.36 (KHTML, like Gecko) Chrome/138.0.0.0 Safari/537.36","WebKit","Chrome","138.0.0.0","Windows","10.0","https://app.prolific.com/","en-US,en;q=0.9","67cac9c704712b2393e52905","687a1a965b9f5b85a264363e","689317bd0f9f319eb49bee11","1","67cac9c704712b2393e52905","1","2025-08-06T09:13:19.998Z","","","","StressQ","","","","","","","","","","","50","","","","","","","","","","","","","","","","","","","","","","","","","","",""
"2795","","<div style=""width:500px;"">
  <p>What best describes how you currently feel?</p>
  </div>","65","html-slider-response","42","675032","0.0-7.0-4.5","152","1","2025-08-06 09:02:05","36c45c0696341be0efffe67d72a12abb","41.13.114.127","Mozilla/5.0 (Windows NT 10.0; Win64; x64) AppleWebKit/537.36 (KHTML, like Gecko) Chrome/138.0.0.0 Safari/537.36","WebKit","Chrome","138.0.0.0","Windows","10.0","https://app.prolific.com/","en-US,en;q=0.9","67cac9c704712b2393e52905","687a1a965b9f5b85a264363e","689317bd0f9f319eb49bee11","1","67cac9c704712b2393e52905","1","2025-08-06T09:13:22.796Z","","","","MotivationQ","","","","","","","","","","","50","","","","","","","","","","","","","","","","","","","","","","","","","","",""
"","","","","ctl-task-cpt","43","711756","0.0-7.0-0.6","152","1","2025-08-06 09:02:05","36c45c0696341be0efffe67d72a12abb","41.13.114.127","Mozilla/5.0 (Windows NT 10.0; Win64; x64) AppleWebKit/537.36 (KHTML, like Gecko) Chrome/138.0.0.0 Safari/537.36","WebKit","Chrome","138.0.0.0","Windows","10.0","https://app.prolific.com/","en-US,en;q=0.9","67cac9c704712b2393e52905","687a1a965b9f5b85a264363e","689317bd0f9f319eb49bee11","1","67cac9c704712b2393e52905","1","2025-08-06T09:13:59.520Z","","","","","","","","","","","","","","","","win-only","2","g1:SE,g2:NW","0.4","7","0","677606.9","1599","6616.7","33703.3","1","4","4","6","2","4","4","30","26","0.22727272727272727","1778.7","3000","1370","[""left"",""up""]","{""num_key_presses"":8,""num_perfect"":4,""num_errors"":0,""num_randdir"":4,""num_randdir_good_moves"":3,""num_whilered"":0,""num_whileblue"":0,""num_blue"":1,""num_good_moves"":7}","[243.24598214285714,247.63660714285714,1.1,243.24598214285714,247.63660714285714,106.9,243.24598214285714,247.63660714285714,207.1,243.24598214285714,247.63660714285714,314.3,243.24598214285714,247.63660714285714,415.4,243.24598214285714,247.63660714285714,516.4,243.24598214285714,247.63660714285714,620.2,243.24598214285714,247.63660714285714,736,243.24598214285714,247.63660714285714,836.8,232.24598214285714,246.63660714285714,942,111.24598214285714,132.63660714285714,1050.4,63.245982142857144,79.63660714285714,1158,58.245982142857144,77.63660714285714,1263.5,48.245982142857144,56.636607142857144,1372.7,48.245982142857144,55.636607142857144,1476.6,48.245982142857144,55.636607142857144,1579.2,48.245982142857144,55.636607142857144,1684.2,48.245982142857144,55.636607142857144,1786.5,48.245982142857144,55.636607142857144,1894.8,48.245982142857144,55.636607142857144,1998.3,48.245982142857144,55.636607142857144,2107.3,48.245982142857144,55.636607142857144,2221.7,48.245982142857144,55.636607142857144,2323.9,48.245982142857144,55.636607142857144,2424.3,48.245982142857144,55.636607142857144,2526.9,48.245982142857144,55.636607142857144,2636,48.245982142857144,55.636607142857144,2738,48.245982142857144,55.636607142857144,2846.3,48.245982142857144,55.636607142857144,2974.7,48.245982142857144,55.636607142857144,3079.1,48.245982142857144,55.636607142857144,3180.7,48.245982142857144,55.636607142857144,3284.7,48.245982142857144,55.636607142857144,3394.2,48.245982142857144,55.636607142857144,3494.8,48.245982142857144,55.636607142857144,3601.1,48.245982142857144,55.636607142857144,3717.4,48.245982142857144,55.636607142857144,3824.1,48.245982142857144,55.636607142857144,3926.3,48.245982142857144,55.636607142857144,4028.5,48.245982142857144,55.636607142857144,4142.9,48.245982142857144,55.636607142857144,4258.1,48.245982142857144,55.636607142857144,4370.6,48.245982142857144,55.636607142857144,4474.9,48.245982142857144,55.636607142857144,4577.3,48.245982142857144,55.636607142857144,4687.8,48.245982142857144,55.636607142857144,4787.8,48.245982142857144,55.636607142857144,4896.6,48.245982142857144,55.636607142857144,4997.5]","[1421.1,1421.1,1000,0,421.1,""smooth"",""left"",""left"",""good_move"",3559,2137.3,1336.2,1421.8,801,""oops"",""left"",""up"",""good_move"",7195.5,3635.3,3146.6,3560.2,488.7,""oops"",""left"",""right"",""bad_move"",14125.7,6929.3,2453.9,11290.2,381.6,""smooth"",""left"",""left"",""good_move"",17546.9,3420.9,2985.6,14126.1,435.2,""oops"",""left"",""left"",""good_move"",20842,3294.6,2861.6,17547.5,433,""smooth"",""left"",""left"",""good_move"",24164.1,3321.5,2921.4,20842.6,400.1,""smooth"",""up"",""up"",""good_move"",26918.2,2753.4,2360.6,24164.8,392.8,""oops"",""up"",""up"",""good_move""]"
"4500","","<div style=""width:500px;"">
  <p>What determined the result of this run?</p>
  </div>","61","html-slider-response","44","716257","0.0-7.0-1.6","152","1","2025-08-06 09:02:05","36c45c0696341be0efffe67d72a12abb","41.13.114.127","Mozilla/5.0 (Windows NT 10.0; Win64; x64) AppleWebKit/537.36 (KHTML, like Gecko) Chrome/138.0.0.0 Safari/537.36","WebKit","Chrome","138.0.0.0","Windows","10.0","https://app.prolific.com/","en-US,en;q=0.9","67cac9c704712b2393e52905","687a1a965b9f5b85a264363e","689317bd0f9f319eb49bee11","1","67cac9c704712b2393e52905","1","2025-08-06T09:14:04.021Z","","","","AttribQ","","","","","","","","","","","50","","","","","","","","","","","","","","","","","","","","","","","","","","",""
"3695","","<div style=""width:500px;"">
  <p>How much control did you have over the ball?</p>
  </div>","62","html-slider-response","45","719954","0.0-7.0-2.6","152","1","2025-08-06 09:02:05","36c45c0696341be0efffe67d72a12abb","41.13.114.127","Mozilla/5.0 (Windows NT 10.0; Win64; x64) AppleWebKit/537.36 (KHTML, like Gecko) Chrome/138.0.0.0 Safari/537.36","WebKit","Chrome","138.0.0.0","Windows","10.0","https://app.prolific.com/","en-US,en;q=0.9","67cac9c704712b2393e52905","687a1a965b9f5b85a264363e","689317bd0f9f319eb49bee11","1","67cac9c704712b2393e52905","1","2025-08-06T09:14:07.718Z","","","","ControlQ","","","","","","","","","","","50","","","","","","","","","","","","","","","","","","","","","","","","","","",""
"3204","","<div style=""width:500px;"">
  <p>How would you describe your current emotional state?</p>
  </div>","33","html-slider-response","46","723160","0.0-7.0-3.6","152","1","2025-08-06 09:02:05","36c45c0696341be0efffe67d72a12abb","41.13.114.127","Mozilla/5.0 (Windows NT 10.0; Win64; x64) AppleWebKit/537.36 (KHTML, like Gecko) Chrome/138.0.0.0 Safari/537.36","WebKit","Chrome","138.0.0.0","Windows","10.0","https://app.prolific.com/","en-US,en;q=0.9","67cac9c704712b2393e52905","687a1a965b9f5b85a264363e","689317bd0f9f319eb49bee11","1","67cac9c704712b2393e52905","1","2025-08-06T09:14:10.924Z","","","","StressQ","","","","","","","","","","","50","","","","","","","","","","","","","","","","","","","","","","","","","","",""
"2465","","<div style=""width:500px;"">
  <p>What best describes how you currently feel?</p>
  </div>","63","html-slider-response","47","725626","0.0-7.0-4.6","152","1","2025-08-06 09:02:05","36c45c0696341be0efffe67d72a12abb","41.13.114.127","Mozilla/5.0 (Windows NT 10.0; Win64; x64) AppleWebKit/537.36 (KHTML, like Gecko) Chrome/138.0.0.0 Safari/537.36","WebKit","Chrome","138.0.0.0","Windows","10.0","https://app.prolific.com/","en-US,en;q=0.9","67cac9c704712b2393e52905","687a1a965b9f5b85a264363e","689317bd0f9f319eb49bee11","1","67cac9c704712b2393e52905","1","2025-08-06T09:14:13.391Z","","","","MotivationQ","","","","","","","","","","","50","","","","","","","","","","","","","","","","","","","","","","","","","","",""
"","","","","ctl-task-cpt","48","790082","0.0-7.0-0.7","152","1","2025-08-06 09:02:05","36c45c0696341be0efffe67d72a12abb","41.13.114.127","Mozilla/5.0 (Windows NT 10.0; Win64; x64) AppleWebKit/537.36 (KHTML, like Gecko) Chrome/138.0.0.0 Safari/537.36","WebKit","Chrome","138.0.0.0","Windows","10.0","https://app.prolific.com/","en-US,en;q=0.9","67cac9c704712b2393e52905","687a1a965b9f5b85a264363e","689317bd0f9f319eb49bee11","1","67cac9c704712b2393e52905","1","2025-08-06T09:15:17.846Z","","","","","","","","","","","","","","","","win-only","2","g1:SE,g2:NW","0.3","8","0","728202.3","1443.1","6471.5","61432.1","1","4","8","6","2","-8","-9","21","30","0.1590909090909091","1615.4","3000","-1425","[""left"",""up""]","{""num_key_presses"":17,""num_perfect"":5,""num_errors"":1,""num_randdir"":11,""num_randdir_good_moves"":6,""num_whilered"":0,""num_whileblue"":1,""num_blue"":2,""num_good_moves"":11}","[248.24598214285714,253.63660714285714,0.3,248.24598214285714,253.63660714285714,112.1,248.24598214285714,253.63660714285714,214.1,248.24598214285714,253.63660714285714,315,248.24598214285714,253.63660714285714,428,248.24598214285714,253.63660714285714,529.7,248.24598214285714,253.63660714285714,651,248.24598214285714,253.63660714285714,751.9,98.24598214285714,97.63660714285714,853.7,58.245982142857144,43.636607142857144,959.8,46.245982142857144,26.636607142857144,1064.4,43.245982142857144,10.636607142857144,1179.7,42.245982142857144,25.636607142857144,1282.2,42.245982142857144,25.636607142857144,1405.4,42.245982142857144,25.636607142857144,1510.3,42.245982142857144,25.636607142857144,1620.6,42.245982142857144,25.636607142857144,1729.1,42.245982142857144,25.636607142857144,1846.2,42.245982142857144,25.636607142857144,1948.6,42.245982142857144,25.636607142857144,2059.6,42.245982142857144,25.636607142857144,2167.2,42.245982142857144,25.636607142857144,2268.1,42.245982142857144,25.636607142857144,2372.6,42.245982142857144,25.636607142857144,2479.3,42.245982142857144,25.636607142857144,2587.7,42.245982142857144,25.636607142857144,2688.3,42.245982142857144,25.636607142857144,2788.7,42.245982142857144,25.636607142857144,2906,42.245982142857144,25.636607142857144,3007.9,42.245982142857144,25.636607142857144,3109,42.245982142857144,25.636607142857144,3219.9,42.245982142857144,25.636607142857144,3328.6,42.245982142857144,25.636607142857144,3429.4,42.245982142857144,25.636607142857144,3546.1,42.245982142857144,25.636607142857144,3646.4,42.245982142857144,25.636607142857144,3746.4,42.245982142857144,25.636607142857144,3847.3,42.245982142857144,25.636607142857144,3950.5,42.245982142857144,25.636607142857144,4056.3,42.245982142857144,25.636607142857144,4170.7,42.245982142857144,25.636607142857144,4273.4,42.245982142857144,25.636607142857144,4379.3,42.245982142857144,25.636607142857144,4488.5,42.245982142857144,25.636607142857144,4598.2,42.245982142857144,25.636607142857144,4712.2,42.245982142857144,25.636607142857144,4816,42.245982142857144,25.636607142857144,4917.6]","[1536.1,1536.1,1000,0,536.1,""smooth"",""left"",""left"",""good_move"",4404.8,2867.6,2439.7,1537.3,427.9,""oops"",""left"",""right"",""bad_move"",7625.7,3220,2755.3,4405.7,464.7,""smooth"",""left"",""left"",""good_move"",10715.2,3088.8,2698.3,7626.4,390.5,""smooth"",""left"",""left"",""good_move"",13130.3,2414.5,1978.4,10715.8,436.1,""oops"",""up"",""right"",""bad_move"",15907.6,2776.4,2426.4,13131.3,350,""oops"",""up"",""down"",""bad_move"",19031.3,3121.6,2772.6,15909.7,349,""oops"",""up"",""up"",""good_move"",21850.3,2818.5,2424.8,19031.8,393.7,""oops"",""up"",""up"",""good_move"",24803.1,2951.5,2572,21851.7,379.4,""oops"",""up"",""up"",""good_move"",27886.1,3082.5,2730.3,24803.6,352.2,""oops"",""left"",""down"",""bad_move"",31046.7,3159.8,2803.4,27886.9,356.4,""while_blue"",""left"",""right"",""bad_move"",33987.2,2939.8,2487,31047.5,452.8,""oops"",""left"",""up"",""good_move"",40189.6,6201.6,2050.4,37774,365.3,""smooth"",""left"",""left"",""good_move"",43307.6,3117.2,2658.3,40190.4,458.9,""oops"",""left"",""up"",""good_move"",46976.8,3668.9,3244.5,43307.9,424.4,""oops"",""left"",""right"",""bad_move"",49823.7,2846.3,2455.7,46977.6,390.5,""smooth"",""left"",""left"",""good_move"",52557.1,2733.1,2439.7,49824,293.4,""oops"",""left"",""left"",""good_move""]"
"4836","","<div style=""width:500px;"">
  <p>What determined the result of this run?</p>
  </div>","35","html-slider-response","49","794920","0.0-7.0-1.7","152","1","2025-08-06 09:02:05","36c45c0696341be0efffe67d72a12abb","41.13.114.127","Mozilla/5.0 (Windows NT 10.0; Win64; x64) AppleWebKit/537.36 (KHTML, like Gecko) Chrome/138.0.0.0 Safari/537.36","WebKit","Chrome","138.0.0.0","Windows","10.0","https://app.prolific.com/","en-US,en;q=0.9","67cac9c704712b2393e52905","687a1a965b9f5b85a264363e","689317bd0f9f319eb49bee11","1","67cac9c704712b2393e52905","1","2025-08-06T09:15:22.684Z","","","","AttribQ","","","","","","","","","","","50","","","","","","","","","","","","","","","","","","","","","","","","","","",""
"3889","","<div style=""width:500px;"">
  <p>How much control did you have over the ball?</p>
  </div>","38","html-slider-response","50","798811","0.0-7.0-2.7","152","1","2025-08-06 09:02:05","36c45c0696341be0efffe67d72a12abb","41.13.114.127","Mozilla/5.0 (Windows NT 10.0; Win64; x64) AppleWebKit/537.36 (KHTML, like Gecko) Chrome/138.0.0.0 Safari/537.36","WebKit","Chrome","138.0.0.0","Windows","10.0","https://app.prolific.com/","en-US,en;q=0.9","67cac9c704712b2393e52905","687a1a965b9f5b85a264363e","689317bd0f9f319eb49bee11","1","67cac9c704712b2393e52905","1","2025-08-06T09:15:26.576Z","","","","ControlQ","","","","","","","","","","","50","","","","","","","","","","","","","","","","","","","","","","","","","","",""
"4252","","<div style=""width:500px;"">
  <p>How would you describe your current emotional state?</p>
  </div>","67","html-slider-response","51","803066","0.0-7.0-3.7","152","1","2025-08-06 09:02:05","36c45c0696341be0efffe67d72a12abb","41.13.114.127","Mozilla/5.0 (Windows NT 10.0; Win64; x64) AppleWebKit/537.36 (KHTML, like Gecko) Chrome/138.0.0.0 Safari/537.36","WebKit","Chrome","138.0.0.0","Windows","10.0","https://app.prolific.com/","en-US,en;q=0.9","67cac9c704712b2393e52905","687a1a965b9f5b85a264363e","689317bd0f9f319eb49bee11","1","67cac9c704712b2393e52905","1","2025-08-06T09:15:30.830Z","","","","StressQ","","","","","","","","","","","50","","","","","","","","","","","","","","","","","","","","","","","","","","",""
"3625","","<div style=""width:500px;"">
  <p>What best describes how you currently feel?</p>
  </div>","39","html-slider-response","52","806693","0.0-7.0-4.7","152","1","2025-08-06 09:02:05","36c45c0696341be0efffe67d72a12abb","41.13.114.127","Mozilla/5.0 (Windows NT 10.0; Win64; x64) AppleWebKit/537.36 (KHTML, like Gecko) Chrome/138.0.0.0 Safari/537.36","WebKit","Chrome","138.0.0.0","Windows","10.0","https://app.prolific.com/","en-US,en;q=0.9","67cac9c704712b2393e52905","687a1a965b9f5b85a264363e","689317bd0f9f319eb49bee11","1","67cac9c704712b2393e52905","1","2025-08-06T09:15:34.458Z","","","","MotivationQ","","","","","","","","","","","50","","","","","","","","","","","","","","","","","","","","","","","","","","",""
"","","","","ctl-task-cpt","53","878246","0.0-7.0-0.8","152","1","2025-08-06 09:02:05","36c45c0696341be0efffe67d72a12abb","41.13.114.127","Mozilla/5.0 (Windows NT 10.0; Win64; x64) AppleWebKit/537.36 (KHTML, like Gecko) Chrome/138.0.0.0 Safari/537.36","WebKit","Chrome","138.0.0.0","Windows","10.0","https://app.prolific.com/","en-US,en;q=0.9","67cac9c704712b2393e52905","687a1a965b9f5b85a264363e","689317bd0f9f319eb49bee11","1","67cac9c704712b2393e52905","1","2025-08-06T09:16:46.010Z","","","","","","","","","","","","","","","","win-only","0","g1:NW,g2:SE","0.4","9","0","809268.3","1377.9","6395.3","68520.5","1","4","8","6","2","-8","-8","13","21","0.09848484848484848","1834.9","3000","-1575","[""down"",""right""]","{""num_key_presses"":13,""num_perfect"":6,""num_errors"":0,""num_randdir"":7,""num_randdir_good_moves"":1,""num_whilered"":0,""num_whileblue"":0,""num_blue"":6,""num_good_moves"":7}","[252.24598214285714,244.63660714285714,2.6,252.24598214285714,244.63660714285714,104.4,252.24598214285714,244.63660714285714,205,252.24598214285714,244.63660714285714,307.1,252.24598214285714,244.63660714285714,418.1,252.24598214285714,244.63660714285714,518.8,252.24598214285714,244.63660714285714,625,252.24598214285714,244.63660714285714,732.4,252.24598214285714,244.63660714285714,832.8,287.24598214285714,270.63660714285714,933.9,429.24598214285714,362.63660714285714,1040,436.24598214285714,370.63660714285714,1142.5,440.24598214285714,378.63660714285714,1248.2,442.24598214285714,409.63660714285714,1363,442.24598214285714,431.63660714285714,1466.1,442.24598214285714,436.63660714285714,1573.4,442.24598214285714,436.63660714285714,1674.3,442.24598214285714,436.63660714285714,1780.9,442.24598214285714,436.63660714285714,1882.7,442.24598214285714,436.63660714285714,1986.6,442.24598214285714,436.63660714285714,2088.3,442.24598214285714,436.63660714285714,2190.1,442.24598214285714,436.63660714285714,2301.7,442.24598214285714,436.63660714285714,2411.3,442.24598214285714,436.63660714285714,2512.9,442.24598214285714,436.63660714285714,2621.9,442.24598214285714,436.63660714285714,2722.7,442.24598214285714,436.63660714285714,2824.6,442.24598214285714,436.63660714285714,2930.3,442.24598214285714,436.63660714285714,3038.8,442.24598214285714,436.63660714285714,3139.8,442.24598214285714,436.63660714285714,3244.3,442.24598214285714,436.63660714285714,3350.1,442.24598214285714,436.63660714285714,3461.9,442.24598214285714,436.63660714285714,3574.4,442.24598214285714,436.63660714285714,3691.3,442.24598214285714,436.63660714285714,3796,442.24598214285714,436.63660714285714,3896.8,442.24598214285714,436.63660714285714,3999.5,442.24598214285714,436.63660714285714,4109.6,442.24598214285714,436.63660714285714,4226.6,442.24598214285714,436.63660714285714,4335.1,442.24598214285714,436.63660714285714,4450.9,442.24598214285714,436.63660714285714,4568.7,442.24598214285714,436.63660714285714,4670.2,442.24598214285714,436.63660714285714,4780.9,442.24598214285714,436.63660714285714,4892.1,442.24598214285714,436.63660714285714,4995.2]","[9048,9048.1,2577.6,6044.1,426.4,""oops"",""down"",""left"",""bad_move"",16244.1,7195.1,2984.9,12869.5,389.7,""smooth"",""right"",""right"",""good_move"",19453.1,3208.5,2703.8,16244.6,504.7,""smooth"",""right"",""right"",""good_move"",25464.2,6010.5,2470.4,22523.8,470,""oops"",""right"",""left"",""bad_move"",32385.8,6920.4,2459.2,29557.7,369,""oops"",""right"",""up"",""bad_move"",34834.9,2448.2,1877.6,32386.7,570.6,""smooth"",""right"",""right"",""good_move"",37966.9,3131.5,2695.5,34835.4,436,""oops"",""right"",""left"",""bad_move"",41259,3291.3,2857.4,37967.7,433.9,""oops"",""right"",""left"",""bad_move"",44132.4,2872.7,2400,41259.7,472.7,""oops"",""right"",""left"",""bad_move"",46628.5,2495.7,2142,44132.9,353.7,""smooth"",""down"",""down"",""good_move"",48937.3,2308,1904.6,46629.4,403.4,""oops"",""down"",""down"",""good_move"",56433.9,7496,2618.9,53330,485,""smooth"",""down"",""down"",""good_move"",59624.7,3190.5,2752,56434.3,438.5,""smooth"",""down"",""down"",""good_move""]"
"6864","","<div style=""width:500px;"">
  <p>What determined the result of this run?</p>
  </div>","29","html-slider-response","54","885112","0.0-7.0-1.8","152","1","2025-08-06 09:02:05","36c45c0696341be0efffe67d72a12abb","41.13.114.127","Mozilla/5.0 (Windows NT 10.0; Win64; x64) AppleWebKit/537.36 (KHTML, like Gecko) Chrome/138.0.0.0 Safari/537.36","WebKit","Chrome","138.0.0.0","Windows","10.0","https://app.prolific.com/","en-US,en;q=0.9","67cac9c704712b2393e52905","687a1a965b9f5b85a264363e","689317bd0f9f319eb49bee11","1","67cac9c704712b2393e52905","1","2025-08-06T09:16:52.877Z","","","","AttribQ","","","","","","","","","","","50","","","","","","","","","","","","","","","","","","","","","","","","","","",""
"4140","","<div style=""width:500px;"">
  <p>How much control did you have over the ball?</p>
  </div>","14","html-slider-response","55","889255","0.0-7.0-2.8","152","1","2025-08-06 09:02:05","36c45c0696341be0efffe67d72a12abb","41.13.114.127","Mozilla/5.0 (Windows NT 10.0; Win64; x64) AppleWebKit/537.36 (KHTML, like Gecko) Chrome/138.0.0.0 Safari/537.36","WebKit","Chrome","138.0.0.0","Windows","10.0","https://app.prolific.com/","en-US,en;q=0.9","67cac9c704712b2393e52905","687a1a965b9f5b85a264363e","689317bd0f9f319eb49bee11","1","67cac9c704712b2393e52905","1","2025-08-06T09:16:57.019Z","","","","ControlQ","","","","","","","","","","","50","","","","","","","","","","","","","","","","","","","","","","","","","","",""
"3971","","<div style=""width:500px;"">
  <p>How would you describe your current emotional state?</p>
  </div>","73","html-slider-response","56","893228","0.0-7.0-3.8","152","1","2025-08-06 09:02:05","36c45c0696341be0efffe67d72a12abb","41.13.114.127","Mozilla/5.0 (Windows NT 10.0; Win64; x64) AppleWebKit/537.36 (KHTML, like Gecko) Chrome/138.0.0.0 Safari/537.36","WebKit","Chrome","138.0.0.0","Windows","10.0","https://app.prolific.com/","en-US,en;q=0.9","67cac9c704712b2393e52905","687a1a965b9f5b85a264363e","689317bd0f9f319eb49bee11","1","67cac9c704712b2393e52905","1","2025-08-06T09:17:00.992Z","","","","StressQ","","","","","","","","","","","50","","","","","","","","","","","","","","","","","","","","","","","","","","",""
"3267","","<div style=""width:500px;"">
  <p>What best describes how you currently feel?</p>
  </div>","45","html-slider-response","57","896498","0.0-7.0-4.8","152","1","2025-08-06 09:02:05","36c45c0696341be0efffe67d72a12abb","41.13.114.127","Mozilla/5.0 (Windows NT 10.0; Win64; x64) AppleWebKit/537.36 (KHTML, like Gecko) Chrome/138.0.0.0 Safari/537.36","WebKit","Chrome","138.0.0.0","Windows","10.0","https://app.prolific.com/","en-US,en;q=0.9","67cac9c704712b2393e52905","687a1a965b9f5b85a264363e","689317bd0f9f319eb49bee11","1","67cac9c704712b2393e52905","1","2025-08-06T09:17:04.262Z","","","","MotivationQ","","","","","","","","","","","50","","","","","","","","","","","","","","","","","","","","","","","","","","",""
"","","","","ctl-task-cpt","58","967047","0.0-7.0-0.9","152","1","2025-08-06 09:02:05","36c45c0696341be0efffe67d72a12abb","41.13.114.127","Mozilla/5.0 (Windows NT 10.0; Win64; x64) AppleWebKit/537.36 (KHTML, like Gecko) Chrome/138.0.0.0 Safari/537.36","WebKit","Chrome","138.0.0.0","Windows","10.0","https://app.prolific.com/","en-US,en;q=0.9","67cac9c704712b2393e52905","687a1a965b9f5b85a264363e","689317bd0f9f319eb49bee11","1","67cac9c704712b2393e52905","1","2025-08-06T09:18:14.812Z","","","","","","","","","","","","","","","","win-only","3","g1:SW,g2:NE","0.5","10","0","899073.1","7525","12540.7","67523.3","1","4","4","6","2","-4","-4","9","13","0.06818181818181818","1935.9","3000","-1585","[""up"",""right""]","{""num_key_presses"":13,""num_perfect"":6,""num_errors"":0,""num_randdir"":7,""num_randdir_good_moves"":1,""num_whilered"":0,""num_whileblue"":0,""num_blue"":5,""num_good_moves"":7}","[243.24598214285714,241.63660714285714,0.2,243.24598214285714,241.63660714285714,101.2,243.24598214285714,241.63660714285714,208,243.24598214285714,241.63660714285714,312.7,243.24598214285714,241.63660714285714,414.9,243.24598214285714,241.63660714285714,532.1,243.24598214285714,265.63660714285714,652,239.24598214285714,271.63660714285714,762.3,360.24598214285714,85.63660714285714,865.5,459.24598214285714,5.6366071428571445,967.4,464.24598214285714,2.6366071428571445,1077.6,474.24598214285714,-1.3633928571428555,1180.3,458.24598214285714,22.636607142857144,1291.7,451.24598214285714,28.636607142857144,1393.3,451.24598214285714,28.636607142857144,1493.9,451.24598214285714,28.636607142857144,1594.8,451.24598214285714,28.636607142857144,1696.7,451.24598214285714,28.636607142857144,1797.3,450.24598214285714,28.636607142857144,1902.1,450.24598214285714,28.636607142857144,2003.6,450.24598214285714,28.636607142857144,2114.4,450.24598214285714,28.636607142857144,2234.7,450.24598214285714,28.636607142857144,2355.2,450.24598214285714,28.636607142857144,2459.6,450.24598214285714,28.636607142857144,2580.4,450.24598214285714,28.636607142857144,2683.1,450.24598214285714,28.636607142857144,2790.9,450.24598214285714,28.636607142857144,2893.5,450.24598214285714,28.636607142857144,3003,450.24598214285714,28.636607142857144,3108.8,450.24598214285714,28.636607142857144,3213.1,450.24598214285714,28.636607142857144,3315.4,450.24598214285714,28.636607142857144,3415.9,450.24598214285714,28.636607142857144,3522.9,450.24598214285714,28.636607142857144,3626.9,450.24598214285714,28.636607142857144,3739.6,450.24598214285714,28.636607142857144,3848.9,450.24598214285714,28.636607142857144,3951.3,450.24598214285714,28.636607142857144,4057,450.24598214285714,28.636607142857144,4158.4,450.24598214285714,28.636607142857144,4258.7,450.24598214285714,28.636607142857144,4361.1,450.24598214285714,28.636607142857144,4467.9,450.24598214285714,28.636607142857144,4574.3,450.24598214285714,28.636607142857144,4684.7,450.24598214285714,28.636607142857144,4785.8,450.24598214285714,28.636607142857144,4891.5,450.24598214285714,28.636607142857144,4993]","[1463.9,1463.9,1000,0,463.9,""smooth"",""up"",""up"",""good_move"",4580.5,3115.6,2692.1,1464.9,423.5,""smooth"",""up"",""up"",""good_move"",10387,5805.5,2119.2,7898.2,369.6,""smooth"",""up"",""up"",""good_move"",16265.4,5877.9,2240.8,13559.2,465.4,""oops"",""right"",""down"",""bad_move"",18603.5,2337.4,1771.8,16266.1,565.6,""smooth"",""right"",""right"",""good_move"",22002.8,3398.5,2952.3,18604.4,446.2,""oops"",""right"",""left"",""bad_move"",24706.7,2703,2243.1,22003.7,459.9,""oops"",""right"",""left"",""bad_move"",27438.7,2731.2,2276.4,24707.5,454.8,""oops"",""right"",""down"",""bad_move"",30994.8,3555.5,3053.4,27439.3,502.1,""oops"",""up"",""right"",""good_move"",33452,2456.2,1894.4,30995.8,561.8,""smooth"",""up"",""up"",""good_move"",39418.1,5965.3,2668.1,36308.1,441.9,""oops"",""up"",""left"",""bad_move"",45892.8,6474,2820.7,42614.5,457.6,""oops"",""right"",""left"",""bad_move"",51917.8,6024.8,2844.7,48654.1,419,""smooth"",""right"",""right"",""good_move""]"
"3800","","<div style=""width:500px;"">
  <p>What determined the result of this run?</p>
  </div>","30","html-slider-response","59","970850","0.0-7.0-1.9","152","1","2025-08-06 09:02:05","36c45c0696341be0efffe67d72a12abb","41.13.114.127","Mozilla/5.0 (Windows NT 10.0; Win64; x64) AppleWebKit/537.36 (KHTML, like Gecko) Chrome/138.0.0.0 Safari/537.36","WebKit","Chrome","138.0.0.0","Windows","10.0","https://app.prolific.com/","en-US,en;q=0.9","67cac9c704712b2393e52905","687a1a965b9f5b85a264363e","689317bd0f9f319eb49bee11","1","67cac9c704712b2393e52905","1","2025-08-06T09:18:18.614Z","","","","AttribQ","","","","","","","","","","","50","","","","","","","","","","","","","","","","","","","","","","","","","","",""
"4216","","<div style=""width:500px;"">
  <p>How much control did you have over the ball?</p>
  </div>","14","html-slider-response","60","975067","0.0-7.0-2.9","152","1","2025-08-06 09:02:05","36c45c0696341be0efffe67d72a12abb","41.13.114.127","Mozilla/5.0 (Windows NT 10.0; Win64; x64) AppleWebKit/537.36 (KHTML, like Gecko) Chrome/138.0.0.0 Safari/537.36","WebKit","Chrome","138.0.0.0","Windows","10.0","https://app.prolific.com/","en-US,en;q=0.9","67cac9c704712b2393e52905","687a1a965b9f5b85a264363e","689317bd0f9f319eb49bee11","1","67cac9c704712b2393e52905","1","2025-08-06T09:18:22.831Z","","","","ControlQ","","","","","","","","","","","50","","","","","","","","","","","","","","","","","","","","","","","","","","",""
"3606","","<div style=""width:500px;"">
  <p>How would you describe your current emotional state?</p>
  </div>","26","html-slider-response","61","978676","0.0-7.0-3.9","152","1","2025-08-06 09:02:05","36c45c0696341be0efffe67d72a12abb","41.13.114.127","Mozilla/5.0 (Windows NT 10.0; Win64; x64) AppleWebKit/537.36 (KHTML, like Gecko) Chrome/138.0.0.0 Safari/537.36","WebKit","Chrome","138.0.0.0","Windows","10.0","https://app.prolific.com/","en-US,en;q=0.9","67cac9c704712b2393e52905","687a1a965b9f5b85a264363e","689317bd0f9f319eb49bee11","1","67cac9c704712b2393e52905","1","2025-08-06T09:18:26.440Z","","","","StressQ","","","","","","","","","","","50","","","","","","","","","","","","","","","","","","","","","","","","","","",""
"3764","","<div style=""width:500px;"">
  <p>What best describes how you currently feel?</p>
  </div>","74","html-slider-response","62","982442","0.0-7.0-4.9","152","1","2025-08-06 09:02:05","36c45c0696341be0efffe67d72a12abb","41.13.114.127","Mozilla/5.0 (Windows NT 10.0; Win64; x64) AppleWebKit/537.36 (KHTML, like Gecko) Chrome/138.0.0.0 Safari/537.36","WebKit","Chrome","138.0.0.0","Windows","10.0","https://app.prolific.com/","en-US,en;q=0.9","67cac9c704712b2393e52905","687a1a965b9f5b85a264363e","689317bd0f9f319eb49bee11","1","67cac9c704712b2393e52905","1","2025-08-06T09:18:30.206Z","","","","MotivationQ","","","","","","","","","","","50","","","","","","","","","","","","","","","","","","","","","","","","","","",""
"","","","","ctl-task-cpt","63","1047445","0.0-7.0-0.10","152","1","2025-08-06 09:02:05","36c45c0696341be0efffe67d72a12abb","41.13.114.127","Mozilla/5.0 (Windows NT 10.0; Win64; x64) AppleWebKit/537.36 (KHTML, like Gecko) Chrome/138.0.0.0 Safari/537.36","WebKit","Chrome","138.0.0.0","Windows","10.0","https://app.prolific.com/","en-US,en;q=0.9","67cac9c704712b2393e52905","687a1a965b9f5b85a264363e","689317bd0f9f319eb49bee11","1","67cac9c704712b2393e52905","1","2025-08-06T09:19:35.209Z","","","","","","","","","","","","","","","","win-only","0","g1:NW,g2:SE","0.6","11","0","985016.2","7543.7","12546.5","61988.9","1","4","4","6","2","-4","-5","4","9","0.030303030303030304","1812.8","3000","-1620","[""down"",""right""]","{""num_key_presses"":13,""num_perfect"":8,""num_errors"":1,""num_randdir"":4,""num_randdir_good_moves"":1,""num_whilered"":0,""num_whileblue"":1,""num_blue"":4,""num_good_moves"":9}","[245.24598214285714,241.63660714285714,1.4,245.24598214285714,241.63660714285714,115,245.24598214285714,241.63660714285714,220.5,245.24598214285714,241.63660714285714,329.2,245.24598214285714,241.63660714285714,454.4,245.24598214285714,241.63660714285714,576.2,245.24598214285714,241.63660714285714,676.4,323.24598214285714,296.63660714285714,778.1,375.24598214285714,377.63660714285714,886.7,377.24598214285714,382.63660714285714,999.8,405.24598214285714,400.63660714285714,1118.9,419.24598214285714,406.63660714285714,1225.6,439.24598214285714,420.63660714285714,1348.1,439.24598214285714,423.63660714285714,1457.7,439.24598214285714,423.63660714285714,1573.9,439.24598214285714,423.63660714285714,1678.2,439.24598214285714,423.63660714285714,1780.9,439.24598214285714,423.63660714285714,1886.1,439.24598214285714,423.63660714285714,1988.3,439.24598214285714,423.63660714285714,2088.3,439.24598214285714,423.63660714285714,2188.7,439.24598214285714,423.63660714285714,2289.9,439.24598214285714,423.63660714285714,2400.4,439.24598214285714,423.63660714285714,2501.2,439.24598214285714,423.63660714285714,2620.9,439.24598214285714,423.63660714285714,2721.7,439.24598214285714,423.63660714285714,2833.3,439.24598214285714,423.63660714285714,2937,439.24598214285714,423.63660714285714,3039.9,439.24598214285714,423.63660714285714,3144,439.24598214285714,423.63660714285714,3255.4,439.24598214285714,423.63660714285714,3361.5,439.24598214285714,423.63660714285714,3461.9,439.24598214285714,423.63660714285714,3562.6,439.24598214285714,423.63660714285714,3663.2,439.24598214285714,423.63660714285714,3781.4,439.24598214285714,423.63660714285714,3890,439.24598214285714,423.63660714285714,3992.5,439.24598214285714,423.63660714285714,4097.2,439.24598214285714,423.63660714285714,4197.9,439.24598214285714,423.63660714285714,4302,439.24598214285714,423.63660714285714,4411.2,439.24598214285714,423.63660714285714,4520.7,439.24598214285714,423.63660714285714,4632.1,439.24598214285714,423.63660714285714,4740,439.24598214285714,423.63660714285714,4845.7,439.24598214285714,423.63660714285714,4948.7]","[5694.8,5694.8,3222.7,2005.3,466.8,""oops"",""down"",""down"",""good_move"",8525,2829.5,2332.1,5695.6,497.4,""oops"",""right"",""up"",""bad_move"",17712.7,9186.9,2117.2,15152.8,442.7,""oops"",""down"",""up"",""bad_move"",20940.8,3227.6,2690.7,17713.2,536.9,""smooth"",""right"",""right"",""good_move"",24084.1,3142.6,2721.5,20941.5,421.1,""smooth"",""right"",""right"",""good_move"",27258,3173.4,2717.6,24084.6,455.8,""oops"",""right"",""left"",""bad_move"",29871.7,2612.2,2009.1,27259.5,603.1,""smooth"",""right"",""right"",""good_move"",33023.3,3151.3,2735.3,29872.1,415.9,""smooth"",""down"",""down"",""good_move"",35586.7,2562.6,2104.7,33024.1,457.9,""smooth"",""down"",""down"",""good_move"",38710.8,3123.6,2750.1,35587.2,373.5,""while_blue"",""down"",""left"",""bad_move"",40919,2207.3,1730.1,38711.7,477.2,""smooth"",""down"",""down"",""good_move"",43972.6,3053.2,2642.4,40919.4,410.8,""smooth"",""right"",""right"",""good_move"",46535.5,2562.1,2143.5,43973.5,418.5,""smooth"",""right"",""right"",""good_move""]"
"3576","","<div style=""width:500px;"">
  <p>What determined the result of this run?</p>
  </div>","21","html-slider-response","64","1051023","0.0-7.0-1.10","152","1","2025-08-06 09:02:05","36c45c0696341be0efffe67d72a12abb","41.13.114.127","Mozilla/5.0 (Windows NT 10.0; Win64; x64) AppleWebKit/537.36 (KHTML, like Gecko) Chrome/138.0.0.0 Safari/537.36","WebKit","Chrome","138.0.0.0","Windows","10.0","https://app.prolific.com/","en-US,en;q=0.9","67cac9c704712b2393e52905","687a1a965b9f5b85a264363e","689317bd0f9f319eb49bee11","1","67cac9c704712b2393e52905","1","2025-08-06T09:19:38.787Z","","","","AttribQ","","","","","","","","","","","50","","","","","","","","","","","","","","","","","","","","","","","","","","",""
"3999","","<div style=""width:500px;"">
  <p>How much control did you have over the ball?</p>
  </div>","20","html-slider-response","65","1055025","0.0-7.0-2.10","152","1","2025-08-06 09:02:05","36c45c0696341be0efffe67d72a12abb","41.13.114.127","Mozilla/5.0 (Windows NT 10.0; Win64; x64) AppleWebKit/537.36 (KHTML, like Gecko) Chrome/138.0.0.0 Safari/537.36","WebKit","Chrome","138.0.0.0","Windows","10.0","https://app.prolific.com/","en-US,en;q=0.9","67cac9c704712b2393e52905","687a1a965b9f5b85a264363e","689317bd0f9f319eb49bee11","1","67cac9c704712b2393e52905","1","2025-08-06T09:19:42.789Z","","","","ControlQ","","","","","","","","","","","50","","","","","","","","","","","","","","","","","","","","","","","","","","",""
"4183","","<div style=""width:500px;"">
  <p>How would you describe your current emotional state?</p>
  </div>","26","html-slider-response","66","1059211","0.0-7.0-3.10","152","1","2025-08-06 09:02:05","36c45c0696341be0efffe67d72a12abb","41.13.114.127","Mozilla/5.0 (Windows NT 10.0; Win64; x64) AppleWebKit/537.36 (KHTML, like Gecko) Chrome/138.0.0.0 Safari/537.36","WebKit","Chrome","138.0.0.0","Windows","10.0","https://app.prolific.com/","en-US,en;q=0.9","67cac9c704712b2393e52905","687a1a965b9f5b85a264363e","689317bd0f9f319eb49bee11","1","67cac9c704712b2393e52905","1","2025-08-06T09:19:46.975Z","","","","StressQ","","","","","","","","","","","50","","","","","","","","","","","","","","","","","","","","","","","","","","",""
"3328","","<div style=""width:500px;"">
  <p>What best describes how you currently feel?</p>
  </div>","64","html-slider-response","67","1062540","0.0-7.0-4.10","152","1","2025-08-06 09:02:05","36c45c0696341be0efffe67d72a12abb","41.13.114.127","Mozilla/5.0 (Windows NT 10.0; Win64; x64) AppleWebKit/537.36 (KHTML, like Gecko) Chrome/138.0.0.0 Safari/537.36","WebKit","Chrome","138.0.0.0","Windows","10.0","https://app.prolific.com/","en-US,en;q=0.9","67cac9c704712b2393e52905","687a1a965b9f5b85a264363e","689317bd0f9f319eb49bee11","1","67cac9c704712b2393e52905","1","2025-08-06T09:19:50.304Z","","","","MotivationQ","","","","","","","","","","","50","","","","","","","","","","","","","","","","","","","","","","","","","","",""
"","","","","ctl-task-cpt","68","1102619","0.0-7.0-0.11","152","1","2025-08-06 09:02:05","36c45c0696341be0efffe67d72a12abb","41.13.114.127","Mozilla/5.0 (Windows NT 10.0; Win64; x64) AppleWebKit/537.36 (KHTML, like Gecko) Chrome/138.0.0.0 Safari/537.36","WebKit","Chrome","138.0.0.0","Windows","10.0","https://app.prolific.com/","en-US,en;q=0.9","67cac9c704712b2393e52905","687a1a965b9f5b85a264363e","689317bd0f9f319eb49bee11","1","67cac9c704712b2393e52905","1","2025-08-06T09:20:30.383Z","","","","","","","","","","","","","","","","win-only","0","g1:NW,g2:SE","0.7","12","0","1065115.1","11712.4","16729.7","37053.9","1","4","8","6","2","8","8","12","4","0.09090909090909091","1362.4","3000","1705","[""down"",""right""]","{""num_key_presses"":6,""num_perfect"":4,""num_errors"":0,""num_randdir"":2,""num_randdir_good_moves"":2,""num_whilered"":0,""num_whileblue"":0,""num_blue"":1,""num_good_moves"":6}","[246.24598214285714,247.63660714285714,0.5,246.24598214285714,247.63660714285714,113.7,246.24598214285714,247.63660714285714,228.2,246.24598214285714,247.63660714285714,347.7,246.24598214285714,247.63660714285714,464.9,246.24598214285714,247.63660714285714,569,253.24598214285714,239.63660714285714,677.1,419.24598214285714,392.63660714285714,780.3,469.24598214285714,448.63660714285714,882,469.24598214285714,448.63660714285714,983.7,469.24598214285714,448.63660714285714,1087.3,469.24598214285714,448.63660714285714,1198.5,469.24598214285714,448.63660714285714,1310.7,469.24598214285714,448.63660714285714,1417.7,469.24598214285714,448.63660714285714,1528.4,469.24598214285714,448.63660714285714,1629.3,469.24598214285714,448.63660714285714,1730.1,469.24598214285714,448.63660714285714,1847.8,469.24598214285714,448.63660714285714,1958.8,469.24598214285714,448.63660714285714,2059.3,469.24598214285714,448.63660714285714,2159.3,469.24598214285714,448.63660714285714,2266.8,469.24598214285714,448.63660714285714,2377.8,469.24598214285714,448.63660714285714,2494.7,469.24598214285714,448.63660714285714,2604.9,469.24598214285714,448.63660714285714,2708.5,469.24598214285714,448.63660714285714,2812,469.24598214285714,448.63660714285714,2917.1,469.24598214285714,448.63660714285714,3022.2,469.24598214285714,448.63660714285714,3131.8,469.24598214285714,448.63660714285714,3232,469.24598214285714,448.63660714285714,3332.1,469.24598214285714,448.63660714285714,3433.7,469.24598214285714,448.63660714285714,3534,469.24598214285714,448.63660714285714,3638.3,469.24598214285714,448.63660714285714,3738.8,469.24598214285714,448.63660714285714,3848.3,469.24598214285714,448.63660714285714,3950.1,469.24598214285714,448.63660714285714,4051.2,469.24598214285714,448.63660714285714,4166.7,469.24598214285714,448.63660714285714,4270.4,469.24598214285714,448.63660714285714,4374.7,469.24598214285714,448.63660714285714,4474.9,469.24598214285714,448.63660714285714,4581.3,469.24598214285714,448.63660714285714,4684.1,469.24598214285714,448.63660714285714,4791.1,469.24598214285714,448.63660714285714,4895.2,469.24598214285714,448.63660714285714,4998.6]","[1407.3,1407.3,1000,0,407.3,""oops"",""down"",""right"",""good_move"",5161.7,3753.7,3269.5,1408.1,484.1,""oops"",""down"",""down"",""good_move"",8266.2,3103.8,2633.1,5162.4,470.7,""smooth"",""down"",""down"",""good_move"",14754.4,6487.3,2633,11560.5,560.9,""smooth"",""down"",""down"",""good_move"",17543.7,2789,2359.8,14754.7,429.2,""smooth"",""right"",""right"",""good_move"",20131.6,2587,2187.9,17544.6,399.1,""smooth"",""right"",""right"",""good_move""]"
"4256","","<div style=""width:500px;"">
  <p>What determined the result of this run?</p>
  </div>","27","html-slider-response","69","1106877","0.0-7.0-1.11","152","1","2025-08-06 09:02:05","36c45c0696341be0efffe67d72a12abb","41.13.114.127","Mozilla/5.0 (Windows NT 10.0; Win64; x64) AppleWebKit/537.36 (KHTML, like Gecko) Chrome/138.0.0.0 Safari/537.36","WebKit","Chrome","138.0.0.0","Windows","10.0","https://app.prolific.com/","en-US,en;q=0.9","67cac9c704712b2393e52905","687a1a965b9f5b85a264363e","689317bd0f9f319eb49bee11","1","67cac9c704712b2393e52905","1","2025-08-06T09:20:34.642Z","","","","AttribQ","","","","","","","","","","","50","","","","","","","","","","","","","","","","","","","","","","","","","","",""
"4246","","<div style=""width:500px;"">
  <p>How much control did you have over the ball?</p>
  </div>","31","html-slider-response","70","1111125","0.0-7.0-2.11","152","1","2025-08-06 09:02:05","36c45c0696341be0efffe67d72a12abb","41.13.114.127","Mozilla/5.0 (Windows NT 10.0; Win64; x64) AppleWebKit/537.36 (KHTML, like Gecko) Chrome/138.0.0.0 Safari/537.36","WebKit","Chrome","138.0.0.0","Windows","10.0","https://app.prolific.com/","en-US,en;q=0.9","67cac9c704712b2393e52905","687a1a965b9f5b85a264363e","689317bd0f9f319eb49bee11","1","67cac9c704712b2393e52905","1","2025-08-06T09:20:38.889Z","","","","ControlQ","","","","","","","","","","","50","","","","","","","","","","","","","","","","","","","","","","","","","","",""
"21219","","<div style=""width:500px;"">
  <p>How would you describe your current emotional state?</p>
  </div>","22","html-slider-response","71","1132346","0.0-7.0-3.11","152","1","2025-08-06 09:02:05","36c45c0696341be0efffe67d72a12abb","41.13.114.127","Mozilla/5.0 (Windows NT 10.0; Win64; x64) AppleWebKit/537.36 (KHTML, like Gecko) Chrome/138.0.0.0 Safari/537.36","WebKit","Chrome","138.0.0.0","Windows","10.0","https://app.prolific.com/","en-US,en;q=0.9","67cac9c704712b2393e52905","687a1a965b9f5b85a264363e","689317bd0f9f319eb49bee11","1","67cac9c704712b2393e52905","1","2025-08-06T09:21:00.110Z","","","","StressQ","","","","","","","","","","","50","","","","","","","","","","","","","","","","","","","","","","","","","","",""
"4016","","<div style=""width:500px;"">
  <p>What best describes how you currently feel?</p>
  </div>","64","html-slider-response","72","1136364","0.0-7.0-4.11","152","1","2025-08-06 09:02:05","36c45c0696341be0efffe67d72a12abb","41.13.114.127","Mozilla/5.0 (Windows NT 10.0; Win64; x64) AppleWebKit/537.36 (KHTML, like Gecko) Chrome/138.0.0.0 Safari/537.36","WebKit","Chrome","138.0.0.0","Windows","10.0","https://app.prolific.com/","en-US,en;q=0.9","67cac9c704712b2393e52905","687a1a965b9f5b85a264363e","689317bd0f9f319eb49bee11","1","67cac9c704712b2393e52905","1","2025-08-06T09:21:04.128Z","","","","MotivationQ","","","","","","","","","","","50","","","","","","","","","","","","","","","","","","","","","","","","","","",""
"","","","","ctl-task-cpt","73","1179497","0.0-7.0-0.12","152","1","2025-08-06 09:02:05","36c45c0696341be0efffe67d72a12abb","41.13.114.127","Mozilla/5.0 (Windows NT 10.0; Win64; x64) AppleWebKit/537.36 (KHTML, like Gecko) Chrome/138.0.0.0 Safari/537.36","WebKit","Chrome","138.0.0.0","Windows","10.0","https://app.prolific.com/","en-US,en;q=0.9","67cac9c704712b2393e52905","687a1a965b9f5b85a264363e","689317bd0f9f319eb49bee11","1","67cac9c704712b2393e52905","1","2025-08-06T09:21:47.261Z","","","","","","","","","","","","","","","","win-only","1","g1:NE,g2:SW","0.8","13","0","1138937.9","11439.5","16448.6","40086","1","4","4","6","2","4","4","16","12","0.12121212121212122","1983.5","3000","1810","[""down"",""left""]","{""num_key_presses"":6,""num_perfect"":5,""num_errors"":0,""num_randdir"":1,""num_randdir_good_moves"":1,""num_whilered"":0,""num_whileblue"":0,""num_blue"":2,""num_good_moves"":6}","[244.24598214285714,250.63660714285714,0.9,244.24598214285714,250.63660714285714,100,244.24598214285714,250.63660714285714,202.5,244.24598214285714,250.63660714285714,317.3,244.24598214285714,250.63660714285714,418.1,244.24598214285714,250.63660714285714,518.3,244.24598214285714,250.63660714285714,631.4,244.24598214285714,250.63660714285714,735.3,244.24598214285714,250.63660714285714,840,244.24598214285714,250.63660714285714,947.4,244.24598214285714,250.63660714285714,1049.8,183.24598214285714,336.63660714285714,1169.3,112.24598214285714,447.63660714285714,1278.5,89.24598214285714,464.63660714285714,1380.7,76.24598214285714,463.63660714285714,1488.8,46.245982142857144,450.63660714285714,1592.1,40.245982142857144,449.63660714285714,1705.1,40.245982142857144,449.63660714285714,1808.8,40.245982142857144,449.63660714285714,1916.3,40.245982142857144,449.63660714285714,2024.7,40.245982142857144,449.63660714285714,2131.4,40.245982142857144,449.63660714285714,2233.5,40.245982142857144,449.63660714285714,2345.7,40.245982142857144,449.63660714285714,2449.8,40.245982142857144,449.63660714285714,2555.5,40.245982142857144,449.63660714285714,2666.7,40.245982142857144,449.63660714285714,2778.9,40.245982142857144,449.63660714285714,2884.6,40.245982142857144,449.63660714285714,2984.6,40.245982142857144,449.63660714285714,3085.1,40.245982142857144,449.63660714285714,3194.5,40.245982142857144,449.63660714285714,3299.5,40.245982142857144,449.63660714285714,3400.9,40.245982142857144,449.63660714285714,3514.8,40.245982142857144,449.63660714285714,3626.2,40.245982142857144,449.63660714285714,3731.4,40.245982142857144,449.63660714285714,3835.9,40.245982142857144,449.63660714285714,3936.7,40.245982142857144,449.63660714285714,4047.4,40.245982142857144,449.63660714285714,4155.1,40.245982142857144,449.63660714285714,4265.1,40.245982142857144,449.63660714285714,4369.5,40.245982142857144,449.63660714285714,4480.7,40.245982142857144,449.63660714285714,4585.6,40.245982142857144,449.63660714285714,4699.8,40.245982142857144,449.63660714285714,4801.7,40.245982142857144,449.63660714285714,4912.5]","[1452.5,1452.5,1000,0,452.5,""smooth"",""down"",""down"",""good_move"",4318.9,2865.4,2418.1,1453.5,447.3,""smooth"",""down"",""down"",""good_move"",6990.1,2670.6,2209.5,4319.5,461.1,""smooth"",""left"",""left"",""good_move"",17197.6,10206.7,2906.9,13866.2,424.5,""oops"",""left"",""down"",""good_move"",20653.6,3455.4,2850.1,17198.3,605.3,""smooth"",""left"",""left"",""good_move"",23402,2747.5,2271.9,20654.5,475.6,""smooth"",""left"",""left"",""good_move""]"
"8994","","<div style=""width:500px;"">
  <p>What determined the result of this run?</p>
  </div>","25","html-slider-response","74","1188493","0.0-7.0-1.12","152","1","2025-08-06 09:02:05","36c45c0696341be0efffe67d72a12abb","41.13.114.127","Mozilla/5.0 (Windows NT 10.0; Win64; x64) AppleWebKit/537.36 (KHTML, like Gecko) Chrome/138.0.0.0 Safari/537.36","WebKit","Chrome","138.0.0.0","Windows","10.0","https://app.prolific.com/","en-US,en;q=0.9","67cac9c704712b2393e52905","687a1a965b9f5b85a264363e","689317bd0f9f319eb49bee11","1","67cac9c704712b2393e52905","1","2025-08-06T09:21:56.257Z","","","","AttribQ","","","","","","","","","","","50","","","","","","","","","","","","","","","","","","","","","","","","","","",""
"4713","","<div style=""width:500px;"">
  <p>How much control did you have over the ball?</p>
  </div>","11","html-slider-response","75","1193209","0.0-7.0-2.12","152","1","2025-08-06 09:02:05","36c45c0696341be0efffe67d72a12abb","41.13.114.127","Mozilla/5.0 (Windows NT 10.0; Win64; x64) AppleWebKit/537.36 (KHTML, like Gecko) Chrome/138.0.0.0 Safari/537.36","WebKit","Chrome","138.0.0.0","Windows","10.0","https://app.prolific.com/","en-US,en;q=0.9","67cac9c704712b2393e52905","687a1a965b9f5b85a264363e","689317bd0f9f319eb49bee11","1","67cac9c704712b2393e52905","1","2025-08-06T09:22:00.973Z","","","","ControlQ","","","","","","","","","","","50","","","","","","","","","","","","","","","","","","","","","","","","","","",""
"2958","","<div style=""width:500px;"">
  <p>How would you describe your current emotional state?</p>
  </div>","26","html-slider-response","76","1196168","0.0-7.0-3.12","152","1","2025-08-06 09:02:05","36c45c0696341be0efffe67d72a12abb","41.13.114.127","Mozilla/5.0 (Windows NT 10.0; Win64; x64) AppleWebKit/537.36 (KHTML, like Gecko) Chrome/138.0.0.0 Safari/537.36","WebKit","Chrome","138.0.0.0","Windows","10.0","https://app.prolific.com/","en-US,en;q=0.9","67cac9c704712b2393e52905","687a1a965b9f5b85a264363e","689317bd0f9f319eb49bee11","1","67cac9c704712b2393e52905","1","2025-08-06T09:22:03.933Z","","","","StressQ","","","","","","","","","","","50","","","","","","","","","","","","","","","","","","","","","","","","","","",""
"2869","","<div style=""width:500px;"">
  <p>What best describes how you currently feel?</p>
