"rt","response_timestamp","stimulus","response","trial_type","trial_index","time_elapsed","internal_node_id","run_id","condition","recorded_at","source_code_version","ip","user_agent","device","browser","browser_version","platform","platform_version","referer","accept_language","PROLIFIC_PID","STUDY_ID","SESSION_ID","BATCH","prolific_id","batch","realtime","success","question_order","question_id","eventType","responses","item_order","radio_event_ids","radio_event_times","key_event_times","mouse_event_times","straightlining","zigzagging","honeypot","view_history","slider_start","which_type","canvas_config","goals_layout","control_level","trial_number","tutorial_trial_number","trial_start_time","phase1_start_time","phase2_start_time","phase3_start_time","goal_1_value","goal_1_distance","goal_2_value","goal_2_distance","goal_selected","outcome","outcome_total","participant_final_score","participant_initial_score","participant_final_score_prop","goal_choice_rt","allocated_time","allocated_time_remaining","goal_direction","counts","mouse_movements","key_presses"
"25244","1753865746008","<p style='font-size:40px;line-height:1.25'><strong>Welcome to the experiment!</strong></p><p style='font-size:1.1em;line-height:1.25'>Thank you for participanting in our experiment again! You will be asked to play the Dysfunctional Ball Game again. We will briefly recap the rules before we start.</p><p style='font-size:1.1em;line-height:1.25'>Press <strong>Next</strong> to continue.</p>","0","custom-html-button-response","0","25246","0.0-0.0","66","1","2025-07-30 08:55:19","36c45c0696341be0efffe67d72a12abb","102.66.181.4","Mozilla/5.0 (Windows NT 10.0; Win64; x64) AppleWebKit/537.36 (KHTML, like Gecko) Chrome/138.0.0.0 Safari/537.36 Edg/138.0.0.0","WebKit","Edge","138.0.0.0","Windows","10.0","https://app.prolific.com/","en-US,en;q=0.9","67d0052a3f36525d24f021be","687a19d2168e237449fb8af4","6889dbcad0c4cd7e646c2cc3","0","67d0052a3f36525d24f021be","0","2025-07-30T08:55:46.009Z","","","","","","","","","","","","","","","","","","","","","","","","","","","","","","","","","","","","","","","","","",""
"21196","","","","fullscreen","1","47451","0.0-1.0","66","1","2025-07-30 08:55:19","36c45c0696341be0efffe67d72a12abb","102.66.181.4","Mozilla/5.0 (Windows NT 10.0; Win64; x64) AppleWebKit/537.36 (KHTML, like Gecko) Chrome/138.0.0.0 Safari/537.36 Edg/138.0.0.0","WebKit","Edge","138.0.0.0","Windows","10.0","https://app.prolific.com/","en-US,en;q=0.9","67d0052a3f36525d24f021be","687a19d2168e237449fb8af4","6889dbcad0c4cd7e646c2cc3","0","67d0052a3f36525d24f021be","0","","true","","","","","","","","","","","","","","","","","","","","","","","","","","","","","","","","","","","","","","","","",""
"14701","1753865782915"," <p style='font-size:1.1em;line-height:1.25'>Thank you for closing all other tabs.</p><p style='font-size:1.1em;line-height:1.25'>We will now invite you to fill in some questionnaires, before starting the game.<br>This will take about 5 minutes.<br></p><p style='font-size:1.1em;line-height:1.25'>Press the <strong>Next</strong> button to continue.</p>","0","custom-html-button-response","2","62153","0.0-2.0","66","1","2025-07-30 08:55:19","36c45c0696341be0efffe67d72a12abb","102.66.181.4","Mozilla/5.0 (Windows NT 10.0; Win64; x64) AppleWebKit/537.36 (KHTML, like Gecko) Chrome/138.0.0.0 Safari/537.36 Edg/138.0.0.0","WebKit","Edge","138.0.0.0","Windows","10.0","https://app.prolific.com/","en-US,en;q=0.9","67d0052a3f36525d24f021be","687a19d2168e237449fb8af4","6889dbcad0c4cd7e646c2cc3","0","67d0052a3f36525d24f021be","0","2025-07-30T08:56:22.916Z","","","","","","","","","","","","","","","","","","","","","","","","","","","","","","","","","","","","","","","","","",""
"9264","","","{""assigned_sex"":""male""}","survey-multi-choice","3","71421","0.0-3.0-0.0","66","1","2025-07-30 08:55:19","36c45c0696341be0efffe67d72a12abb","102.66.181.4","Mozilla/5.0 (Windows NT 10.0; Win64; x64) AppleWebKit/537.36 (KHTML, like Gecko) Chrome/138.0.0.0 Safari/537.36 Edg/138.0.0.0","WebKit","Edge","138.0.0.0","Windows","10.0","https://app.prolific.com/","en-US,en;q=0.9","67d0052a3f36525d24f021be","687a19d2168e237449fb8af4","6889dbcad0c4cd7e646c2cc3","0","67d0052a3f36525d24f021be","0","","","[0]","0","demographics","","","","","","","","","","","","","","","","","","","","","","","","","","","","","","","","","","","","","",""
"16358","1753865808544","<p style='font-size:1.1em;line-height:1.25'>In the following, we will perform a baseline assessment. This means that we will ask you a few questions relating to your experiences over the past month.<br></p><p style='font-size:1.1em;line-height:1.25'>Press the <strong>Next</strong> button to continue.</p>","0","custom-html-button-response","4","87782","0.0-4.0-0.0","66","1","2025-07-30 08:55:19","36c45c0696341be0efffe67d72a12abb","102.66.181.4","Mozilla/5.0 (Windows NT 10.0; Win64; x64) AppleWebKit/537.36 (KHTML, like Gecko) Chrome/138.0.0.0 Safari/537.36 Edg/138.0.0.0","WebKit","Edge","138.0.0.0","Windows","10.0","https://app.prolific.com/","en-US,en;q=0.9","67d0052a3f36525d24f021be","687a19d2168e237449fb8af4","6889dbcad0c4cd7e646c2cc3","0","67d0052a3f36525d24f021be","0","2025-07-30T08:56:48.545Z","","","","","","","","","","","","","","","","","","","","","","","","","","","","","","","","","","","","","","","","","",""
"382143.59999999404","","","","survey-template","5","469929","0.0-4.0-1.0","66","1","2025-07-30 08:55:19","36c45c0696341be0efffe67d72a12abb","102.66.181.4","Mozilla/5.0 (Windows NT 10.0; Win64; x64) AppleWebKit/537.36 (KHTML, like Gecko) Chrome/138.0.0.0 Safari/537.36 Edg/138.0.0.0","WebKit","Edge","138.0.0.0","Windows","10.0","https://app.prolific.com/","en-US,en;q=0.9","67d0052a3f36525d24f021be","687a19d2168e237449fb8af4","6889dbcad0c4cd7e646c2cc3","0","67d0052a3f36525d24f021be","0","2025-07-30T09:03:10.692Z","","","","pss","{""Q01"":""0"",""Q02"":""0"",""Q03"":""1"",""Q04"":""0"",""Q05"":""0"",""Q06"":""0"",""Q07"":""0"",""Q08"":""0"",""Q09"":""0"",""Q10"":""0""}","[0,1,2,3,4,5,6,7,8,9]","[""Q01"",""Q01"",""Q02"",""Q03"",""Q04"",""Q05"",""Q06"",""Q07"",""Q08"",""Q09"",""Q10""]","[104628.39999999851,105041.69999999553,118474.39999999851,132156.5,143872.29999999702,169054.29999999702,198082.3999999985,218424.79999999702,246135.09999999404,366195.299999997,380027.3999999985]","[]","[0.19999999552965164,104628.39999999851,105041.69999999553,118474.39999999851,132156.5,143872.29999999702,148955.19999999553,166752.29999999702,169054.29999999702,198082.3999999985,218424.79999999702,246135.09999999404,295976,366195.299999997,380027.3999999985,382142]","0.5","0.4444444444444444","0","","","","","","","","","","","","","","","","","","","","","","","","","","","","",""
"7277","1753866197970","<p style='font-size:1.1em;line-height:1.25'>Thank you for your answers! Now we will ask you a few more questions relating to your feelings in the last 24 hours.<br></p><p style='font-size:1.1em;line-height:1.25'>Press the <strong>Next</strong> button to continue.</p>","0","custom-html-button-response","6","477207","0.0-4.0-2.0","66","1","2025-07-30 08:55:19","36c45c0696341be0efffe67d72a12abb","102.66.181.4","Mozilla/5.0 (Windows NT 10.0; Win64; x64) AppleWebKit/537.36 (KHTML, like Gecko) Chrome/138.0.0.0 Safari/537.36 Edg/138.0.0.0","WebKit","Edge","138.0.0.0","Windows","10.0","https://app.prolific.com/","en-US,en;q=0.9","67d0052a3f36525d24f021be","687a19d2168e237449fb8af4","6889dbcad0c4cd7e646c2cc3","0","67d0052a3f36525d24f021be","0","2025-07-30T09:03:17.971Z","","","","","","","","","","","","","","","","","","","","","","","","","","","","","","","","","","","","","","","","","",""
"199984","","","","survey-template","7","677197","0.0-4.0-3.0","66","1","2025-07-30 08:55:19","36c45c0696341be0efffe67d72a12abb","102.66.181.4","Mozilla/5.0 (Windows NT 10.0; Win64; x64) AppleWebKit/537.36 (KHTML, like Gecko) Chrome/138.0.0.0 Safari/537.36 Edg/138.0.0.0","WebKit","Edge","138.0.0.0","Windows","10.0","https://app.prolific.com/","en-US,en;q=0.9","67d0052a3f36525d24f021be","687a19d2168e237449fb8af4","6889dbcad0c4cd7e646c2cc3","0","67d0052a3f36525d24f021be","0","2025-07-30T09:06:37.961Z","","","","drsp","{""Q01"":""0"",""Q02"":""0"",""Q03"":""0"",""Q04"":""0"",""Q05"":""0"",""Q06"":""0"",""Q07"":""0"",""Q08"":""0"",""Q09"":""0"",""Q10"":""0"",""Q11"":""0"",""Q12"":""0"",""Q13"":""5"",""Q14"":""0"",""Q15"":""0"",""Q16"":""0"",""Q17"":""0"",""Q18"":""0"",""Q19"":""0"",""Q20"":""0"",""Q21"":""0"",""Q22"":""0""}","[0,1,2,3,4,5,6,7,8,9,10,11,12,13,14,15,16,17,18,19,20,21]","[""Q01"",""Q02"",""Q03"",""Q04"",""Q05"",""Q06"",""Q07"",""Q08"",""Q09"",""Q10"",""Q11"",""Q12"",""Q13"",""Q13"",""Q14"",""Q15"",""Q16"",""Q16"",""Q16"",""Q17"",""Q18"",""Q19"",""Q20"",""Q21"",""Q21"",""Q22"",""Q22""]","[5480.20000000298,10048.30000000447,12629.20000000298,15886.60000000149,20029.5,26259.39999999851,31442,34291.39999999851,51986.10000000149,58164.70000000298,60888.30000000447,63904.10000000149,70240.60000000149,73951.89999999851,78450.80000000447,97882.20000000298,119140.39999999851,120156.80000000447,151618.5,155551.6000000015,159572.30000000447,163450.6000000015,183148.8999999985,187164.6000000015,190021.1000000015,193148.30000000447,194002.5]","[]","[0.10000000149011612,4976.60000000149,5480.20000000298,8410.20000000298,10048.30000000447,10802.10000000149,12629.20000000298,15886.60000000149,18608.5,20029.5,26259.39999999851,28902.39999999851,31442,34291.39999999851,51986.10000000149,58164.70000000298,60888.30000000447,63904.10000000149,70240.60000000149,73951.89999999851,78450.80000000447,85969.60000000149,97882.20000000298,119140.39999999851,120156.80000000447,151618.5,155551.6000000015,159572.30000000447,163450.6000000015,171099,171796.80000000447,175449.3999999985,183148.8999999985,187164.6000000015,190021.1000000015,193148.30000000447,194002.5,199979]","0.9545454545454546","0.09523809523809523","0","","","","","","","","","","","","","","","","","","","","","","","","","","","","",""
"37849.5","","","","survey-template","8","715049","0.0-4.0-4.0","66","1","2025-07-30 08:55:19","36c45c0696341be0efffe67d72a12abb","102.66.181.4","Mozilla/5.0 (Windows NT 10.0; Win64; x64) AppleWebKit/537.36 (KHTML, like Gecko) Chrome/138.0.0.0 Safari/537.36 Edg/138.0.0.0","WebKit","Edge","138.0.0.0","Windows","10.0","https://app.prolific.com/","en-US,en;q=0.9","67d0052a3f36525d24f021be","687a19d2168e237449fb8af4","6889dbcad0c4cd7e646c2cc3","0","67d0052a3f36525d24f021be","0","2025-07-30T09:07:15.812Z","","","","stress","{""Q01"":""0"",""Q02"":""0"",""Q03"":""0""}","[0,1,2]","[""Q01"",""Q02"",""Q03""]","[9003.10000000149,19004,32283]","[]","[9003.10000000149,19004,32283,37849]","0.6666666666666666","1","0","","","","","","","","","","","","","","","","","","","","","","","","","","","","",""
"106430","","","","instructions","9","821480","0.0-5.0-0.0","66","1","2025-07-30 08:55:19","36c45c0696341be0efffe67d72a12abb","102.66.181.4","Mozilla/5.0 (Windows NT 10.0; Win64; x64) AppleWebKit/537.36 (KHTML, like Gecko) Chrome/138.0.0.0 Safari/537.36 Edg/138.0.0.0","WebKit","Edge","138.0.0.0","Windows","10.0","https://app.prolific.com/","en-US,en;q=0.9","67d0052a3f36525d24f021be","687a19d2168e237449fb8af4","6889dbcad0c4cd7e646c2cc3","0","67d0052a3f36525d24f021be","0","","","","","","","","","","","","","","","[{""page_index"":0,""viewing_time"":106430}]","","","","","","","","","","","","","","","","","","","","","","","","","","","",""
"41835","","<p>Before you start with this game please answer the following three questions yourself. </p>
  <p>Through this game, we measure several aspects of your cognitive performance, such as reaction times, multi-tasking capabilities </p>
  <p>and the ability to assess the situation you are in.</p>
  <p></p>
  <p><b>How good do you usually are in such tasks?</b></p>","75","html-slider-response","10","863318","0.0-6.0-0.0","66","1","2025-07-30 08:55:19","36c45c0696341be0efffe67d72a12abb","102.66.181.4","Mozilla/5.0 (Windows NT 10.0; Win64; x64) AppleWebKit/537.36 (KHTML, like Gecko) Chrome/138.0.0.0 Safari/537.36 Edg/138.0.0.0","WebKit","Edge","138.0.0.0","Windows","10.0","https://app.prolific.com/","en-US,en;q=0.9","67d0052a3f36525d24f021be","687a19d2168e237449fb8af4","6889dbcad0c4cd7e646c2cc3","0","67d0052a3f36525d24f021be","0","2025-07-30T09:09:44.081Z","","","","PreSkillQ","","","","","","","","","","","50","","","","","","","","","","","","","","","","","","","","","","","","","","",""
"16485","","<div style=""width:500px;"">
  <p>How well do you think you will perform in this task compared to other participants?</p>
  </div>","70","html-slider-response","11","879805","0.0-6.0-1.0","66","1","2025-07-30 08:55:19","36c45c0696341be0efffe67d72a12abb","102.66.181.4","Mozilla/5.0 (Windows NT 10.0; Win64; x64) AppleWebKit/537.36 (KHTML, like Gecko) Chrome/138.0.0.0 Safari/537.36 Edg/138.0.0.0","WebKit","Edge","138.0.0.0","Windows","10.0","https://app.prolific.com/","en-US,en;q=0.9","67d0052a3f36525d24f021be","687a19d2168e237449fb8af4","6889dbcad0c4cd7e646c2cc3","0","67d0052a3f36525d24f021be","0","2025-07-30T09:10:00.568Z","","","","PrePerfQ","","","","","","","","","","","50","","","","","","","","","","","","","","","","","","","","","","","","","","",""
"17707","","<div style=""width:500px;"">
  <p>What best describes how you currently feel?</p>
  </div>","84","html-slider-response","12","897514","0.0-6.0-2.0","66","1","2025-07-30 08:55:19","36c45c0696341be0efffe67d72a12abb","102.66.181.4","Mozilla/5.0 (Windows NT 10.0; Win64; x64) AppleWebKit/537.36 (KHTML, like Gecko) Chrome/138.0.0.0 Safari/537.36 Edg/138.0.0.0","WebKit","Edge","138.0.0.0","Windows","10.0","https://app.prolific.com/","en-US,en;q=0.9","67d0052a3f36525d24f021be","687a19d2168e237449fb8af4","6889dbcad0c4cd7e646c2cc3","0","67d0052a3f36525d24f021be","0","2025-07-30T09:10:18.277Z","","","","PreMotivationQ","","","","","","","","","","","50","","","","","","","","","","","","","","","","","","","","","","","","","","",""
"","","","","ctl-task-cpt","13","922118","0.0-7.0-0.0","66","1","2025-07-30 08:55:19","36c45c0696341be0efffe67d72a12abb","102.66.181.4","Mozilla/5.0 (Windows NT 10.0; Win64; x64) AppleWebKit/537.36 (KHTML, like Gecko) Chrome/138.0.0.0 Safari/537.36 Edg/138.0.0.0","WebKit","Edge","138.0.0.0","Windows","10.0","https://app.prolific.com/","en-US,en;q=0.9","67d0052a3f36525d24f021be","687a19d2168e237449fb8af4","6889dbcad0c4cd7e646c2cc3","0","67d0052a3f36525d24f021be","0","2025-07-30T09:10:42.881Z","","","","","","","","","","","","","","","","win-only","3","g1:SW,g2:NE","1","1","0","899509.1","12554.8","17561.6","21597.6","1","4","4","6","2","-4","-4","0","0","0","5006.8","3000","-2955","[""up"",""right""]","{""num_key_presses"":0,""num_perfect"":0,""num_errors"":0,""num_randdir"":0,""num_randdir_good_moves"":0,""num_whilered"":0,""num_whileblue"":0,""num_blue"":0,""num_good_moves"":0}","[295.22232142857143,296.12857142857143,0.4,295.22232142857143,296.12857142857143,101.2,295.22232142857143,296.12857142857143,201.4,295.22232142857143,296.12857142857143,307.4,295.22232142857143,296.12857142857143,407.6,295.22232142857143,296.12857142857143,508.2,295.22232142857143,296.12857142857143,611.1,295.22232142857143,296.12857142857143,716.6,321.22232142857143,288.12857142857143,816.9,277.22232142857143,350.12857142857143,917.2,271.22232142857143,354.12857142857143,1017.2,228.22232142857143,409.12857142857143,1124.1,217.22232142857143,427.12857142857143,1226.2,217.22232142857143,438.12857142857143,1326.7,217.22232142857143,438.12857142857143,1431.2,217.22232142857143,438.12857142857143,1540.6,217.22232142857143,438.12857142857143,1640.8,233.22232142857143,424.12857142857143,1740.9,233.22232142857143,423.12857142857143,1841.2,234.22232142857143,423.12857142857143,1941.4,234.22232142857143,423.12857142857143,2044.4,240.22232142857143,418.12857142857143,2146.3,240.22232142857143,418.12857142857143,2246.6,240.22232142857143,418.12857142857143,2346.7,240.22232142857143,418.12857142857143,2451.2,240.22232142857143,418.12857142857143,2555.6,240.22232142857143,418.12857142857143,2657.1,240.22232142857143,418.12857142857143,2760.6,240.22232142857143,418.12857142857143,2861,240.22232142857143,418.12857142857143,2966.2,240.22232142857143,418.12857142857143,3066.7,240.22232142857143,418.12857142857143,3173.5,240.22232142857143,418.12857142857143,3273.6,240.22232142857143,418.12857142857143,3374,240.22232142857143,418.12857142857143,3476.4,240.22232142857143,418.12857142857143,3581.5,240.22232142857143,418.12857142857143,3690.7,240.22232142857143,418.12857142857143,3796.6,240.22232142857143,418.12857142857143,3907.5,240.22232142857143,418.12857142857143,4011.8,240.22232142857143,418.12857142857143,4111.8,240.22232142857143,418.12857142857143,4217,240.22232142857143,418.12857142857143,4323.3,240.22232142857143,418.12857142857143,4424,240.22232142857143,418.12857142857143,4526.2,240.22232142857143,418.12857142857143,4626.5,240.22232142857143,418.12857142857143,4732.4,240.22232142857143,418.12857142857143,4840,240.22232142857143,418.12857142857143,4940]","[]"
"11553","","<div style=""width:500px;"">
  <p>What determined the result of this run?</p>
  </div>","100","html-slider-response","14","933672","0.0-7.0-1.0","66","1","2025-07-30 08:55:19","36c45c0696341be0efffe67d72a12abb","102.66.181.4","Mozilla/5.0 (Windows NT 10.0; Win64; x64) AppleWebKit/537.36 (KHTML, like Gecko) Chrome/138.0.0.0 Safari/537.36 Edg/138.0.0.0","WebKit","Edge","138.0.0.0","Windows","10.0","https://app.prolific.com/","en-US,en;q=0.9","67d0052a3f36525d24f021be","687a19d2168e237449fb8af4","6889dbcad0c4cd7e646c2cc3","0","67d0052a3f36525d24f021be","0","2025-07-30T09:10:54.435Z","","","","AttribQ","","","","","","","","","","","50","","","","","","","","","","","","","","","","","","","","","","","","","","",""
"21075","","<div style=""width:500px;"">
  <p>How much control did you have over the ball?</p>
  </div>","73","html-slider-response","15","954750","0.0-7.0-2.0","66","1","2025-07-30 08:55:19","36c45c0696341be0efffe67d72a12abb","102.66.181.4","Mozilla/5.0 (Windows NT 10.0; Win64; x64) AppleWebKit/537.36 (KHTML, like Gecko) Chrome/138.0.0.0 Safari/537.36 Edg/138.0.0.0","WebKit","Edge","138.0.0.0","Windows","10.0","https://app.prolific.com/","en-US,en;q=0.9","67d0052a3f36525d24f021be","687a19d2168e237449fb8af4","6889dbcad0c4cd7e646c2cc3","0","67d0052a3f36525d24f021be","0","2025-07-30T09:11:15.513Z","","","","ControlQ","","","","","","","","","","","50","","","","","","","","","","","","","","","","","","","","","","","","","","",""
"8983","","<div style=""width:500px;"">
  <p>How would you describe your current emotional state?</p>
  </div>","0","html-slider-response","16","963735","0.0-7.0-3.0","66","1","2025-07-30 08:55:19","36c45c0696341be0efffe67d72a12abb","102.66.181.4","Mozilla/5.0 (Windows NT 10.0; Win64; x64) AppleWebKit/537.36 (KHTML, like Gecko) Chrome/138.0.0.0 Safari/537.36 Edg/138.0.0.0","WebKit","Edge","138.0.0.0","Windows","10.0","https://app.prolific.com/","en-US,en;q=0.9","67d0052a3f36525d24f021be","687a19d2168e237449fb8af4","6889dbcad0c4cd7e646c2cc3","0","67d0052a3f36525d24f021be","0","2025-07-30T09:11:24.498Z","","","","StressQ","","","","","","","","","","","50","","","","","","","","","","","","","","","","","","","","","","","","","","",""
"11616","","<div style=""width:500px;"">
  <p>What best describes how you currently feel?</p>
  </div>","100","html-slider-response","17","975353","0.0-7.0-4.0","66","1","2025-07-30 08:55:19","36c45c0696341be0efffe67d72a12abb","102.66.181.4","Mozilla/5.0 (Windows NT 10.0; Win64; x64) AppleWebKit/537.36 (KHTML, like Gecko) Chrome/138.0.0.0 Safari/537.36 Edg/138.0.0.0","WebKit","Edge","138.0.0.0","Windows","10.0","https://app.prolific.com/","en-US,en;q=0.9","67d0052a3f36525d24f021be","687a19d2168e237449fb8af4","6889dbcad0c4cd7e646c2cc3","0","67d0052a3f36525d24f021be","0","2025-07-30T09:11:36.117Z","","","","MotivationQ","","","","","","","","","","","50","","","","","","","","","","","","","","","","","","","","","","","","","","",""
"","","","","ctl-task-cpt","18","996062","0.0-7.0-0.1","66","1","2025-07-30 08:55:19","36c45c0696341be0efffe67d72a12abb","102.66.181.4","Mozilla/5.0 (Windows NT 10.0; Win64; x64) AppleWebKit/537.36 (KHTML, like Gecko) Chrome/138.0.0.0 Safari/537.36 Edg/138.0.0.0","WebKit","Edge","138.0.0.0","Windows","10.0","https://app.prolific.com/","en-US,en;q=0.9","67d0052a3f36525d24f021be","687a19d2168e237449fb8af4","6889dbcad0c4cd7e646c2cc3","0","67d0052a3f36525d24f021be","0","2025-07-30T09:11:56.825Z","","","","","","","","","","","","","","","","win-only","0","g1:NW,g2:SE","0.9","2","0","977349.9","5870.5","10875.5","17697.6","1","4","8","6","1","-1","-2","0","0","0","2463.2","3000","-2685","[""left"",""up""]","{""num_key_presses"":1,""num_perfect"":0,""num_errors"":1,""num_randdir"":0,""num_randdir_good_moves"":0,""num_whilered"":0,""num_whileblue"":0,""num_blue"":0,""num_good_moves"":0}","[291.22232142857143,297.12857142857143,0.3,291.22232142857143,297.12857142857143,104.8,291.22232142857143,297.12857142857143,208.9,291.22232142857143,297.12857142857143,310.2,291.22232142857143,297.12857142857143,410.3,291.22232142857143,297.12857142857143,510.9,291.22232142857143,297.12857142857143,616.2,264.22232142857143,286.12857142857143,725.4,251.22232142857143,278.12857142857143,830.7,360.22232142857143,318.12857142857143,930.7,498.22232142857143,400.12857142857143,1030.9,548.2223214285714,451.12857142857143,1131.1,548.2223214285714,453.12857142857143,1236.5,520.2223214285714,451.12857142857143,1338.5,491.22232142857143,443.12857142857143,1438.6,331.22232142857143,256.12857142857143,1539,103.22232142857143,159.12857142857143,1639.7,88.22232142857143,157.12857142857143,1740.8,86.22232142857143,141.12857142857143,1845.6,69.22232142857143,113.12857142857143,1945.8,57.222321428571426,85.12857142857143,2054.4,49.222321428571426,64.12857142857143,2158,49.222321428571426,63.128571428571426,2261.1,49.222321428571426,63.128571428571426,2367.8,49.222321428571426,63.128571428571426,2471.1,49.222321428571426,63.128571428571426,2575,49.222321428571426,63.128571428571426,2676,49.222321428571426,63.128571428571426,2780.4,49.222321428571426,63.128571428571426,2888.4,49.222321428571426,63.128571428571426,2990.6,49.222321428571426,63.128571428571426,3096.1,49.222321428571426,63.128571428571426,3205.1,49.222321428571426,63.128571428571426,3305.3,49.222321428571426,63.128571428571426,3405.5,49.222321428571426,63.128571428571426,3505.9,49.222321428571426,63.128571428571426,3610.5,49.222321428571426,63.128571428571426,3711.7,49.222321428571426,63.128571428571426,3821.6,49.222321428571426,63.128571428571426,3925.8,49.222321428571426,63.128571428571426,4027,49.222321428571426,63.128571428571426,4130.8,49.222321428571426,63.128571428571426,4238.2,49.222321428571426,63.128571428571426,4340.3,49.222321428571426,63.128571428571426,4440.5,49.222321428571426,63.128571428571426,4546.3,49.222321428571426,63.128571428571426,4646.8,49.222321428571426,63.128571428571426,4753.4,49.222321428571426,63.128571428571426,4854.4,49.222321428571426,63.128571428571426,4954.5]","[391.1,391.1,1000,0,-608.8,""error"",""-"",""-"",""no_move""]"
"8337","","<div style=""width:500px;"">
  <p>What determined the result of this run?</p>
  </div>","100","html-slider-response","19","1004401","0.0-7.0-1.1","66","1","2025-07-30 08:55:19","36c45c0696341be0efffe67d72a12abb","102.66.181.4","Mozilla/5.0 (Windows NT 10.0; Win64; x64) AppleWebKit/537.36 (KHTML, like Gecko) Chrome/138.0.0.0 Safari/537.36 Edg/138.0.0.0","WebKit","Edge","138.0.0.0","Windows","10.0","https://app.prolific.com/","en-US,en;q=0.9","67d0052a3f36525d24f021be","687a19d2168e237449fb8af4","6889dbcad0c4cd7e646c2cc3","0","67d0052a3f36525d24f021be","0","2025-07-30T09:12:05.164Z","","","","AttribQ","","","","","","","","","","","50","","","","","","","","","","","","","","","","","","","","","","","","","","",""
"198720","","<div style=""width:500px;"">
  <p>How much control did you have over the ball?</p>
  </div>","78","html-slider-response","20","1203123","0.0-7.0-2.1","66","1","2025-07-30 08:55:19","36c45c0696341be0efffe67d72a12abb","102.66.181.4","Mozilla/5.0 (Windows NT 10.0; Win64; x64) AppleWebKit/537.36 (KHTML, like Gecko) Chrome/138.0.0.0 Safari/537.36 Edg/138.0.0.0","WebKit","Edge","138.0.0.0","Windows","10.0","https://app.prolific.com/","en-US,en;q=0.9","67d0052a3f36525d24f021be","687a19d2168e237449fb8af4","6889dbcad0c4cd7e646c2cc3","0","67d0052a3f36525d24f021be","0","2025-07-30T09:15:23.886Z","","","","ControlQ","","","","","","","","","","","50","","","","","","","","","","","","","","","","","","","","","","","","","","",""
"22298","","<div style=""width:500px;"">
  <p>How would you describe your current emotional state?</p>
  </div>","100","html-slider-response","21","1225422","0.0-7.0-3.1","66","1","2025-07-30 08:55:19","36c45c0696341be0efffe67d72a12abb","102.66.181.4","Mozilla/5.0 (Windows NT 10.0; Win64; x64) AppleWebKit/537.36 (KHTML, like Gecko) Chrome/138.0.0.0 Safari/537.36 Edg/138.0.0.0","WebKit","Edge","138.0.0.0","Windows","10.0","https://app.prolific.com/","en-US,en;q=0.9","67d0052a3f36525d24f021be","687a19d2168e237449fb8af4","6889dbcad0c4cd7e646c2cc3","0","67d0052a3f36525d24f021be","0","2025-07-30T09:15:46.185Z","","","","StressQ","","","","","","","","","","","50","","","","","","","","","","","","","","","","","","","","","","","","","","",""
"16346","","<div style=""width:500px;"">
  <p>What best describes how you currently feel?</p>
  </div>","100","html-slider-response","22","1241770","0.0-7.0-4.1","66","1","2025-07-30 08:55:19","36c45c0696341be0efffe67d72a12abb","102.66.181.4","Mozilla/5.0 (Windows NT 10.0; Win64; x64) AppleWebKit/537.36 (KHTML, like Gecko) Chrome/138.0.0.0 Safari/537.36 Edg/138.0.0.0","WebKit","Edge","138.0.0.0","Windows","10.0","https://app.prolific.com/","en-US,en;q=0.9","67d0052a3f36525d24f021be","687a19d2168e237449fb8af4","6889dbcad0c4cd7e646c2cc3","0","67d0052a3f36525d24f021be","0","2025-07-30T09:16:02.533Z","","","","MotivationQ","","","","","","","","","","","50","","","","","","","","","","","","","","","","","","","","","","","","","","",""
"","","","","ctl-task-cpt","23","1303105","0.0-7.0-0.2","66","1","2025-07-30 08:55:19","36c45c0696341be0efffe67d72a12abb","102.66.181.4","Mozilla/5.0 (Windows NT 10.0; Win64; x64) AppleWebKit/537.36 (KHTML, like Gecko) Chrome/138.0.0.0 Safari/537.36 Edg/138.0.0.0","WebKit","Edge","138.0.0.0","Windows","10.0","https://app.prolific.com/","en-US,en;q=0.9","67d0052a3f36525d24f021be","687a19d2168e237449fb8af4","6889dbcad0c4cd7e646c2cc3","0","67d0052a3f36525d24f021be","0","2025-07-30T09:17:03.869Z","","","","","","","","","","","","","","","","win-only","1","g1:NE,g2:SW","0.8","3","0","1243766.4","20728.2","25731.9","58307.1","1","4","4","6","1","-1","-4","0","0","0","2534.9","3000","-2660","[""up"",""right""]","{""num_key_presses"":9,""num_perfect"":4,""num_errors"":3,""num_randdir"":1,""num_randdir_good_moves"":0,""num_whilered"":1,""num_whileblue"":0,""num_blue"":3,""num_good_moves"":4}","[293.22232142857143,297.12857142857143,0.6,293.22232142857143,297.12857142857143,103.8,293.22232142857143,297.12857142857143,211.7,293.22232142857143,297.12857142857143,312.2,293.22232142857143,297.12857142857143,412.4,293.22232142857143,297.12857142857143,517.2,293.22232142857143,297.12857142857143,617.7,293.22232142857143,297.12857142857143,718.7,293.22232142857143,297.12857142857143,818.8,293.22232142857143,297.12857142857143,925,293.22232142857143,297.12857142857143,1028.6,286.22232142857143,295.12857142857143,1132.1,274.22232142857143,335.12857142857143,1235.1,336.22232142857143,318.12857142857143,1337.4,428.22232142857143,183.12857142857143,1437.5,454.22232142857143,133.12857142857143,1538.4,454.22232142857143,133.12857142857143,1644.6,454.22232142857143,133.12857142857143,1748.2,454.22232142857143,133.12857142857143,1854.3,496.22232142857143,82.12857142857143,1959.3,504.22232142857143,73.12857142857143,2063.5,514.2223214285714,64.12857142857143,2167.6,518.2223214285714,62.128571428571426,2268,518.2223214285714,62.128571428571426,2372.6,518.2223214285714,62.128571428571426,2473.6,518.2223214285714,62.128571428571426,2573.9,518.2223214285714,62.128571428571426,2692.5,518.2223214285714,62.128571428571426,2793.7,518.2223214285714,62.128571428571426,2897.8,518.2223214285714,62.128571428571426,3002.4,518.2223214285714,62.128571428571426,3103.3,518.2223214285714,62.128571428571426,3210.6,518.2223214285714,62.128571428571426,3311.5,518.2223214285714,62.128571428571426,3413.4,518.2223214285714,62.128571428571426,3518.8,518.2223214285714,62.128571428571426,3627.8,518.2223214285714,62.128571428571426,3728.3,518.2223214285714,62.128571428571426,3833.5,518.2223214285714,62.128571428571426,3937.5,518.2223214285714,62.128571428571426,4044.3,518.2223214285714,62.128571428571426,4147.4,518.2223214285714,62.128571428571426,4248,518.2223214285714,62.128571428571426,4348,518.2223214285714,62.128571428571426,4448.4,518.2223214285714,62.128571428571426,4554.1,518.2223214285714,62.128571428571426,4662.5,518.2223214285714,62.128571428571426,4765.9,518.2223214285714,62.128571428571426,4868.1,518.2223214285714,62.128571428571426,4969.2]","[1715.8,1715.7,1000,0.1,715.7,""smooth"",""up"",""up"",""good_move"",2170.5,454.2,2483.3,1716.4,-2029.2,""error"",""-"",""-"",""no_move"",2459.4,287.6,2483.3,1716.4,-1740.3,""while_red"",""-"",""-"",""no_move"",6585.4,4413.6,2561.6,3173.7,850.1,""smooth"",""up"",""up"",""good_move"",12089.8,5504.1,1319.5,10254.4,515.9,""oops"",""down"",""left"",""bad_move"",13322.6,1232.5,2614.9,12090.1,-1382.4,""error"",""-"",""-"",""no_move"",16758.3,3435.6,2010.8,14323.6,423.9,""smooth"",""right"",""right"",""good_move"",23967.5,7208.9,3434.5,20094.1,438.9,""smooth"",""right"",""right"",""good_move"",24353,385.3,1636.4,23967.7,-1251.1,""error"",""-"",""-"",""no_move""]"
"9818","","<div style=""width:500px;"">
  <p>What determined the result of this run?</p>
  </div>","68","html-slider-response","24","1312926","0.0-7.0-1.2","66","1","2025-07-30 08:55:19","36c45c0696341be0efffe67d72a12abb","102.66.181.4","Mozilla/5.0 (Windows NT 10.0; Win64; x64) AppleWebKit/537.36 (KHTML, like Gecko) Chrome/138.0.0.0 Safari/537.36 Edg/138.0.0.0","WebKit","Edge","138.0.0.0","Windows","10.0","https://app.prolific.com/","en-US,en;q=0.9","67d0052a3f36525d24f021be","687a19d2168e237449fb8af4","6889dbcad0c4cd7e646c2cc3","0","67d0052a3f36525d24f021be","0","2025-07-30T09:17:13.689Z","","","","AttribQ","","","","","","","","","","","50","","","","","","","","","","","","","","","","","","","","","","","","","","",""
"10403","","<div style=""width:500px;"">
  <p>How much control did you have over the ball?</p>
  </div>","64","html-slider-response","25","1323330","0.0-7.0-2.2","66","1","2025-07-30 08:55:19","36c45c0696341be0efffe67d72a12abb","102.66.181.4","Mozilla/5.0 (Windows NT 10.0; Win64; x64) AppleWebKit/537.36 (KHTML, like Gecko) Chrome/138.0.0.0 Safari/537.36 Edg/138.0.0.0","WebKit","Edge","138.0.0.0","Windows","10.0","https://app.prolific.com/","en-US,en;q=0.9","67d0052a3f36525d24f021be","687a19d2168e237449fb8af4","6889dbcad0c4cd7e646c2cc3","0","67d0052a3f36525d24f021be","0","2025-07-30T09:17:24.093Z","","","","ControlQ","","","","","","","","","","","50","","","","","","","","","","","","","","","","","","","","","","","","","","",""
"13670","","<div style=""width:500px;"">
  <p>How would you describe your current emotional state?</p>
  </div>","2","html-slider-response","26","1337001","0.0-7.0-3.2","66","1","2025-07-30 08:55:19","36c45c0696341be0efffe67d72a12abb","102.66.181.4","Mozilla/5.0 (Windows NT 10.0; Win64; x64) AppleWebKit/537.36 (KHTML, like Gecko) Chrome/138.0.0.0 Safari/537.36 Edg/138.0.0.0","WebKit","Edge","138.0.0.0","Windows","10.0","https://app.prolific.com/","en-US,en;q=0.9","67d0052a3f36525d24f021be","687a19d2168e237449fb8af4","6889dbcad0c4cd7e646c2cc3","0","67d0052a3f36525d24f021be","0","2025-07-30T09:17:37.764Z","","","","StressQ","","","","","","","","","","","50","","","","","","","","","","","","","","","","","","","","","","","","","","",""
"30279","","<div style=""width:500px;"">
  <p>What best describes how you currently feel?</p>
  </div>","100","html-slider-response","27","1367282","0.0-7.0-4.2","66","1","2025-07-30 08:55:19","36c45c0696341be0efffe67d72a12abb","102.66.181.4","Mozilla/5.0 (Windows NT 10.0; Win64; x64) AppleWebKit/537.36 (KHTML, like Gecko) Chrome/138.0.0.0 Safari/537.36 Edg/138.0.0.0","WebKit","Edge","138.0.0.0","Windows","10.0","https://app.prolific.com/","en-US,en;q=0.9","67d0052a3f36525d24f021be","687a19d2168e237449fb8af4","6889dbcad0c4cd7e646c2cc3","0","67d0052a3f36525d24f021be","0","2025-07-30T09:18:08.045Z","","","","MotivationQ","","","","","","","","","","","50","","","","","","","","","","","","","","","","","","","","","","","","","","",""
"","","","","ctl-task-cpt","28","1400083","0.0-7.0-0.3","66","1","2025-07-30 08:55:19","36c45c0696341be0efffe67d72a12abb","102.66.181.4","Mozilla/5.0 (Windows NT 10.0; Win64; x64) AppleWebKit/537.36 (KHTML, like Gecko) Chrome/138.0.0.0 Safari/537.36 Edg/138.0.0.0","WebKit","Edge","138.0.0.0","Windows","10.0","https://app.prolific.com/","en-US,en;q=0.9","67d0052a3f36525d24f021be","687a19d2168e237449fb8af4","6889dbcad0c4cd7e646c2cc3","0","67d0052a3f36525d24f021be","0","2025-07-30T09:18:40.846Z","","","","","","","","","","","","","","","","win-only","3","g1:SW,g2:NE","0.7","4","0","1369278.5","2297.7","7301.7","29780.5","1","4","8","6","1","-1","-4","0","0","0","3338.4","3000","-3005","[""down"",""left""]","{""num_key_presses"":8,""num_perfect"":3,""num_errors"":3,""num_randdir"":2,""num_randdir_good_moves"":1,""num_whilered"":0,""num_whileblue"":1,""num_blue"":1,""num_good_moves"":4}","[298.22232142857143,290.12857142857143,0.4,298.22232142857143,290.12857142857143,107.2,298.22232142857143,290.12857142857143,212.9,298.22232142857143,290.12857142857143,312.9,298.22232142857143,290.12857142857143,418.5,298.22232142857143,290.12857142857143,526,298.22232142857143,290.12857142857143,629,298.22232142857143,290.12857142857143,733.2,298.22232142857143,290.12857142857143,833.5,298.22232142857143,290.12857142857143,941.8,298.22232142857143,290.12857142857143,1043.2,298.22232142857143,290.12857142857143,1143.8,298.22232142857143,290.12857142857143,1244.9,298.22232142857143,290.12857142857143,1348.2,298.22232142857143,290.12857142857143,1452.5,298.22232142857143,290.12857142857143,1553.3,298.22232142857143,290.12857142857143,1653.5,298.22232142857143,290.12857142857143,1760.5,298.22232142857143,290.12857142857143,1862.8,298.22232142857143,290.12857142857143,1963.2,298.22232142857143,290.12857142857143,2068.2,298.22232142857143,290.12857142857143,2168.9,298.22232142857143,290.12857142857143,2276.9,241.22232142857143,426.12857142857143,2378,178.22232142857143,527.1285714285714,2479.1,177.22232142857143,527.1285714285714,2582.7,177.22232142857143,527.1285714285714,2683.4,175.22232142857143,527.1285714285714,2784.6,124.22232142857143,537.1285714285714,2893.5,88.22232142857143,546.1285714285714,2993.6,84.22232142857143,546.1285714285714,3098.7,84.22232142857143,546.1285714285714,3199.6,84.22232142857143,546.1285714285714,3300.1,84.22232142857143,546.1285714285714,3403.5,84.22232142857143,546.1285714285714,3512.8,84.22232142857143,546.1285714285714,3613.3,84.22232142857143,546.1285714285714,3714.8,84.22232142857143,546.1285714285714,3818.9,84.22232142857143,546.1285714285714,3929.3,84.22232142857143,546.1285714285714,4032.7,84.22232142857143,546.1285714285714,4133,84.22232142857143,546.1285714285714,4234.4,84.22232142857143,546.1285714285714,4342.1,84.22232142857143,546.1285714285714,4443.9,84.22232142857143,546.1285714285714,4548.3,84.22232142857143,546.1285714285714,4721.7,84.22232142857143,546.1285714285714,4824.7,84.22232142857143,546.1285714285714,4925.1]","[1630,1630,1000,0,630,""smooth"",""down"",""down"",""good_move"",1973.4,343.1,3048.5,1630.3,-2705.4,""error"",""-"",""-"",""no_move"",5812.7,3839.2,2136.8,2985.7,690.3,""smooth"",""down"",""down"",""good_move"",8890,3077.1,2463.5,5812.9,613.7,""oops"",""left"",""up"",""bad_move"",11964.2,3073.7,2517.3,8890.5,556.4,""smooth"",""down"",""down"",""good_move"",15143.1,3178.8,2688.2,11964.3,490.6,""oops"",""left"",""left"",""good_move"",16128.1,984.7,2041,15143.4,-1056.3,""error"",""-"",""-"",""no_move"",19677.3,3549.1,2129.6,17128.8,418.9,""while_blue"",""left"",""right"",""bad_move""]"
"6915","","<div style=""width:500px;"">
  <p>What determined the result of this run?</p>
  </div>","58","html-slider-response","29","1407000","0.0-7.0-1.3","66","1","2025-07-30 08:55:19","36c45c0696341be0efffe67d72a12abb","102.66.181.4","Mozilla/5.0 (Windows NT 10.0; Win64; x64) AppleWebKit/537.36 (KHTML, like Gecko) Chrome/138.0.0.0 Safari/537.36 Edg/138.0.0.0","WebKit","Edge","138.0.0.0","Windows","10.0","https://app.prolific.com/","en-US,en;q=0.9","67d0052a3f36525d24f021be","687a19d2168e237449fb8af4","6889dbcad0c4cd7e646c2cc3","0","67d0052a3f36525d24f021be","0","2025-07-30T09:18:47.763Z","","","","AttribQ","","","","","","","","","","","50","","","","","","","","","","","","","","","","","","","","","","","","","","",""
"6887","","<div style=""width:500px;"">
  <p>How much control did you have over the ball?</p>
  </div>","53","html-slider-response","30","1413888","0.0-7.0-2.3","66","1","2025-07-30 08:55:19","36c45c0696341be0efffe67d72a12abb","102.66.181.4","Mozilla/5.0 (Windows NT 10.0; Win64; x64) AppleWebKit/537.36 (KHTML, like Gecko) Chrome/138.0.0.0 Safari/537.36 Edg/138.0.0.0","WebKit","Edge","138.0.0.0","Windows","10.0","https://app.prolific.com/","en-US,en;q=0.9","67d0052a3f36525d24f021be","687a19d2168e237449fb8af4","6889dbcad0c4cd7e646c2cc3","0","67d0052a3f36525d24f021be","0","2025-07-30T09:18:54.651Z","","","","ControlQ","","","","","","","","","","","50","","","","","","","","","","","","","","","","","","","","","","","","","","",""
"10118","","<div style=""width:500px;"">
  <p>How would you describe your current emotional state?</p>
  </div>","50","html-slider-response","31","1424008","0.0-7.0-3.3","66","1","2025-07-30 08:55:19","36c45c0696341be0efffe67d72a12abb","102.66.181.4","Mozilla/5.0 (Windows NT 10.0; Win64; x64) AppleWebKit/537.36 (KHTML, like Gecko) Chrome/138.0.0.0 Safari/537.36 Edg/138.0.0.0","WebKit","Edge","138.0.0.0","Windows","10.0","https://app.prolific.com/","en-US,en;q=0.9","67d0052a3f36525d24f021be","687a19d2168e237449fb8af4","6889dbcad0c4cd7e646c2cc3","0","67d0052a3f36525d24f021be","0","2025-07-30T09:19:04.771Z","","","","StressQ","","","","","","","","","","","50","","","","","","","","","","","","","","","","","","","","","","","","","","",""
"12944","","<div style=""width:500px;"">
  <p>What best describes how you currently feel?</p>
  </div>","79","html-slider-response","32","1436953","0.0-7.0-4.3","66","1","2025-07-30 08:55:19","36c45c0696341be0efffe67d72a12abb","102.66.181.4","Mozilla/5.0 (Windows NT 10.0; Win64; x64) AppleWebKit/537.36 (KHTML, like Gecko) Chrome/138.0.0.0 Safari/537.36 Edg/138.0.0.0","WebKit","Edge","138.0.0.0","Windows","10.0","https://app.prolific.com/","en-US,en;q=0.9","67d0052a3f36525d24f021be","687a19d2168e237449fb8af4","6889dbcad0c4cd7e646c2cc3","0","67d0052a3f36525d24f021be","0","2025-07-30T09:19:17.716Z","","","","MotivationQ","","","","","","","","","","","50","","","","","","","","","","","","","","","","","","","","","","","","","","",""
"","","","","ctl-task-cpt","33","1459410","0.0-7.0-0.4","66","1","2025-07-30 08:55:19","36c45c0696341be0efffe67d72a12abb","102.66.181.4","Mozilla/5.0 (Windows NT 10.0; Win64; x64) AppleWebKit/537.36 (KHTML, like Gecko) Chrome/138.0.0.0 Safari/537.36 Edg/138.0.0.0","WebKit","Edge","138.0.0.0","Windows","10.0","https://app.prolific.com/","en-US,en;q=0.9","67d0052a3f36525d24f021be","687a19d2168e237449fb8af4","6889dbcad0c4cd7e646c2cc3","0","67d0052a3f36525d24f021be","0","2025-07-30T09:19:40.173Z","","","","","","","","","","","","","","","","win-only","3","g1:SW,g2:NE","0.6","5","0","1438950.5","3242","8243.1","19441.3","1","4","4","6","1","-1","-1","0","0","0","2028.1","3000","-2680","[""down"",""left""]","{""num_key_presses"":3,""num_perfect"":2,""num_errors"":0,""num_randdir"":1,""num_randdir_good_moves"":1,""num_whilered"":0,""num_whileblue"":0,""num_blue"":0,""num_good_moves"":3}","[290.22232142857143,295.12857142857143,0.5,290.22232142857143,295.12857142857143,103.9,290.22232142857143,295.12857142857143,213.4,290.22232142857143,295.12857142857143,316.3,290.22232142857143,295.12857142857143,419.4,290.22232142857143,295.12857142857143,520,290.22232142857143,295.12857142857143,623.9,290.22232142857143,295.12857142857143,724.4,232.22232142857143,388.12857142857143,824.7,163.22232142857143,459.12857142857143,929.6,163.22232142857143,459.12857142857143,1029.8,163.22232142857143,459.12857142857143,1134.7,137.22232142857143,478.12857142857143,1237.1,113.22232142857143,504.12857142857143,1337.1,102.22232142857143,515.1285714285714,1439.2,91.22232142857143,525.1285714285714,1545.3,77.22232142857143,534.1285714285714,1651.9,72.22232142857143,538.1285714285714,1753.5,72.22232142857143,538.1285714285714,1854.4,72.22232142857143,538.1285714285714,1954.8,72.22232142857143,538.1285714285714,2065.1,72.22232142857143,538.1285714285714,2169.1,72.22232142857143,538.1285714285714,2269.4,72.22232142857143,538.1285714285714,2381.1,72.22232142857143,538.1285714285714,2486,72.22232142857143,538.1285714285714,2589.7,72.22232142857143,538.1285714285714,2695.2,72.22232142857143,538.1285714285714,2795.4,72.22232142857143,538.1285714285714,2896.3,72.22232142857143,538.1285714285714,2996.3,72.22232142857143,538.1285714285714,3098.2,72.22232142857143,538.1285714285714,3204.2,72.22232142857143,538.1285714285714,3314.9,72.22232142857143,538.1285714285714,3418.3,72.22232142857143,538.1285714285714,3519.7,72.22232142857143,538.1285714285714,3630.1,72.22232142857143,538.1285714285714,3733.9,72.22232142857143,538.1285714285714,3834.4,72.22232142857143,538.1285714285714,3935.7,72.22232142857143,538.1285714285714,4038.5,72.22232142857143,538.1285714285714,4138.8,72.22232142857143,538.1285714285714,4244.7,72.22232142857143,538.1285714285714,4349.7,72.22232142857143,538.1285714285714,4455,72.22232142857143,538.1285714285714,4562.8,72.22232142857143,538.1285714285714,4666.5,72.22232142857143,538.1285714285714,4768.7,72.22232142857143,538.1285714285714,4873.9,72.22232142857143,538.1285714285714,4974]","[1632.7,1632.7,1000,0,632.7,""smooth"",""down"",""down"",""good_move"",5274.7,3641.2,2623.5,1633.5,1017.7,""smooth"",""left"",""left"",""good_move"",8125.4,2850.2,1499.1,5275.2,1351.1,""oops"",""down"",""down"",""good_move""]"
"8490","","<div style=""width:500px;"">
  <p>What determined the result of this run?</p>
  </div>","60","html-slider-response","34","1467901","0.0-7.0-1.4","66","1","2025-07-30 08:55:19","36c45c0696341be0efffe67d72a12abb","102.66.181.4","Mozilla/5.0 (Windows NT 10.0; Win64; x64) AppleWebKit/537.36 (KHTML, like Gecko) Chrome/138.0.0.0 Safari/537.36 Edg/138.0.0.0","WebKit","Edge","138.0.0.0","Windows","10.0","https://app.prolific.com/","en-US,en;q=0.9","67d0052a3f36525d24f021be","687a19d2168e237449fb8af4","6889dbcad0c4cd7e646c2cc3","0","67d0052a3f36525d24f021be","0","2025-07-30T09:19:48.665Z","","","","AttribQ","","","","","","","","","","","50","","","","","","","","","","","","","","","","","","","","","","","","","","",""
"3808","","<div style=""width:500px;"">
  <p>How much control did you have over the ball?</p>
  </div>","62","html-slider-response","35","1471711","0.0-7.0-2.4","66","1","2025-07-30 08:55:19","36c45c0696341be0efffe67d72a12abb","102.66.181.4","Mozilla/5.0 (Windows NT 10.0; Win64; x64) AppleWebKit/537.36 (KHTML, like Gecko) Chrome/138.0.0.0 Safari/537.36 Edg/138.0.0.0","WebKit","Edge","138.0.0.0","Windows","10.0","https://app.prolific.com/","en-US,en;q=0.9","67d0052a3f36525d24f021be","687a19d2168e237449fb8af4","6889dbcad0c4cd7e646c2cc3","0","67d0052a3f36525d24f021be","0","2025-07-30T09:19:52.474Z","","","","ControlQ","","","","","","","","","","","50","","","","","","","","","","","","","","","","","","","","","","","","","","",""
"9137","","<div style=""width:500px;"">
  <p>How would you describe your current emotional state?</p>
  </div>","54","html-slider-response","36","1480850","0.0-7.0-3.4","66","1","2025-07-30 08:55:19","36c45c0696341be0efffe67d72a12abb","102.66.181.4","Mozilla/5.0 (Windows NT 10.0; Win64; x64) AppleWebKit/537.36 (KHTML, like Gecko) Chrome/138.0.0.0 Safari/537.36 Edg/138.0.0.0","WebKit","Edge","138.0.0.0","Windows","10.0","https://app.prolific.com/","en-US,en;q=0.9","67d0052a3f36525d24f021be","687a19d2168e237449fb8af4","6889dbcad0c4cd7e646c2cc3","0","67d0052a3f36525d24f021be","0","2025-07-30T09:20:01.613Z","","","","StressQ","","","","","","","","","","","50","","","","","","","","","","","","","","","","","","","","","","","","","","",""
"9881","","<div style=""width:500px;"">
  <p>What best describes how you currently feel?</p>
  </div>","76","html-slider-response","37","1490732","0.0-7.0-4.4","66","1","2025-07-30 08:55:19","36c45c0696341be0efffe67d72a12abb","102.66.181.4","Mozilla/5.0 (Windows NT 10.0; Win64; x64) AppleWebKit/537.36 (KHTML, like Gecko) Chrome/138.0.0.0 Safari/537.36 Edg/138.0.0.0","WebKit","Edge","138.0.0.0","Windows","10.0","https://app.prolific.com/","en-US,en;q=0.9","67d0052a3f36525d24f021be","687a19d2168e237449fb8af4","6889dbcad0c4cd7e646c2cc3","0","67d0052a3f36525d24f021be","0","2025-07-30T09:20:11.495Z","","","","MotivationQ","","","","","","","","","","","50","","","","","","","","","","","","","","","","","","","","","","","","","","",""
"","","","","ctl-task-cpt","38","1526615","0.0-7.0-0.5","66","1","2025-07-30 08:55:19","36c45c0696341be0efffe67d72a12abb","102.66.181.4","Mozilla/5.0 (Windows NT 10.0; Win64; x64) AppleWebKit/537.36 (KHTML, like Gecko) Chrome/138.0.0.0 Safari/537.36 Edg/138.0.0.0","WebKit","Edge","138.0.0.0","Windows","10.0","https://app.prolific.com/","en-US,en;q=0.9","67d0052a3f36525d24f021be","687a19d2168e237449fb8af4","6889dbcad0c4cd7e646c2cc3","0","67d0052a3f36525d24f021be","0","2025-07-30T09:20:47.378Z","","","","","","","","","","","","","","","","win-only","0","g1:NW,g2:SE","0.5","6","0","1492727.2","2902.6","7906.3","32870.9","1","4","8","6","1","1","1","1","0","0.007575757575757576","2173.4","3000","175","[""left"",""up""]","{""num_key_presses"":6,""num_perfect"":4,""num_errors"":0,""num_randdir"":2,""num_randdir_good_moves"":1,""num_whilered"":0,""num_whileblue"":0,""num_blue"":2,""num_good_moves"":5}","[292.22232142857143,297.12857142857143,0.4,292.22232142857143,297.12857142857143,101.1,292.22232142857143,297.12857142857143,201.1,292.22232142857143,297.12857142857143,303.7,292.22232142857143,297.12857142857143,408.1,292.22232142857143,297.12857142857143,512.9,292.22232142857143,297.12857142857143,617.5,292.22232142857143,297.12857142857143,719,292.22232142857143,297.12857142857143,823.5,292.22232142857143,297.12857142857143,928.7,292.22232142857143,297.12857142857143,1028.9,288.22232142857143,290.12857142857143,1132,189.22232142857143,143.12857142857143,1234.2,170.22232142857143,120.12857142857143,1335,161.22232142857143,108.12857142857143,1438.3,138.22232142857143,71.12857142857143,1538.7,107.22232142857143,59.128571428571426,1642.3,91.22232142857143,58.128571428571426,1748.5,78.22232142857143,57.128571428571426,1853.8,78.22232142857143,57.128571428571426,1953.9,78.22232142857143,57.128571428571426,2054,78.22232142857143,57.128571428571426,2154,78.22232142857143,57.128571428571426,2258.2,78.22232142857143,57.128571428571426,2358.2,78.22232142857143,57.128571428571426,2458.2,78.22232142857143,57.128571428571426,2565.9,78.22232142857143,57.128571428571426,2668.8,78.22232142857143,57.128571428571426,2772.7,78.22232142857143,57.128571428571426,2873.3,78.22232142857143,57.128571428571426,2974.2,78.22232142857143,57.128571428571426,3082.6,78.22232142857143,57.128571428571426,3182.7,78.22232142857143,57.128571428571426,3283,78.22232142857143,57.128571428571426,3383.3,78.22232142857143,57.128571428571426,3487.6,78.22232142857143,57.128571428571426,3588.7,78.22232142857143,57.128571428571426,3695,78.22232142857143,57.128571428571426,3798.6,78.22232142857143,57.128571428571426,3900.1,78.22232142857143,57.128571428571426,4003.9,78.22232142857143,57.128571428571426,4108.5,78.22232142857143,57.128571428571426,4215.9,78.22232142857143,57.128571428571426,4316.4,78.22232142857143,57.128571428571426,4418.3,78.22232142857143,57.128571428571426,4518.4,78.22232142857143,57.128571428571426,4618.7,78.22232142857143,57.128571428571426,4720.6,78.22232142857143,57.128571428571426,4823.4,78.22232142857143,57.128571428571426,4933.3]","[1617.3,1617.3,1000,0,617.3,""smooth"",""up"",""up"",""good_move"",8139.9,6522.1,2427.5,5205.5,506.9,""oops"",""up"",""left"",""good_move"",10885,2744.7,2020.6,8140.3,724.1,""smooth"",""up"",""up"",""good_move"",14658.3,3772.9,3201.9,10885.4,571,""oops"",""left"",""right"",""bad_move"",21990.1,7331.4,3203.8,18308.9,477.4,""smooth"",""left"",""left"",""good_move"",24871.5,2881,2354.9,21990.6,526,""smooth"",""left"",""left"",""good_move""]"
"8058","","<div style=""width:500px;"">
  <p>What determined the result of this run?</p>
  </div>","66","html-slider-response","39","1534675","0.0-7.0-1.5","66","1","2025-07-30 08:55:19","36c45c0696341be0efffe67d72a12abb","102.66.181.4","Mozilla/5.0 (Windows NT 10.0; Win64; x64) AppleWebKit/537.36 (KHTML, like Gecko) Chrome/138.0.0.0 Safari/537.36 Edg/138.0.0.0","WebKit","Edge","138.0.0.0","Windows","10.0","https://app.prolific.com/","en-US,en;q=0.9","67d0052a3f36525d24f021be","687a19d2168e237449fb8af4","6889dbcad0c4cd7e646c2cc3","0","67d0052a3f36525d24f021be","0","2025-07-30T09:20:55.438Z","","","","AttribQ","","","","","","","","","","","50","","","","","","","","","","","","","","","","","","","","","","","","","","",""
"10658","","<div style=""width:500px;"">
  <p>How much control did you have over the ball?</p>
  </div>","66","html-slider-response","40","1545335","0.0-7.0-2.5","66","1","2025-07-30 08:55:19","36c45c0696341be0efffe67d72a12abb","102.66.181.4","Mozilla/5.0 (Windows NT 10.0; Win64; x64) AppleWebKit/537.36 (KHTML, like Gecko) Chrome/138.0.0.0 Safari/537.36 Edg/138.0.0.0","WebKit","Edge","138.0.0.0","Windows","10.0","https://app.prolific.com/","en-US,en;q=0.9","67d0052a3f36525d24f021be","687a19d2168e237449fb8af4","6889dbcad0c4cd7e646c2cc3","0","67d0052a3f36525d24f021be","0","2025-07-30T09:21:06.099Z","","","","ControlQ","","","","","","","","","","","50","","","","","","","","","","","","","","","","","","","","","","","","","","",""
"6520","","<div style=""width:500px;"">
  <p>How would you describe your current emotional state?</p>
  </div>","50","html-slider-response","41","1551858","0.0-7.0-3.5","66","1","2025-07-30 08:55:19","36c45c0696341be0efffe67d72a12abb","102.66.181.4","Mozilla/5.0 (Windows NT 10.0; Win64; x64) AppleWebKit/537.36 (KHTML, like Gecko) Chrome/138.0.0.0 Safari/537.36 Edg/138.0.0.0","WebKit","Edge","138.0.0.0","Windows","10.0","https://app.prolific.com/","en-US,en;q=0.9","67d0052a3f36525d24f021be","687a19d2168e237449fb8af4","6889dbcad0c4cd7e646c2cc3","0","67d0052a3f36525d24f021be","0","2025-07-30T09:21:12.621Z","","","","StressQ","","","","","","","","","","","50","","","","","","","","","","","","","","","","","","","","","","","","","","",""
"9662","","<div style=""width:500px;"">
  <p>What best describes how you currently feel?</p>
  </div>","78","html-slider-response","42","1561522","0.0-7.0-4.5","66","1","2025-07-30 08:55:19","36c45c0696341be0efffe67d72a12abb","102.66.181.4","Mozilla/5.0 (Windows NT 10.0; Win64; x64) AppleWebKit/537.36 (KHTML, like Gecko) Chrome/138.0.0.0 Safari/537.36 Edg/138.0.0.0","WebKit","Edge","138.0.0.0","Windows","10.0","https://app.prolific.com/","en-US,en;q=0.9","67d0052a3f36525d24f021be","687a19d2168e237449fb8af4","6889dbcad0c4cd7e646c2cc3","0","67d0052a3f36525d24f021be","0","2025-07-30T09:21:22.285Z","","","","MotivationQ","","","","","","","","","","","50","","","","","","","","","","","","","","","","","","","","","","","","","","",""
"","","","","ctl-task-cpt","43","1602023","0.0-7.0-0.6","66","1","2025-07-30 08:55:19","36c45c0696341be0efffe67d72a12abb","102.66.181.4","Mozilla/5.0 (Windows NT 10.0; Win64; x64) AppleWebKit/537.36 (KHTML, like Gecko) Chrome/138.0.0.0 Safari/537.36 Edg/138.0.0.0","WebKit","Edge","138.0.0.0","Windows","10.0","https://app.prolific.com/","en-US,en;q=0.9","67d0052a3f36525d24f021be","687a19d2168e237449fb8af4","6889dbcad0c4cd7e646c2cc3","0","67d0052a3f36525d24f021be","0","2025-07-30T09:22:02.786Z","","","","","","","","","","","","","","","","win-only","2","g1:SE,g2:NW","0.4","7","0","1563517.8","2281.4","7282.3","37480.8","1","4","4","6","1","-1","-2","0","1","0","3218.2","3000","-2940","[""down"",""right""]","{""num_key_presses"":7,""num_perfect"":4,""num_errors"":1,""num_randdir"":2,""num_randdir_good_moves"":0,""num_whilered"":0,""num_whileblue"":0,""num_blue"":2,""num_good_moves"":4}","[294.22232142857143,289.12857142857143,0.3,294.22232142857143,289.12857142857143,102,294.22232142857143,289.12857142857143,205,294.22232142857143,289.12857142857143,308.8,294.22232142857143,289.12857142857143,409,294.22232142857143,289.12857142857143,509,294.22232142857143,289.12857142857143,617.2,294.22232142857143,289.12857142857143,719.4,294.22232142857143,289.12857142857143,819.4,294.22232142857143,289.12857142857143,921.3,294.22232142857143,289.12857142857143,1024.2,294.22232142857143,289.12857142857143,1134.8,294.22232142857143,289.12857142857143,1239,294.22232142857143,289.12857142857143,1339,294.22232142857143,289.12857142857143,1439.8,406.22232142857143,294.12857142857143,1544.5,459.22232142857143,353.12857142857143,1645.5,495.22232142857143,449.12857142857143,1752.2,496.22232142857143,455.12857142857143,1852.7,496.22232142857143,455.12857142857143,1953.8,496.22232142857143,455.12857142857143,2054,496.22232142857143,455.12857142857143,2159.2,525.2223214285714,502.12857142857143,2259.6,537.2223214285714,533.1285714285714,2367.8,552.2223214285714,548.1285714285714,2469.6,573.2223214285714,565.1285714285714,2575.2,574.2223214285714,565.1285714285714,2680,574.2223214285714,565.1285714285714,2785.4,574.2223214285714,565.1285714285714,2888.9,571.2223214285714,565.1285714285714,2989.7,571.2223214285714,565.1285714285714,3094.1,571.2223214285714,565.1285714285714,3194.2,571.2223214285714,565.1285714285714,3300.5,571.2223214285714,565.1285714285714,3401.1,571.2223214285714,565.1285714285714,3504.7,571.2223214285714,565.1285714285714,3610.7,571.2223214285714,565.1285714285714,3718.3,571.2223214285714,565.1285714285714,3821.7,571.2223214285714,565.1285714285714,3924.3,571.2223214285714,565.1285714285714,4025.8,571.2223214285714,565.1285714285714,4131.1,571.2223214285714,565.1285714285714,4234,571.2223214285714,565.1285714285714,4335.1,571.2223214285714,565.1285714285714,4439.1,571.2223214285714,565.1285714285714,4545.7,571.2223214285714,565.1285714285714,4648.2,571.2223214285714,565.1285714285714,4749.6,571.2223214285714,565.1285714285714,4849.6,571.2223214285714,565.1285714285714,4954.1]","[417.7,417.7,1000,0,-582.3,""error"",""-"",""-"",""no_move"",8763.7,8345.2,2902,5053.9,807.8,""smooth"",""down"",""down"",""good_move"",12087.7,3323.3,2582.3,8764.4,741,""smooth"",""down"",""down"",""good_move"",14596.8,2508.5,1957.2,12088.3,551.3,""oops"",""right"",""up"",""bad_move"",17987.5,3389.9,2695.8,14597.6,694.1,""oops"",""down"",""left"",""bad_move"",21830.8,3842.8,3229.6,17988,613.2,""smooth"",""down"",""down"",""good_move"",25212.1,3380.5,2793,21831.6,587.5,""smooth"",""right"",""right"",""good_move""]"
"11552","","<div style=""width:500px;"">
  <p>What determined the result of this run?</p>
  </div>","48","html-slider-response","44","1613576","0.0-7.0-1.6","66","1","2025-07-30 08:55:19","36c45c0696341be0efffe67d72a12abb","102.66.181.4","Mozilla/5.0 (Windows NT 10.0; Win64; x64) AppleWebKit/537.36 (KHTML, like Gecko) Chrome/138.0.0.0 Safari/537.36 Edg/138.0.0.0","WebKit","Edge","138.0.0.0","Windows","10.0","https://app.prolific.com/","en-US,en;q=0.9","67d0052a3f36525d24f021be","687a19d2168e237449fb8af4","6889dbcad0c4cd7e646c2cc3","0","67d0052a3f36525d24f021be","0","2025-07-30T09:22:14.339Z","","","","AttribQ","","","","","","","","","","","50","","","","","","","","","","","","","","","","","","","","","","","","","","",""
"5055","","<div style=""width:500px;"">
  <p>How much control did you have over the ball?</p>
  </div>","45","html-slider-response","45","1618632","0.0-7.0-2.6","66","1","2025-07-30 08:55:19","36c45c0696341be0efffe67d72a12abb","102.66.181.4","Mozilla/5.0 (Windows NT 10.0; Win64; x64) AppleWebKit/537.36 (KHTML, like Gecko) Chrome/138.0.0.0 Safari/537.36 Edg/138.0.0.0","WebKit","Edge","138.0.0.0","Windows","10.0","https://app.prolific.com/","en-US,en;q=0.9","67d0052a3f36525d24f021be","687a19d2168e237449fb8af4","6889dbcad0c4cd7e646c2cc3","0","67d0052a3f36525d24f021be","0","2025-07-30T09:22:19.395Z","","","","ControlQ","","","","","","","","","","","50","","","","","","","","","","","","","","","","","","","","","","","","","","",""
"7685","","<div style=""width:500px;"">
  <p>How would you describe your current emotional state?</p>
  </div>","50","html-slider-response","46","1626319","0.0-7.0-3.6","66","1","2025-07-30 08:55:19","36c45c0696341be0efffe67d72a12abb","102.66.181.4","Mozilla/5.0 (Windows NT 10.0; Win64; x64) AppleWebKit/537.36 (KHTML, like Gecko) Chrome/138.0.0.0 Safari/537.36 Edg/138.0.0.0","WebKit","Edge","138.0.0.0","Windows","10.0","https://app.prolific.com/","en-US,en;q=0.9","67d0052a3f36525d24f021be","687a19d2168e237449fb8af4","6889dbcad0c4cd7e646c2cc3","0","67d0052a3f36525d24f021be","0","2025-07-30T09:22:27.083Z","","","","StressQ","","","","","","","","","","","50","","","","","","","","","","","","","","","","","","","","","","","","","","",""
"8438","","<div style=""width:500px;"">
  <p>What best describes how you currently feel?</p>
  </div>","63","html-slider-response","47","1634759","0.0-7.0-4.6","66","1","2025-07-30 08:55:19","36c45c0696341be0efffe67d72a12abb","102.66.181.4","Mozilla/5.0 (Windows NT 10.0; Win64; x64) AppleWebKit/537.36 (KHTML, like Gecko) Chrome/138.0.0.0 Safari/537.36 Edg/138.0.0.0","WebKit","Edge","138.0.0.0","Windows","10.0","https://app.prolific.com/","en-US,en;q=0.9","67d0052a3f36525d24f021be","687a19d2168e237449fb8af4","6889dbcad0c4cd7e646c2cc3","0","67d0052a3f36525d24f021be","0","2025-07-30T09:22:35.523Z","","","","MotivationQ","","","","","","","","","","","50","","","","","","","","","","","","","","","","","","","","","","","","","","",""
"","","","","ctl-task-cpt","48","1665475","0.0-7.0-0.7","66","1","2025-07-30 08:55:19","36c45c0696341be0efffe67d72a12abb","102.66.181.4","Mozilla/5.0 (Windows NT 10.0; Win64; x64) AppleWebKit/537.36 (KHTML, like Gecko) Chrome/138.0.0.0 Safari/537.36 Edg/138.0.0.0","WebKit","Edge","138.0.0.0","Windows","10.0","https://app.prolific.com/","en-US,en;q=0.9","67d0052a3f36525d24f021be","687a19d2168e237449fb8af4","6889dbcad0c4cd7e646c2cc3","0","67d0052a3f36525d24f021be","0","2025-07-30T09:23:06.238Z","","","","","","","","","","","","","","","","win-only","0","g1:NW,g2:SE","0.3","8","0","1636755.8","1520.8","6526.9","27695.5","1","4","8","6","1","-1","-1","0","0","0","2327.8","3000","-2965","[""left"",""up""]","{""num_key_presses"":4,""num_perfect"":1,""num_errors"":0,""num_randdir"":3,""num_randdir_good_moves"":2,""num_whilered"":0,""num_whileblue"":0,""num_blue"":2,""num_good_moves"":3}","[295.22232142857143,289.12857142857143,0.4,295.22232142857143,289.12857142857143,100.5,295.22232142857143,289.12857142857143,210.1,295.22232142857143,289.12857142857143,311.7,295.22232142857143,289.12857142857143,415.4,295.22232142857143,289.12857142857143,515.4,295.22232142857143,289.12857142857143,619.7,295.22232142857143,289.12857142857143,721.5,295.22232142857143,289.12857142857143,828.7,295.22232142857143,289.12857142857143,929.9,295.22232142857143,289.12857142857143,1035.8,223.22232142857143,177.12857142857143,1136.4,165.22232142857143,110.12857142857143,1243.9,157.22232142857143,103.12857142857143,1344.6,157.22232142857143,103.12857142857143,1446.2,157.22232142857143,103.12857142857143,1550.1,137.22232142857143,87.12857142857143,1650.3,119.22232142857143,82.12857142857143,1751,96.22232142857143,73.12857142857143,1859.7,72.22232142857143,53.128571428571426,1959.8,60.222321428571426,48.128571428571426,2063.1,60.222321428571426,48.128571428571426,2163.7,60.222321428571426,48.128571428571426,2265.5,60.222321428571426,48.128571428571426,2372.4,60.222321428571426,48.128571428571426,2476.4,60.222321428571426,48.128571428571426,2580.1,60.222321428571426,48.128571428571426,2680.2,60.222321428571426,48.128571428571426,2780.2,60.222321428571426,48.128571428571426,2880.2,60.222321428571426,48.128571428571426,2985.3,60.222321428571426,48.128571428571426,3085.6,60.222321428571426,48.128571428571426,3185.8,60.222321428571426,48.128571428571426,3294.1,60.222321428571426,48.128571428571426,3395.4,60.222321428571426,48.128571428571426,3495.5,60.222321428571426,48.128571428571426,3600.3,60.222321428571426,48.128571428571426,3700.4,60.222321428571426,48.128571428571426,3809.3,60.222321428571426,48.128571428571426,3909.4,60.222321428571426,48.128571428571426,4009.6,60.222321428571426,48.128571428571426,4110.4,60.222321428571426,48.128571428571426,4211.3,60.222321428571426,48.128571428571426,4314.9,60.222321428571426,48.128571428571426,4426.5,60.222321428571426,48.128571428571426,4527,60.222321428571426,48.128571428571426,4627.6,60.222321428571426,48.128571428571426,4728.3,60.222321428571426,48.128571428571426,4832.3,60.222321428571426,48.128571428571426,4935.6]","[5449.8,5449.8,2864.7,2008.6,576.5,""oops"",""up"",""left"",""good_move"",8303.9,2853.5,2014.4,5450.4,839.1,""smooth"",""up"",""up"",""good_move"",15124.1,6819.6,2804.2,11655.1,664.8,""oops"",""up"",""left"",""good_move"",18243.2,3118.5,2411.6,15124.7,706.9,""oops"",""up"",""down"",""bad_move""]"
"10324","","<div style=""width:500px;"">
  <p>What determined the result of this run?</p>
  </div>","48","html-slider-response","49","1675801","0.0-7.0-1.7","66","1","2025-07-30 08:55:19","36c45c0696341be0efffe67d72a12abb","102.66.181.4","Mozilla/5.0 (Windows NT 10.0; Win64; x64) AppleWebKit/537.36 (KHTML, like Gecko) Chrome/138.0.0.0 Safari/537.36 Edg/138.0.0.0","WebKit","Edge","138.0.0.0","Windows","10.0","https://app.prolific.com/","en-US,en;q=0.9","67d0052a3f36525d24f021be","687a19d2168e237449fb8af4","6889dbcad0c4cd7e646c2cc3","0","67d0052a3f36525d24f021be","0","2025-07-30T09:23:16.564Z","","","","AttribQ","","","","","","","","","","","50","","","","","","","","","","","","","","","","","","","","","","","","","","",""
"5071","","<div style=""width:500px;"">
  <p>How much control did you have over the ball?</p>
  </div>","46","html-slider-response","50","1680875","0.0-7.0-2.7","66","1","2025-07-30 08:55:19","36c45c0696341be0efffe67d72a12abb","102.66.181.4","Mozilla/5.0 (Windows NT 10.0; Win64; x64) AppleWebKit/537.36 (KHTML, like Gecko) Chrome/138.0.0.0 Safari/537.36 Edg/138.0.0.0","WebKit","Edge","138.0.0.0","Windows","10.0","https://app.prolific.com/","en-US,en;q=0.9","67d0052a3f36525d24f021be","687a19d2168e237449fb8af4","6889dbcad0c4cd7e646c2cc3","0","67d0052a3f36525d24f021be","0","2025-07-30T09:23:21.638Z","","","","ControlQ","","","","","","","","","","","50","","","","","","","","","","","","","","","","","","","","","","","","","","",""
"9446","","<div style=""width:500px;"">
  <p>How would you describe your current emotional state?</p>
  </div>","56","html-slider-response","51","1690323","0.0-7.0-3.7","66","1","2025-07-30 08:55:19","36c45c0696341be0efffe67d72a12abb","102.66.181.4","Mozilla/5.0 (Windows NT 10.0; Win64; x64) AppleWebKit/537.36 (KHTML, like Gecko) Chrome/138.0.0.0 Safari/537.36 Edg/138.0.0.0","WebKit","Edge","138.0.0.0","Windows","10.0","https://app.prolific.com/","en-US,en;q=0.9","67d0052a3f36525d24f021be","687a19d2168e237449fb8af4","6889dbcad0c4cd7e646c2cc3","0","67d0052a3f36525d24f021be","0","2025-07-30T09:23:31.086Z","","","","StressQ","","","","","","","","","","","50","","","","","","","","","","","","","","","","","","","","","","","","","","",""
"5821","","<div style=""width:500px;"">
  <p>What best describes how you currently feel?</p>
  </div>","58","html-slider-response","52","1696145","0.0-7.0-4.7","66","1","2025-07-30 08:55:19","36c45c0696341be0efffe67d72a12abb","102.66.181.4","Mozilla/5.0 (Windows NT 10.0; Win64; x64) AppleWebKit/537.36 (KHTML, like Gecko) Chrome/138.0.0.0 Safari/537.36 Edg/138.0.0.0","WebKit","Edge","138.0.0.0","Windows","10.0","https://app.prolific.com/","en-US,en;q=0.9","67d0052a3f36525d24f021be","687a19d2168e237449fb8af4","6889dbcad0c4cd7e646c2cc3","0","67d0052a3f36525d24f021be","0","2025-07-30T09:23:36.908Z","","","","MotivationQ","","","","","","","","","","","50","","","","","","","","","","","","","","","","","","","","","","","","","","",""
"","","","","ctl-task-cpt","53","1739849","0.0-7.0-0.8","66","1","2025-07-30 08:55:19","36c45c0696341be0efffe67d72a12abb","102.66.181.4","Mozilla/5.0 (Windows NT 10.0; Win64; x64) AppleWebKit/537.36 (KHTML, like Gecko) Chrome/138.0.0.0 Safari/537.36 Edg/138.0.0.0","WebKit","Edge","138.0.0.0","Windows","10.0","https://app.prolific.com/","en-US,en;q=0.9","67d0052a3f36525d24f021be","687a19d2168e237449fb8af4","6889dbcad0c4cd7e646c2cc3","0","67d0052a3f36525d24f021be","0","2025-07-30T09:24:20.612Z","","","","","","","","","","","","","","","","win-only","0","g1:NW,g2:SE","0.4","9","0","1698141.4","1789.8","6790.3","40681.1","1","4","8","6","1","1","1","1","0","0.007575757575757576","1831.3","3000","400","[""left"",""up""]","{""num_key_presses"":6,""num_perfect"":3,""num_errors"":0,""num_randdir"":3,""num_randdir_good_moves"":2,""num_whilered"":0,""num_whileblue"":0,""num_blue"":5,""num_good_moves"":5}","[294.22232142857143,293.12857142857143,0.2,294.22232142857143,293.12857142857143,101.4,294.22232142857143,293.12857142857143,210.8,294.22232142857143,293.12857142857143,312.4,294.22232142857143,293.12857142857143,412.5,294.22232142857143,293.12857142857143,514.3,294.22232142857143,293.12857142857143,615.3,294.22232142857143,293.12857142857143,716.3,294.22232142857143,293.12857142857143,822.1,294.22232142857143,293.12857142857143,922.1,294.22232142857143,293.12857142857143,1029.9,294.22232142857143,293.12857142857143,1131.2,177.22232142857143,156.12857142857143,1232.7,104.22232142857143,89.12857142857143,1335.4,86.22232142857143,72.12857142857143,1435.8,86.22232142857143,72.12857142857143,1541.3,86.22232142857143,72.12857142857143,1646.9,86.22232142857143,72.12857142857143,1751.5,86.22232142857143,72.12857142857143,1860.5,86.22232142857143,72.12857142857143,1962.3,86.22232142857143,72.12857142857143,2065.4,86.22232142857143,72.12857142857143,2166.3,86.22232142857143,72.12857142857143,2271.7,86.22232142857143,72.12857142857143,2375.3,86.22232142857143,72.12857142857143,2481.5,86.22232142857143,72.12857142857143,2586.1,86.22232142857143,72.12857142857143,2694.2,86.22232142857143,72.12857142857143,2794.3,86.22232142857143,72.12857142857143,2896,86.22232142857143,72.12857142857143,2998,86.22232142857143,72.12857142857143,3101.1,86.22232142857143,72.12857142857143,3210.8,86.22232142857143,72.12857142857143,3311.1,86.22232142857143,72.12857142857143,3411.3,86.22232142857143,72.12857142857143,3511.4,86.22232142857143,72.12857142857143,3615.8,86.22232142857143,72.12857142857143,3716.1,86.22232142857143,72.12857142857143,3816.1,86.22232142857143,72.12857142857143,3916.8,86.22232142857143,72.12857142857143,4026.4,86.22232142857143,72.12857142857143,4126.9,86.22232142857143,72.12857142857143,4231.5,86.22232142857143,72.12857142857143,4344.7,86.22232142857143,72.12857142857143,4446.1,86.22232142857143,72.12857142857143,4551.3,86.22232142857143,72.12857142857143,4651.3,86.22232142857143,72.12857142857143,4760,86.22232142857143,72.12857142857143,4861.6,86.22232142857143,72.12857142857143,4965.4]","[1474.3,1474.3,1000,0,474.3,""oops"",""up"",""left"",""good_move"",13870.2,12395.3,2504,10896.1,470.1,""oops"",""up"",""up"",""good_move"",17589,3718.3,3169.5,13870.7,548.9,""oops"",""up"",""down"",""bad_move"",21095.2,3505.5,2658.6,17589.8,846.8,""smooth"",""up"",""up"",""good_move"",31082,9986.5,2231,28304.3,546.7,""smooth"",""up"",""up"",""good_move"",33792.4,2709.9,2236.6,31082.5,473.3,""smooth"",""left"",""left"",""good_move""]"
"7488","","<div style=""width:500px;"">
  <p>What determined the result of this run?</p>
  </div>","48","html-slider-response","54","1747340","0.0-7.0-1.8","66","1","2025-07-30 08:55:19","36c45c0696341be0efffe67d72a12abb","102.66.181.4","Mozilla/5.0 (Windows NT 10.0; Win64; x64) AppleWebKit/537.36 (KHTML, like Gecko) Chrome/138.0.0.0 Safari/537.36 Edg/138.0.0.0","WebKit","Edge","138.0.0.0","Windows","10.0","https://app.prolific.com/","en-US,en;q=0.9","67d0052a3f36525d24f021be","687a19d2168e237449fb8af4","6889dbcad0c4cd7e646c2cc3","0","67d0052a3f36525d24f021be","0","2025-07-30T09:24:28.103Z","","","","AttribQ","","","","","","","","","","","50","","","","","","","","","","","","","","","","","","","","","","","","","","",""
"10134","","<div style=""width:500px;"">
  <p>How much control did you have over the ball?</p>
  </div>","43","html-slider-response","55","1757476","0.0-7.0-2.8","66","1","2025-07-30 08:55:19","36c45c0696341be0efffe67d72a12abb","102.66.181.4","Mozilla/5.0 (Windows NT 10.0; Win64; x64) AppleWebKit/537.36 (KHTML, like Gecko) Chrome/138.0.0.0 Safari/537.36 Edg/138.0.0.0","WebKit","Edge","138.0.0.0","Windows","10.0","https://app.prolific.com/","en-US,en;q=0.9","67d0052a3f36525d24f021be","687a19d2168e237449fb8af4","6889dbcad0c4cd7e646c2cc3","0","67d0052a3f36525d24f021be","0","2025-07-30T09:24:38.239Z","","","","ControlQ","","","","","","","","","","","50","","","","","","","","","","","","","","","","","","","","","","","","","","",""
"7524","","<div style=""width:500px;"">
  <p>How would you describe your current emotional state?</p>
  </div>","56","html-slider-response","56","1765002","0.0-7.0-3.8","66","1","2025-07-30 08:55:19","36c45c0696341be0efffe67d72a12abb","102.66.181.4","Mozilla/5.0 (Windows NT 10.0; Win64; x64) AppleWebKit/537.36 (KHTML, like Gecko) Chrome/138.0.0.0 Safari/537.36 Edg/138.0.0.0","WebKit","Edge","138.0.0.0","Windows","10.0","https://app.prolific.com/","en-US,en;q=0.9","67d0052a3f36525d24f021be","687a19d2168e237449fb8af4","6889dbcad0c4cd7e646c2cc3","0","67d0052a3f36525d24f021be","0","2025-07-30T09:24:45.765Z","","","","StressQ","","","","","","","","","","","50","","","","","","","","","","","","","","","","","","","","","","","","","","",""
"11811","","<div style=""width:500px;"">
  <p>What best describes how you currently feel?</p>
  </div>","55","html-slider-response","57","1776815","0.0-7.0-4.8","66","1","2025-07-30 08:55:19","36c45c0696341be0efffe67d72a12abb","102.66.181.4","Mozilla/5.0 (Windows NT 10.0; Win64; x64) AppleWebKit/537.36 (KHTML, like Gecko) Chrome/138.0.0.0 Safari/537.36 Edg/138.0.0.0","WebKit","Edge","138.0.0.0","Windows","10.0","https://app.prolific.com/","en-US,en;q=0.9","67d0052a3f36525d24f021be","687a19d2168e237449fb8af4","6889dbcad0c4cd7e646c2cc3","0","67d0052a3f36525d24f021be","0","2025-07-30T09:24:57.578Z","","","","MotivationQ","","","","","","","","","","","50","","","","","","","","","","","","","","","","","","","","","","","","","","",""
"","","","","ctl-task-cpt","58","1807646","0.0-7.0-0.9","66","1","2025-07-30 08:55:19","36c45c0696341be0efffe67d72a12abb","102.66.181.4","Mozilla/5.0 (Windows NT 10.0; Win64; x64) AppleWebKit/537.36 (KHTML, like Gecko) Chrome/138.0.0.0 Safari/537.36 Edg/138.0.0.0","WebKit","Edge","138.0.0.0","Windows","10.0","https://app.prolific.com/","en-US,en;q=0.9","67d0052a3f36525d24f021be","687a19d2168e237449fb8af4","6889dbcad0c4cd7e646c2cc3","0","67d0052a3f36525d24f021be","0","2025-07-30T09:25:28.409Z","","","","","","","","","","","","","","","","win-only","3","g1:SW,g2:NE","0.5","10","0","1778810.6","4442.6","9450.2","27805.6","1","4","4","6","1","1","0","1","1","0.007575757575757576","2942.6","3000","590","[""down"",""left""]","{""num_key_presses"":7,""num_perfect"":4,""num_errors"":1,""num_randdir"":2,""num_randdir_good_moves"":1,""num_whilered"":0,""num_whileblue"":0,""num_blue"":0,""num_good_moves"":5}","[296.22232142857143,295.12857142857143,0.5,296.22232142857143,295.12857142857143,106.7,296.22232142857143,295.12857142857143,208.2,296.22232142857143,295.12857142857143,314.4,296.22232142857143,295.12857142857143,414.5,296.22232142857143,295.12857142857143,523.6,296.22232142857143,295.12857142857143,624.4,296.22232142857143,295.12857142857143,728.3,296.22232142857143,295.12857142857143,830.7,296.22232142857143,295.12857142857143,933.5,296.22232142857143,295.12857142857143,1039.4,296.22232142857143,295.12857142857143,1139.6,296.22232142857143,295.12857142857143,1243.3,292.22232142857143,306.12857142857143,1343.7,217.22232142857143,398.12857142857143,1449.6,201.22232142857143,408.12857142857143,1553.2,201.22232142857143,408.12857142857143,1655.5,201.22232142857143,408.12857142857143,1759.5,151.22232142857143,458.12857142857143,1864.2,116.22232142857143,499.12857142857143,1970.7,116.22232142857143,499.12857142857143,2073,116.22232142857143,499.12857142857143,2173.8,116.22232142857143,499.12857142857143,2273.8,104.22232142857143,501.12857142857143,2374.1,67.22232142857143,511.12857142857143,2478.8,57.222321428571426,512.1285714285714,2578.8,55.222321428571426,521.1285714285714,2683.4,55.222321428571426,521.1285714285714,2785.4,55.222321428571426,521.1285714285714,2891.8,55.222321428571426,521.1285714285714,2993.1,55.222321428571426,521.1285714285714,3093.2,55.222321428571426,521.1285714285714,3194.1,55.222321428571426,521.1285714285714,3298.4,55.222321428571426,521.1285714285714,3398.6,55.222321428571426,521.1285714285714,3506.8,55.222321428571426,521.1285714285714,3612.2,55.222321428571426,521.1285714285714,3713.7,55.222321428571426,521.1285714285714,3823.3,58.222321428571426,523.1285714285714,3924.3,61.222321428571426,524.1285714285714,4026.5,64.22232142857143,525.1285714285714,4127,67.22232142857143,527.1285714285714,4228.4,70.22232142857143,530.1285714285714,4330.6,73.22232142857143,533.1285714285714,4433.2,75.22232142857143,536.1285714285714,4535.3,81.22232142857143,542.1285714285714,4641.9,82.22232142857143,544.1285714285714,4744.3,82.22232142857143,544.1285714285714,4849.5,82.22232142857143,544.1285714285714,4955.3]","[17,17,1000,0,-983,""error"",""-"",""-"",""no_move"",3997.1,3979.6,1811.1,1018.4,1167.6,""smooth"",""down"",""down"",""good_move"",6420.9,2422.9,1683.8,3998,739.1,""oops"",""down"",""up"",""bad_move"",9616.9,3195.3,2673.4,6421.6,521.9,""smooth"",""down"",""down"",""good_move"",12925.9,3308.5,2804,9617.5,504.4,""oops"",""down"",""down"",""good_move"",15718.6,2792.5,2078,12926.1,714.5,""smooth"",""left"",""left"",""good_move"",18247.4,2528.6,2000.3,15718.8,528.3,""smooth"",""left"",""left"",""good_move""]"
"6994","","<div style=""width:500px;"">
  <p>What determined the result of this run?</p>
  </div>","50","html-slider-response","59","1814641","0.0-7.0-1.9","66","1","2025-07-30 08:55:19","36c45c0696341be0efffe67d72a12abb","102.66.181.4","Mozilla/5.0 (Windows NT 10.0; Win64; x64) AppleWebKit/537.36 (KHTML, like Gecko) Chrome/138.0.0.0 Safari/537.36 Edg/138.0.0.0","WebKit","Edge","138.0.0.0","Windows","10.0","https://app.prolific.com/","en-US,en;q=0.9","67d0052a3f36525d24f021be","687a19d2168e237449fb8af4","6889dbcad0c4cd7e646c2cc3","0","67d0052a3f36525d24f021be","0","2025-07-30T09:25:35.404Z","","","","AttribQ","","","","","","","","","","","50","","","","","","","","","","","","","","","","","","","","","","","","","","",""
"7783","","<div style=""width:500px;"">
  <p>How much control did you have over the ball?</p>
  </div>","68","html-slider-response","60","1822426","0.0-7.0-2.9","66","1","2025-07-30 08:55:19","36c45c0696341be0efffe67d72a12abb","102.66.181.4","Mozilla/5.0 (Windows NT 10.0; Win64; x64) AppleWebKit/537.36 (KHTML, like Gecko) Chrome/138.0.0.0 Safari/537.36 Edg/138.0.0.0","WebKit","Edge","138.0.0.0","Windows","10.0","https://app.prolific.com/","en-US,en;q=0.9","67d0052a3f36525d24f021be","687a19d2168e237449fb8af4","6889dbcad0c4cd7e646c2cc3","0","67d0052a3f36525d24f021be","0","2025-07-30T09:25:43.189Z","","","","ControlQ","","","","","","","","","","","50","","","","","","","","","","","","","","","","","","","","","","","","","","",""
"9311","","<div style=""width:500px;"">
  <p>How would you describe your current emotional state?</p>
  </div>","50","html-slider-response","61","1831739","0.0-7.0-3.9","66","1","2025-07-30 08:55:19","36c45c0696341be0efffe67d72a12abb","102.66.181.4","Mozilla/5.0 (Windows NT 10.0; Win64; x64) AppleWebKit/537.36 (KHTML, like Gecko) Chrome/138.0.0.0 Safari/537.36 Edg/138.0.0.0","WebKit","Edge","138.0.0.0","Windows","10.0","https://app.prolific.com/","en-US,en;q=0.9","67d0052a3f36525d24f021be","687a19d2168e237449fb8af4","6889dbcad0c4cd7e646c2cc3","0","67d0052a3f36525d24f021be","0","2025-07-30T09:25:52.502Z","","","","StressQ","","","","","","","","","","","50","","","","","","","","","","","","","","","","","","","","","","","","","","",""
"5868","","<div style=""width:500px;"">
  <p>What best describes how you currently feel?</p>
  </div>","54","html-slider-response","62","1837611","0.0-7.0-4.9","66","1","2025-07-30 08:55:19","36c45c0696341be0efffe67d72a12abb","102.66.181.4","Mozilla/5.0 (Windows NT 10.0; Win64; x64) AppleWebKit/537.36 (KHTML, like Gecko) Chrome/138.0.0.0 Safari/537.36 Edg/138.0.0.0","WebKit","Edge","138.0.0.0","Windows","10.0","https://app.prolific.com/","en-US,en;q=0.9","67d0052a3f36525d24f021be","687a19d2168e237449fb8af4","6889dbcad0c4cd7e646c2cc3","0","67d0052a3f36525d24f021be","0","2025-07-30T09:25:58.374Z","","","","MotivationQ","","","","","","","","","","","50","","","","","","","","","","","","","","","","","","","","","","","","","","",""
"","","","","ctl-task-cpt","63","1877661","0.0-7.0-0.10","66","1","2025-07-30 08:55:19","36c45c0696341be0efffe67d72a12abb","102.66.181.4","Mozilla/5.0 (Windows NT 10.0; Win64; x64) AppleWebKit/537.36 (KHTML, like Gecko) Chrome/138.0.0.0 Safari/537.36 Edg/138.0.0.0","WebKit","Edge","138.0.0.0","Windows","10.0","https://app.prolific.com/","en-US,en;q=0.9","67d0052a3f36525d24f021be","687a19d2168e237449fb8af4","6889dbcad0c4cd7e646c2cc3","0","67d0052a3f36525d24f021be","0","2025-07-30T09:26:38.424Z","","","","","","","","","","","","","","","","win-only","1","g1:NE,g2:SW","0.6","11","0","1839606.6","1776.5","6793.2","37020.5","1","4","8","6","1","1","1","2","1","0.015151515151515152","2551.1","3000","95","[""up"",""right""]","{""num_key_presses"":8,""num_perfect"":4,""num_errors"":0,""num_randdir"":4,""num_randdir_good_moves"":2,""num_whilered"":0,""num_whileblue"":0,""num_blue"":2,""num_good_moves"":6}","[292.22232142857143,298.12857142857143,0.3,292.22232142857143,298.12857142857143,104,292.22232142857143,298.12857142857143,205.4,292.22232142857143,298.12857142857143,318.8,292.22232142857143,298.12857142857143,420.4,292.22232142857143,298.12857142857143,525.2,292.22232142857143,298.12857142857143,625.3,292.22232142857143,298.12857142857143,736.1,292.22232142857143,298.12857142857143,836.7,292.22232142857143,298.12857142857143,939.9,332.22232142857143,285.12857142857143,1053.2,410.22232142857143,190.12857142857143,1154.8,453.22232142857143,135.12857142857143,1255.5,457.22232142857143,128.12857142857143,1363.6,457.22232142857143,128.12857142857143,1469.8,457.22232142857143,128.12857142857143,1574.6,457.22232142857143,128.12857142857143,1675.2,554.2223214285714,24.128571428571426,1786.4,556.2223214285714,21.128571428571426,1890.3,556.2223214285714,21.128571428571426,1999.1,556.2223214285714,21.128571428571426,2100.2,549.2223214285714,30.128571428571426,2205.1,543.2223214285714,39.128571428571426,2321.5,543.2223214285714,39.128571428571426,2425.4,543.2223214285714,39.128571428571426,2530,543.2223214285714,39.128571428571426,2634.3,543.2223214285714,39.128571428571426,2738.6,543.2223214285714,39.128571428571426,2839.7,543.2223214285714,39.128571428571426,2951.4,543.2223214285714,39.128571428571426,3051.4,543.2223214285714,39.128571428571426,3154,543.2223214285714,39.128571428571426,3258.5,543.2223214285714,39.128571428571426,3365.3,543.2223214285714,39.128571428571426,3465.6,543.2223214285714,39.128571428571426,3568,543.2223214285714,39.128571428571426,3669.5,543.2223214285714,39.128571428571426,3774.5,543.2223214285714,39.128571428571426,3883.6,543.2223214285714,39.128571428571426,3984.5,543.2223214285714,39.128571428571426,4087.6,543.2223214285714,39.128571428571426,4189.7,543.2223214285714,39.128571428571426,4299.1,543.2223214285714,39.128571428571426,4405,543.2223214285714,39.128571428571426,4509.3,539.2223214285714,44.128571428571426,4619.9,534.2223214285714,48.128571428571426,4733.4,533.2223214285714,49.128571428571426,4839.8,533.2223214285714,49.128571428571426,4940.8]","[1667.4,1667.4,1000,0,667.4,""smooth"",""up"",""up"",""good_move"",5772.1,4104.3,3268,1667.8,836.3,""oops"",""right"",""up"",""good_move"",8763.4,2991.2,2421,5772.2,570.2,""smooth"",""right"",""right"",""good_move"",11577.1,2813.4,2274.3,8763.7,539.1,""oops"",""right"",""left"",""bad_move"",14680.3,3102.7,2637.7,11577.6,465,""oops"",""right"",""left"",""bad_move"",18263.3,3582.3,3025.1,14681,557.2,""smooth"",""right"",""right"",""good_move"",24260,5996.2,2259.5,21586.2,414.3,""smooth"",""right"",""right"",""good_move"",30120.4,5859.9,2335.4,27384.6,400.4,""oops"",""right"",""right"",""good_move""]"
"9218","","<div style=""width:500px;"">
  <p>What determined the result of this run?</p>
  </div>","52","html-slider-response","64","1886880","0.0-7.0-1.10","66","1","2025-07-30 08:55:19","36c45c0696341be0efffe67d72a12abb","102.66.181.4","Mozilla/5.0 (Windows NT 10.0; Win64; x64) AppleWebKit/537.36 (KHTML, like Gecko) Chrome/138.0.0.0 Safari/537.36 Edg/138.0.0.0","WebKit","Edge","138.0.0.0","Windows","10.0","https://app.prolific.com/","en-US,en;q=0.9","67d0052a3f36525d24f021be","687a19d2168e237449fb8af4","6889dbcad0c4cd7e646c2cc3","0","67d0052a3f36525d24f021be","0","2025-07-30T09:26:47.643Z","","","","AttribQ","","","","","","","","","","","50","","","","","","","","","","","","","","","","","","","","","","","","","","",""
"9683","","<div style=""width:500px;"">
  <p>How much control did you have over the ball?</p>
  </div>","36","html-slider-response","65","1896566","0.0-7.0-2.10","66","1","2025-07-30 08:55:19","36c45c0696341be0efffe67d72a12abb","102.66.181.4","Mozilla/5.0 (Windows NT 10.0; Win64; x64) AppleWebKit/537.36 (KHTML, like Gecko) Chrome/138.0.0.0 Safari/537.36 Edg/138.0.0.0","WebKit","Edge","138.0.0.0","Windows","10.0","https://app.prolific.com/","en-US,en;q=0.9","67d0052a3f36525d24f021be","687a19d2168e237449fb8af4","6889dbcad0c4cd7e646c2cc3","0","67d0052a3f36525d24f021be","0","2025-07-30T09:26:57.329Z","","","","ControlQ","","","","","","","","","","","50","","","","","","","","","","","","","","","","","","","","","","","","","","",""
"16145","","<div style=""width:500px;"">
  <p>How would you describe your current emotional state?</p>
  </div>","50","html-slider-response","66","1912714","0.0-7.0-3.10","66","1","2025-07-30 08:55:19","36c45c0696341be0efffe67d72a12abb","102.66.181.4","Mozilla/5.0 (Windows NT 10.0; Win64; x64) AppleWebKit/537.36 (KHTML, like Gecko) Chrome/138.0.0.0 Safari/537.36 Edg/138.0.0.0","WebKit","Edge","138.0.0.0","Windows","10.0","https://app.prolific.com/","en-US,en;q=0.9","67d0052a3f36525d24f021be","687a19d2168e237449fb8af4","6889dbcad0c4cd7e646c2cc3","0","67d0052a3f36525d24f021be","0","2025-07-30T09:27:13.477Z","","","","StressQ","","","","","","","","","","","50","","","","","","","","","","","","","","","","","","","","","","","","","","",""
"6903","","<div style=""width:500px;"">
  <p>What best describes how you currently feel?</p>
  </div>","57","html-slider-response","67","1919618","0.0-7.0-4.10","66","1","2025-07-30 08:55:19","36c45c0696341be0efffe67d72a12abb","102.66.181.4","Mozilla/5.0 (Windows NT 10.0; Win64; x64) AppleWebKit/537.36 (KHTML, like Gecko) Chrome/138.0.0.0 Safari/537.36 Edg/138.0.0.0","WebKit","Edge","138.0.0.0","Windows","10.0","https://app.prolific.com/","en-US,en;q=0.9","67d0052a3f36525d24f021be","687a19d2168e237449fb8af4","6889dbcad0c4cd7e646c2cc3","0","67d0052a3f36525d24f021be","0","2025-07-30T09:27:20.381Z","","","","MotivationQ","","","","","","","","","","","50","","","","","","","","","","","","","","","","","","","","","","","","","","",""
"","","","","ctl-task-cpt","68","1951271","0.0-7.0-0.11","66","1","2025-07-30 08:55:19","36c45c0696341be0efffe67d72a12abb","102.66.181.4","Mozilla/5.0 (Windows NT 10.0; Win64; x64) AppleWebKit/537.36 (KHTML, like Gecko) Chrome/138.0.0.0 Safari/537.36 Edg/138.0.0.0","WebKit","Edge","138.0.0.0","Windows","10.0","https://app.prolific.com/","en-US,en;q=0.9","67d0052a3f36525d24f021be","687a19d2168e237449fb8af4","6889dbcad0c4cd7e646c2cc3","0","67d0052a3f36525d24f021be","0","2025-07-30T09:27:52.034Z","","","","","","","","","","","","","","","","win-only","0","g1:NW,g2:SE","0.7","12","0","1921612.9","2770.7","7777.8","28641.6","1","4","4","6","1","1","1","3","2","0.022727272727272728","2332.6","3000","785","[""left"",""up""]","{""num_key_presses"":6,""num_perfect"":5,""num_errors"":0,""num_randdir"":1,""num_randdir_good_moves"":0,""num_whilered"":0,""num_whileblue"":0,""num_blue"":1,""num_good_moves"":5}","[289.22232142857143,291.12857142857143,0.3,289.22232142857143,291.12857142857143,102.6,289.22232142857143,291.12857142857143,205.6,289.22232142857143,291.12857142857143,317.4,289.22232142857143,291.12857142857143,419,289.22232142857143,291.12857142857143,519.1,289.22232142857143,291.12857142857143,620.5,289.22232142857143,291.12857142857143,724.6,289.22232142857143,291.12857142857143,825.8,246.22232142857143,241.12857142857143,937.2,202.22232142857143,191.12857142857143,1038.6,199.22232142857143,190.12857142857143,1140.4,199.22232142857143,190.12857142857143,1251.8,199.22232142857143,190.12857142857143,1354.9,152.22232142857143,132.12857142857143,1454.9,132.22232142857143,110.12857142857143,1555.5,116.22232142857143,92.12857142857143,1662.2,111.22232142857143,85.12857142857143,1765.4,99.22232142857143,73.12857142857143,1870.5,86.22232142857143,68.12857142857143,1975.6,82.22232142857143,68.12857142857143,2077.3,82.22232142857143,68.12857142857143,2183.7,82.22232142857143,68.12857142857143,2284.2,82.22232142857143,68.12857142857143,2385.2,82.22232142857143,68.12857142857143,2488.7,82.22232142857143,68.12857142857143,2589.6,82.22232142857143,68.12857142857143,2690.6,82.22232142857143,68.12857142857143,2791.1,82.22232142857143,68.12857142857143,2897.2,82.22232142857143,68.12857142857143,3001.4,82.22232142857143,68.12857142857143,3106.2,82.22232142857143,68.12857142857143,3208.2,82.22232142857143,68.12857142857143,3323.6,82.22232142857143,68.12857142857143,3427.3,82.22232142857143,68.12857142857143,3529.1,82.22232142857143,68.12857142857143,3641.1,82.22232142857143,68.12857142857143,3741.8,82.22232142857143,68.12857142857143,3850.5,82.22232142857143,68.12857142857143,3957.5,82.22232142857143,68.12857142857143,4058.8,82.22232142857143,68.12857142857143,4164.2,82.22232142857143,68.12857142857143,4270.3,82.22232142857143,68.12857142857143,4371.3,82.22232142857143,68.12857142857143,4479.7,82.22232142857143,68.12857142857143,4598.9,82.22232142857143,68.12857142857143,4713.2,82.22232142857143,68.12857142857143,4816.5,82.22232142857143,68.12857142857143,4919.5]","[1796,1796,1000,0,796,""smooth"",""up"",""up"",""good_move"",5587,3790.1,2896.2,1796.9,893.9,""smooth"",""up"",""up"",""good_move"",8942.4,3354.9,2369.1,5587.5,985.8,""oops"",""left"",""down"",""bad_move"",12473.8,3530.8,2935.5,8943,595.3,""smooth"",""left"",""left"",""good_move"",18208.1,5733.4,1710.2,16024,474,""smooth"",""up"",""up"",""good_move"",20737,2528.2,1820.2,18208.8,708,""smooth"",""left"",""left"",""good_move""]"
"12660","","<div style=""width:500px;"">
  <p>What determined the result of this run?</p>
  </div>","52","html-slider-response","69","1963934","0.0-7.0-1.11","66","1","2025-07-30 08:55:19","36c45c0696341be0efffe67d72a12abb","102.66.181.4","Mozilla/5.0 (Windows NT 10.0; Win64; x64) AppleWebKit/537.36 (KHTML, like Gecko) Chrome/138.0.0.0 Safari/537.36 Edg/138.0.0.0","WebKit","Edge","138.0.0.0","Windows","10.0","https://app.prolific.com/","en-US,en;q=0.9","67d0052a3f36525d24f021be","687a19d2168e237449fb8af4","6889dbcad0c4cd7e646c2cc3","0","67d0052a3f36525d24f021be","0","2025-07-30T09:28:04.697Z","","","","AttribQ","","","","","","","","","","","50","","","","","","","","","","","","","","","","","","","","","","","","","","",""
"7790","","<div style=""width:500px;"">
  <p>How much control did you have over the ball?</p>
  </div>","46","html-slider-response","70","1971726","0.0-7.0-2.11","66","1","2025-07-30 08:55:19","36c45c0696341be0efffe67d72a12abb","102.66.181.4","Mozilla/5.0 (Windows NT 10.0; Win64; x64) AppleWebKit/537.36 (KHTML, like Gecko) Chrome/138.0.0.0 Safari/537.36 Edg/138.0.0.0","WebKit","Edge","138.0.0.0","Windows","10.0","https://app.prolific.com/","en-US,en;q=0.9","67d0052a3f36525d24f021be","687a19d2168e237449fb8af4","6889dbcad0c4cd7e646c2cc3","0","67d0052a3f36525d24f021be","0","2025-07-30T09:28:12.490Z","","","","ControlQ","","","","","","","","","","","50","","","","","","","","","","","","","","","","","","","","","","","","","","",""
"11275","","<div style=""width:500px;"">
  <p>How would you describe your current emotional state?</p>
  </div>","49","html-slider-response","71","1983005","0.0-7.0-3.11","66","1","2025-07-30 08:55:19","36c45c0696341be0efffe67d72a12abb","102.66.181.4","Mozilla/5.0 (Windows NT 10.0; Win64; x64) AppleWebKit/537.36 (KHTML, like Gecko) Chrome/138.0.0.0 Safari/537.36 Edg/138.0.0.0","WebKit","Edge","138.0.0.0","Windows","10.0","https://app.prolific.com/","en-US,en;q=0.9","67d0052a3f36525d24f021be","687a19d2168e237449fb8af4","6889dbcad0c4cd7e646c2cc3","0","67d0052a3f36525d24f021be","0","2025-07-30T09:28:23.768Z","","","","StressQ","","","","","","","","","","","50","","","","","","","","","","","","","","","","","","","","","","","","","","",""
"8757","","<div style=""width:500px;"">
  <p>What best describes how you currently feel?</p>
  </div>","60","html-slider-response","72","1991763","0.0-7.0-4.11","66","1","2025-07-30 08:55:19","36c45c0696341be0efffe67d72a12abb","102.66.181.4","Mozilla/5.0 (Windows NT 10.0; Win64; x64) AppleWebKit/537.36 (KHTML, like Gecko) Chrome/138.0.0.0 Safari/537.36 Edg/138.0.0.0","WebKit","Edge","138.0.0.0","Windows","10.0","https://app.prolific.com/","en-US,en;q=0.9","67d0052a3f36525d24f021be","687a19d2168e237449fb8af4","6889dbcad0c4cd7e646c2cc3","0","67d0052a3f36525d24f021be","0","2025-07-30T09:28:32.526Z","","","","MotivationQ","","","","","","","","","","","50","","","","","","","","","","","","","","","","","","","","","","","","","","",""
"","","","","ctl-task-cpt","73","2025946","0.0-7.0-0.12","66","1","2025-07-30 08:55:19","36c45c0696341be0efffe67d72a12abb","102.66.181.4","Mozilla/5.0 (Windows NT 10.0; Win64; x64) AppleWebKit/537.36 (KHTML, like Gecko) Chrome/138.0.0.0 Safari/537.36 Edg/138.0.0.0","WebKit","Edge","138.0.0.0","Windows","10.0","https://app.prolific.com/","en-US,en;q=0.9","67d0052a3f36525d24f021be","687a19d2168e237449fb8af4","6889dbcad0c4cd7e646c2cc3","0","67d0052a3f36525d24f021be","0","2025-07-30T09:29:06.709Z","","","","","","","","","","","","","","","","win-only","0","g1:NW,g2:SE","0.8","13","0","1993757.3","1833.1","6843.5","31157.8","1","4","4","6","2","4","4","7","3","0.05303030303030303","3852.1","3000","860","[""down"",""right""]","{""num_key_presses"":8,""num_perfect"":6,""num_errors"":0,""num_randdir"":2,""num_randdir_good_moves"":1,""num_whilered"":0,""num_whileblue"":0,""num_blue"":0,""num_good_moves"":7}","[292.22232142857143,293.12857142857143,0.2,292.22232142857143,293.12857142857143,103.8,292.22232142857143,293.12857142857143,210.3,292.22232142857143,293.12857142857143,314.8,292.22232142857143,293.12857142857143,418.4,292.22232142857143,293.12857142857143,530.7,292.22232142857143,293.12857142857143,632.1,292.22232142857143,293.12857142857143,733.4,292.22232142857143,293.12857142857143,838.1,292.22232142857143,293.12857142857143,946.2,258.22232142857143,238.12857142857143,1048.5,212.22232142857143,181.12857142857143,1153.1,212.22232142857143,181.12857142857143,1259.9,212.22232142857143,181.12857142857143,1361.4,212.22232142857143,181.12857142857143,1465.7,181.22232142857143,138.12857142857143,1567.6,137.22232142857143,85.12857142857143,1675.7,128.22232142857143,73.12857142857143,1779.1,127.22232142857143,72.12857142857143,1893.1,127.22232142857143,72.12857142857143,2001.2,127.22232142857143,72.12857142857143,2106.4,127.22232142857143,72.12857142857143,2217.6,254.22232142857143,161.12857142857143,2324.9,315.22232142857143,249.12857142857143,2425,317.22232142857143,269.12857142857143,2530,317.22232142857143,269.12857142857143,2630.5,317.22232142857143,269.12857142857143,2737.3,378.22232142857143,323.12857142857143,2844.6,522.2223214285714,457.12857142857143,2953.3,556.2223214285714,528.1285714285714,3061.4,562.2223214285714,561.1285714285714,3167.9,562.2223214285714,563.1285714285714,3268.6,558.2223214285714,567.1285714285714,3374.2,553.2223214285714,569.1285714285714,3481.1,553.2223214285714,569.1285714285714,3592.9,553.2223214285714,569.1285714285714,3693.6,553.2223214285714,569.1285714285714,3803.2,553.2223214285714,569.1285714285714,3905.7,553.2223214285714,569.1285714285714,4017.9,553.2223214285714,569.1285714285714,4119,553.2223214285714,569.1285714285714,4222.4,553.2223214285714,569.1285714285714,4326.9,553.2223214285714,569.1285714285714,4431.3,553.2223214285714,569.1285714285714,4541.7,553.2223214285714,569.1285714285714,4643,553.2223214285714,569.1285714285714,4751.6,553.2223214285714,569.1285714285714,4860.5,553.2223214285714,569.1285714285714,4972.7]","[1842.7,1842.7,1000,0,842.7,""smooth"",""down"",""down"",""good_move"",5292.2,3448.9,2890.7,1843.3,558.2,""smooth"",""down"",""down"",""good_move"",7738.2,2445.7,1832.8,5292.5,612.9,""smooth"",""right"",""right"",""good_move"",10851.8,3112.8,2583.4,7739,529.4,""smooth"",""right"",""right"",""good_move"",14122.3,3270.2,2749.6,10852.2,520.5,""oops"",""right"",""down"",""good_move"",17883.8,3760.8,3237.9,14123,522.9,""oops"",""right"",""up"",""bad_move"",20714.6,2830.4,2256.6,17884.2,573.8,""smooth"",""right"",""right"",""good_move"",24199.7,3484.7,2954.3,20715,530.4,""smooth"",""down"",""down"",""good_move""]"
"6319","","<div style=""width:500px;"">
  <p>What determined the result of this run?</p>
  </div>","50","html-slider-response","74","2032268","0.0-7.0-1.12","66","1","2025-07-30 08:55:19","36c45c0696341be0efffe67d72a12abb","102.66.181.4","Mozilla/5.0 (Windows NT 10.0; Win64; x64) AppleWebKit/537.36 (KHTML, like Gecko) Chrome/138.0.0.0 Safari/537.36 Edg/138.0.0.0","WebKit","Edge","138.0.0.0","Windows","10.0","https://app.prolific.com/","en-US,en;q=0.9","67d0052a3f36525d24f021be","687a19d2168e237449fb8af4","6889dbcad0c4cd7e646c2cc3","0","67d0052a3f36525d24f021be","0","2025-07-30T09:29:13.031Z","","","","AttribQ","","","","","","","","","","","50","","","","","","","","","","","","","","","","","","","","","","","","","","",""
"8094","","<div style=""width:500px;"">
  <p>How much control did you have over the ball?</p>
  </div>","47","html-slider-response","75","2040364","0.0-7.0-2.12","66","1","2025-07-30 08:55:19","36c45c0696341be0efffe67d72a12abb","102.66.181.4","Mozilla/5.0 (Windows NT 10.0; Win64; x64) AppleWebKit/537.36 (KHTML, like Gecko) Chrome/138.0.0.0 Safari/537.36 Edg/138.0.0.0","WebKit","Edge","138.0.0.0","Windows","10.0","https://app.prolific.com/","en-US,en;q=0.9","67d0052a3f36525d24f021be","687a19d2168e237449fb8af4","6889dbcad0c4cd7e646c2cc3","0","67d0052a3f36525d24f021be","0","2025-07-30T09:29:21.128Z","","","","ControlQ","","","","","","","","","","","50","","","","","","","","","","","","","","","","","","","","","","","","","","",""
"6878","","<div style=""width:500px;"">
  <p>How would you describe your current emotional state?</p>
  </div>","50","html-slider-response","76","2047247","0.0-7.0-3.12","66","1","2025-07-30 08:55:19","36c45c0696341be0efffe67d72a12abb","102.66.181.4","Mozilla/5.0 (Windows NT 10.0; Win64; x64) AppleWebKit/537.36 (KHTML, like Gecko) Chrome/138.0.0.0 Safari/537.36 Edg/138.0.0.0","WebKit","Edge","138.0.0.0","Windows","10.0","https://app.prolific.com/","en-US,en;q=0.9","67d0052a3f36525d24f021be","687a19d2168e237449fb8af4","6889dbcad0c4cd7e646c2cc3","0","67d0052a3f36525d24f021be","0","2025-07-30T09:29:28.010Z","","","","StressQ","","","","","","","","","","","50","","","","","","","","","","","","","","","","","","","","","","","","","","",""
"10362","","<div style=""width:500px;"">
  <p>What best describes how you currently feel?</p>
  </div>","68","html-slider-response","77","2057611","0.0-7.0-4.12","66","1","2025-07-30 08:55:19","36c45c0696341be0efffe67d72a12abb","102.66.181.4","Mozilla/5.0 (Windows NT 10.0; Win64; x64) AppleWebKit/537.36 (KHTML, like Gecko) Chrome/138.0.0.0 Safari/537.36 Edg/138.0.0.0","WebKit","Edge","138.0.0.0","Windows","10.0","https://app.prolific.com/","en-US,en;q=0.9","67d0052a3f36525d24f021be","687a19d2168e237449fb8af4","6889dbcad0c4cd7e646c2cc3","0","67d0052a3f36525d24f021be","0","2025-07-30T09:29:38.375Z","","","","MotivationQ","","","","","","","","","","","50","","","","","","","","","","","","","","","","","","","","","","","","","","",""
