"rt","response_timestamp","stimulus","response","trial_type","trial_index","time_elapsed","internal_node_id","run_id","condition","recorded_at","source_code_version","ip","user_agent","device","browser","browser_version","platform","platform_version","referer","accept_language","PROLIFIC_PID","STUDY_ID","SESSION_ID","BATCH","prolific_id","batch","realtime","success","question_order","question_id","eventType","responses","item_order","radio_event_ids","radio_event_times","key_event_times","mouse_event_times","straightlining","zigzagging","honeypot","view_history","slider_start","which_type","canvas_config","goals_layout","control_level","trial_number","tutorial_trial_number","trial_start_time","phase1_start_time","phase2_start_time","phase3_start_time","goal_1_value","goal_1_distance","goal_2_value","goal_2_distance","goal_selected","outcome","outcome_total","participant_final_score","participant_initial_score","participant_final_score_prop","goal_choice_rt","allocated_time","allocated_time_remaining","goal_direction","counts","mouse_movements","key_presses"
"16393","1754472728052","<p style='font-size:40px;line-height:1.25'><strong>Welcome to the experiment!</strong></p><p style='font-size:1.1em;line-height:1.25'>Thank you for participanting in our experiment again! You will be asked to play the Dysfunctional Ball Game again. We will briefly recap the rules before we start.</p><p style='font-size:1.1em;line-height:1.25'>Press <strong>Next</strong> to continue.</p>","0","custom-html-button-response","0","16397","0.0-0.0","167","1","2025-08-06 09:31:48","36c45c0696341be0efffe67d72a12abb","41.150.32.198","Mozilla/5.0 (Windows NT 10.0; Win64; x64) AppleWebKit/537.36 (KHTML, like Gecko) Chrome/138.0.0.0 Safari/537.36 Edg/138.0.0.0","WebKit","Edge","138.0.0.0","Windows","10.0","https://app.prolific.com/","en-GB,en;q=0.9,en-US;q=0.8,en-ZA;q=0.7","67d057fe81435b77cf5a4681","687a1a965b9f5b85a264363e","689320a1bdf7b5a03253ff17","1","67d057fe81435b77cf5a4681","1","2025-08-06T09:32:08.054Z","","","","","","","","","","","","","","","","","","","","","","","","","","","","","","","","","","","","","","","","","",""
"101912","","","","fullscreen","1","119315","0.0-1.0","167","1","2025-08-06 09:31:48","36c45c0696341be0efffe67d72a12abb","41.150.32.198","Mozilla/5.0 (Windows NT 10.0; Win64; x64) AppleWebKit/537.36 (KHTML, like Gecko) Chrome/138.0.0.0 Safari/537.36 Edg/138.0.0.0","WebKit","Edge","138.0.0.0","Windows","10.0","https://app.prolific.com/","en-GB,en;q=0.9,en-US;q=0.8,en-ZA;q=0.7","67d057fe81435b77cf5a4681","687a1a965b9f5b85a264363e","689320a1bdf7b5a03253ff17","1","67d057fe81435b77cf5a4681","1","","true","","","","","","","","","","","","","","","","","","","","","","","","","","","","","","","","","","","","","","","","",""
"9321","1754472840295"," <p style='font-size:1.1em;line-height:1.25'>Thank you for closing all other tabs.</p><p style='font-size:1.1em;line-height:1.25'>We will now invite you to fill in some questionnaires, before starting the game.<br>This will take about 5 minutes.<br></p><p style='font-size:1.1em;line-height:1.25'>Press the <strong>Next</strong> button to continue.</p>","0","custom-html-button-response","2","128638","0.0-2.0","167","1","2025-08-06 09:31:48","36c45c0696341be0efffe67d72a12abb","41.150.32.198","Mozilla/5.0 (Windows NT 10.0; Win64; x64) AppleWebKit/537.36 (KHTML, like Gecko) Chrome/138.0.0.0 Safari/537.36 Edg/138.0.0.0","WebKit","Edge","138.0.0.0","Windows","10.0","https://app.prolific.com/","en-GB,en;q=0.9,en-US;q=0.8,en-ZA;q=0.7","67d057fe81435b77cf5a4681","687a1a965b9f5b85a264363e","689320a1bdf7b5a03253ff17","1","67d057fe81435b77cf5a4681","1","2025-08-06T09:34:00.296Z","","","","","","","","","","","","","","","","","","","","","","","","","","","","","","","","","","","","","","","","","",""
"5288","","","{""assigned_sex"":""female""}","survey-multi-choice","3","133930","0.0-3.0-0.0","167","1","2025-08-06 09:31:48","36c45c0696341be0efffe67d72a12abb","41.150.32.198","Mozilla/5.0 (Windows NT 10.0; Win64; x64) AppleWebKit/537.36 (KHTML, like Gecko) Chrome/138.0.0.0 Safari/537.36 Edg/138.0.0.0","WebKit","Edge","138.0.0.0","Windows","10.0","https://app.prolific.com/","en-GB,en;q=0.9,en-US;q=0.8,en-ZA;q=0.7","67d057fe81435b77cf5a4681","687a1a965b9f5b85a264363e","689320a1bdf7b5a03253ff17","1","67d057fe81435b77cf5a4681","1","","","[0]","0","demographics","","","","","","","","","","","","","","","","","","","","","","","","","","","","","","","","","","","","","",""
"7274","1754472852862","<p style='font-size:1.1em;line-height:1.25'>In the following, we will perform a baseline assessment. This means that we will ask you a few questions relating to your experiences over the past month.<br></p><p style='font-size:1.1em;line-height:1.25'>Press the <strong>Next</strong> button to continue.</p>","0","custom-html-button-response","4","141205","0.0-4.0-0.0","167","1","2025-08-06 09:31:48","36c45c0696341be0efffe67d72a12abb","41.150.32.198","Mozilla/5.0 (Windows NT 10.0; Win64; x64) AppleWebKit/537.36 (KHTML, like Gecko) Chrome/138.0.0.0 Safari/537.36 Edg/138.0.0.0","WebKit","Edge","138.0.0.0","Windows","10.0","https://app.prolific.com/","en-GB,en;q=0.9,en-US;q=0.8,en-ZA;q=0.7","67d057fe81435b77cf5a4681","687a1a965b9f5b85a264363e","689320a1bdf7b5a03253ff17","1","67d057fe81435b77cf5a4681","1","2025-08-06T09:34:12.863Z","","","","","","","","","","","","","","","","","","","","","","","","","","","","","","","","","","","","","","","","","",""
"43553","","","","survey-template","5","184763","0.0-4.0-1.0","167","1","2025-08-06 09:31:48","36c45c0696341be0efffe67d72a12abb","41.150.32.198","Mozilla/5.0 (Windows NT 10.0; Win64; x64) AppleWebKit/537.36 (KHTML, like Gecko) Chrome/138.0.0.0 Safari/537.36 Edg/138.0.0.0","WebKit","Edge","138.0.0.0","Windows","10.0","https://app.prolific.com/","en-GB,en;q=0.9,en-US;q=0.8,en-ZA;q=0.7","67d057fe81435b77cf5a4681","687a1a965b9f5b85a264363e","689320a1bdf7b5a03253ff17","1","67d057fe81435b77cf5a4681","1","2025-08-06T09:34:56.420Z","","","","pss","{""Q01"":""3"",""Q02"":""4"",""Q03"":""3"",""Q04"":""0"",""Q05"":""1"",""Q06"":""2"",""Q07"":""2"",""Q08"":""1"",""Q09"":""3"",""Q10"":""2""}","[0,1,2,3,4,5,6,7,8,9]","[""Q01"",""Q02"",""Q03"",""Q04"",""Q05"",""Q06"",""Q07"",""Q08"",""Q09"",""Q10""]","[6230.099999964237,9480.599999964237,12848.899999976158,16013.5,19519.30000001192,24303.69999998808,27644.30000001192,30154.599999964237,38829.80000001192,41911.59999996424]","[]","[0.30000001192092896,6230.099999964237,9480.599999964237,12848.899999976158,16013.5,19519.30000001192,24303.69999998808,27644.30000001192,30154.599999964237,38829.80000001192,41911.59999996424,43551.69999998808]","0.5","0.7777777777777778","0","","","","","","","","","","","","","","","","","","","","","","","","","","","","",""
"4117","1754472900538","<p style='font-size:1.1em;line-height:1.25'>Thank you for your answers! Now we will ask you a few more questions relating to your feelings in the last 24 hours.<br></p><p style='font-size:1.1em;line-height:1.25'>Press the <strong>Next</strong> button to continue.</p>","0","custom-html-button-response","6","188881","0.0-4.0-2.0","167","1","2025-08-06 09:31:48","36c45c0696341be0efffe67d72a12abb","41.150.32.198","Mozilla/5.0 (Windows NT 10.0; Win64; x64) AppleWebKit/537.36 (KHTML, like Gecko) Chrome/138.0.0.0 Safari/537.36 Edg/138.0.0.0","WebKit","Edge","138.0.0.0","Windows","10.0","https://app.prolific.com/","en-GB,en;q=0.9,en-US;q=0.8,en-ZA;q=0.7","67d057fe81435b77cf5a4681","687a1a965b9f5b85a264363e","689320a1bdf7b5a03253ff17","1","67d057fe81435b77cf5a4681","1","2025-08-06T09:35:00.538Z","","","","","","","","","","","","","","","","","","","","","","","","","","","","","","","","","","","","","","","","","",""
"96341.5","","","","survey-template","7","285229","0.0-4.0-3.0","167","1","2025-08-06 09:31:48","36c45c0696341be0efffe67d72a12abb","41.150.32.198","Mozilla/5.0 (Windows NT 10.0; Win64; x64) AppleWebKit/537.36 (KHTML, like Gecko) Chrome/138.0.0.0 Safari/537.36 Edg/138.0.0.0","WebKit","Edge","138.0.0.0","Windows","10.0","https://app.prolific.com/","en-GB,en;q=0.9,en-US;q=0.8,en-ZA;q=0.7","67d057fe81435b77cf5a4681","687a1a965b9f5b85a264363e","689320a1bdf7b5a03253ff17","1","67d057fe81435b77cf5a4681","1","2025-08-06T09:36:36.886Z","","","","drsp","{""Q01"":""2"",""Q02"":""1"",""Q03"":""0"",""Q04"":""2"",""Q05"":""1"",""Q06"":""0"",""Q07"":""1"",""Q08"":""1"",""Q09"":""2"",""Q10"":""1"",""Q11"":""1"",""Q12"":""3"",""Q13"":""5"",""Q14"":""4"",""Q15"":""2"",""Q16"":""1"",""Q17"":""4"",""Q18"":""1"",""Q19"":""1"",""Q20"":""0"",""Q21"":""0"",""Q22"":""0""}","[0,1,2,3,4,5,6,7,8,9,10,11,12,13,14,15,16,17,18,19,20,21]","[""Q01"",""Q02"",""Q03"",""Q04"",""Q05"",""Q05"",""Q06"",""Q07"",""Q07"",""Q08"",""Q09"",""Q09"",""Q10"",""Q10"",""Q11"",""Q12"",""Q13"",""Q14"",""Q15"",""Q16"",""Q17"",""Q17"",""Q18"",""Q19"",""Q20"",""Q21"",""Q20"",""Q22""]","[4162.600000023842,6515.700000047684,10067.800000011921,11416,13716.700000047684,13720.800000011921,16631.600000023842,20219.100000023842,20563.900000035763,22934,25742.200000047684,26584,38185.90000003576,39369.90000003576,40509,42426.5,45309,46882.30000001192,52265,62044.90000003576,64466.700000047684,65595.80000001192,67338.20000004768,70561.10000002384,77288.60000002384,81775.10000002384,83444.60000002384,94464.40000003576]","[]","[0.30000001192092896,4162.600000023842,6515.700000047684,8540.400000035763,10067.800000011921,11416,13716.700000047684,13720.800000011921,16631.600000023842,20219.100000023842,20563.900000035763,22934,25742.200000047684,26584,34885.10000002384,38185.90000003576,39369.90000003576,40509,42426.5,45309,46882.30000001192,52265,60710,62044.90000003576,64466.700000047684,65595.80000001192,67338.20000004768,70561.10000002384,77288.60000002384,81775.10000002384,83444.60000002384,89653.80000001192,94464.40000003576,96339.10000002384]","0.4090909090909091","0.47619047619047616","0","","","","","","","","","","","","","","","","","","","","","","","","","","","","",""
"10941.399999976158","","","","survey-template","8","296173","0.0-4.0-4.0","167","1","2025-08-06 09:31:48","36c45c0696341be0efffe67d72a12abb","41.150.32.198","Mozilla/5.0 (Windows NT 10.0; Win64; x64) AppleWebKit/537.36 (KHTML, like Gecko) Chrome/138.0.0.0 Safari/537.36 Edg/138.0.0.0","WebKit","Edge","138.0.0.0","Windows","10.0","https://app.prolific.com/","en-GB,en;q=0.9,en-US;q=0.8,en-ZA;q=0.7","67d057fe81435b77cf5a4681","687a1a965b9f5b85a264363e","689320a1bdf7b5a03253ff17","1","67d057fe81435b77cf5a4681","1","2025-08-06T09:36:47.830Z","","","","stress","{""Q01"":""2"",""Q02"":""2"",""Q03"":""1""}","[0,1,2]","[""Q01"",""Q02"",""Q03""]","[4236.300000011921,6309.199999988079,9345.899999976158]","[]","[4236.300000011921,6309.199999988079,9345.899999976158,10940.800000011921]","0.3333333333333333","0.5","0","","","","","","","","","","","","","","","","","","","","","","","","","","","","",""
"34952","","","","instructions","9","331127","0.0-5.0-0.0","167","1","2025-08-06 09:31:48","36c45c0696341be0efffe67d72a12abb","41.150.32.198","Mozilla/5.0 (Windows NT 10.0; Win64; x64) AppleWebKit/537.36 (KHTML, like Gecko) Chrome/138.0.0.0 Safari/537.36 Edg/138.0.0.0","WebKit","Edge","138.0.0.0","Windows","10.0","https://app.prolific.com/","en-GB,en;q=0.9,en-US;q=0.8,en-ZA;q=0.7","67d057fe81435b77cf5a4681","687a1a965b9f5b85a264363e","689320a1bdf7b5a03253ff17","1","67d057fe81435b77cf5a4681","1","","","","","","","","","","","","","","","[{""page_index"":0,""viewing_time"":34952}]","","","","","","","","","","","","","","","","","","","","","","","","","","","",""
"11093","","<p>Before you start with this game please answer the following three questions yourself. </p>
  <p>Through this game, we measure several aspects of your cognitive performance, such as reaction times, multi-tasking capabilities </p>
  <p>and the ability to assess the situation you are in.</p>
  <p></p>
  <p><b>How good do you usually are in such tasks?</b></p>","98","html-slider-response","10","342224","0.0-6.0-0.0","167","1","2025-08-06 09:31:48","36c45c0696341be0efffe67d72a12abb","41.150.32.198","Mozilla/5.0 (Windows NT 10.0; Win64; x64) AppleWebKit/537.36 (KHTML, like Gecko) Chrome/138.0.0.0 Safari/537.36 Edg/138.0.0.0","WebKit","Edge","138.0.0.0","Windows","10.0","https://app.prolific.com/","en-GB,en;q=0.9,en-US;q=0.8,en-ZA;q=0.7","67d057fe81435b77cf5a4681","687a1a965b9f5b85a264363e","689320a1bdf7b5a03253ff17","1","67d057fe81435b77cf5a4681","1","2025-08-06T09:37:33.881Z","","","","PreSkillQ","","","","","","","","","","","50","","","","","","","","","","","","","","","","","","","","","","","","","","",""
"6123","","<div style=""width:500px;"">
  <p>How well do you think you will perform in this task compared to other participants?</p>
  </div>","82","html-slider-response","11","348349","0.0-6.0-1.0","167","1","2025-08-06 09:31:48","36c45c0696341be0efffe67d72a12abb","41.150.32.198","Mozilla/5.0 (Windows NT 10.0; Win64; x64) AppleWebKit/537.36 (KHTML, like Gecko) Chrome/138.0.0.0 Safari/537.36 Edg/138.0.0.0","WebKit","Edge","138.0.0.0","Windows","10.0","https://app.prolific.com/","en-GB,en;q=0.9,en-US;q=0.8,en-ZA;q=0.7","67d057fe81435b77cf5a4681","687a1a965b9f5b85a264363e","689320a1bdf7b5a03253ff17","1","67d057fe81435b77cf5a4681","1","2025-08-06T09:37:40.006Z","","","","PrePerfQ","","","","","","","","","","","50","","","","","","","","","","","","","","","","","","","","","","","","","","",""
"11458","","<div style=""width:500px;"">
  <p>What best describes how you currently feel?</p>
  </div>","95","html-slider-response","12","359809","0.0-6.0-2.0","167","1","2025-08-06 09:31:48","36c45c0696341be0efffe67d72a12abb","41.150.32.198","Mozilla/5.0 (Windows NT 10.0; Win64; x64) AppleWebKit/537.36 (KHTML, like Gecko) Chrome/138.0.0.0 Safari/537.36 Edg/138.0.0.0","WebKit","Edge","138.0.0.0","Windows","10.0","https://app.prolific.com/","en-GB,en;q=0.9,en-US;q=0.8,en-ZA;q=0.7","67d057fe81435b77cf5a4681","687a1a965b9f5b85a264363e","689320a1bdf7b5a03253ff17","1","67d057fe81435b77cf5a4681","1","2025-08-06T09:37:51.466Z","","","","PreMotivationQ","","","","","","","","","","","50","","","","","","","","","","","","","","","","","","","","","","","","","","",""
"","","","","ctl-task-cpt","13","390718","0.0-7.0-0.0","167","1","2025-08-06 09:31:48","36c45c0696341be0efffe67d72a12abb","41.150.32.198","Mozilla/5.0 (Windows NT 10.0; Win64; x64) AppleWebKit/537.36 (KHTML, like Gecko) Chrome/138.0.0.0 Safari/537.36 Edg/138.0.0.0","WebKit","Edge","138.0.0.0","Windows","10.0","https://app.prolific.com/","en-GB,en;q=0.9,en-US;q=0.8,en-ZA;q=0.7","67d057fe81435b77cf5a4681","687a1a965b9f5b85a264363e","689320a1bdf7b5a03253ff17","1","67d057fe81435b77cf5a4681","1","2025-08-06T09:38:22.375Z","","","","","","","","","","","","","","","","win-only","2","g1:SE,g2:NW","1","1","0","363084.8","6432.3","11439.2","27890.9","1","4","8","6","1","1","-2","0","0","0","5006.9","3000","1040","[""down"",""right""]","{""num_key_presses"":6,""num_perfect"":3,""num_errors"":3,""num_randdir"":0,""num_randdir_good_moves"":0,""num_whilered"":0,""num_whileblue"":1,""num_blue"":1,""num_good_moves"":4}","[411.5714133126395,422.82142761775424,0.3,411.5714133126395,422.82142761775424,101.4,411.5714133126395,422.82142761775424,204.9,411.5714133126395,422.82142761775424,312,411.5714133126395,422.82142761775424,418,411.5714133126395,422.82142761775424,522.7,411.5714133126395,422.82142761775424,624,411.5714133126395,422.82142761775424,724.3,411.5714133126395,422.82142761775424,830,411.5714133126395,422.82142761775424,935.8,411.5714133126395,422.82142761775424,1035.9,411.5714133126395,422.82142761775424,1137.4,411.5714133126395,422.82142761775424,1239.6,411.5714133126395,422.82142761775424,1344.8,411.5714133126395,422.82142761775424,1451.1,411.5714133126395,422.82142761775424,1554.3,411.5714133126395,422.82142761775424,1660.5,411.5714133126395,422.82142761775424,1763.8,434.0714133126395,445.32142761775424,1871.7,451.5714133126395,466.57142761775424,1973.5,461.5714133126395,480.32142761775424,2075.5,470.3214133126395,491.57142761775424,2178.4,476.5714133126395,491.57142761775424,2283,477.8214133126395,491.57142761775424,2384.4,477.8214133126395,491.57142761775424,2488,477.8214133126395,491.57142761775424,2588,477.8214133126395,491.57142761775424,2692.8,477.8214133126395,491.57142761775424,2795.5,477.8214133126395,491.57142761775424,2902,477.8214133126395,491.57142761775424,3004.4,477.8214133126395,491.57142761775424,3104.9,477.8214133126395,491.57142761775424,3208.6,477.8214133126395,491.57142761775424,3310.1,477.8214133126395,491.57142761775424,3416.9,477.8214133126395,491.57142761775424,3521.9,477.8214133126395,491.57142761775424,3623.6,477.8214133126395,491.57142761775424,3723.9,477.8214133126395,491.57142761775424,3824.3,477.8214133126395,491.57142761775424,3925.4,477.8214133126395,491.57142761775424,4026.2,477.8214133126395,491.57142761775424,4127,477.8214133126395,491.57142761775424,4230.5,477.8214133126395,491.57142761775424,4335.6,477.8214133126395,491.57142761775424,4439,477.8214133126395,491.57142761775424,4547.9,480.3214133126395,491.57142761775424,4654.3,559.0714133126395,561.5714276177542,4757.4,571.5714133126395,571.5714276177542,4863.9,570.3214133126395,566.5714276177542,4965.1]","[1683.8,1683.8,1000,0,683.8,""smooth"",""right"",""right"",""good_move"",2249.4,565.3,2496.1,1684.2,-1930.9,""error"",""-"",""-"",""no_move"",7098.7,4849.1,2586.3,3250.6,1261.8,""smooth"",""right"",""right"",""good_move"",9955.4,2856.5,1966.7,7098.9,889.8,""while_blue"",""down"",""down"",""good_move"",10988.7,1032.9,2502.9,9955.8,-1470,""error"",""-"",""-"",""no_move"",16300.5,5311.6,3222.2,11997.9,1080.4,""smooth"",""down"",""down"",""good_move""]"
"6639","","<div style=""width:500px;"">
  <p>What determined the result of this run?</p>
  </div>","57","html-slider-response","14","397358","0.0-7.0-1.0","167","1","2025-08-06 09:31:48","36c45c0696341be0efffe67d72a12abb","41.150.32.198","Mozilla/5.0 (Windows NT 10.0; Win64; x64) AppleWebKit/537.36 (KHTML, like Gecko) Chrome/138.0.0.0 Safari/537.36 Edg/138.0.0.0","WebKit","Edge","138.0.0.0","Windows","10.0","https://app.prolific.com/","en-GB,en;q=0.9,en-US;q=0.8,en-ZA;q=0.7","67d057fe81435b77cf5a4681","687a1a965b9f5b85a264363e","689320a1bdf7b5a03253ff17","1","67d057fe81435b77cf5a4681","1","2025-08-06T09:38:29.016Z","","","","AttribQ","","","","","","","","","","","50","","","","","","","","","","","","","","","","","","","","","","","","","","",""
"6437","","<div style=""width:500px;"">
  <p>How much control did you have over the ball?</p>
  </div>","90","html-slider-response","15","403797","0.0-7.0-2.0","167","1","2025-08-06 09:31:48","36c45c0696341be0efffe67d72a12abb","41.150.32.198","Mozilla/5.0 (Windows NT 10.0; Win64; x64) AppleWebKit/537.36 (KHTML, like Gecko) Chrome/138.0.0.0 Safari/537.36 Edg/138.0.0.0","WebKit","Edge","138.0.0.0","Windows","10.0","https://app.prolific.com/","en-GB,en;q=0.9,en-US;q=0.8,en-ZA;q=0.7","67d057fe81435b77cf5a4681","687a1a965b9f5b85a264363e","689320a1bdf7b5a03253ff17","1","67d057fe81435b77cf5a4681","1","2025-08-06T09:38:35.454Z","","","","ControlQ","","","","","","","","","","","50","","","","","","","","","","","","","","","","","","","","","","","","","","",""
"8280","","<div style=""width:500px;"">
  <p>How would you describe your current emotional state?</p>
  </div>","29","html-slider-response","16","412079","0.0-7.0-3.0","167","1","2025-08-06 09:31:48","36c45c0696341be0efffe67d72a12abb","41.150.32.198","Mozilla/5.0 (Windows NT 10.0; Win64; x64) AppleWebKit/537.36 (KHTML, like Gecko) Chrome/138.0.0.0 Safari/537.36 Edg/138.0.0.0","WebKit","Edge","138.0.0.0","Windows","10.0","https://app.prolific.com/","en-GB,en;q=0.9,en-US;q=0.8,en-ZA;q=0.7","67d057fe81435b77cf5a4681","687a1a965b9f5b85a264363e","689320a1bdf7b5a03253ff17","1","67d057fe81435b77cf5a4681","1","2025-08-06T09:38:43.736Z","","","","StressQ","","","","","","","","","","","50","","","","","","","","","","","","","","","","","","","","","","","","","","",""
"5274","","<div style=""width:500px;"">
  <p>What best describes how you currently feel?</p>
  </div>","87","html-slider-response","17","417355","0.0-7.0-4.0","167","1","2025-08-06 09:31:48","36c45c0696341be0efffe67d72a12abb","41.150.32.198","Mozilla/5.0 (Windows NT 10.0; Win64; x64) AppleWebKit/537.36 (KHTML, like Gecko) Chrome/138.0.0.0 Safari/537.36 Edg/138.0.0.0","WebKit","Edge","138.0.0.0","Windows","10.0","https://app.prolific.com/","en-GB,en;q=0.9,en-US;q=0.8,en-ZA;q=0.7","67d057fe81435b77cf5a4681","687a1a965b9f5b85a264363e","689320a1bdf7b5a03253ff17","1","67d057fe81435b77cf5a4681","1","2025-08-06T09:38:49.012Z","","","","MotivationQ","","","","","","","","","","","50","","","","","","","","","","","","","","","","","","","","","","","","","","",""
"","","","","ctl-task-cpt","18","450914","0.0-7.0-0.1","167","1","2025-08-06 09:31:48","36c45c0696341be0efffe67d72a12abb","41.150.32.198","Mozilla/5.0 (Windows NT 10.0; Win64; x64) AppleWebKit/537.36 (KHTML, like Gecko) Chrome/138.0.0.0 Safari/537.36 Edg/138.0.0.0","WebKit","Edge","138.0.0.0","Windows","10.0","https://app.prolific.com/","en-GB,en;q=0.9,en-US;q=0.8,en-ZA;q=0.7","67d057fe81435b77cf5a4681","687a1a965b9f5b85a264363e","689320a1bdf7b5a03253ff17","1","67d057fe81435b77cf5a4681","1","2025-08-06T09:39:22.571Z","","","","","","","","","","","","","","","","win-only","3","g1:SW,g2:NE","0.9","2","0","420629.5","6169","11171.6","30548.4","1","4","4","6","2","-4","-7","0","0","0","5002.5","3000","-2325","[""up"",""right""]","{""num_key_presses"":9,""num_perfect"":2,""num_errors"":3,""num_randdir"":0,""num_randdir_good_moves"":0,""num_whilered"":4,""num_whileblue"":0,""num_blue"":1,""num_good_moves"":2}","[406.5714133126395,414.07142761775424,0.5,406.5714133126395,414.07142761775424,106,406.5714133126395,414.07142761775424,211,406.5714133126395,414.07142761775424,311.8,406.5714133126395,414.07142761775424,422.2,406.5714133126395,414.07142761775424,523.8,406.5714133126395,414.07142761775424,625,406.5714133126395,414.07142761775424,729.4,406.5714133126395,414.07142761775424,832.8,406.5714133126395,414.07142761775424,933.4,406.5714133126395,414.07142761775424,1039.1,406.5714133126395,414.07142761775424,1143.6,406.5714133126395,414.07142761775424,1244.5,406.5714133126395,414.07142761775424,1350,406.5714133126395,414.07142761775424,1457.9,406.5714133126395,414.07142761775424,1560.1,406.5714133126395,414.07142761775424,1661.5,406.5714133126395,414.07142761775424,1769.9,406.5714133126395,414.07142761775424,1873.4,406.5714133126395,414.07142761775424,1973.8,406.5714133126395,414.07142761775424,2074.6,406.5714133126395,414.07142761775424,2179.7,406.5714133126395,414.07142761775424,2282.3,406.5714133126395,414.07142761775424,2388.6,406.5714133126395,414.07142761775424,2494.5,406.5714133126395,414.07142761775424,2599.7,406.5714133126395,414.07142761775424,2706.9,406.5714133126395,414.07142761775424,2810.7,406.5714133126395,414.07142761775424,2913.6,406.5714133126395,414.07142761775424,3021.8,406.5714133126395,414.07142761775424,3126.9,406.5714133126395,407.82142761775424,3227,407.8214133126395,402.82142761775424,3328.3,410.3214133126395,401.57142761775424,3429.8,411.5714133126395,399.07142761775424,3532.9,411.5714133126395,399.07142761775424,3636.2,411.5714133126395,406.57142761775424,3738.6,410.3214133126395,405.32142761775424,3844.3,410.3214133126395,405.32142761775424,3950.3,410.3214133126395,405.32142761775424,4059.1,410.3214133126395,405.32142761775424,4161.4,410.3214133126395,405.32142761775424,4262.7,410.3214133126395,405.32142761775424,4364.9,410.3214133126395,405.32142761775424,4473.9,410.3214133126395,405.32142761775424,4576.9,410.3214133126395,405.32142761775424,4676.9,410.3214133126395,405.32142761775424,4778,410.3214133126395,405.32142761775424,4885.1,410.3214133126395,405.32142761775424,4989.2]","[345.3,345.3,1000,0,-654.7,""error"",""-"",""-"",""no_move"",666.5,320.9,1000,0,-333.5,""while_red"",""-"",""-"",""no_move"",863.3,517.7,1000,0,-136.7,""while_red"",""-"",""-"",""no_move"",1170.3,824.7,1000,0,170.3,""while_red"",""-"",""-"",""no_move"",7736.4,7390.9,2349.4,4724.8,662.3,""smooth"",""right"",""right"",""good_move"",8013.6,276.7,2341.7,7736.9,-2065,""error"",""-"",""-"",""no_move"",8233.1,219.3,2341.7,7736.9,-1845.5,""while_red"",""-"",""-"",""no_move"",12843.2,4829.4,3156.9,9019,667.3,""smooth"",""right"",""right"",""good_move"",13343.5,500.2,2695.8,12843.3,-2195.6,""error"",""-"",""-"",""no_move""]"
"7027","","<div style=""width:500px;"">
  <p>What determined the result of this run?</p>
  </div>","76","html-slider-response","19","457942","0.0-7.0-1.1","167","1","2025-08-06 09:31:48","36c45c0696341be0efffe67d72a12abb","41.150.32.198","Mozilla/5.0 (Windows NT 10.0; Win64; x64) AppleWebKit/537.36 (KHTML, like Gecko) Chrome/138.0.0.0 Safari/537.36 Edg/138.0.0.0","WebKit","Edge","138.0.0.0","Windows","10.0","https://app.prolific.com/","en-GB,en;q=0.9,en-US;q=0.8,en-ZA;q=0.7","67d057fe81435b77cf5a4681","687a1a965b9f5b85a264363e","689320a1bdf7b5a03253ff17","1","67d057fe81435b77cf5a4681","1","2025-08-06T09:39:29.599Z","","","","AttribQ","","","","","","","","","","","50","","","","","","","","","","","","","","","","","","","","","","","","","","",""
"8955","","<div style=""width:500px;"">
  <p>How much control did you have over the ball?</p>
  </div>","84","html-slider-response","20","466898","0.0-7.0-2.1","167","1","2025-08-06 09:31:48","36c45c0696341be0efffe67d72a12abb","41.150.32.198","Mozilla/5.0 (Windows NT 10.0; Win64; x64) AppleWebKit/537.36 (KHTML, like Gecko) Chrome/138.0.0.0 Safari/537.36 Edg/138.0.0.0","WebKit","Edge","138.0.0.0","Windows","10.0","https://app.prolific.com/","en-GB,en;q=0.9,en-US;q=0.8,en-ZA;q=0.7","67d057fe81435b77cf5a4681","687a1a965b9f5b85a264363e","689320a1bdf7b5a03253ff17","1","67d057fe81435b77cf5a4681","1","2025-08-06T09:39:38.555Z","","","","ControlQ","","","","","","","","","","","50","","","","","","","","","","","","","","","","","","","","","","","","","","",""
"9846","","<div style=""width:500px;"">
  <p>How would you describe your current emotional state?</p>
  </div>","44","html-slider-response","21","476746","0.0-7.0-3.1","167","1","2025-08-06 09:31:48","36c45c0696341be0efffe67d72a12abb","41.150.32.198","Mozilla/5.0 (Windows NT 10.0; Win64; x64) AppleWebKit/537.36 (KHTML, like Gecko) Chrome/138.0.0.0 Safari/537.36 Edg/138.0.0.0","WebKit","Edge","138.0.0.0","Windows","10.0","https://app.prolific.com/","en-GB,en;q=0.9,en-US;q=0.8,en-ZA;q=0.7","67d057fe81435b77cf5a4681","687a1a965b9f5b85a264363e","689320a1bdf7b5a03253ff17","1","67d057fe81435b77cf5a4681","1","2025-08-06T09:39:48.403Z","","","","StressQ","","","","","","","","","","","50","","","","","","","","","","","","","","","","","","","","","","","","","","",""
"5187","","<div style=""width:500px;"">
  <p>What best describes how you currently feel?</p>
  </div>","73","html-slider-response","22","481935","0.0-7.0-4.1","167","1","2025-08-06 09:31:48","36c45c0696341be0efffe67d72a12abb","41.150.32.198","Mozilla/5.0 (Windows NT 10.0; Win64; x64) AppleWebKit/537.36 (KHTML, like Gecko) Chrome/138.0.0.0 Safari/537.36 Edg/138.0.0.0","WebKit","Edge","138.0.0.0","Windows","10.0","https://app.prolific.com/","en-GB,en;q=0.9,en-US;q=0.8,en-ZA;q=0.7","67d057fe81435b77cf5a4681","687a1a965b9f5b85a264363e","689320a1bdf7b5a03253ff17","1","67d057fe81435b77cf5a4681","1","2025-08-06T09:39:53.592Z","","","","MotivationQ","","","","","","","","","","","50","","","","","","","","","","","","","","","","","","","","","","","","","","",""
"","","","","ctl-task-cpt","23","642818","0.0-7.0-0.2","167","1","2025-08-06 09:31:48","36c45c0696341be0efffe67d72a12abb","41.150.32.198","Mozilla/5.0 (Windows NT 10.0; Win64; x64) AppleWebKit/537.36 (KHTML, like Gecko) Chrome/138.0.0.0 Safari/537.36 Edg/138.0.0.0","WebKit","Edge","138.0.0.0","Windows","10.0","https://app.prolific.com/","en-GB,en;q=0.9,en-US;q=0.8,en-ZA;q=0.7","67d057fe81435b77cf5a4681","687a1a965b9f5b85a264363e","689320a1bdf7b5a03253ff17","1","67d057fe81435b77cf5a4681","1","2025-08-06T09:42:34.475Z","","","","","","","","","","","","","","","","win-only","2","g1:SE,g2:NW","0.8","3","0","485211.6","134561.5","139566.3","157876.5","1","4","8","6","1","-1","-4","0","0","0","5004.8","3000","-2265","[""down"",""right""]","{""num_key_presses"":7,""num_perfect"":2,""num_errors"":3,""num_randdir"":1,""num_randdir_good_moves"":0,""num_whilered"":1,""num_whileblue"":0,""num_blue"":0,""num_good_moves"":2}","[416.5714133126395,422.82142761775424,0.5,416.5714133126395,422.82142761775424,100.7,416.5714133126395,422.82142761775424,207.6,416.5714133126395,422.82142761775424,315,416.5714133126395,422.82142761775424,426,416.5714133126395,422.82142761775424,527.2,416.5714133126395,422.82142761775424,628.1,416.5714133126395,422.82142761775424,731,416.5714133126395,422.82142761775424,831.4,416.5714133126395,422.82142761775424,932.5,416.5714133126395,422.82142761775424,1037.8,416.5714133126395,422.82142761775424,1139.9,416.5714133126395,422.82142761775424,1242.6,416.5714133126395,422.82142761775424,1348.4,416.5714133126395,422.82142761775424,1453.6,416.5714133126395,422.82142761775424,1560.4,416.5714133126395,422.82142761775424,1661,416.5714133126395,422.82142761775424,1764.5,416.5714133126395,422.82142761775424,1871.5,416.5714133126395,422.82142761775424,1977.8,416.5714133126395,422.82142761775424,2079.3,416.5714133126395,422.82142761775424,2185.4,416.5714133126395,422.82142761775424,2295.1,416.5714133126395,422.82142761775424,2401.8,416.5714133126395,422.82142761775424,2506.2,416.5714133126395,422.82142761775424,2611.9,416.5714133126395,422.82142761775424,2712.1,416.5714133126395,422.82142761775424,2818.1,416.5714133126395,422.82142761775424,2919.2,416.5714133126395,422.82142761775424,3019.8,416.5714133126395,422.82142761775424,3124.6,416.5714133126395,422.82142761775424,3228.3,416.5714133126395,422.82142761775424,3332,416.5714133126395,422.82142761775424,3434.3,416.5714133126395,422.82142761775424,3540.4,416.5714133126395,422.82142761775424,3646.3,416.5714133126395,422.82142761775424,3753,416.5714133126395,422.82142761775424,3853.7,416.5714133126395,422.82142761775424,3960.9,416.5714133126395,422.82142761775424,4064,416.5714133126395,422.82142761775424,4167.7,416.5714133126395,422.82142761775424,4267.7,416.5714133126395,422.82142761775424,4368.9,416.5714133126395,422.82142761775424,4469.9,416.5714133126395,422.82142761775424,4571.6,416.5714133126395,422.82142761775424,4676,416.5714133126395,422.82142761775424,4779.1,416.5714133126395,422.82142761775424,4888,416.5714133126395,422.82142761775424,4992.1]","[1563.5,1563.5,1000,0,563.5,""oops"",""right"",""left"",""bad_move"",2947.4,1383.5,2920,1563.9,-1536.5,""error"",""-"",""-"",""no_move"",3525.5,577.9,2920,1563.9,-958.3,""while_red"",""-"",""-"",""no_move"",7533,4585.3,2658.4,3950.4,924.2,""smooth"",""right"",""right"",""good_move"",8148.4,615.1,1691,7533.3,-1075.9,""error"",""-"",""-"",""no_move"",12780.7,4632.1,2900.2,9150.1,730.4,""smooth"",""right"",""right"",""good_move"",13314.6,533.8,2184.9,12780.9,-1651.2,""error"",""-"",""-"",""no_move""]"
"20585","","<div style=""width:500px;"">
  <p>What determined the result of this run?</p>
  </div>","62","html-slider-response","24","663405","0.0-7.0-1.2","167","1","2025-08-06 09:31:48","36c45c0696341be0efffe67d72a12abb","41.150.32.198","Mozilla/5.0 (Windows NT 10.0; Win64; x64) AppleWebKit/537.36 (KHTML, like Gecko) Chrome/138.0.0.0 Safari/537.36 Edg/138.0.0.0","WebKit","Edge","138.0.0.0","Windows","10.0","https://app.prolific.com/","en-GB,en;q=0.9,en-US;q=0.8,en-ZA;q=0.7","67d057fe81435b77cf5a4681","687a1a965b9f5b85a264363e","689320a1bdf7b5a03253ff17","1","67d057fe81435b77cf5a4681","1","2025-08-06T09:42:55.062Z","","","","AttribQ","","","","","","","","","","","50","","","","","","","","","","","","","","","","","","","","","","","","","","",""
"4517","","<div style=""width:500px;"">
  <p>How much control did you have over the ball?</p>
  </div>","69","html-slider-response","25","667923","0.0-7.0-2.2","167","1","2025-08-06 09:31:48","36c45c0696341be0efffe67d72a12abb","41.150.32.198","Mozilla/5.0 (Windows NT 10.0; Win64; x64) AppleWebKit/537.36 (KHTML, like Gecko) Chrome/138.0.0.0 Safari/537.36 Edg/138.0.0.0","WebKit","Edge","138.0.0.0","Windows","10.0","https://app.prolific.com/","en-GB,en;q=0.9,en-US;q=0.8,en-ZA;q=0.7","67d057fe81435b77cf5a4681","687a1a965b9f5b85a264363e","689320a1bdf7b5a03253ff17","1","67d057fe81435b77cf5a4681","1","2025-08-06T09:42:59.581Z","","","","ControlQ","","","","","","","","","","","50","","","","","","","","","","","","","","","","","","","","","","","","","","",""
"5327","","<div style=""width:500px;"">
  <p>How would you describe your current emotional state?</p>
  </div>","64","html-slider-response","26","673252","0.0-7.0-3.2","167","1","2025-08-06 09:31:48","36c45c0696341be0efffe67d72a12abb","41.150.32.198","Mozilla/5.0 (Windows NT 10.0; Win64; x64) AppleWebKit/537.36 (KHTML, like Gecko) Chrome/138.0.0.0 Safari/537.36 Edg/138.0.0.0","WebKit","Edge","138.0.0.0","Windows","10.0","https://app.prolific.com/","en-GB,en;q=0.9,en-US;q=0.8,en-ZA;q=0.7","67d057fe81435b77cf5a4681","687a1a965b9f5b85a264363e","689320a1bdf7b5a03253ff17","1","67d057fe81435b77cf5a4681","1","2025-08-06T09:43:04.910Z","","","","StressQ","","","","","","","","","","","50","","","","","","","","","","","","","","","","","","","","","","","","","","",""
"3465","","<div style=""width:500px;"">
  <p>What best describes how you currently feel?</p>
  </div>","61","html-slider-response","27","676719","0.0-7.0-4.2","167","1","2025-08-06 09:31:48","36c45c0696341be0efffe67d72a12abb","41.150.32.198","Mozilla/5.0 (Windows NT 10.0; Win64; x64) AppleWebKit/537.36 (KHTML, like Gecko) Chrome/138.0.0.0 Safari/537.36 Edg/138.0.0.0","WebKit","Edge","138.0.0.0","Windows","10.0","https://app.prolific.com/","en-GB,en;q=0.9,en-US;q=0.8,en-ZA;q=0.7","67d057fe81435b77cf5a4681","687a1a965b9f5b85a264363e","689320a1bdf7b5a03253ff17","1","67d057fe81435b77cf5a4681","1","2025-08-06T09:43:08.376Z","","","","MotivationQ","","","","","","","","","","","50","","","","","","","","","","","","","","","","","","","","","","","","","","",""
"","","","","ctl-task-cpt","28","717243","0.0-7.0-0.3","167","1","2025-08-06 09:31:48","36c45c0696341be0efffe67d72a12abb","41.150.32.198","Mozilla/5.0 (Windows NT 10.0; Win64; x64) AppleWebKit/537.36 (KHTML, like Gecko) Chrome/138.0.0.0 Safari/537.36 Edg/138.0.0.0","WebKit","Edge","138.0.0.0","Windows","10.0","https://app.prolific.com/","en-GB,en;q=0.9,en-US;q=0.8,en-ZA;q=0.7","67d057fe81435b77cf5a4681","687a1a965b9f5b85a264363e","689320a1bdf7b5a03253ff17","1","67d057fe81435b77cf5a4681","1","2025-08-06T09:43:48.901Z","","","","","","","","","","","","","","","","win-only","3","g1:SW,g2:NE","0.7","4","0","679994.3","3892.1","8892.6","37518.2","1","4","4","6","2","-4","-8","0","0","0","5000.5","3000","-2330","[""up"",""right""]","{""num_key_presses"":7,""num_perfect"":3,""num_errors"":4,""num_randdir"":0,""num_randdir_good_moves"":0,""num_whilered"":0,""num_whileblue"":0,""num_blue"":2,""num_good_moves"":2}","[407.8214133126395,407.82142761775424,0.2,407.8214133126395,407.82142761775424,103.6,407.8214133126395,407.82142761775424,203.7,407.8214133126395,407.82142761775424,308.7,407.8214133126395,407.82142761775424,413.6,407.8214133126395,407.82142761775424,524.1,407.8214133126395,407.82142761775424,626.8,407.8214133126395,407.82142761775424,730.1,407.8214133126395,407.82142761775424,830.3,407.8214133126395,407.82142761775424,933.9,407.8214133126395,407.82142761775424,1041,407.8214133126395,407.82142761775424,1145.4,407.8214133126395,407.82142761775424,1245.5,407.8214133126395,407.82142761775424,1350.6,407.8214133126395,407.82142761775424,1456.4,407.8214133126395,407.82142761775424,1567.4,407.8214133126395,407.82142761775424,1668.6,407.8214133126395,407.82142761775424,1769.1,407.8214133126395,407.82142761775424,1874.8,407.8214133126395,407.82142761775424,1983.7,407.8214133126395,407.82142761775424,2084.7,407.8214133126395,407.82142761775424,2189.3,407.8214133126395,407.82142761775424,2291.8,407.8214133126395,407.82142761775424,2394.1,407.8214133126395,407.82142761775424,2506.9,407.8214133126395,407.82142761775424,2614.8,407.8214133126395,407.82142761775424,2722.2,407.8214133126395,407.82142761775424,2822.9,407.8214133126395,407.82142761775424,2928.8,407.8214133126395,407.82142761775424,3034.3,407.8214133126395,407.82142761775424,3135.1,407.8214133126395,407.82142761775424,3240.8,407.8214133126395,407.82142761775424,3346.5,407.8214133126395,407.82142761775424,3450.8,407.8214133126395,407.82142761775424,3554.8,407.8214133126395,407.82142761775424,3657.2,407.8214133126395,407.82142761775424,3758.5,407.8214133126395,407.82142761775424,3868.6,407.8214133126395,407.82142761775424,3981,407.8214133126395,407.82142761775424,4084.2,407.8214133126395,407.82142761775424,4184.4,407.8214133126395,407.82142761775424,4284.8,407.8214133126395,407.82142761775424,4391,407.8214133126395,407.82142761775424,4499.3,407.8214133126395,407.82142761775424,4600.2,407.8214133126395,407.82142761775424,4701.4,407.8214133126395,407.82142761775424,4803.6,407.8214133126395,407.82142761775424,4905.5]","[2040,2040.1,1000,0,1040.1,""smooth"",""left"",""left"",""bad_move"",2640.9,600.4,2131.2,2040.5,-1530.8,""error"",""-"",""-"",""no_move"",10810.5,8169.4,2408.3,7653.1,749.1,""smooth"",""right"",""right"",""good_move"",11272.3,461.5,2334.9,10810.8,-1873.4,""error"",""-"",""-"",""no_move"",20137,8864.5,3023.1,15939.2,1174.7,""smooth"",""right"",""right"",""good_move"",21371.3,1234.1,2688.6,20137.2,-1454.5,""error"",""-"",""-"",""no_move"",23525.7,2153.9,2309.1,22375.9,-1159.3,""error"",""-"",""-"",""no_move""]"
"8969","","<div style=""width:500px;"">
  <p>What determined the result of this run?</p>
  </div>","72","html-slider-response","29","726213","0.0-7.0-1.3","167","1","2025-08-06 09:31:48","36c45c0696341be0efffe67d72a12abb","41.150.32.198","Mozilla/5.0 (Windows NT 10.0; Win64; x64) AppleWebKit/537.36 (KHTML, like Gecko) Chrome/138.0.0.0 Safari/537.36 Edg/138.0.0.0","WebKit","Edge","138.0.0.0","Windows","10.0","https://app.prolific.com/","en-GB,en;q=0.9,en-US;q=0.8,en-ZA;q=0.7","67d057fe81435b77cf5a4681","687a1a965b9f5b85a264363e","689320a1bdf7b5a03253ff17","1","67d057fe81435b77cf5a4681","1","2025-08-06T09:43:57.870Z","","","","AttribQ","","","","","","","","","","","50","","","","","","","","","","","","","","","","","","","","","","","","","","",""
"4712","","<div style=""width:500px;"">
  <p>How much control did you have over the ball?</p>
  </div>","67","html-slider-response","30","730927","0.0-7.0-2.3","167","1","2025-08-06 09:31:48","36c45c0696341be0efffe67d72a12abb","41.150.32.198","Mozilla/5.0 (Windows NT 10.0; Win64; x64) AppleWebKit/537.36 (KHTML, like Gecko) Chrome/138.0.0.0 Safari/537.36 Edg/138.0.0.0","WebKit","Edge","138.0.0.0","Windows","10.0","https://app.prolific.com/","en-GB,en;q=0.9,en-US;q=0.8,en-ZA;q=0.7","67d057fe81435b77cf5a4681","687a1a965b9f5b85a264363e","689320a1bdf7b5a03253ff17","1","67d057fe81435b77cf5a4681","1","2025-08-06T09:44:02.585Z","","","","ControlQ","","","","","","","","","","","50","","","","","","","","","","","","","","","","","","","","","","","","","","",""
"14822","","<div style=""width:500px;"">
  <p>How would you describe your current emotional state?</p>
  </div>","45","html-slider-response","31","745751","0.0-7.0-3.3","167","1","2025-08-06 09:31:48","36c45c0696341be0efffe67d72a12abb","41.150.32.198","Mozilla/5.0 (Windows NT 10.0; Win64; x64) AppleWebKit/537.36 (KHTML, like Gecko) Chrome/138.0.0.0 Safari/537.36 Edg/138.0.0.0","WebKit","Edge","138.0.0.0","Windows","10.0","https://app.prolific.com/","en-GB,en;q=0.9,en-US;q=0.8,en-ZA;q=0.7","67d057fe81435b77cf5a4681","687a1a965b9f5b85a264363e","689320a1bdf7b5a03253ff17","1","67d057fe81435b77cf5a4681","1","2025-08-06T09:44:17.408Z","","","","StressQ","","","","","","","","","","","50","","","","","","","","","","","","","","","","","","","","","","","","","","",""
"12636","","<div style=""width:500px;"">
  <p>What best describes how you currently feel?</p>
  </div>","70","html-slider-response","32","758389","0.0-7.0-4.3","167","1","2025-08-06 09:31:48","36c45c0696341be0efffe67d72a12abb","41.150.32.198","Mozilla/5.0 (Windows NT 10.0; Win64; x64) AppleWebKit/537.36 (KHTML, like Gecko) Chrome/138.0.0.0 Safari/537.36 Edg/138.0.0.0","WebKit","Edge","138.0.0.0","Windows","10.0","https://app.prolific.com/","en-GB,en;q=0.9,en-US;q=0.8,en-ZA;q=0.7","67d057fe81435b77cf5a4681","687a1a965b9f5b85a264363e","689320a1bdf7b5a03253ff17","1","67d057fe81435b77cf5a4681","1","2025-08-06T09:44:30.046Z","","","","MotivationQ","","","","","","","","","","","50","","","","","","","","","","","","","","","","","","","","","","","","","","",""
"","","","","ctl-task-cpt","33","810292","0.0-7.0-0.4","167","1","2025-08-06 09:31:48","36c45c0696341be0efffe67d72a12abb","41.150.32.198","Mozilla/5.0 (Windows NT 10.0; Win64; x64) AppleWebKit/537.36 (KHTML, like Gecko) Chrome/138.0.0.0 Safari/537.36 Edg/138.0.0.0","WebKit","Edge","138.0.0.0","Windows","10.0","https://app.prolific.com/","en-GB,en;q=0.9,en-US;q=0.8,en-ZA;q=0.7","67d057fe81435b77cf5a4681","687a1a965b9f5b85a264363e","689320a1bdf7b5a03253ff17","1","67d057fe81435b77cf5a4681","1","2025-08-06T09:45:21.949Z","","","","","","","","","","","","","","","","win-only","1","g1:NE,g2:SW","0.6","5","0","761665.5","7689.7","12694.1","48884.9","1","4","8","6","2","-8","-14","0","0","0","5004.4","3000","-2220","[""down"",""left""]","{""num_key_presses"":10,""num_perfect"":2,""num_errors"":6,""num_randdir"":2,""num_randdir_good_moves"":1,""num_whilered"":0,""num_whileblue"":0,""num_blue"":2,""num_good_moves"":3}","[414.0714133126395,406.57142761775424,0.3,414.0714133126395,406.57142761775424,101,414.0714133126395,406.57142761775424,207.9,414.0714133126395,406.57142761775424,312.8,414.0714133126395,406.57142761775424,419.9,414.0714133126395,406.57142761775424,524.2,414.0714133126395,406.57142761775424,626.2,414.0714133126395,406.57142761775424,727.3,414.0714133126395,406.57142761775424,827.4,414.0714133126395,406.57142761775424,930,414.0714133126395,406.57142761775424,1034.3,414.0714133126395,406.57142761775424,1136.4,414.0714133126395,406.57142761775424,1240.9,414.0714133126395,406.57142761775424,1340.9,414.0714133126395,406.57142761775424,1441,414.0714133126395,406.57142761775424,1545.6,414.0714133126395,406.57142761775424,1647.1,414.0714133126395,406.57142761775424,1754.9,414.0714133126395,406.57142761775424,1857.9,414.0714133126395,406.57142761775424,1965.5,414.0714133126395,406.57142761775424,2070.9,414.0714133126395,406.57142761775424,2176.8,414.0714133126395,406.57142761775424,2287.9,414.0714133126395,406.57142761775424,2392.8,414.0714133126395,406.57142761775424,2499.8,414.0714133126395,406.57142761775424,2604.7,414.0714133126395,406.57142761775424,2706,414.0714133126395,406.57142761775424,2811.8,414.0714133126395,406.57142761775424,2915.1,414.0714133126395,406.57142761775424,3020.5,414.0714133126395,406.57142761775424,3121.8,414.0714133126395,406.57142761775424,3222.9,414.0714133126395,406.57142761775424,3323.4,414.0714133126395,406.57142761775424,3426.5,414.0714133126395,406.57142761775424,3526.5,414.0714133126395,406.57142761775424,3630.5,414.0714133126395,406.57142761775424,3733.1,414.0714133126395,406.57142761775424,3837.5,414.0714133126395,406.57142761775424,3939.1,414.0714133126395,406.57142761775424,4041.4,414.0714133126395,406.57142761775424,4153.6,414.0714133126395,406.57142761775424,4256.1,414.0714133126395,406.57142761775424,4360.9,414.0714133126395,406.57142761775424,4465.7,414.0714133126395,406.57142761775424,4565.8,414.0714133126395,406.57142761775424,4670.5,414.0714133126395,406.57142761775424,4779.1,414.0714133126395,406.57142761775424,4885,414.0714133126395,406.57142761775424,4987.1]","[356.3,356.3,1000,0,-643.7,""error"",""-"",""-"",""no_move"",8574.2,8217.7,2753.4,4582.3,1238.5,""smooth"",""left"",""left"",""good_move"",9558.3,983.7,2370.7,8574.6,-1387,""error"",""-"",""-"",""no_move"",18870.9,9312.4,3553.6,14460.2,857.1,""oops"",""left"",""left"",""good_move"",19703.4,832.3,2638,18871.1,-1805.7,""error"",""-"",""-"",""no_move"",22555.8,2852.3,2962.4,20709.4,-1116,""error"",""-"",""-"",""no_move"",27322.3,4766.3,2641.9,23562.6,1117.8,""smooth"",""down"",""down"",""good_move"",27670.2,347.6,1981,27322.6,-1633.4,""error"",""-"",""-"",""no_move"",32173.8,4503.4,2898,28676.3,599.5,""oops"",""down"",""right"",""bad_move"",32822.7,648.7,2232.4,32174.1,-1583.8,""error"",""-"",""-"",""no_move""]"
"6484","","<div style=""width:500px;"">
  <p>What determined the result of this run?</p>
  </div>","68","html-slider-response","34","816777","0.0-7.0-1.4","167","1","2025-08-06 09:31:48","36c45c0696341be0efffe67d72a12abb","41.150.32.198","Mozilla/5.0 (Windows NT 10.0; Win64; x64) AppleWebKit/537.36 (KHTML, like Gecko) Chrome/138.0.0.0 Safari/537.36 Edg/138.0.0.0","WebKit","Edge","138.0.0.0","Windows","10.0","https://app.prolific.com/","en-GB,en;q=0.9,en-US;q=0.8,en-ZA;q=0.7","67d057fe81435b77cf5a4681","687a1a965b9f5b85a264363e","689320a1bdf7b5a03253ff17","1","67d057fe81435b77cf5a4681","1","2025-08-06T09:45:28.434Z","","","","AttribQ","","","","","","","","","","","50","","","","","","","","","","","","","","","","","","","","","","","","","","",""
"4498","","<div style=""width:500px;"">
  <p>How much control did you have over the ball?</p>
  </div>","79","html-slider-response","35","821276","0.0-7.0-2.4","167","1","2025-08-06 09:31:48","36c45c0696341be0efffe67d72a12abb","41.150.32.198","Mozilla/5.0 (Windows NT 10.0; Win64; x64) AppleWebKit/537.36 (KHTML, like Gecko) Chrome/138.0.0.0 Safari/537.36 Edg/138.0.0.0","WebKit","Edge","138.0.0.0","Windows","10.0","https://app.prolific.com/","en-GB,en;q=0.9,en-US;q=0.8,en-ZA;q=0.7","67d057fe81435b77cf5a4681","687a1a965b9f5b85a264363e","689320a1bdf7b5a03253ff17","1","67d057fe81435b77cf5a4681","1","2025-08-06T09:45:32.933Z","","","","ControlQ","","","","","","","","","","","50","","","","","","","","","","","","","","","","","","","","","","","","","","",""
"8941","","<div style=""width:500px;"">
  <p>How would you describe your current emotional state?</p>
  </div>","40","html-slider-response","36","830218","0.0-7.0-3.4","167","1","2025-08-06 09:31:48","36c45c0696341be0efffe67d72a12abb","41.150.32.198","Mozilla/5.0 (Windows NT 10.0; Win64; x64) AppleWebKit/537.36 (KHTML, like Gecko) Chrome/138.0.0.0 Safari/537.36 Edg/138.0.0.0","WebKit","Edge","138.0.0.0","Windows","10.0","https://app.prolific.com/","en-GB,en;q=0.9,en-US;q=0.8,en-ZA;q=0.7","67d057fe81435b77cf5a4681","687a1a965b9f5b85a264363e","689320a1bdf7b5a03253ff17","1","67d057fe81435b77cf5a4681","1","2025-08-06T09:45:41.876Z","","","","StressQ","","","","","","","","","","","50","","","","","","","","","","","","","","","","","","","","","","","","","","",""
"4266","","<div style=""width:500px;"">
  <p>What best describes how you currently feel?</p>
  </div>","70","html-slider-response","37","834486","0.0-7.0-4.4","167","1","2025-08-06 09:31:48","36c45c0696341be0efffe67d72a12abb","41.150.32.198","Mozilla/5.0 (Windows NT 10.0; Win64; x64) AppleWebKit/537.36 (KHTML, like Gecko) Chrome/138.0.0.0 Safari/537.36 Edg/138.0.0.0","WebKit","Edge","138.0.0.0","Windows","10.0","https://app.prolific.com/","en-GB,en;q=0.9,en-US;q=0.8,en-ZA;q=0.7","67d057fe81435b77cf5a4681","687a1a965b9f5b85a264363e","689320a1bdf7b5a03253ff17","1","67d057fe81435b77cf5a4681","1","2025-08-06T09:45:46.143Z","","","","MotivationQ","","","","","","","","","","","50","","","","","","","","","","","","","","","","","","","","","","","","","","",""
"","","","","ctl-task-cpt","38","872216","0.0-7.0-0.5","167","1","2025-08-06 09:31:48","36c45c0696341be0efffe67d72a12abb","41.150.32.198","Mozilla/5.0 (Windows NT 10.0; Win64; x64) AppleWebKit/537.36 (KHTML, like Gecko) Chrome/138.0.0.0 Safari/537.36 Edg/138.0.0.0","WebKit","Edge","138.0.0.0","Windows","10.0","https://app.prolific.com/","en-GB,en;q=0.9,en-US;q=0.8,en-ZA;q=0.7","67d057fe81435b77cf5a4681","687a1a965b9f5b85a264363e","689320a1bdf7b5a03253ff17","1","67d057fe81435b77cf5a4681","1","2025-08-06T09:46:23.874Z","","","","","","","","","","","","","","","","win-only","3","g1:SW,g2:NE","0.5","6","0","837762.5","4022.9","9025.7","34722.2","1","4","4","6","1","-1","-6","0","0","0","5002.8","3000","-2225","[""down"",""left""]","{""num_key_presses"":9,""num_perfect"":2,""num_errors"":5,""num_randdir"":1,""num_randdir_good_moves"":0,""num_whilered"":1,""num_whileblue"":0,""num_blue"":1,""num_good_moves"":2}","[421.5714133126395,406.57142761775424,0.2,421.5714133126395,406.57142761775424,109.4,421.5714133126395,406.57142761775424,210.5,421.5714133126395,406.57142761775424,314.5,421.5714133126395,406.57142761775424,418.2,421.5714133126395,406.57142761775424,523.1,421.5714133126395,406.57142761775424,629.2,421.5714133126395,406.57142761775424,730.9,421.5714133126395,406.57142761775424,835.7,421.5714133126395,406.57142761775424,945.8,421.5714133126395,406.57142761775424,1046.1,421.5714133126395,406.57142761775424,1152.9,421.5714133126395,406.57142761775424,1253.5,421.5714133126395,406.57142761775424,1354.1,421.5714133126395,406.57142761775424,1458.6,421.5714133126395,406.57142761775424,1561.8,421.5714133126395,406.57142761775424,1663,421.5714133126395,406.57142761775424,1763.6,421.5714133126395,406.57142761775424,1868.7,421.5714133126395,406.57142761775424,1970.8,421.5714133126395,406.57142761775424,2083.8,421.5714133126395,406.57142761775424,2187.7,421.5714133126395,406.57142761775424,2289.8,421.5714133126395,406.57142761775424,2399.5,421.5714133126395,406.57142761775424,2503.9,421.5714133126395,406.57142761775424,2609.2,421.5714133126395,406.57142761775424,2711,421.5714133126395,406.57142761775424,2817.1,421.5714133126395,406.57142761775424,2918.9,421.5714133126395,406.57142761775424,3020.7,421.5714133126395,406.57142761775424,3134.9,421.5714133126395,406.57142761775424,3239.2,421.5714133126395,406.57142761775424,3344.3,421.5714133126395,406.57142761775424,3444.4,421.5714133126395,406.57142761775424,3547.6,421.5714133126395,406.57142761775424,3650.3,421.5714133126395,406.57142761775424,3757,421.5714133126395,406.57142761775424,3859.2,421.5714133126395,406.57142761775424,3960.4,421.5714133126395,406.57142761775424,4061.3,421.5714133126395,406.57142761775424,4163.1,421.5714133126395,406.57142761775424,4273.8,421.5714133126395,406.57142761775424,4381.9,421.5714133126395,406.57142761775424,4483.6,421.5714133126395,406.57142761775424,4588.5,421.5714133126395,406.57142761775424,4693,421.5714133126395,406.57142761775424,4793.4,421.5714133126395,406.57142761775424,4893.5]","[2444.2,2444.2,1000,0,1444.2,""smooth"",""left"",""left"",""good_move"",3134.8,690.3,2501.9,2444.5,-1811.6,""error"",""-"",""-"",""no_move"",7949.6,4814.7,3066.2,4135.4,748.1,""oops"",""down"",""right"",""bad_move"",8654.8,704.9,2683.9,7949.9,-1979,""error"",""-"",""-"",""no_move"",9125,469.6,2683.9,7949.9,-1508.8,""while_red"",""-"",""-"",""no_move"",10132.8,1477.4,1785,9664.2,-1316.4,""error"",""-"",""-"",""no_move"",18252,8118.9,2399.9,14544.4,1307.7,""smooth"",""down"",""down"",""good_move"",18715.5,463.3,2425.9,18252.2,-1962.6,""error"",""-"",""-"",""no_move"",21449.3,2733.7,2573.5,19719.7,-843.9,""error"",""-"",""-"",""no_move""]"
"3063","","<div style=""width:500px;"">
  <p>What determined the result of this run?</p>
  </div>","65","html-slider-response","39","875284","0.0-7.0-1.5","167","1","2025-08-06 09:31:48","36c45c0696341be0efffe67d72a12abb","41.150.32.198","Mozilla/5.0 (Windows NT 10.0; Win64; x64) AppleWebKit/537.36 (KHTML, like Gecko) Chrome/138.0.0.0 Safari/537.36 Edg/138.0.0.0","WebKit","Edge","138.0.0.0","Windows","10.0","https://app.prolific.com/","en-GB,en;q=0.9,en-US;q=0.8,en-ZA;q=0.7","67d057fe81435b77cf5a4681","687a1a965b9f5b85a264363e","689320a1bdf7b5a03253ff17","1","67d057fe81435b77cf5a4681","1","2025-08-06T09:46:26.941Z","","","","AttribQ","","","","","","","","","","","50","","","","","","","","","","","","","","","","","","","","","","","","","","",""
"2688","","<div style=""width:500px;"">
  <p>How much control did you have over the ball?</p>
  </div>","69","html-slider-response","40","877974","0.0-7.0-2.5","167","1","2025-08-06 09:31:48","36c45c0696341be0efffe67d72a12abb","41.150.32.198","Mozilla/5.0 (Windows NT 10.0; Win64; x64) AppleWebKit/537.36 (KHTML, like Gecko) Chrome/138.0.0.0 Safari/537.36 Edg/138.0.0.0","WebKit","Edge","138.0.0.0","Windows","10.0","https://app.prolific.com/","en-GB,en;q=0.9,en-US;q=0.8,en-ZA;q=0.7","67d057fe81435b77cf5a4681","687a1a965b9f5b85a264363e","689320a1bdf7b5a03253ff17","1","67d057fe81435b77cf5a4681","1","2025-08-06T09:46:29.631Z","","","","ControlQ","","","","","","","","","","","50","","","","","","","","","","","","","","","","","","","","","","","","","","",""
"2616","","<div style=""width:500px;"">
  <p>How would you describe your current emotional state?</p>
  </div>","74","html-slider-response","41","880592","0.0-7.0-3.5","167","1","2025-08-06 09:31:48","36c45c0696341be0efffe67d72a12abb","41.150.32.198","Mozilla/5.0 (Windows NT 10.0; Win64; x64) AppleWebKit/537.36 (KHTML, like Gecko) Chrome/138.0.0.0 Safari/537.36 Edg/138.0.0.0","WebKit","Edge","138.0.0.0","Windows","10.0","https://app.prolific.com/","en-GB,en;q=0.9,en-US;q=0.8,en-ZA;q=0.7","67d057fe81435b77cf5a4681","687a1a965b9f5b85a264363e","689320a1bdf7b5a03253ff17","1","67d057fe81435b77cf5a4681","1","2025-08-06T09:46:32.249Z","","","","StressQ","","","","","","","","","","","50","","","","","","","","","","","","","","","","","","","","","","","","","","",""
"2585","","<div style=""width:500px;"">
  <p>What best describes how you currently feel?</p>
  </div>","65","html-slider-response","42","883179","0.0-7.0-4.5","167","1","2025-08-06 09:31:48","36c45c0696341be0efffe67d72a12abb","41.150.32.198","Mozilla/5.0 (Windows NT 10.0; Win64; x64) AppleWebKit/537.36 (KHTML, like Gecko) Chrome/138.0.0.0 Safari/537.36 Edg/138.0.0.0","WebKit","Edge","138.0.0.0","Windows","10.0","https://app.prolific.com/","en-GB,en;q=0.9,en-US;q=0.8,en-ZA;q=0.7","67d057fe81435b77cf5a4681","687a1a965b9f5b85a264363e","689320a1bdf7b5a03253ff17","1","67d057fe81435b77cf5a4681","1","2025-08-06T09:46:34.836Z","","","","MotivationQ","","","","","","","","","","","50","","","","","","","","","","","","","","","","","","","","","","","","","","",""
"","","","","ctl-task-cpt","43","917258","0.0-7.0-0.6","167","1","2025-08-06 09:31:48","36c45c0696341be0efffe67d72a12abb","41.150.32.198","Mozilla/5.0 (Windows NT 10.0; Win64; x64) AppleWebKit/537.36 (KHTML, like Gecko) Chrome/138.0.0.0 Safari/537.36 Edg/138.0.0.0","WebKit","Edge","138.0.0.0","Windows","10.0","https://app.prolific.com/","en-GB,en;q=0.9,en-US;q=0.8,en-ZA;q=0.7","67d057fe81435b77cf5a4681","687a1a965b9f5b85a264363e","689320a1bdf7b5a03253ff17","1","67d057fe81435b77cf5a4681","1","2025-08-06T09:47:08.915Z","","","","","","","","","","","","","","","","win-only","0","g1:NW,g2:SE","0.4","7","0","886454.7","4069.9","9071","31068.3","1","4","8","6","2","-8","-11","0","0","0","5001.1","3000","-2210","[""down"",""right""]","{""num_key_presses"":6,""num_perfect"":1,""num_errors"":3,""num_randdir"":2,""num_randdir_good_moves"":1,""num_whilered"":0,""num_whileblue"":0,""num_blue"":1,""num_good_moves"":2}","[409.0714133126395,420.32142761775424,0.3,409.0714133126395,420.32142761775424,103.5,409.0714133126395,420.32142761775424,207.6,409.0714133126395,420.32142761775424,307.7,409.0714133126395,420.32142761775424,417.1,409.0714133126395,420.32142761775424,517.6,409.0714133126395,420.32142761775424,623.5,409.0714133126395,420.32142761775424,727.4,400.3214133126395,405.32142761775424,833.4,400.3214133126395,399.07142761775424,933.4,400.3214133126395,399.07142761775424,1045.5,400.3214133126395,399.07142761775424,1152.9,400.3214133126395,396.57142761775424,1256.7,424.0714133126395,416.57142761775424,1360.8,425.3214133126395,416.57142761775424,1467.3,425.3214133126395,416.57142761775424,1568.3,425.3214133126395,416.57142761775424,1675.2,425.3214133126395,409.07142761775424,1777.5,430.3214133126395,396.57142761775424,1881.6,431.5714133126395,396.57142761775424,1984.2,431.5714133126395,396.57142761775424,2087.1,431.5714133126395,396.57142761775424,2187.7,406.5714133126395,397.82142761775424,2304.9,376.5714133126395,401.57142761775424,2407.7,357.8214133126395,394.07142761775424,2516.2,355.3214133126395,391.57142761775424,2619,354.0714133126395,391.57142761775424,2722.7,354.0714133126395,387.82142761775424,2829,354.0714133126395,374.07142761775424,2932.1,354.0714133126395,372.82142761775424,3041.4,356.5714133126395,371.57142761775424,3147.5,356.5714133126395,371.57142761775424,3250.5,356.5714133126395,371.57142761775424,3351.8,356.5714133126395,371.57142761775424,3457.7,356.5714133126395,371.57142761775424,3560,356.5714133126395,371.57142761775424,3665.3,356.5714133126395,371.57142761775424,3771.5,356.5714133126395,371.57142761775424,3874.9,356.5714133126395,371.57142761775424,3977.5,356.5714133126395,371.57142761775424,4085.5,356.5714133126395,371.57142761775424,4192.2,356.5714133126395,371.57142761775424,4299.9,356.5714133126395,371.57142761775424,4403.7,356.5714133126395,371.57142761775424,4506.5,356.5714133126395,371.57142761775424,4609.9,356.5714133126395,371.57142761775424,4712.6,356.5714133126395,371.57142761775424,4819.6,356.5714133126395,371.57142761775424,4927.3]","[2984,2984,1000,0,1984,""oops"",""right"",""up"",""bad_move"",3481.8,497.3,2491.6,2984.5,-1994.3,""error"",""-"",""-"",""no_move"",11076.5,7594.6,2296,7535.3,1245.2,""oops"",""right"",""down"",""good_move"",11605.5,528.7,2811.8,11076.8,-2283.1,""error"",""-"",""-"",""no_move"",14532.5,2926.8,2727.1,12613.9,-808.5,""error"",""-"",""-"",""no_move"",18617,4084.4,2399.7,15539,678.3,""smooth"",""right"",""right"",""good_move""]"
"16622","","<div style=""width:500px;"">
  <p>What determined the result of this run?</p>
  </div>","76","html-slider-response","44","933882","0.0-7.0-1.6","167","1","2025-08-06 09:31:48","36c45c0696341be0efffe67d72a12abb","41.150.32.198","Mozilla/5.0 (Windows NT 10.0; Win64; x64) AppleWebKit/537.36 (KHTML, like Gecko) Chrome/138.0.0.0 Safari/537.36 Edg/138.0.0.0","WebKit","Edge","138.0.0.0","Windows","10.0","https://app.prolific.com/","en-GB,en;q=0.9,en-US;q=0.8,en-ZA;q=0.7","67d057fe81435b77cf5a4681","687a1a965b9f5b85a264363e","689320a1bdf7b5a03253ff17","1","67d057fe81435b77cf5a4681","1","2025-08-06T09:47:25.539Z","","","","AttribQ","","","","","","","","","","","50","","","","","","","","","","","","","","","","","","","","","","","","","","",""
"4030","","<div style=""width:500px;"">
  <p>How much control did you have over the ball?</p>
  </div>","63","html-slider-response","45","937914","0.0-7.0-2.6","167","1","2025-08-06 09:31:48","36c45c0696341be0efffe67d72a12abb","41.150.32.198","Mozilla/5.0 (Windows NT 10.0; Win64; x64) AppleWebKit/537.36 (KHTML, like Gecko) Chrome/138.0.0.0 Safari/537.36 Edg/138.0.0.0","WebKit","Edge","138.0.0.0","Windows","10.0","https://app.prolific.com/","en-GB,en;q=0.9,en-US;q=0.8,en-ZA;q=0.7","67d057fe81435b77cf5a4681","687a1a965b9f5b85a264363e","689320a1bdf7b5a03253ff17","1","67d057fe81435b77cf5a4681","1","2025-08-06T09:47:29.571Z","","","","ControlQ","","","","","","","","","","","50","","","","","","","","","","","","","","","","","","","","","","","","","","",""
"4215","","<div style=""width:500px;"">
  <p>How would you describe your current emotional state?</p>
  </div>","62","html-slider-response","46","942130","0.0-7.0-3.6","167","1","2025-08-06 09:31:48","36c45c0696341be0efffe67d72a12abb","41.150.32.198","Mozilla/5.0 (Windows NT 10.0; Win64; x64) AppleWebKit/537.36 (KHTML, like Gecko) Chrome/138.0.0.0 Safari/537.36 Edg/138.0.0.0","WebKit","Edge","138.0.0.0","Windows","10.0","https://app.prolific.com/","en-GB,en;q=0.9,en-US;q=0.8,en-ZA;q=0.7","67d057fe81435b77cf5a4681","687a1a965b9f5b85a264363e","689320a1bdf7b5a03253ff17","1","67d057fe81435b77cf5a4681","1","2025-08-06T09:47:33.787Z","","","","StressQ","","","","","","","","","","","50","","","","","","","","","","","","","","","","","","","","","","","","","","",""
"3751","","<div style=""width:500px;"">
  <p>What best describes how you currently feel?</p>
  </div>","63","html-slider-response","47","945883","0.0-7.0-4.6","167","1","2025-08-06 09:31:48","36c45c0696341be0efffe67d72a12abb","41.150.32.198","Mozilla/5.0 (Windows NT 10.0; Win64; x64) AppleWebKit/537.36 (KHTML, like Gecko) Chrome/138.0.0.0 Safari/537.36 Edg/138.0.0.0","WebKit","Edge","138.0.0.0","Windows","10.0","https://app.prolific.com/","en-GB,en;q=0.9,en-US;q=0.8,en-ZA;q=0.7","67d057fe81435b77cf5a4681","687a1a965b9f5b85a264363e","689320a1bdf7b5a03253ff17","1","67d057fe81435b77cf5a4681","1","2025-08-06T09:47:37.540Z","","","","MotivationQ","","","","","","","","","","","50","","","","","","","","","","","","","","","","","","","","","","","","","","",""
"","","","","ctl-task-cpt","48","1011916","0.0-7.0-0.7","167","1","2025-08-06 09:31:48","36c45c0696341be0efffe67d72a12abb","41.150.32.198","Mozilla/5.0 (Windows NT 10.0; Win64; x64) AppleWebKit/537.36 (KHTML, like Gecko) Chrome/138.0.0.0 Safari/537.36 Edg/138.0.0.0","WebKit","Edge","138.0.0.0","Windows","10.0","https://app.prolific.com/","en-GB,en;q=0.9,en-US;q=0.8,en-ZA;q=0.7","67d057fe81435b77cf5a4681","687a1a965b9f5b85a264363e","689320a1bdf7b5a03253ff17","1","67d057fe81435b77cf5a4681","1","2025-08-06T09:48:43.573Z","","","","","","","","","","","","","","","","win-only","1","g1:NE,g2:SW","0.3","8","0","949159.1","52905.1","57914.4","63010.4","1","4","4","6","1","-1","-1","0","0","0","5009.2","3000","-2275","[""up"",""right""]","{""num_key_presses"":0,""num_perfect"":0,""num_errors"":0,""num_randdir"":0,""num_randdir_good_moves"":0,""num_whilered"":0,""num_whileblue"":0,""num_blue"":0,""num_good_moves"":0}","[409.0714133126395,405.32142761775424,0.3,409.0714133126395,405.32142761775424,105.6,409.0714133126395,405.32142761775424,215,409.0714133126395,405.32142761775424,317.5,409.0714133126395,405.32142761775424,422.4,409.0714133126395,405.32142761775424,530.3,409.0714133126395,405.32142761775424,631.8,409.0714133126395,405.32142761775424,736.8,409.0714133126395,405.32142761775424,838.9,409.0714133126395,405.32142761775424,942.6,409.0714133126395,405.32142761775424,1051.3,409.0714133126395,405.32142761775424,1159.7,409.0714133126395,405.32142761775424,1264.1,409.0714133126395,405.32142761775424,1367,409.0714133126395,405.32142761775424,1469.5,409.0714133126395,405.32142761775424,1571.2,409.0714133126395,405.32142761775424,1675.2,409.0714133126395,405.32142761775424,1776.1,409.0714133126395,405.32142761775424,1876.1,409.0714133126395,405.32142761775424,1977.4,409.0714133126395,405.32142761775424,2080.3,409.0714133126395,405.32142761775424,2180.7,409.0714133126395,405.32142761775424,2282,409.0714133126395,405.32142761775424,2388.9,409.0714133126395,405.32142761775424,2499,409.0714133126395,405.32142761775424,2605.3,409.0714133126395,405.32142761775424,2713.2,409.0714133126395,405.32142761775424,2815.9,409.0714133126395,405.32142761775424,2922.2,409.0714133126395,405.32142761775424,3046.6,409.0714133126395,405.32142761775424,3147.9,409.0714133126395,405.32142761775424,3255.9,409.0714133126395,405.32142761775424,3358.2,409.0714133126395,405.32142761775424,3464.1,409.0714133126395,405.32142761775424,3565.2,409.0714133126395,405.32142761775424,3669.2,409.0714133126395,405.32142761775424,3773.2,409.0714133126395,405.32142761775424,3875.5,409.0714133126395,405.32142761775424,3978.2,409.0714133126395,405.32142761775424,4081,409.0714133126395,405.32142761775424,4181.1,414.0714133126395,392.82142761775424,4281.3,526.5714133126395,300.32142761775424,4383.4,726.5714133126395,129.07142761775424,4487.9,850.3214133126395,46.57142761775425,4590.3,852.8214133126395,46.57142761775425,4691.4,852.8214133126395,46.57142761775425,4792.8,819.0714133126395,57.82142761775425,4900.3]","[]"
"12671","","<div style=""width:500px;"">
  <p>What determined the result of this run?</p>
  </div>","69","html-slider-response","49","1024588","0.0-7.0-1.7","167","1","2025-08-06 09:31:48","36c45c0696341be0efffe67d72a12abb","41.150.32.198","Mozilla/5.0 (Windows NT 10.0; Win64; x64) AppleWebKit/537.36 (KHTML, like Gecko) Chrome/138.0.0.0 Safari/537.36 Edg/138.0.0.0","WebKit","Edge","138.0.0.0","Windows","10.0","https://app.prolific.com/","en-GB,en;q=0.9,en-US;q=0.8,en-ZA;q=0.7","67d057fe81435b77cf5a4681","687a1a965b9f5b85a264363e","689320a1bdf7b5a03253ff17","1","67d057fe81435b77cf5a4681","1","2025-08-06T09:48:56.246Z","","","","AttribQ","","","","","","","","","","","50","","","","","","","","","","","","","","","","","","","","","","","","","","",""
"4312","","<div style=""width:500px;"">
  <p>How much control did you have over the ball?</p>
  </div>","80","html-slider-response","50","1028902","0.0-7.0-2.7","167","1","2025-08-06 09:31:48","36c45c0696341be0efffe67d72a12abb","41.150.32.198","Mozilla/5.0 (Windows NT 10.0; Win64; x64) AppleWebKit/537.36 (KHTML, like Gecko) Chrome/138.0.0.0 Safari/537.36 Edg/138.0.0.0","WebKit","Edge","138.0.0.0","Windows","10.0","https://app.prolific.com/","en-GB,en;q=0.9,en-US;q=0.8,en-ZA;q=0.7","67d057fe81435b77cf5a4681","687a1a965b9f5b85a264363e","689320a1bdf7b5a03253ff17","1","67d057fe81435b77cf5a4681","1","2025-08-06T09:49:00.559Z","","","","ControlQ","","","","","","","","","","","50","","","","","","","","","","","","","","","","","","","","","","","","","","",""
"7113","","<div style=""width:500px;"">
  <p>How would you describe your current emotional state?</p>
  </div>","33","html-slider-response","51","1036016","0.0-7.0-3.7","167","1","2025-08-06 09:31:48","36c45c0696341be0efffe67d72a12abb","41.150.32.198","Mozilla/5.0 (Windows NT 10.0; Win64; x64) AppleWebKit/537.36 (KHTML, like Gecko) Chrome/138.0.0.0 Safari/537.36 Edg/138.0.0.0","WebKit","Edge","138.0.0.0","Windows","10.0","https://app.prolific.com/","en-GB,en;q=0.9,en-US;q=0.8,en-ZA;q=0.7","67d057fe81435b77cf5a4681","687a1a965b9f5b85a264363e","689320a1bdf7b5a03253ff17","1","67d057fe81435b77cf5a4681","1","2025-08-06T09:49:07.673Z","","","","StressQ","","","","","","","","","","","50","","","","","","","","","","","","","","","","","","","","","","","","","","",""
"3157","","<div style=""width:500px;"">
  <p>What best describes how you currently feel?</p>
  </div>","71","html-slider-response","52","1039175","0.0-7.0-4.7","167","1","2025-08-06 09:31:48","36c45c0696341be0efffe67d72a12abb","41.150.32.198","Mozilla/5.0 (Windows NT 10.0; Win64; x64) AppleWebKit/537.36 (KHTML, like Gecko) Chrome/138.0.0.0 Safari/537.36 Edg/138.0.0.0","WebKit","Edge","138.0.0.0","Windows","10.0","https://app.prolific.com/","en-GB,en;q=0.9,en-US;q=0.8,en-ZA;q=0.7","67d057fe81435b77cf5a4681","687a1a965b9f5b85a264363e","689320a1bdf7b5a03253ff17","1","67d057fe81435b77cf5a4681","1","2025-08-06T09:49:10.832Z","","","","MotivationQ","","","","","","","","","","","50","","","","","","","","","","","","","","","","","","","","","","","","","","",""
"","","","","ctl-task-cpt","53","1094446","0.0-7.0-0.8","167","1","2025-08-06 09:31:48","36c45c0696341be0efffe67d72a12abb","41.150.32.198","Mozilla/5.0 (Windows NT 10.0; Win64; x64) AppleWebKit/537.36 (KHTML, like Gecko) Chrome/138.0.0.0 Safari/537.36 Edg/138.0.0.0","WebKit","Edge","138.0.0.0","Windows","10.0","https://app.prolific.com/","en-GB,en;q=0.9,en-US;q=0.8,en-ZA;q=0.7","67d057fe81435b77cf5a4681","687a1a965b9f5b85a264363e","689320a1bdf7b5a03253ff17","1","67d057fe81435b77cf5a4681","1","2025-08-06T09:50:06.103Z","","","","","","","","","","","","","","","","win-only","1","g1:NE,g2:SW","0.4","9","0","1042451.7","2441.4","7464.8","52248.6","1","4","8","6","2","8","4","4","0","0.030303030303030304","5023.4","3000","370","[""down"",""left""]","{""num_key_presses"":10,""num_perfect"":2,""num_errors"":4,""num_randdir"":4,""num_randdir_good_moves"":4,""num_whilered"":0,""num_whileblue"":0,""num_blue"":6,""num_good_moves"":6}","[416.5714133126395,421.57142761775424,0.2,416.5714133126395,421.57142761775424,103,416.5714133126395,421.57142761775424,214.9,416.5714133126395,421.57142761775424,316.2,416.5714133126395,421.57142761775424,416.6,416.5714133126395,421.57142761775424,518.5,416.5714133126395,421.57142761775424,620.5,416.5714133126395,421.57142761775424,728.4,416.5714133126395,421.57142761775424,830,416.5714133126395,421.57142761775424,931.1,416.5714133126395,421.57142761775424,1041.2,416.5714133126395,421.57142761775424,1141.2,416.5714133126395,421.57142761775424,1252.6,416.5714133126395,421.57142761775424,1362.2,416.5714133126395,421.57142761775424,1466.2,416.5714133126395,421.57142761775424,1568.1,416.5714133126395,421.57142761775424,1669.6,454.0714133126395,346.57142761775424,1776.5,501.5714133126395,281.57142761775424,1888,504.0714133126395,291.57142761775424,1995.2,491.5714133126395,322.82142761775424,2106.9,491.5714133126395,336.57142761775424,2210.6,491.5714133126395,336.57142761775424,2315.5,492.8214133126395,336.57142761775424,2418,492.8214133126395,336.57142761775424,2519.5,492.8214133126395,336.57142761775424,2622.5,499.0714133126395,331.57142761775424,2726.6,540.3214133126395,306.57142761775424,2830.4,686.5714133126395,186.57142761775424,2936.1,716.5714133126395,154.07142761775424,3036.5,729.0714133126395,142.82142761775424,3139.9,731.5714133126395,137.82142761775424,3243.8,735.3214133126395,114.07142761775425,3345.7,736.5714133126395,106.57142761775425,3452.4,736.5714133126395,106.57142761775425,3563,736.5714133126395,106.57142761775425,3665.7,736.5714133126395,106.57142761775425,3772.1,736.5714133126395,106.57142761775425,3873,736.5714133126395,106.57142761775425,3974.8,736.5714133126395,106.57142761775425,4076,736.5714133126395,106.57142761775425,4182,736.5714133126395,106.57142761775425,4282.9,736.5714133126395,106.57142761775425,4390,736.5714133126395,106.57142761775425,4501.9,736.5714133126395,106.57142761775425,4605,736.5714133126395,106.57142761775425,4710.4,736.5714133126395,106.57142761775425,4815.9,736.5714133126395,106.57142761775425,4917.3]","[1843.2,1843.2,1000,0,843.2,""oops"",""right"",""left"",""good_move"",2519.9,675.9,2658.2,1844,-1982.3,""error"",""-"",""-"",""no_move"",5781.3,3261,2532.8,3521.9,-273.4,""error"",""-"",""-"",""no_move"",15866.5,10085.1,2621.3,12675.5,569.7,""smooth"",""down"",""down"",""good_move"",16534.3,667.4,2169.3,15866.9,-1501.9,""error"",""-"",""-"",""no_move"",20735.9,4201.5,2666.4,17536.2,533.3,""oops"",""down"",""down"",""good_move"",21791.1,1054.9,2760.6,20736.2,-1705.7,""error"",""-"",""-"",""no_move"",35548.9,13757.3,2756.3,32246.2,546.4,""oops"",""down"",""down"",""good_move"",38926.9,3377.9,2629.8,35549.1,748.1,""smooth"",""left"",""left"",""good_move"",44660,5732.6,2038.1,41918,703.9,""oops"",""left"",""left"",""good_move""]"
"5363","","<div style=""width:500px;"">
  <p>What determined the result of this run?</p>
  </div>","80","html-slider-response","54","1099811","0.0-7.0-1.8","167","1","2025-08-06 09:31:48","36c45c0696341be0efffe67d72a12abb","41.150.32.198","Mozilla/5.0 (Windows NT 10.0; Win64; x64) AppleWebKit/537.36 (KHTML, like Gecko) Chrome/138.0.0.0 Safari/537.36 Edg/138.0.0.0","WebKit","Edge","138.0.0.0","Windows","10.0","https://app.prolific.com/","en-GB,en;q=0.9,en-US;q=0.8,en-ZA;q=0.7","67d057fe81435b77cf5a4681","687a1a965b9f5b85a264363e","689320a1bdf7b5a03253ff17","1","67d057fe81435b77cf5a4681","1","2025-08-06T09:50:11.468Z","","","","AttribQ","","","","","","","","","","","50","","","","","","","","","","","","","","","","","","","","","","","","","","",""
"6117","","<div style=""width:500px;"">
  <p>How much control did you have over the ball?</p>
  </div>","87","html-slider-response","55","1105929","0.0-7.0-2.8","167","1","2025-08-06 09:31:48","36c45c0696341be0efffe67d72a12abb","41.150.32.198","Mozilla/5.0 (Windows NT 10.0; Win64; x64) AppleWebKit/537.36 (KHTML, like Gecko) Chrome/138.0.0.0 Safari/537.36 Edg/138.0.0.0","WebKit","Edge","138.0.0.0","Windows","10.0","https://app.prolific.com/","en-GB,en;q=0.9,en-US;q=0.8,en-ZA;q=0.7","67d057fe81435b77cf5a4681","687a1a965b9f5b85a264363e","689320a1bdf7b5a03253ff17","1","67d057fe81435b77cf5a4681","1","2025-08-06T09:50:17.586Z","","","","ControlQ","","","","","","","","","","","50","","","","","","","","","","","","","","","","","","","","","","","","","","",""
"3247","","<div style=""width:500px;"">
  <p>How would you describe your current emotional state?</p>
  </div>","33","html-slider-response","56","1109178","0.0-7.0-3.8","167","1","2025-08-06 09:31:48","36c45c0696341be0efffe67d72a12abb","41.150.32.198","Mozilla/5.0 (Windows NT 10.0; Win64; x64) AppleWebKit/537.36 (KHTML, like Gecko) Chrome/138.0.0.0 Safari/537.36 Edg/138.0.0.0","WebKit","Edge","138.0.0.0","Windows","10.0","https://app.prolific.com/","en-GB,en;q=0.9,en-US;q=0.8,en-ZA;q=0.7","67d057fe81435b77cf5a4681","687a1a965b9f5b85a264363e","689320a1bdf7b5a03253ff17","1","67d057fe81435b77cf5a4681","1","2025-08-06T09:50:20.835Z","","","","StressQ","","","","","","","","","","","50","","","","","","","","","","","","","","","","","","","","","","","","","","",""
"18159","","<div style=""width:500px;"">
  <p>What best describes how you currently feel?</p>
  </div>","78","html-slider-response","57","1127339","0.0-7.0-4.8","167","1","2025-08-06 09:31:48","36c45c0696341be0efffe67d72a12abb","41.150.32.198","Mozilla/5.0 (Windows NT 10.0; Win64; x64) AppleWebKit/537.36 (KHTML, like Gecko) Chrome/138.0.0.0 Safari/537.36 Edg/138.0.0.0","WebKit","Edge","138.0.0.0","Windows","10.0","https://app.prolific.com/","en-GB,en;q=0.9,en-US;q=0.8,en-ZA;q=0.7","67d057fe81435b77cf5a4681","687a1a965b9f5b85a264363e","689320a1bdf7b5a03253ff17","1","67d057fe81435b77cf5a4681","1","2025-08-06T09:50:38.997Z","","","","MotivationQ","","","","","","","","","","","50","","","","","","","","","","","","","","","","","","","","","","","","","","",""
"","","","","ctl-task-cpt","58","1177850","0.0-7.0-0.9","167","1","2025-08-06 09:31:48","36c45c0696341be0efffe67d72a12abb","41.150.32.198","Mozilla/5.0 (Windows NT 10.0; Win64; x64) AppleWebKit/537.36 (KHTML, like Gecko) Chrome/138.0.0.0 Safari/537.36 Edg/138.0.0.0","WebKit","Edge","138.0.0.0","Windows","10.0","https://app.prolific.com/","en-GB,en;q=0.9,en-US;q=0.8,en-ZA;q=0.7","67d057fe81435b77cf5a4681","687a1a965b9f5b85a264363e","689320a1bdf7b5a03253ff17","1","67d057fe81435b77cf5a4681","1","2025-08-06T09:51:29.507Z","","","","","","","","","","","","","","","","win-only","3","g1:SW,g2:NE","0.5","10","0","1130615","3337.7","8344.3","47497.6","1","4","4","6","2","-4","-9","0","4","0","5006.6","3000","-1930","[""up"",""right""]","{""num_key_presses"":12,""num_perfect"":3,""num_errors"":5,""num_randdir"":3,""num_randdir_good_moves"":1,""num_whilered"":1,""num_whileblue"":1,""num_blue"":3,""num_good_moves"":4}","[402.8214133126395,416.57142761775424,0.3,402.8214133126395,416.57142761775424,100.5,402.8214133126395,416.57142761775424,213.6,402.8214133126395,416.57142761775424,317,402.8214133126395,416.57142761775424,418.5,402.8214133126395,416.57142761775424,525.2,402.8214133126395,416.57142761775424,626.3,402.8214133126395,416.57142761775424,727.8,395.3214133126395,425.32142761775424,828.7,385.3214133126395,440.32142761775424,931.8,381.5714133126395,459.07142761775424,1036.3,372.8214133126395,474.07142761775424,1143.6,359.0714133126395,484.07142761775424,1247.6,311.5714133126395,531.5714276177542,1351.6,230.3214133126395,604.0714276177542,1452.5,175.3214133126395,637.8214276177542,1556.3,175.3214133126395,637.8214276177542,1661.8,175.3214133126395,637.8214276177542,1772.2,139.0714133126395,676.5714276177542,1878.2,46.57141331263951,774.0714276177542,1981.6,46.57141331263951,774.0714276177542,2091.3,46.57141331263951,774.0714276177542,2194.1,44.07141331263951,776.5714276177542,2296.8,44.07141331263951,776.5714276177542,2397.2,44.07141331263951,776.5714276177542,2511.4,32.82141331263951,785.3214276177542,2611.6,32.82141331263951,785.3214276177542,2718,32.82141331263951,785.3214276177542,2821.6,57.82141331263951,771.5714276177542,2926.7,57.82141331263951,771.5714276177542,3028.7,57.82141331263951,771.5714276177542,3135.9,57.82141331263951,771.5714276177542,3236.3,57.82141331263951,771.5714276177542,3341.9,57.82141331263951,771.5714276177542,3445.6,57.82141331263951,771.5714276177542,3548.9,57.82141331263951,771.5714276177542,3658.8,57.82141331263951,771.5714276177542,3760.1,57.82141331263951,771.5714276177542,3863.9,57.82141331263951,771.5714276177542,3968.4,57.82141331263951,771.5714276177542,4071.2,57.82141331263951,771.5714276177542,4175.3,57.82141331263951,771.5714276177542,4275.9,57.82141331263951,771.5714276177542,4378.7,57.82141331263951,771.5714276177542,4479.6,57.82141331263951,771.5714276177542,4579.8,57.82141331263951,771.5714276177542,4682.6,57.82141331263951,771.5714276177542,4790.4,57.82141331263951,771.5714276177542,4891.6]","[3140.2,3140.2,1000,0,2140.2,""smooth"",""right"",""right"",""good_move"",3773.8,633.2,2485.8,3140.6,-1852.6,""error"",""-"",""-"",""no_move"",7930.4,4156.2,2622.2,4774.6,533.6,""smooth"",""right"",""right"",""good_move"",17686,9755.4,2488.6,14793.9,403.5,""while_blue"",""right"",""left"",""bad_move"",20686.4,3000.1,2607.5,17686.4,392.5,""oops"",""right"",""down"",""bad_move"",21570.4,883.3,2401.4,20687.1,-1518.1,""error"",""-"",""-"",""no_move"",24876.8,3306.2,1859.8,22572.7,444.3,""oops"",""right"",""down"",""bad_move"",26938.3,2061.4,2404.6,24876.9,-343.2,""error"",""-"",""-"",""no_move"",30917,3978.5,2422.7,27944.5,549.8,""oops"",""left"",""right"",""good_move"",31742.4,825.2,2145.9,30917.2,-1320.7,""error"",""-"",""-"",""no_move"",32558.7,816.1,2145.9,30917.2,-504.4,""while_red"",""-"",""-"",""no_move"",35681.9,3939.3,2052.3,32751.1,878.5,""smooth"",""right"",""right"",""good_move""]"
"4013","","<div style=""width:500px;"">
  <p>What determined the result of this run?</p>
  </div>","96","html-slider-response","59","1181865","0.0-7.0-1.9","167","1","2025-08-06 09:31:48","36c45c0696341be0efffe67d72a12abb","41.150.32.198","Mozilla/5.0 (Windows NT 10.0; Win64; x64) AppleWebKit/537.36 (KHTML, like Gecko) Chrome/138.0.0.0 Safari/537.36 Edg/138.0.0.0","WebKit","Edge","138.0.0.0","Windows","10.0","https://app.prolific.com/","en-GB,en;q=0.9,en-US;q=0.8,en-ZA;q=0.7","67d057fe81435b77cf5a4681","687a1a965b9f5b85a264363e","689320a1bdf7b5a03253ff17","1","67d057fe81435b77cf5a4681","1","2025-08-06T09:51:33.522Z","","","","AttribQ","","","","","","","","","","","50","","","","","","","","","","","","","","","","","","","","","","","","","","",""
"3549","","<div style=""width:500px;"">
  <p>How much control did you have over the ball?</p>
  </div>","88","html-slider-response","60","1185415","0.0-7.0-2.9","167","1","2025-08-06 09:31:48","36c45c0696341be0efffe67d72a12abb","41.150.32.198","Mozilla/5.0 (Windows NT 10.0; Win64; x64) AppleWebKit/537.36 (KHTML, like Gecko) Chrome/138.0.0.0 Safari/537.36 Edg/138.0.0.0","WebKit","Edge","138.0.0.0","Windows","10.0","https://app.prolific.com/","en-GB,en;q=0.9,en-US;q=0.8,en-ZA;q=0.7","67d057fe81435b77cf5a4681","687a1a965b9f5b85a264363e","689320a1bdf7b5a03253ff17","1","67d057fe81435b77cf5a4681","1","2025-08-06T09:51:37.072Z","","","","ControlQ","","","","","","","","","","","50","","","","","","","","","","","","","","","","","","","","","","","","","","",""
"5364","","<div style=""width:500px;"">
  <p>How would you describe your current emotional state?</p>
  </div>","20","html-slider-response","61","1190780","0.0-7.0-3.9","167","1","2025-08-06 09:31:48","36c45c0696341be0efffe67d72a12abb","41.150.32.198","Mozilla/5.0 (Windows NT 10.0; Win64; x64) AppleWebKit/537.36 (KHTML, like Gecko) Chrome/138.0.0.0 Safari/537.36 Edg/138.0.0.0","WebKit","Edge","138.0.0.0","Windows","10.0","https://app.prolific.com/","en-GB,en;q=0.9,en-US;q=0.8,en-ZA;q=0.7","67d057fe81435b77cf5a4681","687a1a965b9f5b85a264363e","689320a1bdf7b5a03253ff17","1","67d057fe81435b77cf5a4681","1","2025-08-06T09:51:42.438Z","","","","StressQ","","","","","","","","","","","50","","","","","","","","","","","","","","","","","","","","","","","","","","",""
"4360","","<div style=""width:500px;"">
  <p>What best describes how you currently feel?</p>
  </div>","80","html-slider-response","62","1195143","0.0-7.0-4.9","167","1","2025-08-06 09:31:48","36c45c0696341be0efffe67d72a12abb","41.150.32.198","Mozilla/5.0 (Windows NT 10.0; Win64; x64) AppleWebKit/537.36 (KHTML, like Gecko) Chrome/138.0.0.0 Safari/537.36 Edg/138.0.0.0","WebKit","Edge","138.0.0.0","Windows","10.0","https://app.prolific.com/","en-GB,en;q=0.9,en-US;q=0.8,en-ZA;q=0.7","67d057fe81435b77cf5a4681","687a1a965b9f5b85a264363e","689320a1bdf7b5a03253ff17","1","67d057fe81435b77cf5a4681","1","2025-08-06T09:51:46.800Z","","","","MotivationQ","","","","","","","","","","","50","","","","","","","","","","","","","","","","","","","","","","","","","","",""
"","","","","ctl-task-cpt","63","1222620","0.0-7.0-0.10","167","1","2025-08-06 09:31:48","36c45c0696341be0efffe67d72a12abb","41.150.32.198","Mozilla/5.0 (Windows NT 10.0; Win64; x64) AppleWebKit/537.36 (KHTML, like Gecko) Chrome/138.0.0.0 Safari/537.36 Edg/138.0.0.0","WebKit","Edge","138.0.0.0","Windows","10.0","https://app.prolific.com/","en-GB,en;q=0.9,en-US;q=0.8,en-ZA;q=0.7","67d057fe81435b77cf5a4681","687a1a965b9f5b85a264363e","689320a1bdf7b5a03253ff17","1","67d057fe81435b77cf5a4681","1","2025-08-06T09:52:14.277Z","","","","","","","","","","","","","","","","win-only","2","g1:SE,g2:NW","0.6","11","0","1198419.3","3962.6","8965","24452.4","1","4","4","6","1","1","1","1","0","0.007575757575757576","5002.4","3000","865","[""down"",""right""]","{""num_key_presses"":4,""num_perfect"":2,""num_errors"":0,""num_randdir"":2,""num_randdir_good_moves"":2,""num_whilered"":0,""num_whileblue"":0,""num_blue"":1,""num_good_moves"":4}","[411.5714133126395,414.07142761775424,0.3,411.5714133126395,414.07142761775424,100.7,411.5714133126395,414.07142761775424,200.9,411.5714133126395,414.07142761775424,310.5,411.5714133126395,414.07142761775424,417.5,411.5714133126395,414.07142761775424,526.6,411.5714133126395,414.07142761775424,629.9,411.5714133126395,414.07142761775424,732.6,411.5714133126395,414.07142761775424,836.4,411.5714133126395,414.07142761775424,936.9,411.5714133126395,414.07142761775424,1038.8,411.5714133126395,414.07142761775424,1139.6,411.5714133126395,414.07142761775424,1243.4,411.5714133126395,414.07142761775424,1348.9,411.5714133126395,414.07142761775424,1451.3,411.5714133126395,414.07142761775424,1553.3,411.5714133126395,414.07142761775424,1655.6,411.5714133126395,414.07142761775424,1766,411.5714133126395,414.07142761775424,1868.6,411.5714133126395,414.07142761775424,1970.3,411.5714133126395,414.07142761775424,2071.1,411.5714133126395,414.07142761775424,2181.7,411.5714133126395,414.07142761775424,2282.3,510.3214133126395,435.32142761775424,2386.8,817.8214133126395,476.57142761775424,2487.7,851.5714133126395,501.57142761775424,2592.6,851.5714133126395,501.57142761775424,2695.2,851.5714133126395,501.57142761775424,2799.3,852.8214133126395,504.07142761775424,2908.2,852.8214133126395,504.07142761775424,3011.2,852.8214133126395,504.07142761775424,3118.3,854.0714133126395,519.0714276177542,3228.8,854.0714133126395,519.0714276177542,3344.4,854.0714133126395,519.0714276177542,3461.1,849.0714133126395,556.5714276177542,3566.3,849.0714133126395,556.5714276177542,3675.8,849.0714133126395,556.5714276177542,3779.2,539.0714133126395,960.3214276177542,3881.5,472.8214133126395,960.3214276177542,3984.4,471.5714133126395,960.3214276177542,4093.1,471.5714133126395,960.3214276177542,4194.8,456.5714133126395,959.0714276177542,4303.5,360.3214133126395,946.5714276177542,4410.8,319.0714133126395,954.0714276177542,4519.8,316.5714133126395,956.5714276177542,4623.9,311.5714133126395,960.3214276177542,4728.8,266.5714133126395,960.3214276177542,4830.4,227.8214133126395,960.3214276177542,4935.2]","[2252.8,2252.8,1000,0,1252.8,""oops"",""right"",""down"",""good_move"",5363.4,3110.1,2281.3,2253.3,828.8,""smooth"",""right"",""right"",""good_move"",8452.1,3088.1,2291.3,5364,796.8,""oops"",""right"",""right"",""good_move"",15349.6,6897.4,2486.8,12418.3,444.5,""smooth"",""down"",""down"",""good_move""]"
"3900","","<div style=""width:500px;"">
  <p>What determined the result of this run?</p>
  </div>","97","html-slider-response","64","1226522","0.0-7.0-1.10","167","1","2025-08-06 09:31:48","36c45c0696341be0efffe67d72a12abb","41.150.32.198","Mozilla/5.0 (Windows NT 10.0; Win64; x64) AppleWebKit/537.36 (KHTML, like Gecko) Chrome/138.0.0.0 Safari/537.36 Edg/138.0.0.0","WebKit","Edge","138.0.0.0","Windows","10.0","https://app.prolific.com/","en-GB,en;q=0.9,en-US;q=0.8,en-ZA;q=0.7","67d057fe81435b77cf5a4681","687a1a965b9f5b85a264363e","689320a1bdf7b5a03253ff17","1","67d057fe81435b77cf5a4681","1","2025-08-06T09:52:18.180Z","","","","AttribQ","","","","","","","","","","","50","","","","","","","","","","","","","","","","","","","","","","","","","","",""
"2898","","<div style=""width:500px;"">
  <p>How much control did you have over the ball?</p>
  </div>","90","html-slider-response","65","1229422","0.0-7.0-2.10","167","1","2025-08-06 09:31:48","36c45c0696341be0efffe67d72a12abb","41.150.32.198","Mozilla/5.0 (Windows NT 10.0; Win64; x64) AppleWebKit/537.36 (KHTML, like Gecko) Chrome/138.0.0.0 Safari/537.36 Edg/138.0.0.0","WebKit","Edge","138.0.0.0","Windows","10.0","https://app.prolific.com/","en-GB,en;q=0.9,en-US;q=0.8,en-ZA;q=0.7","67d057fe81435b77cf5a4681","687a1a965b9f5b85a264363e","689320a1bdf7b5a03253ff17","1","67d057fe81435b77cf5a4681","1","2025-08-06T09:52:21.079Z","","","","ControlQ","","","","","","","","","","","50","","","","","","","","","","","","","","","","","","","","","","","","","","",""
"5063","","<div style=""width:500px;"">
  <p>How would you describe your current emotional state?</p>
  </div>","17","html-slider-response","66","1234487","0.0-7.0-3.10","167","1","2025-08-06 09:31:48","36c45c0696341be0efffe67d72a12abb","41.150.32.198","Mozilla/5.0 (Windows NT 10.0; Win64; x64) AppleWebKit/537.36 (KHTML, like Gecko) Chrome/138.0.0.0 Safari/537.36 Edg/138.0.0.0","WebKit","Edge","138.0.0.0","Windows","10.0","https://app.prolific.com/","en-GB,en;q=0.9,en-US;q=0.8,en-ZA;q=0.7","67d057fe81435b77cf5a4681","687a1a965b9f5b85a264363e","689320a1bdf7b5a03253ff17","1","67d057fe81435b77cf5a4681","1","2025-08-06T09:52:26.144Z","","","","StressQ","","","","","","","","","","","50","","","","","","","","","","","","","","","","","","","","","","","","","","",""
"4394","","<div style=""width:500px;"">
  <p>What best describes how you currently feel?</p>
  </div>","100","html-slider-response","67","1238883","0.0-7.0-4.10","167","1","2025-08-06 09:31:48","36c45c0696341be0efffe67d72a12abb","41.150.32.198","Mozilla/5.0 (Windows NT 10.0; Win64; x64) AppleWebKit/537.36 (KHTML, like Gecko) Chrome/138.0.0.0 Safari/537.36 Edg/138.0.0.0","WebKit","Edge","138.0.0.0","Windows","10.0","https://app.prolific.com/","en-GB,en;q=0.9,en-US;q=0.8,en-ZA;q=0.7","67d057fe81435b77cf5a4681","687a1a965b9f5b85a264363e","689320a1bdf7b5a03253ff17","1","67d057fe81435b77cf5a4681","1","2025-08-06T09:52:30.541Z","","","","MotivationQ","","","","","","","","","","","50","","","","","","","","","","","","","","","","","","","","","","","","","","",""
"","","","","ctl-task-cpt","68","1261761","0.0-7.0-0.11","167","1","2025-08-06 09:31:48","36c45c0696341be0efffe67d72a12abb","41.150.32.198","Mozilla/5.0 (Windows NT 10.0; Win64; x64) AppleWebKit/537.36 (KHTML, like Gecko) Chrome/138.0.0.0 Safari/537.36 Edg/138.0.0.0","WebKit","Edge","138.0.0.0","Windows","10.0","https://app.prolific.com/","en-GB,en;q=0.9,en-US;q=0.8,en-ZA;q=0.7","67d057fe81435b77cf5a4681","687a1a965b9f5b85a264363e","689320a1bdf7b5a03253ff17","1","67d057fe81435b77cf5a4681","1","2025-08-06T09:52:53.418Z","","","","","","","","","","","","","","","","win-only","3","g1:SW,g2:NE","0.7","12","0","1242159.8","1582.7","6594.6","19856.6","1","4","8","6","1","1","0","1","1","0.007575757575757576","2678","3000","1975","[""down"",""left""]","{""num_key_presses"":5,""num_perfect"":3,""num_errors"":1,""num_randdir"":1,""num_randdir_good_moves"":1,""num_whilered"":0,""num_whileblue"":0,""num_blue"":0,""num_good_moves"":4}","[421.5714133126395,421.57142761775424,0.1,421.5714133126395,421.57142761775424,106.8,421.5714133126395,421.57142761775424,216.1,421.5714133126395,421.57142761775424,321.3,421.5714133126395,421.57142761775424,428.9,421.5714133126395,421.57142761775424,529.6,421.5714133126395,421.57142761775424,636.7,421.5714133126395,421.57142761775424,743.9,421.5714133126395,421.57142761775424,850.3,421.5714133126395,421.57142761775424,952.3,421.5714133126395,421.57142761775424,1055.1,421.5714133126395,421.57142761775424,1159.2,421.5714133126395,421.57142761775424,1277,421.5714133126395,421.57142761775424,1386.1,421.5714133126395,421.57142761775424,1492,421.5714133126395,421.57142761775424,1597.9,421.5714133126395,421.57142761775424,1700,421.5714133126395,421.57142761775424,1805.9,359.0714133126395,442.82142761775424,1907.4,147.8214133126395,557.8214276177542,2012.2,56.57141331263951,710.3214276177542,2119.1,44.07141331263951,741.5714276177542,2225.5,56.57141331263951,741.5714276177542,2331.3,57.82141331263951,751.5714276177542,2431.5,59.07141331263951,759.0714276177542,2532.9,59.07141331263951,759.0714276177542,2633.5,59.07141331263951,759.0714276177542,2736.8,59.07141331263951,759.0714276177542,2844.3,59.07141331263951,759.0714276177542,2945,59.07141331263951,759.0714276177542,3047.4,59.07141331263951,759.0714276177542,3155.2,59.07141331263951,759.0714276177542,3255.3,59.07141331263951,759.0714276177542,3364.6,59.07141331263951,759.0714276177542,3466.8,59.07141331263951,759.0714276177542,3567.5,59.07141331263951,759.0714276177542,3669.4,59.07141331263951,759.0714276177542,3774.2,59.07141331263951,759.0714276177542,3882.3,59.07141331263951,759.0714276177542,3984.6,59.07141331263951,759.0714276177542,4086.1,59.07141331263951,759.0714276177542,4197.3,59.07141331263951,759.0714276177542,4299.6,59.07141331263951,759.0714276177542,4403.1,59.07141331263951,759.0714276177542,4515.2,59.07141331263951,759.0714276177542,4618.7,59.07141331263951,759.0714276177542,4726.6,59.07141331263951,759.0714276177542,4828.6,59.07141331263951,759.0714276177542,4935.6]","[616.7,616.8,1000,0,-383.2,""error"",""-"",""-"",""no_move"",5073.2,4456.2,2810.4,1625.7,637.1,""smooth"",""down"",""down"",""good_move"",7906.9,2833.1,2162.9,5073.8,670.2,""smooth"",""down"",""down"",""good_move"",11053.9,3147,2596.1,7906.9,550.9,""smooth"",""left"",""left"",""good_move"",13129.8,2075.7,1538.1,11054.1,537.6,""oops"",""left"",""left"",""good_move""]"
"3272","","<div style=""width:500px;"">
  <p>What determined the result of this run?</p>
  </div>","100","html-slider-response","69","1265034","0.0-7.0-1.11","167","1","2025-08-06 09:31:48","36c45c0696341be0efffe67d72a12abb","41.150.32.198","Mozilla/5.0 (Windows NT 10.0; Win64; x64) AppleWebKit/537.36 (KHTML, like Gecko) Chrome/138.0.0.0 Safari/537.36 Edg/138.0.0.0","WebKit","Edge","138.0.0.0","Windows","10.0","https://app.prolific.com/","en-GB,en;q=0.9,en-US;q=0.8,en-ZA;q=0.7","67d057fe81435b77cf5a4681","687a1a965b9f5b85a264363e","689320a1bdf7b5a03253ff17","1","67d057fe81435b77cf5a4681","1","2025-08-06T09:52:56.692Z","","","","AttribQ","","","","","","","","","","","50","","","","","","","","","","","","","","","","","","","","","","","","","","",""
"11532","","<div style=""width:500px;"">
  <p>How much control did you have over the ball?</p>
  </div>","89","html-slider-response","70","1276568","0.0-7.0-2.11","167","1","2025-08-06 09:31:48","36c45c0696341be0efffe67d72a12abb","41.150.32.198","Mozilla/5.0 (Windows NT 10.0; Win64; x64) AppleWebKit/537.36 (KHTML, like Gecko) Chrome/138.0.0.0 Safari/537.36 Edg/138.0.0.0","WebKit","Edge","138.0.0.0","Windows","10.0","https://app.prolific.com/","en-GB,en;q=0.9,en-US;q=0.8,en-ZA;q=0.7","67d057fe81435b77cf5a4681","687a1a965b9f5b85a264363e","689320a1bdf7b5a03253ff17","1","67d057fe81435b77cf5a4681","1","2025-08-06T09:53:08.225Z","","","","ControlQ","","","","","","","","","","","50","","","","","","","","","","","","","","","","","","","","","","","","","","",""
"8247","","<div style=""width:500px;"">
  <p>How would you describe your current emotional state?</p>
  </div>","14","html-slider-response","71","1284817","0.0-7.0-3.11","167","1","2025-08-06 09:31:48","36c45c0696341be0efffe67d72a12abb","41.150.32.198","Mozilla/5.0 (Windows NT 10.0; Win64; x64) AppleWebKit/537.36 (KHTML, like Gecko) Chrome/138.0.0.0 Safari/537.36 Edg/138.0.0.0","WebKit","Edge","138.0.0.0","Windows","10.0","https://app.prolific.com/","en-GB,en;q=0.9,en-US;q=0.8,en-ZA;q=0.7","67d057fe81435b77cf5a4681","687a1a965b9f5b85a264363e","689320a1bdf7b5a03253ff17","1","67d057fe81435b77cf5a4681","1","2025-08-06T09:53:16.474Z","","","","StressQ","","","","","","","","","","","50","","","","","","","","","","","","","","","","","","","","","","","","","","",""
"4271","","<div style=""width:500px;"">
  <p>What best describes how you currently feel?</p>
  </div>","93","html-slider-response","72","1289090","0.0-7.0-4.11","167","1","2025-08-06 09:31:48","36c45c0696341be0efffe67d72a12abb","41.150.32.198","Mozilla/5.0 (Windows NT 10.0; Win64; x64) AppleWebKit/537.36 (KHTML, like Gecko) Chrome/138.0.0.0 Safari/537.36 Edg/138.0.0.0","WebKit","Edge","138.0.0.0","Windows","10.0","https://app.prolific.com/","en-GB,en;q=0.9,en-US;q=0.8,en-ZA;q=0.7","67d057fe81435b77cf5a4681","687a1a965b9f5b85a264363e","689320a1bdf7b5a03253ff17","1","67d057fe81435b77cf5a4681","1","2025-08-06T09:53:20.747Z","","","","MotivationQ","","","","","","","","","","","50","","","","","","","","","","","","","","","","","","","","","","","","","","",""
"","","","","ctl-task-cpt","73","1318574","0.0-7.0-0.12","167","1","2025-08-06 09:31:48","36c45c0696341be0efffe67d72a12abb","41.150.32.198","Mozilla/5.0 (Windows NT 10.0; Win64; x64) AppleWebKit/537.36 (KHTML, like Gecko) Chrome/138.0.0.0 Safari/537.36 Edg/138.0.0.0","WebKit","Edge","138.0.0.0","Windows","10.0","https://app.prolific.com/","en-GB,en;q=0.9,en-US;q=0.8,en-ZA;q=0.7","67d057fe81435b77cf5a4681","687a1a965b9f5b85a264363e","689320a1bdf7b5a03253ff17","1","67d057fe81435b77cf5a4681","1","2025-08-06T09:53:50.231Z","","","","","","","","","","","","","","","","win-only","1","g1:NE,g2:SW","0.8","13","0","1292367.4","2623.7","7633.7","26455.7","1","4","8","6","1","1","1","2","1","0.015151515151515152","5010","3000","2230","[""up"",""right""]","{""num_key_presses"":4,""num_perfect"":4,""num_errors"":0,""num_randdir"":0,""num_randdir_good_moves"":0,""num_whilered"":0,""num_whileblue"":0,""num_blue"":2,""num_good_moves"":4}","[424.0714133126395,426.57142761775424,0.2,424.0714133126395,426.57142761775424,102.1,424.0714133126395,426.57142761775424,208.9,424.0714133126395,426.57142761775424,312,424.0714133126395,426.57142761775424,415.9,424.0714133126395,426.57142761775424,523.2,424.0714133126395,426.57142761775424,624.3,424.0714133126395,426.57142761775424,733.4,424.0714133126395,426.57142761775424,834,424.0714133126395,426.57142761775424,942.8,424.0714133126395,426.57142761775424,1046,424.0714133126395,426.57142761775424,1150.1,424.0714133126395,426.57142761775424,1252.8,424.0714133126395,426.57142761775424,1354.9,424.0714133126395,426.57142761775424,1460,424.0714133126395,426.57142761775424,1564.9,426.5714133126395,417.82142761775424,1675,446.5714133126395,407.82142761775424,1787.8,446.5714133126395,407.82142761775424,1896.4,446.5714133126395,407.82142761775424,1997.9,446.5714133126395,407.82142761775424,2104.6,446.5714133126395,407.82142761775424,2211.2,446.5714133126395,407.82142761775424,2314.4,446.5714133126395,407.82142761775424,2420.4,446.5714133126395,407.82142761775424,2522.3,446.5714133126395,407.82142761775424,2626.6,446.5714133126395,407.82142761775424,2730.4,446.5714133126395,407.82142761775424,2831.4,446.5714133126395,407.82142761775424,2943.5,446.5714133126395,407.82142761775424,3048,446.5714133126395,407.82142761775424,3154,446.5714133126395,407.82142761775424,3257.2,446.5714133126395,407.82142761775424,3362.5,711.5714133126395,210.32142761775424,3465.5,711.5714133126395,210.32142761775424,3572.5,711.5714133126395,210.32142761775424,3673,711.5714133126395,210.32142761775424,3774.4,836.5714133126395,105.32142761775425,3891.8,841.5714133126395,71.57142761775425,3999.1,830.3214133126395,62.82142761775425,4102.6,826.5714133126395,61.57142761775425,4212,826.5714133126395,61.57142761775425,4319.7,826.5714133126395,61.57142761775425,4434.2,825.3214133126395,61.57142761775425,4541.1,825.3214133126395,61.57142761775425,4654.6,799.0714133126395,74.07142761775425,4766.2,799.0714133126395,74.07142761775425,4874.9,799.0714133126395,74.07142761775425,4978.9]","[1471.4,1471.4,1000,0,471.4,""smooth"",""right"",""right"",""good_move"",8287.4,6815.7,2784.8,5015.5,487.1,""smooth"",""right"",""right"",""good_move"",11131.3,2843.8,2374,8287.5,469.8,""smooth"",""up"",""up"",""good_move"",18553.3,7421.8,2748.3,15291.7,513.3,""smooth"",""up"",""up"",""good_move""]"
"3226","","<div style=""width:500px;"">
  <p>What determined the result of this run?</p>
  </div>","100","html-slider-response","74","1321803","0.0-7.0-1.12","167","1","2025-08-06 09:31:48","36c45c0696341be0efffe67d72a12abb","41.150.32.198","Mozilla/5.0 (Windows NT 10.0; Win64; x64) AppleWebKit/537.36 (KHTML, like Gecko) Chrome/138.0.0.0 Safari/537.36 Edg/138.0.0.0","WebKit","Edge","138.0.0.0","Windows","10.0","https://app.prolific.com/","en-GB,en;q=0.9,en-US;q=0.8,en-ZA;q=0.7","67d057fe81435b77cf5a4681","687a1a965b9f5b85a264363e","689320a1bdf7b5a03253ff17","1","67d057fe81435b77cf5a4681","1","2025-08-06T09:53:53.460Z","","","","AttribQ","","","","","","","","","","","50","","","","","","","","","","","","","","","","","","","","","","","","","","",""
"3066","","<div style=""width:500px;"">
  <p>How much control did you have over the ball?</p>
  </div>","98","html-slider-response","75","1324870","0.0-7.0-2.12","167","1","2025-08-06 09:31:48","36c45c0696341be0efffe67d72a12abb","41.150.32.198","Mozilla/5.0 (Windows NT 10.0; Win64; x64) AppleWebKit/537.36 (KHTML, like Gecko) Chrome/138.0.0.0 Safari/537.36 Edg/138.0.0.0","WebKit","Edge","138.0.0.0","Windows","10.0","https://app.prolific.com/","en-GB,en;q=0.9,en-US;q=0.8,en-ZA;q=0.7","67d057fe81435b77cf5a4681","687a1a965b9f5b85a264363e","689320a1bdf7b5a03253ff17","1","67d057fe81435b77cf5a4681","1","2025-08-06T09:53:56.527Z","","","","ControlQ","","","","","","","","","","","50","","","","","","","","","","","","","","","","","","","","","","","","","","",""
"3570","","<div style=""width:500px;"">
  <p>How would you describe your current emotional state?</p>
  </div>","19","html-slider-response","76","1328442","0.0-7.0-3.12","167","1","2025-08-06 09:31:48","36c45c0696341be0efffe67d72a12abb","41.150.32.198","Mozilla/5.0 (Windows NT 10.0; Win64; x64) AppleWebKit/537.36 (KHTML, like Gecko) Chrome/138.0.0.0 Safari/537.36 Edg/138.0.0.0","WebKit","Edge","138.0.0.0","Windows","10.0","https://app.prolific.com/","en-GB,en;q=0.9,en-US;q=0.8,en-ZA;q=0.7","67d057fe81435b77cf5a4681","687a1a965b9f5b85a264363e","689320a1bdf7b5a03253ff17","1","67d057fe81435b77cf5a4681","1","2025-08-06T09:54:00.099Z","","","","StressQ","","","","","","","","","","","50","","","","","","","","","","","","","","","","","","","","","","","","","","",""
"3963","","<div style=""width:500px;"">
  <p>What best describes how you currently feel?</p>
  </div>","91","html-slider-response","77","1332408","0.0-7.0-4.12","167","1","2025-08-06 09:31:48","36c45c0696341be0efffe67d72a12abb","41.150.32.198","Mozilla/5.0 (Windows NT 10.0; Win64; x64) AppleWebKit/537.36 (KHTML, like Gecko) Chrome/138.0.0.0 Safari/537.36 Edg/138.0.0.0","WebKit","Edge","138.0.0.0","Windows","10.0","https://app.prolific.com/","en-GB,en;q=0.9,en-US;q=0.8,en-ZA;q=0.7","67d057fe81435b77cf5a4681","687a1a965b9f5b85a264363e","689320a1bdf7b5a03253ff17","1","67d057fe81435b77cf5a4681","1","2025-08-06T09:54:04.065Z","","","","MotivationQ","","","","","","","","","","","50","","","","","","","","","","","","","","","","","","","","","","","","","","",""
