"rt","response_timestamp","stimulus","response","trial_type","trial_index","time_elapsed","internal_node_id","run_id","condition","recorded_at","source_code_version","ip","user_agent","device","browser","browser_version","platform","platform_version","referer","accept_language","PROLIFIC_PID","STUDY_ID","SESSION_ID","BATCH","prolific_id","batch","realtime","success","question_order","question_id","eventType","responses","item_order","radio_event_ids","radio_event_times","key_event_times","mouse_event_times","straightlining","zigzagging","honeypot","view_history","slider_start","which_type","canvas_config","goals_layout","control_level","trial_number","tutorial_trial_number","trial_start_time","phase1_start_time","phase2_start_time","phase3_start_time","goal_1_value","goal_1_distance","goal_2_value","goal_2_distance","goal_selected","outcome","outcome_total","participant_final_score","participant_initial_score","participant_final_score_prop","goal_choice_rt","allocated_time","allocated_time_remaining","goal_direction","counts","mouse_movements","key_presses"
"320946","1754475241432","<p style='font-size:40px;line-height:1.25'><strong>Welcome to the experiment!</strong></p><p style='font-size:1.1em;line-height:1.25'>Thank you for participanting in our experiment again! You will be asked to play the Dysfunctional Ball Game again. We will briefly recap the rules before we start.</p><p style='font-size:1.1em;line-height:1.25'>Press <strong>Next</strong> to continue.</p>","0","custom-html-button-response","0","320948","0.0-0.0","174","1","2025-08-06 10:08:37","36c45c0696341be0efffe67d72a12abb","197.184.92.191","Mozilla/5.0 (Windows NT 10.0; Win64; x64) AppleWebKit/537.36 (KHTML, like Gecko) Chrome/138.0.0.0 Safari/537.36","WebKit","Chrome","138.0.0.0","Windows","10.0","https://app.prolific.com/","en-US,en;q=0.9","67d163e7b7bcc1e9718e01da","6877649eabb845cf142cd221","6893298ad282056712f9337b","1","67d163e7b7bcc1e9718e01da","1","2025-08-06T10:14:01.433Z","","","","","","","","","","","","","","","","","","","","","","","","","","","","","","","","","","","","","","","","","",""
"2274","","","","fullscreen","1","324230","0.0-1.0","174","1","2025-08-06 10:08:37","36c45c0696341be0efffe67d72a12abb","197.184.92.191","Mozilla/5.0 (Windows NT 10.0; Win64; x64) AppleWebKit/537.36 (KHTML, like Gecko) Chrome/138.0.0.0 Safari/537.36","WebKit","Chrome","138.0.0.0","Windows","10.0","https://app.prolific.com/","en-US,en;q=0.9","67d163e7b7bcc1e9718e01da","6877649eabb845cf142cd221","6893298ad282056712f9337b","1","67d163e7b7bcc1e9718e01da","1","","true","","","","","","","","","","","","","","","","","","","","","","","","","","","","","","","","","","","","","","","","",""
"3408","1754475248124"," <p style='font-size:1.1em;line-height:1.25'>Thank you for closing all other tabs.</p><p style='font-size:1.1em;line-height:1.25'>We will now invite you to fill in some questionnaires, before starting the game.<br>This will take about 5 minutes.<br></p><p style='font-size:1.1em;line-height:1.25'>Press the <strong>Next</strong> button to continue.</p>","0","custom-html-button-response","2","327639","0.0-2.0","174","1","2025-08-06 10:08:37","36c45c0696341be0efffe67d72a12abb","197.184.92.191","Mozilla/5.0 (Windows NT 10.0; Win64; x64) AppleWebKit/537.36 (KHTML, like Gecko) Chrome/138.0.0.0 Safari/537.36","WebKit","Chrome","138.0.0.0","Windows","10.0","https://app.prolific.com/","en-US,en;q=0.9","67d163e7b7bcc1e9718e01da","6877649eabb845cf142cd221","6893298ad282056712f9337b","1","67d163e7b7bcc1e9718e01da","1","2025-08-06T10:14:08.124Z","","","","","","","","","","","","","","","","","","","","","","","","","","","","","","","","","","","","","","","","","",""
"3107","","","{""assigned_sex"":""female""}","survey-multi-choice","3","330748","0.0-3.0-0.0","174","1","2025-08-06 10:08:37","36c45c0696341be0efffe67d72a12abb","197.184.92.191","Mozilla/5.0 (Windows NT 10.0; Win64; x64) AppleWebKit/537.36 (KHTML, like Gecko) Chrome/138.0.0.0 Safari/537.36","WebKit","Chrome","138.0.0.0","Windows","10.0","https://app.prolific.com/","en-US,en;q=0.9","67d163e7b7bcc1e9718e01da","6877649eabb845cf142cd221","6893298ad282056712f9337b","1","67d163e7b7bcc1e9718e01da","1","","","[0]","0","demographics","","","","","","","","","","","","","","","","","","","","","","","","","","","","","","","","","","","","","",""
"2011","1754475253244","<p style='font-size:1.1em;line-height:1.25'>In the following, we will perform a baseline assessment. This means that we will ask you a few questions relating to your experiences over the past month.<br></p><p style='font-size:1.1em;line-height:1.25'>Press the <strong>Next</strong> button to continue.</p>","0","custom-html-button-response","4","332760","0.0-4.0-0.0","174","1","2025-08-06 10:08:37","36c45c0696341be0efffe67d72a12abb","197.184.92.191","Mozilla/5.0 (Windows NT 10.0; Win64; x64) AppleWebKit/537.36 (KHTML, like Gecko) Chrome/138.0.0.0 Safari/537.36","WebKit","Chrome","138.0.0.0","Windows","10.0","https://app.prolific.com/","en-US,en;q=0.9","67d163e7b7bcc1e9718e01da","6877649eabb845cf142cd221","6893298ad282056712f9337b","1","67d163e7b7bcc1e9718e01da","1","2025-08-06T10:14:13.245Z","","","","","","","","","","","","","","","","","","","","","","","","","","","","","","","","","","","","","","","","","",""
"639513.6999999285","","","","survey-template","5","972277","0.0-4.0-1.0","174","1","2025-08-06 10:08:37","36c45c0696341be0efffe67d72a12abb","197.184.92.191","Mozilla/5.0 (Windows NT 10.0; Win64; x64) AppleWebKit/537.36 (KHTML, like Gecko) Chrome/138.0.0.0 Safari/537.36","WebKit","Chrome","138.0.0.0","Windows","10.0","https://app.prolific.com/","en-US,en;q=0.9","67d163e7b7bcc1e9718e01da","6877649eabb845cf142cd221","6893298ad282056712f9337b","1","67d163e7b7bcc1e9718e01da","1","2025-08-06T10:24:52.762Z","","","","pss","{""Q01"":""3"",""Q02"":""2"",""Q03"":""3"",""Q04"":""1"",""Q05"":""2"",""Q06"":""3"",""Q07"":""2"",""Q08"":""1"",""Q09"":""2"",""Q10"":""3""}","[0,1,2,3,4,5,6,7,8,9]","[""Q01"",""Q02"",""Q03"",""Q04"",""Q05"",""Q06"",""Q07"",""Q08"",""Q09"",""Q10""]","[3914.899999976158,4525.399999976158,5225.399999976158,6309.799999952316,11546.899999976158,15085.299999952316,16341.699999928474,18740.199999928474,23423.100000023842,24841.399999976158]","[]","[0.2999999523162842,3914.899999976158,4525.399999976158,5225.399999976158,6309.799999952316,9334.899999976158,11546.899999976158,12835.199999928474,14497.199999928474,15085.299999952316,16341.699999928474,18740.199999928474,22039.199999928474,23423.100000023842,24841.399999976158,639510.2999999523]","0.6","0.8888888888888888","0","","","","","","","","","","","","","","","","","","","","","","","","","","","","",""
"1981","1754475894744","<p style='font-size:1.1em;line-height:1.25'>Thank you for your answers! Now we will ask you a few more questions relating to your feelings in the last 24 hours.<br></p><p style='font-size:1.1em;line-height:1.25'>Press the <strong>Next</strong> button to continue.</p>","0","custom-html-button-response","6","974260","0.0-4.0-2.0","174","1","2025-08-06 10:08:37","36c45c0696341be0efffe67d72a12abb","197.184.92.191","Mozilla/5.0 (Windows NT 10.0; Win64; x64) AppleWebKit/537.36 (KHTML, like Gecko) Chrome/138.0.0.0 Safari/537.36","WebKit","Chrome","138.0.0.0","Windows","10.0","https://app.prolific.com/","en-US,en;q=0.9","67d163e7b7bcc1e9718e01da","6877649eabb845cf142cd221","6893298ad282056712f9337b","1","67d163e7b7bcc1e9718e01da","1","2025-08-06T10:24:54.745Z","","","","","","","","","","","","","","","","","","","","","","","","","","","","","","","","","","","","","","","","","",""
"46357","","","","survey-template","7","1020624","0.0-4.0-3.0","174","1","2025-08-06 10:08:37","36c45c0696341be0efffe67d72a12abb","197.184.92.191","Mozilla/5.0 (Windows NT 10.0; Win64; x64) AppleWebKit/537.36 (KHTML, like Gecko) Chrome/138.0.0.0 Safari/537.36","WebKit","Chrome","138.0.0.0","Windows","10.0","https://app.prolific.com/","en-US,en;q=0.9","67d163e7b7bcc1e9718e01da","6877649eabb845cf142cd221","6893298ad282056712f9337b","1","67d163e7b7bcc1e9718e01da","1","2025-08-06T10:25:41.109Z","","","","drsp","{""Q01"":""3"",""Q02"":""4"",""Q03"":""4"",""Q04"":""3"",""Q05"":""4"",""Q06"":""3"",""Q07"":""4"",""Q08"":""4"",""Q09"":""3"",""Q10"":""4"",""Q11"":""4"",""Q12"":""3"",""Q13"":""5"",""Q14"":""3"",""Q15"":""4"",""Q16"":""3"",""Q17"":""4"",""Q18"":""4"",""Q19"":""3"",""Q20"":""4"",""Q21"":""3"",""Q22"":""4""}","[0,1,2,3,4,5,6,7,8,9,10,11,12,13,14,15,16,17,18,19,20,21]","[""Q02"",""Q01"",""Q03"",""Q13"",""Q11"",""Q11"",""Q10"",""Q12"",""Q09"",""Q08"",""Q07"",""Q06"",""Q04"",""Q05"",""Q14"",""Q15"",""Q16"",""Q17"",""Q18"",""Q19"",""Q20"",""Q21"",""Q22""]","[3695.600000023842,4492.600000023842,5424,10899.600000023842,13203,14368,15002.5,17093.399999976158,20633.399999976158,21770.700000047684,22937.800000071526,24238,26269.5,27384.100000023842,32076.100000023842,33124.10000002384,35820.89999997616,36391.300000071526,37234.200000047684,38847.800000071526,41111.89999997616,42632.700000047684,43876.700000047684]","[]","[0.30000007152557373,2298.600000023842,2857.899999976158,3695.600000023842,4492.600000023842,5424,10899.600000023842,12276.200000047684,12714.899999976158,13203,13733.100000023842,14368,15002.5,15935.399999976158,17093.399999976158,18088.600000023842,18880.300000071526,19815.300000071526,20633.399999976158,21770.700000047684,22937.800000071526,23745.100000023842,24238,25211,26269.5,27384.100000023842,32076.100000023842,33124.10000002384,34385.39999997616,35820.89999997616,36391.300000071526,37234.200000047684,38847.800000071526,39652.5,41111.89999997616,42632.700000047684,43876.700000047684,46350.300000071526]","0.5454545454545454","0.7142857142857143","0","","","","","","","","","","","","","","","","","","","","","","","","","","","","",""
"10049.600000023842","","","","survey-template","8","1030675","0.0-4.0-4.0","174","1","2025-08-06 10:08:37","36c45c0696341be0efffe67d72a12abb","197.184.92.191","Mozilla/5.0 (Windows NT 10.0; Win64; x64) AppleWebKit/537.36 (KHTML, like Gecko) Chrome/138.0.0.0 Safari/537.36","WebKit","Chrome","138.0.0.0","Windows","10.0","https://app.prolific.com/","en-US,en;q=0.9","67d163e7b7bcc1e9718e01da","6877649eabb845cf142cd221","6893298ad282056712f9337b","1","67d163e7b7bcc1e9718e01da","1","2025-08-06T10:25:51.161Z","","","","stress","{""Q01"":""4"",""Q02"":""2"",""Q03"":""4""}","[0,1,2]","[""Q01"",""Q03"",""Q02""]","[3294.100000023842,7785.899999976158,8452.5]","[]","[2606.8000000715256,3294.100000023842,5391.899999976158,6247.700000047684,7785.899999976158,8452.5,10048.5]","0.6666666666666666","1","0","","","","","","","","","","","","","","","","","","","","","","","","","","","","",""
"2165","","","","instructions","9","1032842","0.0-5.0-0.0","174","1","2025-08-06 10:08:37","36c45c0696341be0efffe67d72a12abb","197.184.92.191","Mozilla/5.0 (Windows NT 10.0; Win64; x64) AppleWebKit/537.36 (KHTML, like Gecko) Chrome/138.0.0.0 Safari/537.36","WebKit","Chrome","138.0.0.0","Windows","10.0","https://app.prolific.com/","en-US,en;q=0.9","67d163e7b7bcc1e9718e01da","6877649eabb845cf142cd221","6893298ad282056712f9337b","1","67d163e7b7bcc1e9718e01da","1","","","","","","","","","","","","","","","[{""page_index"":0,""viewing_time"":2165}]","","","","","","","","","","","","","","","","","","","","","","","","","","","",""
"2093","","<p>Before you start with this game please answer the following three questions yourself. </p>
  <p>Through this game, we measure several aspects of your cognitive performance, such as reaction times, multi-tasking capabilities </p>
  <p>and the ability to assess the situation you are in.</p>
  <p></p>
  <p><b>How good do you usually are in such tasks?</b></p>","62","html-slider-response","10","1034937","0.0-6.0-0.0","174","1","2025-08-06 10:08:37","36c45c0696341be0efffe67d72a12abb","197.184.92.191","Mozilla/5.0 (Windows NT 10.0; Win64; x64) AppleWebKit/537.36 (KHTML, like Gecko) Chrome/138.0.0.0 Safari/537.36","WebKit","Chrome","138.0.0.0","Windows","10.0","https://app.prolific.com/","en-US,en;q=0.9","67d163e7b7bcc1e9718e01da","6877649eabb845cf142cd221","6893298ad282056712f9337b","1","67d163e7b7bcc1e9718e01da","1","2025-08-06T10:25:55.422Z","","","","PreSkillQ","","","","","","","","","","","50","","","","","","","","","","","","","","","","","","","","","","","","","","",""
"2556","","<div style=""width:500px;"">
  <p>How well do you think you will perform in this task compared to other participants?</p>
  </div>","61","html-slider-response","11","1037494","0.0-6.0-1.0","174","1","2025-08-06 10:08:37","36c45c0696341be0efffe67d72a12abb","197.184.92.191","Mozilla/5.0 (Windows NT 10.0; Win64; x64) AppleWebKit/537.36 (KHTML, like Gecko) Chrome/138.0.0.0 Safari/537.36","WebKit","Chrome","138.0.0.0","Windows","10.0","https://app.prolific.com/","en-US,en;q=0.9","67d163e7b7bcc1e9718e01da","6877649eabb845cf142cd221","6893298ad282056712f9337b","1","67d163e7b7bcc1e9718e01da","1","2025-08-06T10:25:57.979Z","","","","PrePerfQ","","","","","","","","","","","50","","","","","","","","","","","","","","","","","","","","","","","","","","",""
"2902","","<div style=""width:500px;"">
  <p>What best describes how you currently feel?</p>
  </div>","74","html-slider-response","12","1040397","0.0-6.0-2.0","174","1","2025-08-06 10:08:37","36c45c0696341be0efffe67d72a12abb","197.184.92.191","Mozilla/5.0 (Windows NT 10.0; Win64; x64) AppleWebKit/537.36 (KHTML, like Gecko) Chrome/138.0.0.0 Safari/537.36","WebKit","Chrome","138.0.0.0","Windows","10.0","https://app.prolific.com/","en-US,en;q=0.9","67d163e7b7bcc1e9718e01da","6877649eabb845cf142cd221","6893298ad282056712f9337b","1","67d163e7b7bcc1e9718e01da","1","2025-08-06T10:26:00.882Z","","","","PreMotivationQ","","","","","","","","","","","50","","","","","","","","","","","","","","","","","","","","","","","","","","",""
"","","","","ctl-task-cpt","13","1069542","0.0-7.0-0.0","174","1","2025-08-06 10:08:37","36c45c0696341be0efffe67d72a12abb","197.184.92.191","Mozilla/5.0 (Windows NT 10.0; Win64; x64) AppleWebKit/537.36 (KHTML, like Gecko) Chrome/138.0.0.0 Safari/537.36","WebKit","Chrome","138.0.0.0","Windows","10.0","https://app.prolific.com/","en-US,en;q=0.9","67d163e7b7bcc1e9718e01da","6877649eabb845cf142cd221","6893298ad282056712f9337b","1","67d163e7b7bcc1e9718e01da","1","2025-08-06T10:26:30.027Z","","","","","","","","","","","","","","","","win-only","3","g1:SW,g2:NE","1","1","0","1043868.4","942.9","5946.3","26140.2","1","4","8","6","2","8","8","8","0","0.06060606060606061","880.5","3000","765","[""up"",""right""]","{""num_key_presses"":6,""num_perfect"":6,""num_errors"":0,""num_randdir"":0,""num_randdir_good_moves"":0,""num_whilered"":0,""num_whileblue"":0,""num_blue"":1,""num_good_moves"":6}","[785.1785714285714,767.6785714285714,0.2,785.1785714285714,767.6785714285714,104.5,785.1785714285714,767.6785714285714,208,785.1785714285714,767.6785714285714,310,881.4285714285714,677.6785714285714,410.2,1086.4285714285713,425.17857142857144,514.8,1326.4285714285713,243.92857142857142,619.2,1368.9285714285713,186.42857142857142,720.2,1388.9285714285713,158.92857142857142,827.4,1388.9285714285713,158.92857142857142,928.8,1396.4285714285713,165.17857142857142,1033.6,1396.4285714285713,193.92857142857142,1133.7,1570.1785714285713,355.17857142857144,1236.9,1900.1785714285713,512.6785714285714,1339.9,1903.9285714285713,516.4285714285714,1443.2,1903.9285714285713,516.4285714285714,1550,1903.9285714285713,516.4285714285714,1653.7,1903.9285714285713,516.4285714285714,1753.9,1903.9285714285713,516.4285714285714,1854.7,1903.9285714285713,516.4285714285714,1960.5,1903.9285714285713,516.4285714285714,2061.4,1903.9285714285713,516.4285714285714,2163,1903.9285714285713,516.4285714285714,2264.1,1903.9285714285713,516.4285714285714,2366.2,1903.9285714285713,516.4285714285714,2468.3,1903.9285714285713,516.4285714285714,2569.5,1903.9285714285713,516.4285714285714,2675.1,1903.9285714285713,516.4285714285714,2775.9,1903.9285714285713,516.4285714285714,2883.5,1903.9285714285713,516.4285714285714,2987.9,1903.9285714285713,516.4285714285714,3088.5,1903.9285714285713,516.4285714285714,3188.9,1903.9285714285713,516.4285714285714,3293.1,1903.9285714285713,516.4285714285714,3394.8,1903.9285714285713,516.4285714285714,3502.5,1903.9285714285713,516.4285714285714,3603.3,1903.9285714285713,516.4285714285714,3703.5,1903.9285714285713,516.4285714285714,3809.7,1903.9285714285713,516.4285714285714,3917.2,1903.9285714285713,516.4285714285714,4018.3,1903.9285714285713,516.4285714285714,4122.9,1903.9285714285713,516.4285714285714,4223.8,1903.9285714285713,516.4285714285714,4324.5,1903.9285714285713,516.4285714285714,4425.1,1903.9285714285713,516.4285714285714,4527.8,1903.9285714285713,516.4285714285714,4628.3,1903.9285714285713,516.4285714285714,4728.3,1937.6785714285713,552.6785714285714,4832.8,1952.6785714285713,570.1785714285714,4933.6]","[1548.3,1548.4,1000,0,548.4,""smooth"",""right"",""right"",""good_move"",4419.1,2870.3,2393.7,1548.9,476.5,""smooth"",""right"",""right"",""good_move"",10445.1,6025.7,2370.5,7662.7,412,""smooth"",""right"",""right"",""good_move"",13794.1,3348.6,2905.5,10445.5,443.1,""smooth"",""up"",""up"",""good_move"",16411.3,2616.3,2226.7,13795,389.6,""smooth"",""up"",""up"",""good_move"",20091.4,3680,3246.3,16411.5,433.6,""smooth"",""up"",""up"",""good_move""]"
"2325","","<div style=""width:500px;"">
  <p>What determined the result of this run?</p>
  </div>","64","html-slider-response","14","1071868","0.0-7.0-1.0","174","1","2025-08-06 10:08:37","36c45c0696341be0efffe67d72a12abb","197.184.92.191","Mozilla/5.0 (Windows NT 10.0; Win64; x64) AppleWebKit/537.36 (KHTML, like Gecko) Chrome/138.0.0.0 Safari/537.36","WebKit","Chrome","138.0.0.0","Windows","10.0","https://app.prolific.com/","en-US,en;q=0.9","67d163e7b7bcc1e9718e01da","6877649eabb845cf142cd221","6893298ad282056712f9337b","1","67d163e7b7bcc1e9718e01da","1","2025-08-06T10:26:32.354Z","","","","AttribQ","","","","","","","","","","","50","","","","","","","","","","","","","","","","","","","","","","","","","","",""
"5579","","<div style=""width:500px;"">
  <p>How much control did you have over the ball?</p>
  </div>","59","html-slider-response","15","1077449","0.0-7.0-2.0","174","1","2025-08-06 10:08:37","36c45c0696341be0efffe67d72a12abb","197.184.92.191","Mozilla/5.0 (Windows NT 10.0; Win64; x64) AppleWebKit/537.36 (KHTML, like Gecko) Chrome/138.0.0.0 Safari/537.36","WebKit","Chrome","138.0.0.0","Windows","10.0","https://app.prolific.com/","en-US,en;q=0.9","67d163e7b7bcc1e9718e01da","6877649eabb845cf142cd221","6893298ad282056712f9337b","1","67d163e7b7bcc1e9718e01da","1","2025-08-06T10:26:37.934Z","","","","ControlQ","","","","","","","","","","","50","","","","","","","","","","","","","","","","","","","","","","","","","","",""
"3335","","<div style=""width:500px;"">
  <p>How would you describe your current emotional state?</p>
  </div>","38","html-slider-response","16","1080786","0.0-7.0-3.0","174","1","2025-08-06 10:08:37","36c45c0696341be0efffe67d72a12abb","197.184.92.191","Mozilla/5.0 (Windows NT 10.0; Win64; x64) AppleWebKit/537.36 (KHTML, like Gecko) Chrome/138.0.0.0 Safari/537.36","WebKit","Chrome","138.0.0.0","Windows","10.0","https://app.prolific.com/","en-US,en;q=0.9","67d163e7b7bcc1e9718e01da","6877649eabb845cf142cd221","6893298ad282056712f9337b","1","67d163e7b7bcc1e9718e01da","1","2025-08-06T10:26:41.271Z","","","","StressQ","","","","","","","","","","","50","","","","","","","","","","","","","","","","","","","","","","","","","","",""
"2283","","<div style=""width:500px;"">
  <p>What best describes how you currently feel?</p>
  </div>","63","html-slider-response","17","1083071","0.0-7.0-4.0","174","1","2025-08-06 10:08:37","36c45c0696341be0efffe67d72a12abb","197.184.92.191","Mozilla/5.0 (Windows NT 10.0; Win64; x64) AppleWebKit/537.36 (KHTML, like Gecko) Chrome/138.0.0.0 Safari/537.36","WebKit","Chrome","138.0.0.0","Windows","10.0","https://app.prolific.com/","en-US,en;q=0.9","67d163e7b7bcc1e9718e01da","6877649eabb845cf142cd221","6893298ad282056712f9337b","1","67d163e7b7bcc1e9718e01da","1","2025-08-06T10:26:43.556Z","","","","MotivationQ","","","","","","","","","","","50","","","","","","","","","","","","","","","","","","","","","","","","","","",""
"","","","","ctl-task-cpt","18","1113953","0.0-7.0-0.1","174","1","2025-08-06 10:08:37","36c45c0696341be0efffe67d72a12abb","197.184.92.191","Mozilla/5.0 (Windows NT 10.0; Win64; x64) AppleWebKit/537.36 (KHTML, like Gecko) Chrome/138.0.0.0 Safari/537.36","WebKit","Chrome","138.0.0.0","Windows","10.0","https://app.prolific.com/","en-US,en;q=0.9","67d163e7b7bcc1e9718e01da","6877649eabb845cf142cd221","6893298ad282056712f9337b","1","67d163e7b7bcc1e9718e01da","1","2025-08-06T10:27:14.438Z","","","","","","","","","","","","","","","","win-only","2","g1:SE,g2:NW","0.9","2","0","1086539.5","869.8","5871.7","27871","1","4","4","6","2","4","4","12","8","0.09090909090909091","1202.3","3000","175","[""left"",""up""]","{""num_key_presses"":8,""num_perfect"":7,""num_errors"":0,""num_randdir"":1,""num_randdir_good_moves"":0,""num_whilered"":0,""num_whileblue"":0,""num_blue"":0,""num_good_moves"":7}","[771.4285714285714,767.6785714285714,0.2,771.4285714285714,767.6785714285714,103.2,771.4285714285714,767.6785714285714,206.5,773.9285714285714,768.9285714285714,310.7,773.9285714285714,768.9285714285714,411.3,823.9285714285714,770.1785714285714,512,838.9285714285714,771.4285714285714,616.5,861.4285714285714,622.6785714285714,721.3,496.42857142857144,411.42857142857144,821.9,216.42857142857142,227.67857142857142,936.4,192.67857142857142,172.67857142857142,1036.5,192.67857142857142,172.67857142857142,1140,192.67857142857142,172.67857142857142,1242,192.67857142857142,172.67857142857142,1346.6,351.42857142857144,300.17857142857144,1452,1316.4285714285713,686.4285714285714,1557.4,2015.1785714285713,826.4285714285714,1664.8,2030.1785714285713,821.4285714285714,1766.3,2030.1785714285713,821.4285714285714,1866.4,2030.1785714285713,821.4285714285714,1967.4,2030.1785714285713,821.4285714285714,2071,2030.1785714285713,821.4285714285714,2175.1,2030.1785714285713,821.4285714285714,2275.9,2030.1785714285713,821.4285714285714,2376.6,2030.1785714285713,821.4285714285714,2481.4,2071.4285714285716,853.9285714285714,2582.5,2096.4285714285716,876.4285714285714,2686.4,2096.4285714285716,876.4285714285714,2786.9,2096.4285714285716,876.4285714285714,2896.4,2096.4285714285716,876.4285714285714,3000.4,2096.4285714285716,876.4285714285714,3101.3,2096.4285714285716,876.4285714285714,3210.6,2096.4285714285716,876.4285714285714,3311.1,2096.4285714285716,876.4285714285714,3416.3,2096.4285714285716,876.4285714285714,3517.4,2096.4285714285716,876.4285714285714,3620.5,2096.4285714285716,876.4285714285714,3721.8,2096.4285714285716,876.4285714285714,3831.8,2096.4285714285716,876.4285714285714,3936.1,2096.4285714285716,876.4285714285714,4036.1,2096.4285714285716,876.4285714285714,4136.7,2096.4285714285716,876.4285714285714,4246.9,2096.4285714285716,876.4285714285714,4351.2,2096.4285714285716,876.4285714285714,4451.8,2096.4285714285716,876.4285714285714,4556.1,2096.4285714285716,876.4285714285714,4659.7,2096.4285714285716,876.4285714285714,4767.9,2096.4285714285716,876.4285714285714,4871.8,2096.4285714285716,876.4285714285714,4971.9]","[1497.3,1497.3,1000,0,497.3,""smooth"",""left"",""left"",""good_move"",4352.5,2855,2427.7,1497.5,427.3,""smooth"",""left"",""left"",""good_move"",7432,3078.5,2630.7,4353.5,447.8,""smooth"",""left"",""left"",""good_move"",10384.4,2952,2484.5,7432.4,467.5,""smooth"",""up"",""up"",""good_move"",13559.7,3174.6,2754.6,10385.1,420,""smooth"",""up"",""up"",""good_move"",16583.3,3023.3,2599.1,13560,424.2,""oops"",""up"",""down"",""bad_move"",18742,2152.3,1636.7,16589.7,515.6,""smooth"",""up"",""up"",""good_move"",21908.5,3166.2,2801.4,18742.3,364.8,""smooth"",""up"",""up"",""good_move""]"
"2889","","<div style=""width:500px;"">
  <p>What determined the result of this run?</p>
  </div>","54","html-slider-response","19","1116843","0.0-7.0-1.1","174","1","2025-08-06 10:08:37","36c45c0696341be0efffe67d72a12abb","197.184.92.191","Mozilla/5.0 (Windows NT 10.0; Win64; x64) AppleWebKit/537.36 (KHTML, like Gecko) Chrome/138.0.0.0 Safari/537.36","WebKit","Chrome","138.0.0.0","Windows","10.0","https://app.prolific.com/","en-US,en;q=0.9","67d163e7b7bcc1e9718e01da","6877649eabb845cf142cd221","6893298ad282056712f9337b","1","67d163e7b7bcc1e9718e01da","1","2025-08-06T10:27:17.328Z","","","","AttribQ","","","","","","","","","","","50","","","","","","","","","","","","","","","","","","","","","","","","","","",""
"1756","","<div style=""width:500px;"">
  <p>How much control did you have over the ball?</p>
  </div>","44","html-slider-response","20","1118600","0.0-7.0-2.1","174","1","2025-08-06 10:08:37","36c45c0696341be0efffe67d72a12abb","197.184.92.191","Mozilla/5.0 (Windows NT 10.0; Win64; x64) AppleWebKit/537.36 (KHTML, like Gecko) Chrome/138.0.0.0 Safari/537.36","WebKit","Chrome","138.0.0.0","Windows","10.0","https://app.prolific.com/","en-US,en;q=0.9","67d163e7b7bcc1e9718e01da","6877649eabb845cf142cd221","6893298ad282056712f9337b","1","67d163e7b7bcc1e9718e01da","1","2025-08-06T10:27:19.085Z","","","","ControlQ","","","","","","","","","","","50","","","","","","","","","","","","","","","","","","","","","","","","","","",""
"1698","","<div style=""width:500px;"">
  <p>How would you describe your current emotional state?</p>
  </div>","42","html-slider-response","21","1120300","0.0-7.0-3.1","174","1","2025-08-06 10:08:37","36c45c0696341be0efffe67d72a12abb","197.184.92.191","Mozilla/5.0 (Windows NT 10.0; Win64; x64) AppleWebKit/537.36 (KHTML, like Gecko) Chrome/138.0.0.0 Safari/537.36","WebKit","Chrome","138.0.0.0","Windows","10.0","https://app.prolific.com/","en-US,en;q=0.9","67d163e7b7bcc1e9718e01da","6877649eabb845cf142cd221","6893298ad282056712f9337b","1","67d163e7b7bcc1e9718e01da","1","2025-08-06T10:27:20.785Z","","","","StressQ","","","","","","","","","","","50","","","","","","","","","","","","","","","","","","","","","","","","","","",""
"2038","","<div style=""width:500px;"">
  <p>What best describes how you currently feel?</p>
  </div>","63","html-slider-response","22","1122340","0.0-7.0-4.1","174","1","2025-08-06 10:08:37","36c45c0696341be0efffe67d72a12abb","197.184.92.191","Mozilla/5.0 (Windows NT 10.0; Win64; x64) AppleWebKit/537.36 (KHTML, like Gecko) Chrome/138.0.0.0 Safari/537.36","WebKit","Chrome","138.0.0.0","Windows","10.0","https://app.prolific.com/","en-US,en;q=0.9","67d163e7b7bcc1e9718e01da","6877649eabb845cf142cd221","6893298ad282056712f9337b","1","67d163e7b7bcc1e9718e01da","1","2025-08-06T10:27:22.825Z","","","","MotivationQ","","","","","","","","","","","50","","","","","","","","","","","","","","","","","","","","","","","","","","",""
"","","","","ctl-task-cpt","23","1170749","0.0-7.0-0.2","174","1","2025-08-06 10:08:37","36c45c0696341be0efffe67d72a12abb","197.184.92.191","Mozilla/5.0 (Windows NT 10.0; Win64; x64) AppleWebKit/537.36 (KHTML, like Gecko) Chrome/138.0.0.0 Safari/537.36","WebKit","Chrome","138.0.0.0","Windows","10.0","https://app.prolific.com/","en-US,en;q=0.9","67d163e7b7bcc1e9718e01da","6877649eabb845cf142cd221","6893298ad282056712f9337b","1","67d163e7b7bcc1e9718e01da","1","2025-08-06T10:28:11.234Z","","","","","","","","","","","","","","","","win-only","1","g1:NE,g2:SW","0.8","3","0","1125809.8","691","5696.4","45401.6","1","4","8","6","2","8","7","19","12","0.14393939393939395","1082.7","3000","315","[""down"",""left""]","{""num_key_presses"":12,""num_perfect"":9,""num_errors"":1,""num_randdir"":2,""num_randdir_good_moves"":0,""num_whilered"":0,""num_whileblue"":1,""num_blue"":2,""num_good_moves"":9}","[788.9285714285714,785.1785714285714,0.3,788.9285714285714,785.1785714285714,105.7,788.9285714285714,785.1785714285714,207,797.6785714285714,786.4285714285714,317.9,811.4285714285714,788.9285714285714,419.3,456.42857142857144,887.6785714285714,527.5,131.42857142857142,1206.4285714285713,630.5,-11.071428571428584,1522.6785714285713,735,51.428571428571416,1563.9285714285713,835,106.42857142857142,1463.9285714285713,943.1,116.42857142857142,1411.4285714285713,1044.4,126.42857142857142,1416.4285714285713,1155.4,126.42857142857142,1416.4285714285713,1261,250.17857142857142,1416.4285714285713,1366.1,986.4285714285714,1461.4285714285713,1466.3,1311.4285714285713,1460.1785714285713,1569.8,1311.4285714285713,1460.1785714285713,1677,1311.4285714285713,1460.1785714285713,1777.3,1311.4285714285713,1460.1785714285713,1879.6,1311.4285714285713,1460.1785714285713,1985.5,1311.4285714285713,1460.1785714285713,2085.5,1311.4285714285713,1460.1785714285713,2189.5,1311.4285714285713,1460.1785714285713,2305.4,1311.4285714285713,1460.1785714285713,2409.6,1311.4285714285713,1460.1785714285713,2509.6,1311.4285714285713,1460.1785714285713,2626,1311.4285714285713,1460.1785714285713,2727.6,1311.4285714285713,1460.1785714285713,2830.8,1311.4285714285713,1460.1785714285713,2936.1,1311.4285714285713,1460.1785714285713,3036.2,1311.4285714285713,1460.1785714285713,3139.9,1311.4285714285713,1460.1785714285713,3240.5,1311.4285714285713,1460.1785714285713,3361.2,1311.4285714285713,1460.1785714285713,3461.2,1311.4285714285713,1460.1785714285713,3567.5,1311.4285714285713,1460.1785714285713,3670.6,1311.4285714285713,1460.1785714285713,3774.8,1311.4285714285713,1460.1785714285713,3874.8,1311.4285714285713,1460.1785714285713,3974.9,1311.4285714285713,1460.1785714285713,4094.2,1311.4285714285713,1460.1785714285713,4194.5,1311.4285714285713,1460.1785714285713,4300.1,1311.4285714285713,1460.1785714285713,4404.4,1311.4285714285713,1460.1785714285713,4505.5,1311.4285714285713,1460.1785714285713,4609.9,1311.4285714285713,1460.1785714285713,4727.7,1311.4285714285713,1460.1785714285713,4829.9,1311.4285714285713,1460.1785714285713,4930.2]","[1487.8,1487.8,1000,0,487.8,""smooth"",""left"",""left"",""good_move"",4231.5,2743.2,2408.5,1488.3,334.7,""smooth"",""left"",""left"",""good_move"",7337.1,3105.4,2749.9,4231.7,355.5,""smooth"",""left"",""left"",""good_move"",9841.8,2504.4,2138.4,7337.4,366,""smooth"",""down"",""down"",""good_move"",12964.7,3121.4,2754.5,9843.3,366.9,""smooth"",""down"",""down"",""good_move"",15953.4,2988.3,2642.4,12965.1,345.9,""oops"",""down"",""up"",""bad_move"",18969.5,3015.8,2710.4,15953.7,305.4,""while_blue"",""down"",""up"",""bad_move"",22487.4,3517.6,3152.2,18969.8,365.4,""smooth"",""down"",""down"",""good_move"",26001,3512.9,3147.4,22488.2,365.5,""oops"",""down"",""right"",""bad_move"",33983,7981.5,2675.6,30834.1,473.3,""smooth"",""left"",""left"",""good_move"",36936.5,2953.3,2563.5,33983.2,389.8,""smooth"",""down"",""down"",""good_move"",39567.3,2630.3,2231.7,36937,398.6,""smooth"",""down"",""down"",""good_move""]"
"3079","","<div style=""width:500px;"">
  <p>What determined the result of this run?</p>
  </div>","58","html-slider-response","24","1173829","0.0-7.0-1.2","174","1","2025-08-06 10:08:37","36c45c0696341be0efffe67d72a12abb","197.184.92.191","Mozilla/5.0 (Windows NT 10.0; Win64; x64) AppleWebKit/537.36 (KHTML, like Gecko) Chrome/138.0.0.0 Safari/537.36","WebKit","Chrome","138.0.0.0","Windows","10.0","https://app.prolific.com/","en-US,en;q=0.9","67d163e7b7bcc1e9718e01da","6877649eabb845cf142cd221","6893298ad282056712f9337b","1","67d163e7b7bcc1e9718e01da","1","2025-08-06T10:28:14.314Z","","","","AttribQ","","","","","","","","","","","50","","","","","","","","","","","","","","","","","","","","","","","","","","",""
"2559","","<div style=""width:500px;"">
  <p>How much control did you have over the ball?</p>
  </div>","55","html-slider-response","25","1176389","0.0-7.0-2.2","174","1","2025-08-06 10:08:37","36c45c0696341be0efffe67d72a12abb","197.184.92.191","Mozilla/5.0 (Windows NT 10.0; Win64; x64) AppleWebKit/537.36 (KHTML, like Gecko) Chrome/138.0.0.0 Safari/537.36","WebKit","Chrome","138.0.0.0","Windows","10.0","https://app.prolific.com/","en-US,en;q=0.9","67d163e7b7bcc1e9718e01da","6877649eabb845cf142cd221","6893298ad282056712f9337b","1","67d163e7b7bcc1e9718e01da","1","2025-08-06T10:28:16.874Z","","","","ControlQ","","","","","","","","","","","50","","","","","","","","","","","","","","","","","","","","","","","","","","",""
"2625","","<div style=""width:500px;"">
  <p>How would you describe your current emotional state?</p>
  </div>","59","html-slider-response","26","1179017","0.0-7.0-3.2","174","1","2025-08-06 10:08:37","36c45c0696341be0efffe67d72a12abb","197.184.92.191","Mozilla/5.0 (Windows NT 10.0; Win64; x64) AppleWebKit/537.36 (KHTML, like Gecko) Chrome/138.0.0.0 Safari/537.36","WebKit","Chrome","138.0.0.0","Windows","10.0","https://app.prolific.com/","en-US,en;q=0.9","67d163e7b7bcc1e9718e01da","6877649eabb845cf142cd221","6893298ad282056712f9337b","1","67d163e7b7bcc1e9718e01da","1","2025-08-06T10:28:19.502Z","","","","StressQ","","","","","","","","","","","50","","","","","","","","","","","","","","","","","","","","","","","","","","",""
"2506","","<div style=""width:500px;"">
  <p>What best describes how you currently feel?</p>
  </div>","42","html-slider-response","27","1181524","0.0-7.0-4.2","174","1","2025-08-06 10:08:37","36c45c0696341be0efffe67d72a12abb","197.184.92.191","Mozilla/5.0 (Windows NT 10.0; Win64; x64) AppleWebKit/537.36 (KHTML, like Gecko) Chrome/138.0.0.0 Safari/537.36","WebKit","Chrome","138.0.0.0","Windows","10.0","https://app.prolific.com/","en-US,en;q=0.9","67d163e7b7bcc1e9718e01da","6877649eabb845cf142cd221","6893298ad282056712f9337b","1","67d163e7b7bcc1e9718e01da","1","2025-08-06T10:28:22.009Z","","","","MotivationQ","","","","","","","","","","","50","","","","","","","","","","","","","","","","","","","","","","","","","","",""
"","","","","ctl-task-cpt","28","1220296","0.0-7.0-0.3","174","1","2025-08-06 10:08:37","36c45c0696341be0efffe67d72a12abb","197.184.92.191","Mozilla/5.0 (Windows NT 10.0; Win64; x64) AppleWebKit/537.36 (KHTML, like Gecko) Chrome/138.0.0.0 Safari/537.36","WebKit","Chrome","138.0.0.0","Windows","10.0","https://app.prolific.com/","en-US,en;q=0.9","67d163e7b7bcc1e9718e01da","6877649eabb845cf142cd221","6893298ad282056712f9337b","1","67d163e7b7bcc1e9718e01da","1","2025-08-06T10:29:00.781Z","","","","","","","","","","","","","","","","win-only","3","g1:SW,g2:NE","0.7","4","0","1184994.2","846.1","5859.2","35756.4","1","4","4","6","2","4","3","22","19","0.16666666666666666","1518.2","3000","505","[""up"",""right""]","{""num_key_presses"":9,""num_perfect"":6,""num_errors"":1,""num_randdir"":2,""num_randdir_good_moves"":1,""num_whilered"":0,""num_whileblue"":0,""num_blue"":2,""num_good_moves"":7}","[753.9285714285714,760.1785714285714,0.3,753.9285714285714,760.1785714285714,105.9,753.9285714285714,760.1785714285714,209.5,753.9285714285714,760.1785714285714,310.3,721.4285714285714,747.6785714285714,410.4,531.4285714285714,728.9285714285714,514.5,477.67857142857144,720.1785714285714,614.7,336.42857142857144,751.4285714285714,715.1,545.1785714285714,567.6785714285714,844.3,1310.1785714285713,15.178571428571416,946.5,1772.6785714285713,-188.57142857142858,1064,1776.4285714285713,-188.57142857142858,1165.3,1486.4285714285713,27.678571428571416,1268.5,1451.4285714285713,75.17857142857142,1385.1,1451.4285714285713,75.17857142857142,1490.9,1451.4285714285713,75.17857142857142,1600.7,1451.4285714285713,118.92857142857142,1717.4,1518.9285714285713,170.17857142857142,1840.5,1518.9285714285713,170.17857142857142,1944.8,1518.9285714285713,170.17857142857142,2059.3,1518.9285714285713,170.17857142857142,2177.3,1518.9285714285713,170.17857142857142,2284.9,1518.9285714285713,170.17857142857142,2399.6,1518.9285714285713,170.17857142857142,2514.9,1518.9285714285713,170.17857142857142,2624.9,1518.9285714285713,170.17857142857142,2725.9,1518.9285714285713,170.17857142857142,2829.9,1593.9285714285713,216.42857142857142,2934.3,1626.4285714285713,242.67857142857142,3051.8,1626.4285714285713,242.67857142857142,3156.1,1626.4285714285713,242.67857142857142,3270.1,1626.4285714285713,242.67857142857142,3373,1626.4285714285713,242.67857142857142,3485.7,1626.4285714285713,242.67857142857142,3594.4,1626.4285714285713,242.67857142857142,3695.6,1626.4285714285713,242.67857142857142,3800.3,1626.4285714285713,242.67857142857142,3920,1626.4285714285713,242.67857142857142,4040.4,1626.4285714285713,242.67857142857142,4148.8,1626.4285714285713,242.67857142857142,4249.3,1626.4285714285713,242.67857142857142,4360.8,1626.4285714285713,242.67857142857142,4469.4,1626.4285714285713,242.67857142857142,4594.5,1626.4285714285713,242.67857142857142,4694.9,1626.4285714285713,242.67857142857142,4798.4,1626.4285714285713,242.67857142857142,4899.5]","[1436.6,1436.6,1000,0,436.6,""smooth"",""right"",""right"",""good_move"",4193.4,2756.4,2394.8,1437,361.6,""smooth"",""right"",""right"",""good_move"",8428.7,4234.8,2441.7,7271.4,-1284.4,""error"",""-"",""-"",""no_move"",13048.9,4620.1,3128.8,9436.2,484,""oops"",""up"",""left"",""bad_move"",15857.8,2808.6,2412.3,13049.2,396.3,""smooth"",""right"",""right"",""good_move"",19272.1,3413.6,2883.8,15858.6,529.7,""oops"",""up"",""right"",""good_move"",24808.9,5536.1,2281.6,22110.3,417,""smooth"",""up"",""up"",""good_move"",27364.4,2555.1,2067.5,24809.3,487.6,""smooth"",""up"",""up"",""good_move"",29791.5,2426.9,2018.5,27364.6,408.4,""smooth"",""up"",""up"",""good_move""]"
"32210","","<div style=""width:500px;"">
  <p>What determined the result of this run?</p>
  </div>","58","html-slider-response","29","1252508","0.0-7.0-1.3","174","1","2025-08-06 10:08:37","36c45c0696341be0efffe67d72a12abb","197.184.92.191","Mozilla/5.0 (Windows NT 10.0; Win64; x64) AppleWebKit/537.36 (KHTML, like Gecko) Chrome/138.0.0.0 Safari/537.36","WebKit","Chrome","138.0.0.0","Windows","10.0","https://app.prolific.com/","en-US,en;q=0.9","67d163e7b7bcc1e9718e01da","6877649eabb845cf142cd221","6893298ad282056712f9337b","1","67d163e7b7bcc1e9718e01da","1","2025-08-06T10:29:32.993Z","","","","AttribQ","","","","","","","","","","","50","","","","","","","","","","","","","","","","","","","","","","","","","","",""
"3502","","<div style=""width:500px;"">
  <p>How much control did you have over the ball?</p>
  </div>","56","html-slider-response","30","1256013","0.0-7.0-2.3","174","1","2025-08-06 10:08:37","36c45c0696341be0efffe67d72a12abb","197.184.92.191","Mozilla/5.0 (Windows NT 10.0; Win64; x64) AppleWebKit/537.36 (KHTML, like Gecko) Chrome/138.0.0.0 Safari/537.36","WebKit","Chrome","138.0.0.0","Windows","10.0","https://app.prolific.com/","en-US,en;q=0.9","67d163e7b7bcc1e9718e01da","6877649eabb845cf142cd221","6893298ad282056712f9337b","1","67d163e7b7bcc1e9718e01da","1","2025-08-06T10:29:36.498Z","","","","ControlQ","","","","","","","","","","","50","","","","","","","","","","","","","","","","","","","","","","","","","","",""
"6694","","<div style=""width:500px;"">
  <p>How would you describe your current emotional state?</p>
  </div>","44","html-slider-response","31","1262710","0.0-7.0-3.3","174","1","2025-08-06 10:08:37","36c45c0696341be0efffe67d72a12abb","197.184.92.191","Mozilla/5.0 (Windows NT 10.0; Win64; x64) AppleWebKit/537.36 (KHTML, like Gecko) Chrome/138.0.0.0 Safari/537.36","WebKit","Chrome","138.0.0.0","Windows","10.0","https://app.prolific.com/","en-US,en;q=0.9","67d163e7b7bcc1e9718e01da","6877649eabb845cf142cd221","6893298ad282056712f9337b","1","67d163e7b7bcc1e9718e01da","1","2025-08-06T10:29:43.195Z","","","","StressQ","","","","","","","","","","","50","","","","","","","","","","","","","","","","","","","","","","","","","","",""
"3962","","<div style=""width:500px;"">
  <p>What best describes how you currently feel?</p>
  </div>","43","html-slider-response","32","1266675","0.0-7.0-4.3","174","1","2025-08-06 10:08:37","36c45c0696341be0efffe67d72a12abb","197.184.92.191","Mozilla/5.0 (Windows NT 10.0; Win64; x64) AppleWebKit/537.36 (KHTML, like Gecko) Chrome/138.0.0.0 Safari/537.36","WebKit","Chrome","138.0.0.0","Windows","10.0","https://app.prolific.com/","en-US,en;q=0.9","67d163e7b7bcc1e9718e01da","6877649eabb845cf142cd221","6893298ad282056712f9337b","1","67d163e7b7bcc1e9718e01da","1","2025-08-06T10:29:47.160Z","","","","MotivationQ","","","","","","","","","","","50","","","","","","","","","","","","","","","","","","","","","","","","","","",""
"","","","","ctl-task-cpt","33","1295761","0.0-7.0-0.4","174","1","2025-08-06 10:08:37","36c45c0696341be0efffe67d72a12abb","197.184.92.191","Mozilla/5.0 (Windows NT 10.0; Win64; x64) AppleWebKit/537.36 (KHTML, like Gecko) Chrome/138.0.0.0 Safari/537.36","WebKit","Chrome","138.0.0.0","Windows","10.0","https://app.prolific.com/","en-US,en;q=0.9","67d163e7b7bcc1e9718e01da","6877649eabb845cf142cd221","6893298ad282056712f9337b","1","67d163e7b7bcc1e9718e01da","1","2025-08-06T10:30:16.246Z","","","","","","","","","","","","","","","","win-only","1","g1:NE,g2:SW","0.6","5","0","1270148.7","850.2","5865","26068.3","1","4","4","6","2","4","4","26","22","0.19696969696969696","1261.6","3000","925","[""down"",""left""]","{""num_key_presses"":6,""num_perfect"":4,""num_errors"":0,""num_randdir"":2,""num_randdir_good_moves"":2,""num_whilered"":0,""num_whileblue"":0,""num_blue"":1,""num_good_moves"":6}","[767.6785714285714,775.1785714285714,0.4,766.4285714285714,775.1785714285714,102.6,765.1785714285714,775.1785714285714,208.4,765.1785714285714,775.1785714285714,309.5,670.1785714285714,731.4285714285714,411.4,462.67857142857144,736.4285714285714,514.2,447.67857142857144,752.6785714285714,617.3,447.67857142857144,752.6785714285714,734.2,268.92857142857144,1300.1785714285713,836.3,236.42857142857142,1361.4285714285713,937.2,196.42857142857142,1386.4285714285713,1048.2,193.92857142857142,1386.4285714285713,1148.6,191.42857142857142,1386.4285714285713,1264.5,191.42857142857142,1386.4285714285713,1372,191.42857142857142,1385.1785714285713,1485.4,102.67857142857142,1395.1785714285713,1588.1,-244.82142857142858,1451.4285714285713,1693,-244.82142857142858,1451.4285714285713,1793.4,-494.82142857142856,1481.4285714285713,1906.2,-494.82142857142856,1481.4285714285713,2011.5,-494.82142857142856,1481.4285714285713,2111.8,-494.82142857142856,1481.4285714285713,2234,-494.82142857142856,1481.4285714285713,2336.2,-494.82142857142856,1481.4285714285713,2440.8,-494.82142857142856,1481.4285714285713,2540.9,-494.82142857142856,1481.4285714285713,2641.8,-494.82142857142856,1481.4285714285713,2747.9,-728.5714285714286,596.4285714285714,2870.4,-728.5714285714286,431.42857142857144,2982.6,-728.5714285714286,432.67857142857144,3084,-728.5714285714286,432.67857142857144,3193.6,-728.5714285714286,432.67857142857144,3298.3,-728.5714285714286,331.42857142857144,3404.4,-728.5714285714286,338.92857142857144,3517.9,-728.5714285714286,765.1785714285714,3622.8,-728.5714285714286,818.9285714285714,3726.3,-728.5714285714286,818.9285714285714,3830.9,-728.5714285714286,877.6785714285714,3939.3,-728.5714285714286,877.6785714285714,4041.8,-728.5714285714286,877.6785714285714,4154.3,-728.5714285714286,877.6785714285714,4260.5,-728.5714285714286,877.6785714285714,4368.1,-728.5714285714286,877.6785714285714,4477.5,-728.5714285714286,877.6785714285714,4584.9,-728.5714285714286,877.6785714285714,4686.1,-728.5714285714286,877.6785714285714,4786.8,-728.5714285714286,877.6785714285714,4888.5,-728.5714285714286,877.6785714285714,4994.2]","[1581.3,1581.3,1000,0,581.3,""smooth"",""left"",""left"",""good_move"",5052.4,3470.4,2978.8,1582,491.6,""oops"",""left"",""down"",""good_move"",10925.8,5872.8,1419.3,8971.7,534.8,""smooth"",""left"",""left"",""good_move"",13734.7,2808.6,2285.9,10926.1,522.7,""oops"",""left"",""left"",""good_move"",16844.3,3109,2632.6,13735.3,476.4,""smooth"",""down"",""down"",""good_move"",20029.9,3185.4,2590.5,16844.5,594.9,""smooth"",""down"",""down"",""good_move""]"
"291396","","<div style=""width:500px;"">
  <p>What determined the result of this run?</p>
  </div>","57","html-slider-response","34","1587160","0.0-7.0-1.4","174","1","2025-08-06 10:08:37","36c45c0696341be0efffe67d72a12abb","197.184.92.191","Mozilla/5.0 (Windows NT 10.0; Win64; x64) AppleWebKit/537.36 (KHTML, like Gecko) Chrome/138.0.0.0 Safari/537.36","WebKit","Chrome","138.0.0.0","Windows","10.0","https://app.prolific.com/","en-US,en;q=0.9","67d163e7b7bcc1e9718e01da","6877649eabb845cf142cd221","6893298ad282056712f9337b","1","67d163e7b7bcc1e9718e01da","1","2025-08-06T10:35:07.645Z","","","","AttribQ","","","","","","","","","","","50","","","","","","","","","","","","","","","","","","","","","","","","","","",""
"3572","","<div style=""width:500px;"">
  <p>How much control did you have over the ball?</p>
  </div>","34","html-slider-response","35","1590736","0.0-7.0-2.4","174","1","2025-08-06 10:08:37","36c45c0696341be0efffe67d72a12abb","197.184.92.191","Mozilla/5.0 (Windows NT 10.0; Win64; x64) AppleWebKit/537.36 (KHTML, like Gecko) Chrome/138.0.0.0 Safari/537.36","WebKit","Chrome","138.0.0.0","Windows","10.0","https://app.prolific.com/","en-US,en;q=0.9","67d163e7b7bcc1e9718e01da","6877649eabb845cf142cd221","6893298ad282056712f9337b","1","67d163e7b7bcc1e9718e01da","1","2025-08-06T10:35:11.221Z","","","","ControlQ","","","","","","","","","","","50","","","","","","","","","","","","","","","","","","","","","","","","","","",""
"4297","","<div style=""width:500px;"">
  <p>How would you describe your current emotional state?</p>
  </div>","58","html-slider-response","36","1595036","0.0-7.0-3.4","174","1","2025-08-06 10:08:37","36c45c0696341be0efffe67d72a12abb","197.184.92.191","Mozilla/5.0 (Windows NT 10.0; Win64; x64) AppleWebKit/537.36 (KHTML, like Gecko) Chrome/138.0.0.0 Safari/537.36","WebKit","Chrome","138.0.0.0","Windows","10.0","https://app.prolific.com/","en-US,en;q=0.9","67d163e7b7bcc1e9718e01da","6877649eabb845cf142cd221","6893298ad282056712f9337b","1","67d163e7b7bcc1e9718e01da","1","2025-08-06T10:35:15.521Z","","","","StressQ","","","","","","","","","","","50","","","","","","","","","","","","","","","","","","","","","","","","","","",""
"2808","","<div style=""width:500px;"">
  <p>What best describes how you currently feel?</p>
  </div>","31","html-slider-response","37","1597847","0.0-7.0-4.4","174","1","2025-08-06 10:08:37","36c45c0696341be0efffe67d72a12abb","197.184.92.191","Mozilla/5.0 (Windows NT 10.0; Win64; x64) AppleWebKit/537.36 (KHTML, like Gecko) Chrome/138.0.0.0 Safari/537.36","WebKit","Chrome","138.0.0.0","Windows","10.0","https://app.prolific.com/","en-US,en;q=0.9","67d163e7b7bcc1e9718e01da","6877649eabb845cf142cd221","6893298ad282056712f9337b","1","67d163e7b7bcc1e9718e01da","1","2025-08-06T10:35:18.333Z","","","","MotivationQ","","","","","","","","","","","50","","","","","","","","","","","","","","","","","","","","","","","","","","",""
"","","","","ctl-task-cpt","38","1630310","0.0-7.0-0.5","174","1","2025-08-06 10:08:37","36c45c0696341be0efffe67d72a12abb","197.184.92.191","Mozilla/5.0 (Windows NT 10.0; Win64; x64) AppleWebKit/537.36 (KHTML, like Gecko) Chrome/138.0.0.0 Safari/537.36","WebKit","Chrome","138.0.0.0","Windows","10.0","https://app.prolific.com/","en-US,en;q=0.9","67d163e7b7bcc1e9718e01da","6877649eabb845cf142cd221","6893298ad282056712f9337b","1","67d163e7b7bcc1e9718e01da","1","2025-08-06T10:35:50.796Z","","","","","","","","","","","","","","","","win-only","1","g1:NE,g2:SW","0.5","6","0","1601320.8","1230.4","6233.1","29430.2","1","4","8","6","2","8","8","34","26","0.25757575757575757","1617.4","3000","820","[""down"",""left""]","{""num_key_presses"":8,""num_perfect"":4,""num_errors"":0,""num_randdir"":4,""num_randdir_good_moves"":3,""num_whilered"":0,""num_whileblue"":0,""num_blue"":0,""num_good_moves"":7}","[747.6785714285714,763.9285714285714,0.5,747.6785714285714,763.9285714285714,119.1,748.9285714285714,763.9285714285714,238.9,748.9285714285714,763.9285714285714,341,738.9285714285714,721.4285714285714,453,513.9285714285714,785.1785714285714,560.1,323.92857142857144,1007.6785714285714,662.3,267.67857142857144,1125.1785714285713,764.3,267.67857142857144,1125.1785714285713,867.2,233.92857142857142,1320.1785714285713,972.6,206.42857142857142,1411.4285714285713,1078.3,201.42857142857142,1426.4285714285713,1182.6,197.67857142857142,1417.6785714285713,1290,197.67857142857142,1416.4285714285713,1390.3,197.67857142857142,1416.4285714285713,1491,197.67857142857142,1416.4285714285713,1591.8,200.17857142857142,1420.1785714285713,1691.8,963.9285714285714,1706.4285714285713,1794.4,1681.4285714285713,1775.1785714285713,1895,2270.1785714285716,1775.1785714285713,1999.8,2270.1785714285716,1775.1785714285713,2104.3,2270.1785714285716,1775.1785714285713,2205.7,2270.1785714285716,1767.6785714285713,2313.2,2270.1785714285716,1767.6785714285713,2419.4,2270.1785714285716,1767.6785714285713,2541.2,2270.1785714285716,1767.6785714285713,2655.7,2270.1785714285716,1767.6785714285713,2755.8,2270.1785714285716,1767.6785714285713,2858.5,2270.1785714285716,1767.6785714285713,2965.6,2270.1785714285716,1767.6785714285713,3066.9,2270.1785714285716,1767.6785714285713,3173.8,2270.1785714285716,1767.6785714285713,3282.6,2270.1785714285716,1767.6785714285713,3390.9,2270.1785714285716,1767.6785714285713,3507,2270.1785714285716,1767.6785714285713,3622.4,2270.1785714285716,1767.6785714285713,3728.7,2270.1785714285716,1767.6785714285713,3830.3,2270.1785714285716,1767.6785714285713,3935.2,2270.1785714285716,1767.6785714285713,4037.1,2270.1785714285716,1767.6785714285713,4154.1,2270.1785714285716,1767.6785714285713,4256.1,2270.1785714285716,1767.6785714285713,4358.4,2270.1785714285716,1767.6785714285713,4468.6,2270.1785714285716,1767.6785714285713,4572.6,2270.1785714285716,1767.6785714285713,4675.8,2270.1785714285716,1767.6785714285713,4788.4,2270.1785714285716,1767.6785714285713,4890.7,2270.1785714285716,1767.6785714285713,4991.8]","[1606.8,1606.8,1000,0,606.9,""oops"",""left"",""left"",""good_move"",4371,2763.6,2328,1607.4,435.6,""oops"",""left"",""down"",""good_move"",8093.5,3715,3124.6,4378.5,590.4,""smooth"",""left"",""left"",""good_move"",11177.5,3083.4,2548.3,8094.2,535.1,""smooth"",""left"",""left"",""good_move"",13754.4,2575.9,2168.6,11178.5,407.3,""oops"",""down"",""down"",""good_move"",16987.3,3231.9,2759.2,13755.4,472.7,""oops"",""down"",""right"",""bad_move"",19863.7,2875.7,2403.2,16988.1,472.5,""smooth"",""left"",""left"",""good_move"",23039.9,3175.6,2800.8,19864.4,374.7,""smooth"",""down"",""down"",""good_move""]"
"22944","","<div style=""width:500px;"">
  <p>What determined the result of this run?</p>
  </div>","58","html-slider-response","39","1653258","0.0-7.0-1.5","174","1","2025-08-06 10:08:37","36c45c0696341be0efffe67d72a12abb","197.184.92.191","Mozilla/5.0 (Windows NT 10.0; Win64; x64) AppleWebKit/537.36 (KHTML, like Gecko) Chrome/138.0.0.0 Safari/537.36","WebKit","Chrome","138.0.0.0","Windows","10.0","https://app.prolific.com/","en-US,en;q=0.9","67d163e7b7bcc1e9718e01da","6877649eabb845cf142cd221","6893298ad282056712f9337b","1","67d163e7b7bcc1e9718e01da","1","2025-08-06T10:36:13.743Z","","","","AttribQ","","","","","","","","","","","50","","","","","","","","","","","","","","","","","","","","","","","","","","",""
"2023","","<div style=""width:500px;"">
  <p>How much control did you have over the ball?</p>
  </div>","43","html-slider-response","40","1655284","0.0-7.0-2.5","174","1","2025-08-06 10:08:37","36c45c0696341be0efffe67d72a12abb","197.184.92.191","Mozilla/5.0 (Windows NT 10.0; Win64; x64) AppleWebKit/537.36 (KHTML, like Gecko) Chrome/138.0.0.0 Safari/537.36","WebKit","Chrome","138.0.0.0","Windows","10.0","https://app.prolific.com/","en-US,en;q=0.9","67d163e7b7bcc1e9718e01da","6877649eabb845cf142cd221","6893298ad282056712f9337b","1","67d163e7b7bcc1e9718e01da","1","2025-08-06T10:36:15.769Z","","","","ControlQ","","","","","","","","","","","50","","","","","","","","","","","","","","","","","","","","","","","","","","",""
"2887","","<div style=""width:500px;"">
  <p>How would you describe your current emotional state?</p>
  </div>","56","html-slider-response","41","1658173","0.0-7.0-3.5","174","1","2025-08-06 10:08:37","36c45c0696341be0efffe67d72a12abb","197.184.92.191","Mozilla/5.0 (Windows NT 10.0; Win64; x64) AppleWebKit/537.36 (KHTML, like Gecko) Chrome/138.0.0.0 Safari/537.36","WebKit","Chrome","138.0.0.0","Windows","10.0","https://app.prolific.com/","en-US,en;q=0.9","67d163e7b7bcc1e9718e01da","6877649eabb845cf142cd221","6893298ad282056712f9337b","1","67d163e7b7bcc1e9718e01da","1","2025-08-06T10:36:18.658Z","","","","StressQ","","","","","","","","","","","50","","","","","","","","","","","","","","","","","","","","","","","","","","",""
"3308","","<div style=""width:500px;"">
  <p>What best describes how you currently feel?</p>
  </div>","38","html-slider-response","42","1661484","0.0-7.0-4.5","174","1","2025-08-06 10:08:37","36c45c0696341be0efffe67d72a12abb","197.184.92.191","Mozilla/5.0 (Windows NT 10.0; Win64; x64) AppleWebKit/537.36 (KHTML, like Gecko) Chrome/138.0.0.0 Safari/537.36","WebKit","Chrome","138.0.0.0","Windows","10.0","https://app.prolific.com/","en-US,en;q=0.9","67d163e7b7bcc1e9718e01da","6877649eabb845cf142cd221","6893298ad282056712f9337b","1","67d163e7b7bcc1e9718e01da","1","2025-08-06T10:36:21.970Z","","","","MotivationQ","","","","","","","","","","","50","","","","","","","","","","","","","","","","","","","","","","","","","","",""
"","","","","ctl-task-cpt","43","1702276","0.0-7.0-0.6","174","1","2025-08-06 10:08:37","36c45c0696341be0efffe67d72a12abb","197.184.92.191","Mozilla/5.0 (Windows NT 10.0; Win64; x64) AppleWebKit/537.36 (KHTML, like Gecko) Chrome/138.0.0.0 Safari/537.36","WebKit","Chrome","138.0.0.0","Windows","10.0","https://app.prolific.com/","en-US,en;q=0.9","67d163e7b7bcc1e9718e01da","6877649eabb845cf142cd221","6893298ad282056712f9337b","1","67d163e7b7bcc1e9718e01da","1","2025-08-06T10:37:02.761Z","","","","","","","","","","","","","","","","win-only","0","g1:NW,g2:SE","0.4","7","0","1664957.6","1186.7","6197.1","37763.1","1","4","4","6","2","4","4","38","34","0.2878787878787879","1273.7","3000","410","[""down"",""right""]","{""num_key_presses"":10,""num_perfect"":4,""num_errors"":0,""num_randdir"":6,""num_randdir_good_moves"":4,""num_whilered"":0,""num_whileblue"":0,""num_blue"":1,""num_good_moves"":8}","[757.6785714285714,780.1785714285714,0.6,757.6785714285714,780.1785714285714,108.4,757.6785714285714,780.1785714285714,210.5,757.6785714285714,780.1785714285714,323.5,757.6785714285714,780.1785714285714,426.2,757.6785714285714,780.1785714285714,533.1,1231.4285714285713,1243.9285714285713,643.7,1315.1785714285713,1315.1785714285713,745.4,1326.4285714285713,1321.4285714285713,854.7,1406.4285714285713,1378.9285714285713,968.7,1407.6785714285713,1381.4285714285713,1073,1407.6785714285713,1381.4285714285713,1184.9,1403.9285714285713,1380.1785714285713,1296.4,1403.9285714285713,1377.6785714285713,1397.1,1403.9285714285713,1351.4285714285713,1505.1,1403.9285714285713,1351.4285714285713,1618.5,1403.9285714285713,1351.4285714285713,1721.8,1403.9285714285713,1351.4285714285713,1827.2,1403.9285714285713,1351.4285714285713,1933.4,1403.9285714285713,1351.4285714285713,2040.4,1403.9285714285713,1351.4285714285713,2144.5,1403.9285714285713,1351.4285714285713,2277.7,1403.9285714285713,1351.4285714285713,2380,1403.9285714285713,1351.4285714285713,2482.9,1403.9285714285713,1351.4285714285713,2588.8,1403.9285714285713,1351.4285714285713,2706.8,1403.9285714285713,1351.4285714285713,2821,1403.9285714285713,1351.4285714285713,2932.9,1403.9285714285713,1351.4285714285713,3038.2,1403.9285714285713,1351.4285714285713,3147.5,1403.9285714285713,1351.4285714285713,3257.1,1403.9285714285713,1351.4285714285713,3361.2,1403.9285714285713,1351.4285714285713,3472.3,1403.9285714285713,1351.4285714285713,3573.9,1403.9285714285713,1351.4285714285713,3681.9,1403.9285714285713,1351.4285714285713,3786,1403.9285714285713,1351.4285714285713,3891.3,1403.9285714285713,1351.4285714285713,4000.1,1403.9285714285713,1351.4285714285713,4100.4,1403.9285714285713,1351.4285714285713,4213.3,1403.9285714285713,1351.4285714285713,4314.7,1403.9285714285713,1351.4285714285713,4421.4,1403.9285714285713,1351.4285714285713,4526.1,1403.9285714285713,1351.4285714285713,4632.5,1403.9285714285713,1351.4285714285713,4733.1,1403.9285714285713,1351.4285714285713,4853.4,1403.9285714285713,1351.4285714285713,4960.9]","[2066.2,2066.2,1000,0,1066.2,""oops"",""right"",""left"",""bad_move"",4409.3,2342.4,1864.5,2067,477.8,""oops"",""right"",""right"",""good_move"",7669,3259,2851.6,4410,407.4,""oops"",""right"",""right"",""good_move"",10836.4,3166.8,2649,7669.6,517.8,""oops"",""right"",""down"",""good_move"",13512.6,2675.2,2066.1,10837.4,609.2,""smooth"",""down"",""down"",""good_move"",16488.1,2975,2543.1,13513.2,431.9,""oops"",""down"",""down"",""good_move"",18962.1,2473.4,2053.2,16488.7,420.3,""smooth"",""right"",""right"",""good_move"",22007.5,3044.3,2655.9,18963.3,388.4,""oops"",""right"",""left"",""bad_move"",28569.1,6560.6,2653.1,25566.2,349.8,""smooth"",""right"",""right"",""good_move"",31377.5,2807.7,2396.8,28569.9,410.9,""smooth"",""right"",""right"",""good_move""]"
"208915","","<div style=""width:500px;"">
  <p>What determined the result of this run?</p>
  </div>","62","html-slider-response","44","1911193","0.0-7.0-1.6","174","1","2025-08-06 10:08:37","36c45c0696341be0efffe67d72a12abb","197.184.92.191","Mozilla/5.0 (Windows NT 10.0; Win64; x64) AppleWebKit/537.36 (KHTML, like Gecko) Chrome/138.0.0.0 Safari/537.36","WebKit","Chrome","138.0.0.0","Windows","10.0","https://app.prolific.com/","en-US,en;q=0.9","67d163e7b7bcc1e9718e01da","6877649eabb845cf142cd221","6893298ad282056712f9337b","1","67d163e7b7bcc1e9718e01da","1","2025-08-06T10:40:31.679Z","","","","AttribQ","","","","","","","","","","","50","","","","","","","","","","","","","","","","","","","","","","","","","","",""
"3809","","<div style=""width:500px;"">
  <p>How much control did you have over the ball?</p>
  </div>","32","html-slider-response","45","1915006","0.0-7.0-2.6","174","1","2025-08-06 10:08:37","36c45c0696341be0efffe67d72a12abb","197.184.92.191","Mozilla/5.0 (Windows NT 10.0; Win64; x64) AppleWebKit/537.36 (KHTML, like Gecko) Chrome/138.0.0.0 Safari/537.36","WebKit","Chrome","138.0.0.0","Windows","10.0","https://app.prolific.com/","en-US,en;q=0.9","67d163e7b7bcc1e9718e01da","6877649eabb845cf142cd221","6893298ad282056712f9337b","1","67d163e7b7bcc1e9718e01da","1","2025-08-06T10:40:35.491Z","","","","ControlQ","","","","","","","","","","","50","","","","","","","","","","","","","","","","","","","","","","","","","","",""
"3148","","<div style=""width:500px;"">
  <p>How would you describe your current emotional state?</p>
  </div>","57","html-slider-response","46","1918157","0.0-7.0-3.6","174","1","2025-08-06 10:08:37","36c45c0696341be0efffe67d72a12abb","197.184.92.191","Mozilla/5.0 (Windows NT 10.0; Win64; x64) AppleWebKit/537.36 (KHTML, like Gecko) Chrome/138.0.0.0 Safari/537.36","WebKit","Chrome","138.0.0.0","Windows","10.0","https://app.prolific.com/","en-US,en;q=0.9","67d163e7b7bcc1e9718e01da","6877649eabb845cf142cd221","6893298ad282056712f9337b","1","67d163e7b7bcc1e9718e01da","1","2025-08-06T10:40:38.642Z","","","","StressQ","","","","","","","","","","","50","","","","","","","","","","","","","","","","","","","","","","","","","","",""
"2880","","<div style=""width:500px;"">
  <p>What best describes how you currently feel?</p>
  </div>","42","html-slider-response","47","1921039","0.0-7.0-4.6","174","1","2025-08-06 10:08:37","36c45c0696341be0efffe67d72a12abb","197.184.92.191","Mozilla/5.0 (Windows NT 10.0; Win64; x64) AppleWebKit/537.36 (KHTML, like Gecko) Chrome/138.0.0.0 Safari/537.36","WebKit","Chrome","138.0.0.0","Windows","10.0","https://app.prolific.com/","en-US,en;q=0.9","67d163e7b7bcc1e9718e01da","6877649eabb845cf142cd221","6893298ad282056712f9337b","1","67d163e7b7bcc1e9718e01da","1","2025-08-06T10:40:41.524Z","","","","MotivationQ","","","","","","","","","","","50","","","","","","","","","","","","","","","","","","","","","","","","","","",""
"","","","","ctl-task-cpt","48","1974563","0.0-7.0-0.7","174","1","2025-08-06 10:08:37","36c45c0696341be0efffe67d72a12abb","197.184.92.191","Mozilla/5.0 (Windows NT 10.0; Win64; x64) AppleWebKit/537.36 (KHTML, like Gecko) Chrome/138.0.0.0 Safari/537.36","WebKit","Chrome","138.0.0.0","Windows","10.0","https://app.prolific.com/","en-US,en;q=0.9","67d163e7b7bcc1e9718e01da","6877649eabb845cf142cd221","6893298ad282056712f9337b","1","67d163e7b7bcc1e9718e01da","1","2025-08-06T10:41:35.048Z","","","","","","","","","","","","","","","","win-only","0","g1:NW,g2:SE","0.3","8","0","1924511.9","1177.9","6185.8","50498.8","1","4","8","6","2","-8","-8","30","38","0.22727272727272727","1136.2","3000","-1510","[""down"",""right""]","{""num_key_presses"":14,""num_perfect"":4,""num_errors"":0,""num_randdir"":10,""num_randdir_good_moves"":6,""num_whilered"":0,""num_whileblue"":0,""num_blue"":0,""num_good_moves"":9}","[776.4285714285714,776.4285714285714,0.5,776.4285714285714,776.4285714285714,114.1,776.4285714285714,776.4285714285714,217.7,785.1785714285714,741.4285714285714,324.4,796.4285714285714,721.4285714285714,428.4,796.4285714285714,721.4285714285714,532.3,1318.9285714285713,1102.6785714285713,637,1445.1785714285713,1266.4285714285713,772.8,1448.9285714285713,1287.6785714285713,873,1478.9285714285713,1381.4285714285713,982.3,1477.6785714285713,1391.4285714285713,1085.4,1476.4285714285713,1391.4285714285713,1223,1476.4285714285713,1391.4285714285713,1327.4,1466.4285714285713,1353.9285714285713,1429.4,1636.4285714285713,1205.1785714285713,1541.8,1653.9285714285713,1198.9285714285713,1643.2,2270.1785714285716,1116.4285714285713,1751.7,2270.1785714285716,1080.1785714285713,1851.9,2270.1785714285716,1008.9285714285714,1963.3,2270.1785714285716,1012.6785714285714,2072.1,2270.1785714285716,1012.6785714285714,2176.8,2270.1785714285716,1012.6785714285714,2278.1,2270.1785714285716,1012.6785714285714,2382.9,2270.1785714285716,1012.6785714285714,2483.4,2270.1785714285716,1012.6785714285714,2614.4,2270.1785714285716,1012.6785714285714,2715.7,2270.1785714285716,1012.6785714285714,2817.3,2270.1785714285716,1012.6785714285714,2924.3,2270.1785714285716,1012.6785714285714,3025.5,2270.1785714285716,1012.6785714285714,3129,2270.1785714285716,1012.6785714285714,3242.3,2270.1785714285716,1012.6785714285714,3345.4,2270.1785714285716,1012.6785714285714,3449.5,2270.1785714285716,1012.6785714285714,3555.3,2270.1785714285716,1012.6785714285714,3667.4,2270.1785714285716,1012.6785714285714,3776.6,2270.1785714285716,1012.6785714285714,3923.3,2270.1785714285716,1012.6785714285714,4023.7,2270.1785714285716,1012.6785714285714,4125.5,2270.1785714285716,1012.6785714285714,4229.9,2270.1785714285716,1012.6785714285714,4331.5,2270.1785714285716,1012.6785714285714,4460.7,2270.1785714285716,1012.6785714285714,4595,2270.1785714285716,1012.6785714285714,4699.2,2270.1785714285716,1012.6785714285714,4823.7,2270.1785714285716,1012.6785714285714,4936.6]","[1514.1,1514.1,1000,0,514.1,""oops"",""right"",""right"",""good_move"",3658.4,2143.7,1740.1,1514.7,403.6,""oops"",""right"",""left"",""bad_move"",7250.1,3591.1,3154.5,3659,436.6,""oops"",""right"",""left"",""bad_move"",10233.6,2982.9,2575.2,7250.7,407.7,""smooth"",""left"",""left"",""bad_move"",13521.8,3287.8,2866.7,10234,421.1,""oops"",""right"",""right"",""good_move"",16643.7,3121.2,2654.6,13522.5,466.6,""oops"",""down"",""down"",""good_move"",19384.6,2740.2,2278.6,16644.4,461.6,""smooth"",""down"",""down"",""good_move"",22529.3,3144.3,2713,19385,431.3,""smooth"",""down"",""down"",""good_move"",25979,3449,3068.6,22530,380.4,""oops"",""right"",""up"",""bad_move"",29075.4,3095.5,2666,25980,429.5,""oops"",""right"",""down"",""good_move"",32002.4,2926.6,2507.1,29075.8,419.5,""oops"",""right"",""up"",""bad_move"",35265.7,3263,2809.5,32002.7,453.5,""oops"",""right"",""down"",""good_move"",38576.7,3310.8,2914.7,35265.9,396.1,""smooth"",""right"",""right"",""good_move"",40798.3,2221.1,1793.4,38577.2,427.7,""oops"",""right"",""right"",""good_move""]"
"51217","","<div style=""width:500px;"">
  <p>What determined the result of this run?</p>
  </div>","25","html-slider-response","49","2025782","0.0-7.0-1.7","174","1","2025-08-06 10:08:37","36c45c0696341be0efffe67d72a12abb","197.184.92.191","Mozilla/5.0 (Windows NT 10.0; Win64; x64) AppleWebKit/537.36 (KHTML, like Gecko) Chrome/138.0.0.0 Safari/537.36","WebKit","Chrome","138.0.0.0","Windows","10.0","https://app.prolific.com/","en-US,en;q=0.9","67d163e7b7bcc1e9718e01da","6877649eabb845cf142cd221","6893298ad282056712f9337b","1","67d163e7b7bcc1e9718e01da","1","2025-08-06T10:42:26.267Z","","","","AttribQ","","","","","","","","","","","50","","","","","","","","","","","","","","","","","","","","","","","","","","",""
"6333","","<div style=""width:500px;"">
  <p>How much control did you have over the ball?</p>
  </div>","24","html-slider-response","50","2032118","0.0-7.0-2.7","174","1","2025-08-06 10:08:37","36c45c0696341be0efffe67d72a12abb","197.184.92.191","Mozilla/5.0 (Windows NT 10.0; Win64; x64) AppleWebKit/537.36 (KHTML, like Gecko) Chrome/138.0.0.0 Safari/537.36","WebKit","Chrome","138.0.0.0","Windows","10.0","https://app.prolific.com/","en-US,en;q=0.9","67d163e7b7bcc1e9718e01da","6877649eabb845cf142cd221","6893298ad282056712f9337b","1","67d163e7b7bcc1e9718e01da","1","2025-08-06T10:42:32.603Z","","","","ControlQ","","","","","","","","","","","50","","","","","","","","","","","","","","","","","","","","","","","","","","",""
"8112","","<div style=""width:500px;"">
  <p>How would you describe your current emotional state?</p>
  </div>","65","html-slider-response","51","2040233","0.0-7.0-3.7","174","1","2025-08-06 10:08:37","36c45c0696341be0efffe67d72a12abb","197.184.92.191","Mozilla/5.0 (Windows NT 10.0; Win64; x64) AppleWebKit/537.36 (KHTML, like Gecko) Chrome/138.0.0.0 Safari/537.36","WebKit","Chrome","138.0.0.0","Windows","10.0","https://app.prolific.com/","en-US,en;q=0.9","67d163e7b7bcc1e9718e01da","6877649eabb845cf142cd221","6893298ad282056712f9337b","1","67d163e7b7bcc1e9718e01da","1","2025-08-06T10:42:40.718Z","","","","StressQ","","","","","","","","","","","50","","","","","","","","","","","","","","","","","","","","","","","","","","",""
"6960","","<div style=""width:500px;"">
  <p>What best describes how you currently feel?</p>
  </div>","14","html-slider-response","52","2047195","0.0-7.0-4.7","174","1","2025-08-06 10:08:37","36c45c0696341be0efffe67d72a12abb","197.184.92.191","Mozilla/5.0 (Windows NT 10.0; Win64; x64) AppleWebKit/537.36 (KHTML, like Gecko) Chrome/138.0.0.0 Safari/537.36","WebKit","Chrome","138.0.0.0","Windows","10.0","https://app.prolific.com/","en-US,en;q=0.9","67d163e7b7bcc1e9718e01da","6877649eabb845cf142cd221","6893298ad282056712f9337b","1","67d163e7b7bcc1e9718e01da","1","2025-08-06T10:42:47.680Z","","","","MotivationQ","","","","","","","","","","","50","","","","","","","","","","","","","","","","","","","","","","","","","","",""
"","","","","ctl-task-cpt","53","2105045","0.0-7.0-0.8","174","1","2025-08-06 10:08:37","36c45c0696341be0efffe67d72a12abb","197.184.92.191","Mozilla/5.0 (Windows NT 10.0; Win64; x64) AppleWebKit/537.36 (KHTML, like Gecko) Chrome/138.0.0.0 Safari/537.36","WebKit","Chrome","138.0.0.0","Windows","10.0","https://app.prolific.com/","en-US,en;q=0.9","67d163e7b7bcc1e9718e01da","6877649eabb845cf142cd221","6893298ad282056712f9337b","1","67d163e7b7bcc1e9718e01da","1","2025-08-06T10:43:45.530Z","","","","","","","","","","","","","","","","win-only","3","g1:SW,g2:NE","0.4","9","0","2050667.4","1369.2","6383.9","54820.2","1","4","4","6","2","-4","-4","26","30","0.19696969696969696","1706.5","3000","-1505","[""up"",""right""]","{""num_key_presses"":12,""num_perfect"":5,""num_errors"":0,""num_randdir"":7,""num_randdir_good_moves"":2,""num_whilered"":0,""num_whileblue"":0,""num_blue"":3,""num_good_moves"":7}","[765.1785714285714,783.9285714285714,0.7,765.1785714285714,783.9285714285714,104.1,765.1785714285714,783.9285714285714,212.6,765.1785714285714,783.9285714285714,319.6,763.9285714285714,783.9285714285714,423.8,763.9285714285714,783.9285714285714,529.3,763.9285714285714,783.9285714285714,635.9,763.9285714285714,785.1785714285714,741.1,1378.9285714285713,113.92857142857142,846.9,1501.4285714285713,12.678571428571416,947.8,1656.4285714285713,-82.32142857142858,1050.8,1646.4285714285713,-83.57142857142858,1165.6,1517.6785714285713,-13.571428571428584,1279.9,1446.4285714285713,27.678571428571416,1380.3,1421.4285714285713,47.678571428571416,1482.8,1421.4285714285713,47.678571428571416,1594.8,1416.4285714285713,65.17857142857142,1701.4,1416.4285714285713,65.17857142857142,1805.5,1416.4285714285713,65.17857142857142,1910.4,1416.4285714285713,65.17857142857142,2013.6,1416.4285714285713,65.17857142857142,2128.6,1416.4285714285713,65.17857142857142,2239,1416.4285714285713,65.17857142857142,2347.9,1416.4285714285713,65.17857142857142,2447.9,1417.6785714285713,65.17857142857142,2550.4,1593.9285714285713,218.92857142857142,2684.8,1593.9285714285713,218.92857142857142,2792.3,1593.9285714285713,218.92857142857142,2895.7,1593.9285714285713,218.92857142857142,2998.4,1593.9285714285713,218.92857142857142,3107.3,1593.9285714285713,218.92857142857142,3217.1,1593.9285714285713,218.92857142857142,3321.4,1593.9285714285713,218.92857142857142,3422.4,1593.9285714285713,218.92857142857142,3531.7,1593.9285714285713,218.92857142857142,3638.5,1593.9285714285713,218.92857142857142,3745.7,1593.9285714285713,218.92857142857142,3850.7,1593.9285714285713,218.92857142857142,3954.6,1593.9285714285713,218.92857142857142,4108.8,1593.9285714285713,218.92857142857142,4210,1593.9285714285713,218.92857142857142,4315.7,1593.9285714285713,218.92857142857142,4421.4,1593.9285714285713,218.92857142857142,4527.9,1593.9285714285713,218.92857142857142,4631.8,1593.9285714285713,218.92857142857142,4748.9,1593.9285714285713,218.92857142857142,4861.6,1593.9285714285713,218.92857142857142,4972.4]","[1808.9,1808.9,1000,0,808.9,""smooth"",""right"",""right"",""good_move"",4512.6,2703,2260.1,1809.6,442.9,""oops"",""right"",""down"",""bad_move"",7643.4,3129.7,2765.6,4513.7,364.1,""oops"",""right"",""down"",""bad_move"",14621.5,6977.4,2789.2,11451.4,380.9,""oops"",""right"",""up"",""good_move"",17705.2,3083.3,2574.6,14621.9,508.7,""oops"",""right"",""down"",""bad_move"",20290.8,2584.9,2117,17705.9,467.9,""smooth"",""up"",""up"",""good_move"",23656.7,3365.4,2788.6,20291.3,576.8,""oops"",""up"",""left"",""bad_move"",26664.2,3006.3,2213.9,23657.9,792.4,""smooth"",""up"",""up"",""good_move"",29823.6,3158.8,2749.4,26664.9,409.3,""smooth"",""up"",""up"",""good_move"",35792.4,5968.3,2134.1,33184.7,473.6,""oops"",""up"",""left"",""bad_move"",41664.9,5871.9,1847,39261.4,556.5,""oops"",""up"",""right"",""good_move"",45056.2,3390.6,2587.8,41665.6,802.8,""smooth"",""up"",""up"",""good_move""]"
"484115","","<div style=""width:500px;"">
  <p>What determined the result of this run?</p>
  </div>","55","html-slider-response","54","2589164","0.0-7.0-1.8","174","1","2025-08-06 10:08:37","36c45c0696341be0efffe67d72a12abb","197.184.92.191","Mozilla/5.0 (Windows NT 10.0; Win64; x64) AppleWebKit/537.36 (KHTML, like Gecko) Chrome/138.0.0.0 Safari/537.36","WebKit","Chrome","138.0.0.0","Windows","10.0","https://app.prolific.com/","en-US,en;q=0.9","67d163e7b7bcc1e9718e01da","6877649eabb845cf142cd221","6893298ad282056712f9337b","1","67d163e7b7bcc1e9718e01da","1","2025-08-06T10:51:49.650Z","","","","AttribQ","","","","","","","","","","","50","","","","","","","","","","","","","","","","","","","","","","","","","","",""
"1856","","<div style=""width:500px;"">
  <p>How much control did you have over the ball?</p>
  </div>","42","html-slider-response","55","2591024","0.0-7.0-2.8","174","1","2025-08-06 10:08:37","36c45c0696341be0efffe67d72a12abb","197.184.92.191","Mozilla/5.0 (Windows NT 10.0; Win64; x64) AppleWebKit/537.36 (KHTML, like Gecko) Chrome/138.0.0.0 Safari/537.36","WebKit","Chrome","138.0.0.0","Windows","10.0","https://app.prolific.com/","en-US,en;q=0.9","67d163e7b7bcc1e9718e01da","6877649eabb845cf142cd221","6893298ad282056712f9337b","1","67d163e7b7bcc1e9718e01da","1","2025-08-06T10:51:51.509Z","","","","ControlQ","","","","","","","","","","","50","","","","","","","","","","","","","","","","","","","","","","","","","","",""
"5287","","<div style=""width:500px;"">
  <p>How would you describe your current emotional state?</p>
  </div>","36","html-slider-response","56","2596314","0.0-7.0-3.8","174","1","2025-08-06 10:08:37","36c45c0696341be0efffe67d72a12abb","197.184.92.191","Mozilla/5.0 (Windows NT 10.0; Win64; x64) AppleWebKit/537.36 (KHTML, like Gecko) Chrome/138.0.0.0 Safari/537.36","WebKit","Chrome","138.0.0.0","Windows","10.0","https://app.prolific.com/","en-US,en;q=0.9","67d163e7b7bcc1e9718e01da","6877649eabb845cf142cd221","6893298ad282056712f9337b","1","67d163e7b7bcc1e9718e01da","1","2025-08-06T10:51:56.799Z","","","","StressQ","","","","","","","","","","","50","","","","","","","","","","","","","","","","","","","","","","","","","","",""
"4102","","<div style=""width:500px;"">
  <p>What best describes how you currently feel?</p>
  </div>","39","html-slider-response","57","2600420","0.0-7.0-4.8","174","1","2025-08-06 10:08:37","36c45c0696341be0efffe67d72a12abb","197.184.92.191","Mozilla/5.0 (Windows NT 10.0; Win64; x64) AppleWebKit/537.36 (KHTML, like Gecko) Chrome/138.0.0.0 Safari/537.36","WebKit","Chrome","138.0.0.0","Windows","10.0","https://app.prolific.com/","en-US,en;q=0.9","67d163e7b7bcc1e9718e01da","6877649eabb845cf142cd221","6893298ad282056712f9337b","1","67d163e7b7bcc1e9718e01da","1","2025-08-06T10:52:00.906Z","","","","MotivationQ","","","","","","","","","","","50","","","","","","","","","","","","","","","","","","","","","","","","","","",""
"","","","","ctl-task-cpt","58","2638528","0.0-7.0-0.9","174","1","2025-08-06 10:08:37","36c45c0696341be0efffe67d72a12abb","197.184.92.191","Mozilla/5.0 (Windows NT 10.0; Win64; x64) AppleWebKit/537.36 (KHTML, like Gecko) Chrome/138.0.0.0 Safari/537.36","WebKit","Chrome","138.0.0.0","Windows","10.0","https://app.prolific.com/","en-US,en;q=0.9","67d163e7b7bcc1e9718e01da","6877649eabb845cf142cd221","6893298ad282056712f9337b","1","67d163e7b7bcc1e9718e01da","1","2025-08-06T10:52:39.013Z","","","","","","","","","","","","","","","","win-only","0","g1:NW,g2:SE","0.5","10","0","2603895.9","979.3","5982.7","35059.7","1","4","8","6","2","8","7","33","26","0.25","1829.3","3000","1605","[""down"",""right""]","{""num_key_presses"":8,""num_perfect"":5,""num_errors"":1,""num_randdir"":2,""num_randdir_good_moves"":1,""num_whilered"":0,""num_whileblue"":1,""num_blue"":3,""num_good_moves"":7}","[768.9285714285714,796.4285714285714,0.4,766.4285714285714,796.4285714285714,102,765.1785714285714,796.4285714285714,233.3,765.1785714285714,796.4285714285714,339,765.1785714285714,796.4285714285714,439.1,987.6785714285714,986.4285714285714,544.4,987.6785714285714,986.4285714285714,646.7,987.6785714285714,986.4285714285714,750.6,1432.6785714285713,1581.4285714285713,852.8,1521.4285714285713,1656.4285714285713,960.7,1521.4285714285713,1656.4285714285713,1074.1,1531.4285714285713,1665.1785714285713,1175.6,1491.4285714285713,1566.4285714285713,1292.7,1486.4285714285713,1546.4285714285713,1399.7,1457.6785714285713,1496.4285714285713,1509.1,1456.4285714285713,1493.9285714285713,1623.2,1456.4285714285713,1493.9285714285713,1735.9,1438.9285714285713,1472.6785714285713,1856.7,1438.9285714285713,1472.6785714285713,1967.5,1438.9285714285713,1472.6785714285713,2073.6,1438.9285714285713,1471.4285714285713,2181.2,1438.9285714285713,1468.9285714285713,2286.4,1438.9285714285713,1466.4285714285713,2404.9,1438.9285714285713,1465.1785714285713,2512.7,1438.9285714285713,1465.1785714285713,2618.9,1438.9285714285713,1465.1785714285713,2722.8,1438.9285714285713,1452.6785714285713,2828,1436.4285714285713,1450.1785714285713,2928.4,1436.4285714285713,1450.1785714285713,3043.1,1436.4285714285713,1448.9285714285713,3144.4,1436.4285714285713,1448.9285714285713,3254.2,1436.4285714285713,1448.9285714285713,3361.9,1436.4285714285713,1448.9285714285713,3462.5,1436.4285714285713,1448.9285714285713,3571.5,1436.4285714285713,1448.9285714285713,3682.1,1436.4285714285713,1448.9285714285713,3794.5,1436.4285714285713,1448.9285714285713,3907.4,1436.4285714285713,1448.9285714285713,4020.3,1436.4285714285713,1448.9285714285713,4127.5,1436.4285714285713,1448.9285714285713,4235.3,1436.4285714285713,1448.9285714285713,4336.6,1436.4285714285713,1448.9285714285713,4445.6,1436.4285714285713,1448.9285714285713,4623.9,1436.4285714285713,1448.9285714285713,4728.6,1436.4285714285713,1448.9285714285713,4837.8,1436.4285714285713,1448.9285714285713,4947]","[1479.4,1479.4,1000,0,479.4,""smooth"",""down"",""down"",""good_move"",3877.7,2397.1,1886.3,1480.6,510.8,""oops"",""down"",""left"",""bad_move"",7106.6,3228.2,2354.5,3878.4,873.7,""smooth"",""right"",""right"",""good_move"",9508.6,2401,1995.6,7107.6,405.4,""while_blue"",""right"",""down"",""good_move"",16375.4,6866.2,2283.8,13664.3,427.3,""oops"",""right"",""right"",""good_move"",18805.1,2429.4,1911.7,16375.9,517.6,""smooth"",""right"",""right"",""good_move"",25580.7,6775,2855.6,22178.5,546.6,""smooth"",""right"",""right"",""good_move"",28807.4,3225.9,2519.2,25581.5,706.7,""smooth"",""down"",""down"",""good_move""]"
"133073","","<div style=""width:500px;"">
  <p>What determined the result of this run?</p>
  </div>","59","html-slider-response","59","2771604","0.0-7.0-1.9","174","1","2025-08-06 10:08:37","36c45c0696341be0efffe67d72a12abb","197.184.92.191","Mozilla/5.0 (Windows NT 10.0; Win64; x64) AppleWebKit/537.36 (KHTML, like Gecko) Chrome/138.0.0.0 Safari/537.36","WebKit","Chrome","138.0.0.0","Windows","10.0","https://app.prolific.com/","en-US,en;q=0.9","67d163e7b7bcc1e9718e01da","6877649eabb845cf142cd221","6893298ad282056712f9337b","1","67d163e7b7bcc1e9718e01da","1","2025-08-06T10:54:52.089Z","","","","AttribQ","","","","","","","","","","","50","","","","","","","","","","","","","","","","","","","","","","","","","","",""
"3082","","<div style=""width:500px;"">
  <p>How much control did you have over the ball?</p>
  </div>","36","html-slider-response","60","2774698","0.0-7.0-2.9","174","1","2025-08-06 10:08:37","36c45c0696341be0efffe67d72a12abb","197.184.92.191","Mozilla/5.0 (Windows NT 10.0; Win64; x64) AppleWebKit/537.36 (KHTML, like Gecko) Chrome/138.0.0.0 Safari/537.36","WebKit","Chrome","138.0.0.0","Windows","10.0","https://app.prolific.com/","en-US,en;q=0.9","67d163e7b7bcc1e9718e01da","6877649eabb845cf142cd221","6893298ad282056712f9337b","1","67d163e7b7bcc1e9718e01da","1","2025-08-06T10:54:55.183Z","","","","ControlQ","","","","","","","","","","","50","","","","","","","","","","","","","","","","","","","","","","","","","","",""
"2963","","<div style=""width:500px;"">
  <p>How would you describe your current emotional state?</p>
  </div>","64","html-slider-response","61","2777665","0.0-7.0-3.9","174","1","2025-08-06 10:08:37","36c45c0696341be0efffe67d72a12abb","197.184.92.191","Mozilla/5.0 (Windows NT 10.0; Win64; x64) AppleWebKit/537.36 (KHTML, like Gecko) Chrome/138.0.0.0 Safari/537.36","WebKit","Chrome","138.0.0.0","Windows","10.0","https://app.prolific.com/","en-US,en;q=0.9","67d163e7b7bcc1e9718e01da","6877649eabb845cf142cd221","6893298ad282056712f9337b","1","67d163e7b7bcc1e9718e01da","1","2025-08-06T10:54:58.151Z","","","","StressQ","","","","","","","","","","","50","","","","","","","","","","","","","","","","","","","","","","","","","","",""
"2607","","<div style=""width:500px;"">
  <p>What best describes how you currently feel?</p>
  </div>","38","html-slider-response","62","2780277","0.0-7.0-4.9","174","1","2025-08-06 10:08:37","36c45c0696341be0efffe67d72a12abb","197.184.92.191","Mozilla/5.0 (Windows NT 10.0; Win64; x64) AppleWebKit/537.36 (KHTML, like Gecko) Chrome/138.0.0.0 Safari/537.36","WebKit","Chrome","138.0.0.0","Windows","10.0","https://app.prolific.com/","en-US,en;q=0.9","67d163e7b7bcc1e9718e01da","6877649eabb845cf142cd221","6893298ad282056712f9337b","1","67d163e7b7bcc1e9718e01da","1","2025-08-06T10:55:00.762Z","","","","MotivationQ","","","","","","","","","","","50","","","","","","","","","","","","","","","","","","","","","","","","","","",""
"","","","","ctl-task-cpt","63","2835957","0.0-7.0-0.10","174","1","2025-08-06 10:08:37","36c45c0696341be0efffe67d72a12abb","197.184.92.191","Mozilla/5.0 (Windows NT 10.0; Win64; x64) AppleWebKit/537.36 (KHTML, like Gecko) Chrome/138.0.0.0 Safari/537.36","WebKit","Chrome","138.0.0.0","Windows","10.0","https://app.prolific.com/","en-US,en;q=0.9","67d163e7b7bcc1e9718e01da","6877649eabb845cf142cd221","6893298ad282056712f9337b","1","67d163e7b7bcc1e9718e01da","1","2025-08-06T10:55:56.442Z","","","","","","","","","","","","","","","","win-only","3","g1:SW,g2:NE","0.6","11","0","2783749.1","1149.9","6153.3","52658.2","1","4","4","6","2","4","4","37","33","0.2803030303030303","1258.1","3000","1155","[""up"",""right""]","{""num_key_presses"":12,""num_perfect"":8,""num_errors"":0,""num_randdir"":4,""num_randdir_good_moves"":1,""num_whilered"":0,""num_whileblue"":0,""num_blue"":3,""num_good_moves"":9}","[782.6785714285714,751.4285714285714,0.3,782.6785714285714,751.4285714285714,101.8,782.6785714285714,751.4285714285714,211,786.4285714285714,757.6785714285714,333,786.4285714285714,757.6785714285714,435.5,728.9285714285714,593.9285714285714,550.2,943.9285714285714,471.42857142857144,666.6,1347.6785714285713,218.92857142857142,776.3,1401.4285714285713,186.42857142857142,881.9,1433.9285714285713,155.17857142857142,987.6,1433.9285714285713,153.92857142857142,1087.9,1433.9285714285713,153.92857142857142,1199.9,1432.6785714285713,153.92857142857142,1313.2,1433.9285714285713,172.67857142857142,1424.2,1507.6785714285713,246.42857142857142,1525.4,1703.9285714285713,348.92857142857144,1627.2,1706.4285714285713,350.17857142857144,1736,1706.4285714285713,350.17857142857144,1846.9,1706.4285714285713,350.17857142857144,1950.2,1706.4285714285713,350.17857142857144,2051.4,1706.4285714285713,350.17857142857144,2162.8,1706.4285714285713,350.17857142857144,2278.7,1706.4285714285713,350.17857142857144,2391.4,1706.4285714285713,350.17857142857144,2523.8,1706.4285714285713,350.17857142857144,2623.9,1706.4285714285713,350.17857142857144,2734.3,1706.4285714285713,350.17857142857144,2834.4,1706.4285714285713,350.17857142857144,2935.4,1706.4285714285713,350.17857142857144,3037.3,1706.4285714285713,350.17857142857144,3138.7,1706.4285714285713,350.17857142857144,3247.6,1706.4285714285713,350.17857142857144,3357,1706.4285714285713,350.17857142857144,3468.5,1706.4285714285713,350.17857142857144,3570.2,1706.4285714285713,350.17857142857144,3679.1,1706.4285714285713,350.17857142857144,3783,1706.4285714285713,350.17857142857144,3886.8,1706.4285714285713,350.17857142857144,3999.1,1706.4285714285713,350.17857142857144,4101.1,1706.4285714285713,350.17857142857144,4208.7,1706.4285714285713,350.17857142857144,4331.1,1706.4285714285713,350.17857142857144,4438.1,1706.4285714285713,350.17857142857144,4539.4,1706.4285714285713,350.17857142857144,4656.7,1706.4285714285713,350.17857142857144,4758.8,1706.4285714285713,350.17857142857144,4901.2]","[1518.3,1518.3,1000,0,518.3,""smooth"",""right"",""right"",""good_move"",4199.8,2680.7,2224.4,1519.2,456.3,""oops"",""right"",""down"",""bad_move"",7751.1,3549.8,3154.5,4201.3,395.3,""smooth"",""right"",""right"",""good_move"",10653.2,2901.6,2461.8,7751.8,439.7,""oops"",""right"",""left"",""bad_move"",13751,3096.9,2484,10654.2,612.9,""oops"",""up"",""right"",""good_move"",16613.6,2862.2,2464.3,13751.5,397.9,""oops"",""up"",""down"",""bad_move"",19741.1,3126.9,2743.8,16614.2,383.1,""smooth"",""up"",""up"",""good_move"",23013.1,3271.4,2874.4,19741.7,397,""smooth"",""up"",""up"",""good_move"",25981.9,2968.4,2306.7,23013.5,661.7,""smooth"",""up"",""up"",""good_move"",29205.9,3223.6,2285.1,25982.3,938.5,""smooth"",""up"",""up"",""good_move"",42950.3,13744.1,2039.9,40395.8,514.6,""smooth"",""up"",""up"",""good_move"",46190.1,3239.4,2089.1,42950.7,1150.3,""smooth"",""right"",""right"",""good_move""]"
"2908","","<div style=""width:500px;"">
  <p>What determined the result of this run?</p>
  </div>","57","html-slider-response","64","2838868","0.0-7.0-1.10","174","1","2025-08-06 10:08:37","36c45c0696341be0efffe67d72a12abb","197.184.92.191","Mozilla/5.0 (Windows NT 10.0; Win64; x64) AppleWebKit/537.36 (KHTML, like Gecko) Chrome/138.0.0.0 Safari/537.36","WebKit","Chrome","138.0.0.0","Windows","10.0","https://app.prolific.com/","en-US,en;q=0.9","67d163e7b7bcc1e9718e01da","6877649eabb845cf142cd221","6893298ad282056712f9337b","1","67d163e7b7bcc1e9718e01da","1","2025-08-06T10:55:59.353Z","","","","AttribQ","","","","","","","","","","","50","","","","","","","","","","","","","","","","","","","","","","","","","","",""
"2446","","<div style=""width:500px;"">
  <p>How much control did you have over the ball?</p>
  </div>","43","html-slider-response","65","2841317","0.0-7.0-2.10","174","1","2025-08-06 10:08:37","36c45c0696341be0efffe67d72a12abb","197.184.92.191","Mozilla/5.0 (Windows NT 10.0; Win64; x64) AppleWebKit/537.36 (KHTML, like Gecko) Chrome/138.0.0.0 Safari/537.36","WebKit","Chrome","138.0.0.0","Windows","10.0","https://app.prolific.com/","en-US,en;q=0.9","67d163e7b7bcc1e9718e01da","6877649eabb845cf142cd221","6893298ad282056712f9337b","1","67d163e7b7bcc1e9718e01da","1","2025-08-06T10:56:01.802Z","","","","ControlQ","","","","","","","","","","","50","","","","","","","","","","","","","","","","","","","","","","","","","","",""
"2840","","<div style=""width:500px;"">
  <p>How would you describe your current emotional state?</p>
  </div>","59","html-slider-response","66","2844160","0.0-7.0-3.10","174","1","2025-08-06 10:08:37","36c45c0696341be0efffe67d72a12abb","197.184.92.191","Mozilla/5.0 (Windows NT 10.0; Win64; x64) AppleWebKit/537.36 (KHTML, like Gecko) Chrome/138.0.0.0 Safari/537.36","WebKit","Chrome","138.0.0.0","Windows","10.0","https://app.prolific.com/","en-US,en;q=0.9","67d163e7b7bcc1e9718e01da","6877649eabb845cf142cd221","6893298ad282056712f9337b","1","67d163e7b7bcc1e9718e01da","1","2025-08-06T10:56:04.645Z","","","","StressQ","","","","","","","","","","","50","","","","","","","","","","","","","","","","","","","","","","","","","","",""
"3039","","<div style=""width:500px;"">
  <p>What best describes how you currently feel?</p>
  </div>","39","html-slider-response","67","2847203","0.0-7.0-4.10","174","1","2025-08-06 10:08:37","36c45c0696341be0efffe67d72a12abb","197.184.92.191","Mozilla/5.0 (Windows NT 10.0; Win64; x64) AppleWebKit/537.36 (KHTML, like Gecko) Chrome/138.0.0.0 Safari/537.36","WebKit","Chrome","138.0.0.0","Windows","10.0","https://app.prolific.com/","en-US,en;q=0.9","67d163e7b7bcc1e9718e01da","6877649eabb845cf142cd221","6893298ad282056712f9337b","1","67d163e7b7bcc1e9718e01da","1","2025-08-06T10:56:07.688Z","","","","MotivationQ","","","","","","","","","","","50","","","","","","","","","","","","","","","","","","","","","","","","","","",""
"","","","","ctl-task-cpt","68","2888283","0.0-7.0-0.11","174","1","2025-08-06 10:08:37","36c45c0696341be0efffe67d72a12abb","197.184.92.191","Mozilla/5.0 (Windows NT 10.0; Win64; x64) AppleWebKit/537.36 (KHTML, like Gecko) Chrome/138.0.0.0 Safari/537.36","WebKit","Chrome","138.0.0.0","Windows","10.0","https://app.prolific.com/","en-US,en;q=0.9","67d163e7b7bcc1e9718e01da","6877649eabb845cf142cd221","6893298ad282056712f9337b","1","67d163e7b7bcc1e9718e01da","1","2025-08-06T10:56:48.768Z","","","","","","","","","","","","","","","","win-only","3","g1:SW,g2:NE","0.7","12","0","2850677.7","1990.1","7002.7","38053.8","1","4","8","6","2","8","8","45","37","0.3409090909090909","1378.3","3000","1635","[""up"",""right""]","{""num_key_presses"":8,""num_perfect"":6,""num_errors"":0,""num_randdir"":2,""num_randdir_good_moves"":1,""num_whilered"":0,""num_whileblue"":0,""num_blue"":2,""num_good_moves"":7}","[761.4285714285714,771.4285714285714,0.4,761.4285714285714,771.4285714285714,103.1,761.4285714285714,771.4285714285714,203.4,761.4285714285714,771.4285714285714,307.6,731.4285714285714,711.4285714285714,457.2,768.9285714285714,617.6785714285714,597.8,1106.4285714285713,537.6785714285714,705.5,1255.1785714285713,408.92857142857144,808.9,1255.1785714285713,408.92857142857144,916.1,1377.6785714285713,237.67857142857142,1025,1446.4285714285713,105.17857142857142,1125.2,1447.6785714285713,88.92857142857142,1259.2,1447.6785714285713,88.92857142857142,1371.1,1447.6785714285713,90.17857142857142,1489,1447.6785714285713,90.17857142857142,1590,1447.6785714285713,90.17857142857142,1690.6,1447.6785714285713,92.67857142857142,1792.4,1436.4285714285713,110.17857142857142,1988.2,1537.6785714285713,308.92857142857144,2095.9,1791.4285714285713,516.4285714285714,2209.5,1763.9285714285713,571.4285714285714,2312.4,1722.6785714285713,566.4285714285714,2457.6,1796.4285714285713,586.4285714285714,2567.7,1816.4285714285713,581.4285714285714,2675.1,1772.6785714285713,596.4285714285714,2789.1,1772.6785714285713,596.4285714285714,2894.6,1772.6785714285713,596.4285714285714,3020.8,1772.6785714285713,596.4285714285714,3123.4,1772.6785714285713,596.4285714285714,3235.3,1772.6785714285713,596.4285714285714,3343.7,1772.6785714285713,596.4285714285714,3449.5,1772.6785714285713,596.4285714285714,3567.1,1772.6785714285713,596.4285714285714,3670.8,1772.6785714285713,596.4285714285714,3802.7,1772.6785714285713,596.4285714285714,3913,1772.6785714285713,596.4285714285714,4021.6,1772.6785714285713,596.4285714285714,4123.4,1772.6785714285713,596.4285714285714,4227.8,1772.6785714285713,596.4285714285714,4348.6,1772.6785714285713,596.4285714285714,4453.3,1772.6785714285713,596.4285714285714,4561.7,1772.6785714285713,596.4285714285714,4666.7,1772.6785714285713,596.4285714285714,4804.7,1772.6785714285713,596.4285714285714,4908]","[1527.6,1527.6,1000,0,527.6,""smooth"",""right"",""right"",""good_move"",4650.8,3122.1,2591.4,1528.7,530.7,""oops"",""right"",""right"",""good_move"",7100.6,2449.4,1751.1,4651.2,698.3,""oops"",""right"",""down"",""bad_move"",17923.4,10822,2840.2,14304.5,778.7,""smooth"",""up"",""up"",""good_move"",21267.8,3344,1976.6,17923.8,1367.4,""smooth"",""up"",""up"",""good_move"",24931.1,3663,2880.7,21268.1,782.3,""smooth"",""up"",""up"",""good_move"",27890.9,2959.4,1803.1,24931.6,1156.2,""smooth"",""up"",""up"",""good_move"",30763.9,2872.6,2430.3,27891.3,442.3,""smooth"",""right"",""right"",""good_move""]"
"30026","","<div style=""width:500px;"">
  <p>What determined the result of this run?</p>
  </div>","40","html-slider-response","69","2918310","0.0-7.0-1.11","174","1","2025-08-06 10:08:37","36c45c0696341be0efffe67d72a12abb","197.184.92.191","Mozilla/5.0 (Windows NT 10.0; Win64; x64) AppleWebKit/537.36 (KHTML, like Gecko) Chrome/138.0.0.0 Safari/537.36","WebKit","Chrome","138.0.0.0","Windows","10.0","https://app.prolific.com/","en-US,en;q=0.9","67d163e7b7bcc1e9718e01da","6877649eabb845cf142cd221","6893298ad282056712f9337b","1","67d163e7b7bcc1e9718e01da","1","2025-08-06T10:57:18.795Z","","","","AttribQ","","","","","","","","","","","50","","","","","","","","","","","","","","","","","","","","","","","","","","",""
"3466","","<div style=""width:500px;"">
  <p>How much control did you have over the ball?</p>
  </div>","42","html-slider-response","70","2921779","0.0-7.0-2.11","174","1","2025-08-06 10:08:37","36c45c0696341be0efffe67d72a12abb","197.184.92.191","Mozilla/5.0 (Windows NT 10.0; Win64; x64) AppleWebKit/537.36 (KHTML, like Gecko) Chrome/138.0.0.0 Safari/537.36","WebKit","Chrome","138.0.0.0","Windows","10.0","https://app.prolific.com/","en-US,en;q=0.9","67d163e7b7bcc1e9718e01da","6877649eabb845cf142cd221","6893298ad282056712f9337b","1","67d163e7b7bcc1e9718e01da","1","2025-08-06T10:57:22.264Z","","","","ControlQ","","","","","","","","","","","50","","","","","","","","","","","","","","","","","","","","","","","","","","",""
"2394","","<div style=""width:500px;"">
  <p>How would you describe your current emotional state?</p>
  </div>","57","html-slider-response","71","2924177","0.0-7.0-3.11","174","1","2025-08-06 10:08:37","36c45c0696341be0efffe67d72a12abb","197.184.92.191","Mozilla/5.0 (Windows NT 10.0; Win64; x64) AppleWebKit/537.36 (KHTML, like Gecko) Chrome/138.0.0.0 Safari/537.36","WebKit","Chrome","138.0.0.0","Windows","10.0","https://app.prolific.com/","en-US,en;q=0.9","67d163e7b7bcc1e9718e01da","6877649eabb845cf142cd221","6893298ad282056712f9337b","1","67d163e7b7bcc1e9718e01da","1","2025-08-06T10:57:24.662Z","","","","StressQ","","","","","","","","","","","50","","","","","","","","","","","","","","","","","","","","","","","","","","",""
"3465","","<div style=""width:500px;"">
  <p>What best describes how you currently feel?</p>
  </div>","40","html-slider-response","72","2927644","0.0-7.0-4.11","174","1","2025-08-06 10:08:37","36c45c0696341be0efffe67d72a12abb","197.184.92.191","Mozilla/5.0 (Windows NT 10.0; Win64; x64) AppleWebKit/537.36 (KHTML, like Gecko) Chrome/138.0.0.0 Safari/537.36","WebKit","Chrome","138.0.0.0","Windows","10.0","https://app.prolific.com/","en-US,en;q=0.9","67d163e7b7bcc1e9718e01da","6877649eabb845cf142cd221","6893298ad282056712f9337b","1","67d163e7b7bcc1e9718e01da","1","2025-08-06T10:57:28.130Z","","","","MotivationQ","","","","","","","","","","","50","","","","","","","","","","","","","","","","","","","","","","","","","","",""
"","","","","ctl-task-cpt","73","2962626","0.0-7.0-0.12","174","1","2025-08-06 10:08:37","36c45c0696341be0efffe67d72a12abb","197.184.92.191","Mozilla/5.0 (Windows NT 10.0; Win64; x64) AppleWebKit/537.36 (KHTML, like Gecko) Chrome/138.0.0.0 Safari/537.36","WebKit","Chrome","138.0.0.0","Windows","10.0","https://app.prolific.com/","en-US,en;q=0.9","67d163e7b7bcc1e9718e01da","6877649eabb845cf142cd221","6893298ad282056712f9337b","1","67d163e7b7bcc1e9718e01da","1","2025-08-06T10:58:03.111Z","","","","","","","","","","","","","","","","win-only","1","g1:NE,g2:SW","0.8","13","0","2931117.3","1274.3","6287.1","31951.7","1","4","8","6","2","8","8","53","45","0.4015151515151515","1119.2","3000","1690","[""down"",""left""]","{""num_key_presses"":6,""num_perfect"":5,""num_errors"":0,""num_randdir"":1,""num_randdir_good_moves"":1,""num_whilered"":0,""num_whileblue"":0,""num_blue"":2,""num_good_moves"":6}","[765.1785714285714,775.1785714285714,0.3,763.9285714285714,777.6785714285714,114.3,763.9285714285714,780.1785714285714,222.4,766.4285714285714,780.1785714285714,332.8,766.4285714285714,780.1785714285714,440.6,636.4285714285714,833.9285714285714,550.6,328.92857142857144,1258.9285714285713,725.9,191.42857142857142,1378.9285714285713,836.4,132.67857142857142,1431.4285714285713,937.7,132.67857142857142,1436.4285714285713,1041.1,132.67857142857142,1436.4285714285713,1152.8,132.67857142857142,1435.1785714285713,1327.3,132.67857142857142,1435.1785714285713,1431,141.42857142857142,1422.6785714285713,1543.4,175.17857142857142,1413.9285714285713,1649.8,425.17857142857144,1300.1785714285713,1808.2,755.1785714285714,1180.1785714285713,1925.4,1036.4285714285713,1143.9285714285713,2043.5,1048.9285714285713,1143.9285714285713,2146,1048.9285714285713,1143.9285714285713,2256.2,1093.9285714285713,1132.6785714285713,2370.8,1095.1785714285713,1132.6785714285713,2483.1,1095.1785714285713,1132.6785714285713,2587.4,1095.1785714285713,1132.6785714285713,2706.5,1095.1785714285713,1132.6785714285713,2807.5,1095.1785714285713,1132.6785714285713,2918.6,1095.1785714285713,1132.6785714285713,3023.2,1095.1785714285713,1132.6785714285713,3169,1095.1785714285713,1132.6785714285713,3269.6,1095.1785714285713,1132.6785714285713,3370.2,1095.1785714285713,1132.6785714285713,3480.9,1095.1785714285713,1132.6785714285713,3590.8,1095.1785714285713,1132.6785714285713,3694.7,1095.1785714285713,1132.6785714285713,3802.1,1095.1785714285713,1132.6785714285713,3929.9,1095.1785714285713,1132.6785714285713,4031.6,1095.1785714285713,1132.6785714285713,4151,1095.1785714285713,1132.6785714285713,4266.1,1095.1785714285713,1132.6785714285713,4377,1096.4285714285713,1121.4285714285713,4483.8,1096.4285714285713,1091.4285714285713,4587.4,1096.4285714285713,1091.4285714285713,4698,1096.4285714285713,1091.4285714285713,4813.7,1096.4285714285713,1091.4285714285713,4927.2]","[1583.6,1583.6,1000,0,583.6,""smooth"",""down"",""down"",""good_move"",4607.3,3022.8,2425.6,1584.5,597.2,""smooth"",""down"",""down"",""good_move"",7439.5,2831.9,2345.5,4607.7,486.3,""smooth"",""down"",""down"",""good_move"",14112.1,6672,2274,10617.7,1220.4,""smooth"",""left"",""left"",""good_move"",17391.8,3279.1,2515.8,14112.7,763.3,""oops"",""left"",""left"",""good_move"",25343.5,7951.2,3455,21347.6,540.9,""smooth"",""left"",""left"",""good_move""]"
"5297","","<div style=""width:500px;"">
  <p>What determined the result of this run?</p>
  </div>","53","html-slider-response","74","2967926","0.0-7.0-1.12","174","1","2025-08-06 10:08:37","36c45c0696341be0efffe67d72a12abb","197.184.92.191","Mozilla/5.0 (Windows NT 10.0; Win64; x64) AppleWebKit/537.36 (KHTML, like Gecko) Chrome/138.0.0.0 Safari/537.36","WebKit","Chrome","138.0.0.0","Windows","10.0","https://app.prolific.com/","en-US,en;q=0.9","67d163e7b7bcc1e9718e01da","6877649eabb845cf142cd221","6893298ad282056712f9337b","1","67d163e7b7bcc1e9718e01da","1","2025-08-06T10:58:08.411Z","","","","AttribQ","","","","","","","","","","","50","","","","","","","","","","","","","","","","","","","","","","","","","","",""
"3293","","<div style=""width:500px;"">
  <p>How much control did you have over the ball?</p>
  </div>","43","html-slider-response","75","2971223","0.0-7.0-2.12","174","1","2025-08-06 10:08:37","36c45c0696341be0efffe67d72a12abb","197.184.92.191","Mozilla/5.0 (Windows NT 10.0; Win64; x64) AppleWebKit/537.36 (KHTML, like Gecko) Chrome/138.0.0.0 Safari/537.36","WebKit","Chrome","138.0.0.0","Windows","10.0","https://app.prolific.com/","en-US,en;q=0.9","67d163e7b7bcc1e9718e01da","6877649eabb845cf142cd221","6893298ad282056712f9337b","1","67d163e7b7bcc1e9718e01da","1","2025-08-06T10:58:11.708Z","","","","ControlQ","","","","","","","","","","","50","","","","","","","","","","","","","","","","","","","","","","","","","","",""
"3816","","<div style=""width:500px;"">
  <p>How would you describe your current emotional state?</p>
  </div>","64","html-slider-response","76","2975043","0.0-7.0-3.12","174","1","2025-08-06 10:08:37","36c45c0696341be0efffe67d72a12abb","197.184.92.191","Mozilla/5.0 (Windows NT 10.0; Win64; x64) AppleWebKit/537.36 (KHTML, like Gecko) Chrome/138.0.0.0 Safari/537.36","WebKit","Chrome","138.0.0.0","Windows","10.0","https://app.prolific.com/","en-US,en;q=0.9","67d163e7b7bcc1e9718e01da","6877649eabb845cf142cd221","6893298ad282056712f9337b","1","67d163e7b7bcc1e9718e01da","1","2025-08-06T10:58:15.528Z","","","","StressQ","","","","","","","","","","","50","","","","","","","","","","","","","","","","","","","","","","","","","","",""
"5390","","<div style=""width:500px;"">
  <p>What best describes how you currently feel?</p>
  </div>","34","html-slider-response","77","2980435","0.0-7.0-4.12","174","1","2025-08-06 10:08:37","36c45c0696341be0efffe67d72a12abb","197.184.92.191","Mozilla/5.0 (Windows NT 10.0; Win64; x64) AppleWebKit/537.36 (KHTML, like Gecko) Chrome/138.0.0.0 Safari/537.36","WebKit","Chrome","138.0.0.0","Windows","10.0","https://app.prolific.com/","en-US,en;q=0.9","67d163e7b7bcc1e9718e01da","6877649eabb845cf142cd221","6893298ad282056712f9337b","1","67d163e7b7bcc1e9718e01da","1","2025-08-06T10:58:20.921Z","","","","MotivationQ","","","","","","","","","","","50","","","","","","","","","","","","","","","","","","","","","","","","","","",""
