"rt","response_timestamp","stimulus","response","trial_type","trial_index","time_elapsed","internal_node_id","run_id","condition","recorded_at","source_code_version","ip","user_agent","device","browser","browser_version","platform","platform_version","referer","accept_language","PROLIFIC_PID","STUDY_ID","SESSION_ID","BATCH","prolific_id","batch","realtime","success","question_order","question_id","eventType","responses","item_order","radio_event_ids","radio_event_times","key_event_times","mouse_event_times","straightlining","zigzagging","honeypot","view_history","slider_start","which_type","canvas_config","goals_layout","control_level","trial_number","tutorial_trial_number","trial_start_time","phase1_start_time","phase2_start_time","phase3_start_time","goal_1_value","goal_1_distance","goal_2_value","goal_2_distance","goal_selected","outcome","outcome_total","participant_final_score","participant_initial_score","participant_final_score_prop","goal_choice_rt","allocated_time","allocated_time_remaining","goal_direction","counts","mouse_movements","key_presses"
"17053","1753864898082","<p style='font-size:40px;line-height:1.25'><strong>Welcome to the experiment!</strong></p><p style='font-size:1.1em;line-height:1.25'>Thank you for participanting in our experiment again! You will be asked to play the Dysfunctional Ball Game again. We will briefly recap the rules before we start.</p><p style='font-size:1.1em;line-height:1.25'>Press <strong>Next</strong> to continue.</p>","0","custom-html-button-response","0","17056","0.0-0.0","33","1","2025-07-30 08:41:19","36c45c0696341be0efffe67d72a12abb","197.185.146.44","Mozilla/5.0 (Windows NT 10.0; Win64; x64) AppleWebKit/537.36 (KHTML, like Gecko) Chrome/138.0.0.0 Safari/537.36 Edg/138.0.0.0","WebKit","Edge","138.0.0.0","Windows","10.0","https://app.prolific.com/","en-US,en;q=0.9,en-ZA;q=0.8","67d548b5aa5737666a77a6d2","687a19d2168e237449fb8af4","6889da13d6e20a33e7aad6f6","0","67d548b5aa5737666a77a6d2","0","2025-07-30T08:41:38.083Z","","","","","","","","","","","","","","","","","","","","","","","","","","","","","","","","","","","","","","","","","",""
"46686","","","","fullscreen","1","64744","0.0-1.0","33","1","2025-07-30 08:41:19","36c45c0696341be0efffe67d72a12abb","197.185.146.44","Mozilla/5.0 (Windows NT 10.0; Win64; x64) AppleWebKit/537.36 (KHTML, like Gecko) Chrome/138.0.0.0 Safari/537.36 Edg/138.0.0.0","WebKit","Edge","138.0.0.0","Windows","10.0","https://app.prolific.com/","en-US,en;q=0.9,en-ZA;q=0.8","67d548b5aa5737666a77a6d2","687a19d2168e237449fb8af4","6889da13d6e20a33e7aad6f6","0","67d548b5aa5737666a77a6d2","0","","true","","","","","","","","","","","","","","","","","","","","","","","","","","","","","","","","","","","","","","","","",""
"15806","1753864961578"," <p style='font-size:1.1em;line-height:1.25'>Thank you for closing all other tabs.</p><p style='font-size:1.1em;line-height:1.25'>We will now invite you to fill in some questionnaires, before starting the game.<br>This will take about 5 minutes.<br></p><p style='font-size:1.1em;line-height:1.25'>Press the <strong>Next</strong> button to continue.</p>","0","custom-html-button-response","2","80551","0.0-2.0","33","1","2025-07-30 08:41:19","36c45c0696341be0efffe67d72a12abb","197.185.146.44","Mozilla/5.0 (Windows NT 10.0; Win64; x64) AppleWebKit/537.36 (KHTML, like Gecko) Chrome/138.0.0.0 Safari/537.36 Edg/138.0.0.0","WebKit","Edge","138.0.0.0","Windows","10.0","https://app.prolific.com/","en-US,en;q=0.9,en-ZA;q=0.8","67d548b5aa5737666a77a6d2","687a19d2168e237449fb8af4","6889da13d6e20a33e7aad6f6","0","67d548b5aa5737666a77a6d2","0","2025-07-30T08:42:41.578Z","","","","","","","","","","","","","","","","","","","","","","","","","","","","","","","","","","","","","","","","","",""
"4584","","","{""assigned_sex"":""male""}","survey-multi-choice","3","85136","0.0-3.0-0.0","33","1","2025-07-30 08:41:19","36c45c0696341be0efffe67d72a12abb","197.185.146.44","Mozilla/5.0 (Windows NT 10.0; Win64; x64) AppleWebKit/537.36 (KHTML, like Gecko) Chrome/138.0.0.0 Safari/537.36 Edg/138.0.0.0","WebKit","Edge","138.0.0.0","Windows","10.0","https://app.prolific.com/","en-US,en;q=0.9,en-ZA;q=0.8","67d548b5aa5737666a77a6d2","687a19d2168e237449fb8af4","6889da13d6e20a33e7aad6f6","0","67d548b5aa5737666a77a6d2","0","","","[0]","0","demographics","","","","","","","","","","","","","","","","","","","","","","","","","","","","","","","","","","","","","",""
"4111","1753864970274","<p style='font-size:1.1em;line-height:1.25'>In the following, we will perform a baseline assessment. This means that we will ask you a few questions relating to your experiences over the past month.<br></p><p style='font-size:1.1em;line-height:1.25'>Press the <strong>Next</strong> button to continue.</p>","0","custom-html-button-response","4","89247","0.0-4.0-0.0","33","1","2025-07-30 08:41:19","36c45c0696341be0efffe67d72a12abb","197.185.146.44","Mozilla/5.0 (Windows NT 10.0; Win64; x64) AppleWebKit/537.36 (KHTML, like Gecko) Chrome/138.0.0.0 Safari/537.36 Edg/138.0.0.0","WebKit","Edge","138.0.0.0","Windows","10.0","https://app.prolific.com/","en-US,en;q=0.9,en-ZA;q=0.8","67d548b5aa5737666a77a6d2","687a19d2168e237449fb8af4","6889da13d6e20a33e7aad6f6","0","67d548b5aa5737666a77a6d2","0","2025-07-30T08:42:50.274Z","","","","","","","","","","","","","","","","","","","","","","","","","","","","","","","","","","","","","","","","","",""
"115560","","","","survey-template","5","204809","0.0-4.0-1.0","33","1","2025-07-30 08:41:19","36c45c0696341be0efffe67d72a12abb","197.185.146.44","Mozilla/5.0 (Windows NT 10.0; Win64; x64) AppleWebKit/537.36 (KHTML, like Gecko) Chrome/138.0.0.0 Safari/537.36 Edg/138.0.0.0","WebKit","Edge","138.0.0.0","Windows","10.0","https://app.prolific.com/","en-US,en;q=0.9,en-ZA;q=0.8","67d548b5aa5737666a77a6d2","687a19d2168e237449fb8af4","6889da13d6e20a33e7aad6f6","0","67d548b5aa5737666a77a6d2","0","2025-07-30T08:44:45.836Z","","","","pss","{""Q01"":""0"",""Q02"":""0"",""Q03"":""0"",""Q04"":""0"",""Q05"":""0"",""Q06"":""0"",""Q07"":""1"",""Q08"":""1"",""Q09"":""0"",""Q10"":""3""}","[0,1,2,3,4,5,6,7,8,9]","[""Q01"",""Q02"",""Q03"",""Q04"",""Q04"",""Q04"",""Q05"",""Q06"",""Q07"",""Q08"",""Q09"",""Q10""]","[38830.40000000596,45302.40000000596,48622.40000000596,49862.59999999404,64606.5,66639.70000001788,74614.5,83166.5,91862.20000001788,100326.40000000596,106391.59999999404,114549.90000000596]","[]","[0,38830.40000000596,45302.40000000596,48622.40000000596,49862.59999999404,64606.5,66639.70000001788,74614.5,83166.5,91862.20000001788,100326.40000000596,106391.59999999404,114549.90000000596,115558.90000000596]","0.5","0.2222222222222222","0","","","","","","","","","","","","","","","","","","","","","","","","","","","","",""
"44997","1753865130833","<p style='font-size:1.1em;line-height:1.25'>Thank you for your answers! Now we will ask you a few more questions relating to your feelings in the last 24 hours.<br></p><p style='font-size:1.1em;line-height:1.25'>Press the <strong>Next</strong> button to continue.</p>","0","custom-html-button-response","6","249807","0.0-4.0-2.0","33","1","2025-07-30 08:41:19","36c45c0696341be0efffe67d72a12abb","197.185.146.44","Mozilla/5.0 (Windows NT 10.0; Win64; x64) AppleWebKit/537.36 (KHTML, like Gecko) Chrome/138.0.0.0 Safari/537.36 Edg/138.0.0.0","WebKit","Edge","138.0.0.0","Windows","10.0","https://app.prolific.com/","en-US,en;q=0.9,en-ZA;q=0.8","67d548b5aa5737666a77a6d2","687a19d2168e237449fb8af4","6889da13d6e20a33e7aad6f6","0","67d548b5aa5737666a77a6d2","0","2025-07-30T08:45:30.834Z","","","","","","","","","","","","","","","","","","","","","","","","","","","","","","","","","","","","","","","","","",""
"129992.20000001788","","","","survey-template","7","379801","0.0-4.0-3.0","33","1","2025-07-30 08:41:19","36c45c0696341be0efffe67d72a12abb","197.185.146.44","Mozilla/5.0 (Windows NT 10.0; Win64; x64) AppleWebKit/537.36 (KHTML, like Gecko) Chrome/138.0.0.0 Safari/537.36 Edg/138.0.0.0","WebKit","Edge","138.0.0.0","Windows","10.0","https://app.prolific.com/","en-US,en;q=0.9,en-ZA;q=0.8","67d548b5aa5737666a77a6d2","687a19d2168e237449fb8af4","6889da13d6e20a33e7aad6f6","0","67d548b5aa5737666a77a6d2","0","2025-07-30T08:47:40.828Z","","","","drsp","{""Q01"":""0"",""Q02"":""0"",""Q03"":""0"",""Q04"":""0"",""Q05"":""0"",""Q06"":""0"",""Q07"":""0"",""Q08"":""0"",""Q09"":""0"",""Q10"":""0"",""Q11"":""0"",""Q12"":""0"",""Q13"":""5"",""Q14"":""4"",""Q15"":""0"",""Q16"":""0"",""Q17"":""2"",""Q18"":""0"",""Q19"":""0"",""Q20"":""1"",""Q21"":""3"",""Q22"":""0""}","[0,1,2,3,4,5,6,7,8,9,10,11,12,13,14,15,16,17,18,19,20,21]","[""Q01"",""Q02"",""Q03"",""Q04"",""Q05"",""Q06"",""Q07"",""Q08"",""Q09"",""Q10"",""Q11"",""Q12"",""Q13"",""Q14"",""Q15"",""Q16"",""Q17"",""Q18"",""Q19"",""Q20"",""Q21"",""Q22""]","[10557.90000000596,16878.09999999404,19471.5,21566.20000001788,28016.59999999404,31885.90000000596,34351.5,37318.09999999404,39301.80000001192,41031,43094,44904.20000001788,53495.09999999404,61054,65669.70000001788,75141.90000000596,79486,82333.90000000596,88877.59999999404,98599,121589.80000001192,128845.70000001788]","[]","[0,10557.90000000596,16878.09999999404,19471.5,21566.20000001788,24878.30000001192,28016.59999999404,31885.90000000596,34351.5,37318.09999999404,39301.80000001192,41031,43094,44904.20000001788,53495.09999999404,61054,65669.70000001788,74022,75141.90000000596,79486,82333.90000000596,88877.59999999404,98599,120398.20000001788,121589.80000001192,128845.70000001788,129989.90000000596]","0.7727272727272727","0.14285714285714285","0","","","","","","","","","","","","","","","","","","","","","","","","","","","","",""
"16540.30000001192","","","","survey-template","8","396343","0.0-4.0-4.0","33","1","2025-07-30 08:41:19","36c45c0696341be0efffe67d72a12abb","197.185.146.44","Mozilla/5.0 (Windows NT 10.0; Win64; x64) AppleWebKit/537.36 (KHTML, like Gecko) Chrome/138.0.0.0 Safari/537.36 Edg/138.0.0.0","WebKit","Edge","138.0.0.0","Windows","10.0","https://app.prolific.com/","en-US,en;q=0.9,en-ZA;q=0.8","67d548b5aa5737666a77a6d2","687a19d2168e237449fb8af4","6889da13d6e20a33e7aad6f6","0","67d548b5aa5737666a77a6d2","0","2025-07-30T08:47:57.370Z","","","","stress","{""Q01"":""0"",""Q02"":""5"",""Q03"":""0""}","[0,1,2]","[""Q01"",""Q02"",""Q03""]","[5483.5,10187.800000011921,14827.700000017881]","[]","[5483.5,10187.800000011921,14827.700000017881,16539.80000001192]","1","0","0","","","","","","","","","","","","","","","","","","","","","","","","","","","","",""
"61967","","","","instructions","9","458310","0.0-5.0-0.0","33","1","2025-07-30 08:41:19","36c45c0696341be0efffe67d72a12abb","197.185.146.44","Mozilla/5.0 (Windows NT 10.0; Win64; x64) AppleWebKit/537.36 (KHTML, like Gecko) Chrome/138.0.0.0 Safari/537.36 Edg/138.0.0.0","WebKit","Edge","138.0.0.0","Windows","10.0","https://app.prolific.com/","en-US,en;q=0.9,en-ZA;q=0.8","67d548b5aa5737666a77a6d2","687a19d2168e237449fb8af4","6889da13d6e20a33e7aad6f6","0","67d548b5aa5737666a77a6d2","0","","","","","","","","","","","","","","","[{""page_index"":0,""viewing_time"":61966}]","","","","","","","","","","","","","","","","","","","","","","","","","","","",""
"55663","","<p>Before you start with this game please answer the following three questions yourself. </p>
  <p>Through this game, we measure several aspects of your cognitive performance, such as reaction times, multi-tasking capabilities </p>
  <p>and the ability to assess the situation you are in.</p>
  <p></p>
  <p><b>How good do you usually are in such tasks?</b></p>","100","html-slider-response","10","513974","0.0-6.0-0.0","33","1","2025-07-30 08:41:19","36c45c0696341be0efffe67d72a12abb","197.185.146.44","Mozilla/5.0 (Windows NT 10.0; Win64; x64) AppleWebKit/537.36 (KHTML, like Gecko) Chrome/138.0.0.0 Safari/537.36 Edg/138.0.0.0","WebKit","Edge","138.0.0.0","Windows","10.0","https://app.prolific.com/","en-US,en;q=0.9,en-ZA;q=0.8","67d548b5aa5737666a77a6d2","687a19d2168e237449fb8af4","6889da13d6e20a33e7aad6f6","0","67d548b5aa5737666a77a6d2","0","2025-07-30T08:49:55.001Z","","","","PreSkillQ","","","","","","","","","","","50","","","","","","","","","","","","","","","","","","","","","","","","","","",""
"8159","","<div style=""width:500px;"">
  <p>How well do you think you will perform in this task compared to other participants?</p>
  </div>","100","html-slider-response","11","522134","0.0-6.0-1.0","33","1","2025-07-30 08:41:19","36c45c0696341be0efffe67d72a12abb","197.185.146.44","Mozilla/5.0 (Windows NT 10.0; Win64; x64) AppleWebKit/537.36 (KHTML, like Gecko) Chrome/138.0.0.0 Safari/537.36 Edg/138.0.0.0","WebKit","Edge","138.0.0.0","Windows","10.0","https://app.prolific.com/","en-US,en;q=0.9,en-ZA;q=0.8","67d548b5aa5737666a77a6d2","687a19d2168e237449fb8af4","6889da13d6e20a33e7aad6f6","0","67d548b5aa5737666a77a6d2","0","2025-07-30T08:50:03.161Z","","","","PrePerfQ","","","","","","","","","","","50","","","","","","","","","","","","","","","","","","","","","","","","","","",""
"6727","","<div style=""width:500px;"">
  <p>What best describes how you currently feel?</p>
  </div>","100","html-slider-response","12","528861","0.0-6.0-2.0","33","1","2025-07-30 08:41:19","36c45c0696341be0efffe67d72a12abb","197.185.146.44","Mozilla/5.0 (Windows NT 10.0; Win64; x64) AppleWebKit/537.36 (KHTML, like Gecko) Chrome/138.0.0.0 Safari/537.36 Edg/138.0.0.0","WebKit","Edge","138.0.0.0","Windows","10.0","https://app.prolific.com/","en-US,en;q=0.9,en-ZA;q=0.8","67d548b5aa5737666a77a6d2","687a19d2168e237449fb8af4","6889da13d6e20a33e7aad6f6","0","67d548b5aa5737666a77a6d2","0","2025-07-30T08:50:09.888Z","","","","PreMotivationQ","","","","","","","","","","","50","","","","","","","","","","","","","","","","","","","","","","","","","","",""
"","","","","ctl-task-cpt","13","553173","0.0-7.0-0.0","33","1","2025-07-30 08:41:19","36c45c0696341be0efffe67d72a12abb","197.185.146.44","Mozilla/5.0 (Windows NT 10.0; Win64; x64) AppleWebKit/537.36 (KHTML, like Gecko) Chrome/138.0.0.0 Safari/537.36 Edg/138.0.0.0","WebKit","Edge","138.0.0.0","Windows","10.0","https://app.prolific.com/","en-US,en;q=0.9,en-ZA;q=0.8","67d548b5aa5737666a77a6d2","687a19d2168e237449fb8af4","6889da13d6e20a33e7aad6f6","0","67d548b5aa5737666a77a6d2","0","2025-07-30T08:50:34.200Z","","","","","","","","","","","","","","","","win-only","1","g1:NE,g2:SW","1","1","0","531700.6","11944.2","16946","21298.6","1","4","8","6","2","-8","-8","0","0","0","5001.8","3000","-2705","[""down"",""left""]","{""num_key_presses"":0,""num_perfect"":0,""num_errors"":0,""num_randdir"":0,""num_randdir_good_moves"":0,""num_whilered"":0,""num_whileblue"":0,""num_blue"":0,""num_good_moves"":0}","[408.57142857142856,414.47767857142856,0.3,408.57142857142856,414.47767857142856,101.2,408.57142857142856,414.47767857142856,202.2,408.57142857142856,414.47767857142856,306.4,408.57142857142856,414.47767857142856,416.5,409.57142857142856,414.47767857142856,516.6,442.57142857142856,416.47767857142856,621.3,441.57142857142856,417.47767857142856,726.3,385.57142857142856,434.47767857142856,833.2,385.57142857142856,434.47767857142856,936.4,394.57142857142856,419.47767857142856,1036.9,394.57142857142856,404.47767857142856,1141.9,426.57142857142856,389.47767857142856,1241.9,454.57142857142856,379.47767857142856,1350.2,455.57142857142856,378.47767857142856,1451.3,458.57142857142856,376.47767857142856,1556.5,466.57142857142856,371.47767857142856,1666.1,467.57142857142856,367.47767857142856,1766.2,467.57142857142856,366.47767857142856,1871,470.57142857142856,365.47767857142856,1971.8,475.57142857142856,362.47767857142856,2076.2,478.57142857142856,361.47767857142856,2183.2,478.57142857142856,361.47767857142856,2286.6,478.57142857142856,361.47767857142856,2386.9,478.57142857142856,361.47767857142856,2492,478.57142857142856,361.47767857142856,2599.8,478.57142857142856,361.47767857142856,2699.8,478.57142857142856,361.47767857142856,2799.8,478.57142857142856,361.47767857142856,2899.9,478.57142857142856,361.47767857142856,3001.2,478.57142857142856,361.47767857142856,3106.2,478.57142857142856,361.47767857142856,3207.2,478.57142857142856,361.47767857142856,3316.1,478.57142857142856,361.47767857142856,3416.1,478.57142857142856,361.47767857142856,3521.1,478.57142857142856,361.47767857142856,3621.2,478.57142857142856,361.47767857142856,3726.1,478.57142857142856,361.47767857142856,3826.1,478.57142857142856,361.47767857142856,3926.1,478.57142857142856,361.47767857142856,4026.7,478.57142857142856,361.47767857142856,4133.1,478.57142857142856,361.47767857142856,4236.1,478.57142857142856,361.47767857142856,4336.8,478.57142857142856,361.47767857142856,4441.8,478.57142857142856,361.47767857142856,4541.8,478.57142857142856,361.47767857142856,4642.1,478.57142857142856,361.47767857142856,4749.8,478.57142857142856,361.47767857142856,4849.8,478.57142857142856,361.47767857142856,4949.9]","[]"
"6792","","<div style=""width:500px;"">
  <p>What determined the result of this run?</p>
  </div>","100","html-slider-response","14","559965","0.0-7.0-1.0","33","1","2025-07-30 08:41:19","36c45c0696341be0efffe67d72a12abb","197.185.146.44","Mozilla/5.0 (Windows NT 10.0; Win64; x64) AppleWebKit/537.36 (KHTML, like Gecko) Chrome/138.0.0.0 Safari/537.36 Edg/138.0.0.0","WebKit","Edge","138.0.0.0","Windows","10.0","https://app.prolific.com/","en-US,en;q=0.9,en-ZA;q=0.8","67d548b5aa5737666a77a6d2","687a19d2168e237449fb8af4","6889da13d6e20a33e7aad6f6","0","67d548b5aa5737666a77a6d2","0","2025-07-30T08:50:40.992Z","","","","AttribQ","","","","","","","","","","","50","","","","","","","","","","","","","","","","","","","","","","","","","","",""
"6879","","<div style=""width:500px;"">
  <p>How much control did you have over the ball?</p>
  </div>","100","html-slider-response","15","566845","0.0-7.0-2.0","33","1","2025-07-30 08:41:19","36c45c0696341be0efffe67d72a12abb","197.185.146.44","Mozilla/5.0 (Windows NT 10.0; Win64; x64) AppleWebKit/537.36 (KHTML, like Gecko) Chrome/138.0.0.0 Safari/537.36 Edg/138.0.0.0","WebKit","Edge","138.0.0.0","Windows","10.0","https://app.prolific.com/","en-US,en;q=0.9,en-ZA;q=0.8","67d548b5aa5737666a77a6d2","687a19d2168e237449fb8af4","6889da13d6e20a33e7aad6f6","0","67d548b5aa5737666a77a6d2","0","2025-07-30T08:50:47.872Z","","","","ControlQ","","","","","","","","","","","50","","","","","","","","","","","","","","","","","","","","","","","","","","",""
"6727","","<div style=""width:500px;"">
  <p>How would you describe your current emotional state?</p>
  </div>","0","html-slider-response","16","573573","0.0-7.0-3.0","33","1","2025-07-30 08:41:19","36c45c0696341be0efffe67d72a12abb","197.185.146.44","Mozilla/5.0 (Windows NT 10.0; Win64; x64) AppleWebKit/537.36 (KHTML, like Gecko) Chrome/138.0.0.0 Safari/537.36 Edg/138.0.0.0","WebKit","Edge","138.0.0.0","Windows","10.0","https://app.prolific.com/","en-US,en;q=0.9,en-ZA;q=0.8","67d548b5aa5737666a77a6d2","687a19d2168e237449fb8af4","6889da13d6e20a33e7aad6f6","0","67d548b5aa5737666a77a6d2","0","2025-07-30T08:50:54.600Z","","","","StressQ","","","","","","","","","","","50","","","","","","","","","","","","","","","","","","","","","","","","","","",""
"5367","","<div style=""width:500px;"">
  <p>What best describes how you currently feel?</p>
  </div>","100","html-slider-response","17","578941","0.0-7.0-4.0","33","1","2025-07-30 08:41:19","36c45c0696341be0efffe67d72a12abb","197.185.146.44","Mozilla/5.0 (Windows NT 10.0; Win64; x64) AppleWebKit/537.36 (KHTML, like Gecko) Chrome/138.0.0.0 Safari/537.36 Edg/138.0.0.0","WebKit","Edge","138.0.0.0","Windows","10.0","https://app.prolific.com/","en-US,en;q=0.9,en-ZA;q=0.8","67d548b5aa5737666a77a6d2","687a19d2168e237449fb8af4","6889da13d6e20a33e7aad6f6","0","67d548b5aa5737666a77a6d2","0","2025-07-30T08:50:59.968Z","","","","MotivationQ","","","","","","","","","","","50","","","","","","","","","","","","","","","","","","","","","","","","","","",""
"","","","","ctl-task-cpt","18","593273","0.0-7.0-0.1","33","1","2025-07-30 08:41:19","36c45c0696341be0efffe67d72a12abb","197.185.146.44","Mozilla/5.0 (Windows NT 10.0; Win64; x64) AppleWebKit/537.36 (KHTML, like Gecko) Chrome/138.0.0.0 Safari/537.36 Edg/138.0.0.0","WebKit","Edge","138.0.0.0","Windows","10.0","https://app.prolific.com/","en-US,en;q=0.9,en-ZA;q=0.8","67d548b5aa5737666a77a6d2","687a19d2168e237449fb8af4","6889da13d6e20a33e7aad6f6","0","67d548b5aa5737666a77a6d2","0","2025-07-30T08:51:14.300Z","","","","","","","","","","","","","","","","win-only","1","g1:NE,g2:SW","0.9","2","0","581780.1","1966.5","6970.3","11315.3","1","4","4","6","1","-1","-1","0","0","0","5003.7","3000","-2700","[""up"",""right""]","{""num_key_presses"":0,""num_perfect"":0,""num_errors"":0,""num_randdir"":0,""num_randdir_good_moves"":0,""num_whilered"":0,""num_whileblue"":0,""num_blue"":0,""num_good_moves"":0}","[415.57142857142856,416.47767857142856,0.1,415.57142857142856,416.47767857142856,104.4,415.57142857142856,416.47767857142856,204.5,415.57142857142856,416.47767857142856,315,417.57142857142856,417.47767857142856,415.1,434.57142857142856,431.47767857142856,515.5,445.57142857142856,439.47767857142856,618.7,445.57142857142856,439.47767857142856,718.9,445.57142857142856,440.47767857142856,819.6,445.57142857142856,441.47767857142856,924.5,445.57142857142856,441.47767857142856,1024.9,450.57142857142856,439.47767857142856,1132.2,457.57142857142856,430.47767857142856,1234.4,463.57142857142856,409.47767857142856,1339.4,464.57142857142856,400.47767857142856,1440.2,463.57142857142856,390.47767857142856,1548.4,469.57142857142856,369.47767857142856,1648.6,479.57142857142856,345.47767857142856,1753.8,482.57142857142856,341.47767857142856,1854.3,482.57142857142856,341.47767857142856,1964.9,481.57142857142856,343.47767857142856,2065.7,480.57142857142856,348.47767857142856,2169.5,480.57142857142856,348.47767857142856,2274.3,480.57142857142856,348.47767857142856,2374.5,480.57142857142856,348.47767857142856,2474.5,480.57142857142856,348.47767857142856,2581.6,480.57142857142856,348.47767857142856,2683.7,480.57142857142856,348.47767857142856,2784.3,480.57142857142856,348.47767857142856,2884.6,480.57142857142856,348.47767857142856,2985.4,480.57142857142856,348.47767857142856,3090.5,480.57142857142856,348.47767857142856,3198.1,478.57142857142856,351.47767857142856,3298.4,478.57142857142856,351.47767857142856,3398.9,478.57142857142856,352.47767857142856,3504,478.57142857142856,352.47767857142856,3604,482.57142857142856,354.47767857142856,3715.3,484.57142857142856,354.47767857142856,3815.4,487.57142857142856,354.47767857142856,3919.6,487.57142857142856,354.47767857142856,4024,487.57142857142856,354.47767857142856,4124.1,487.57142857142856,354.47767857142856,4224.2,487.57142857142856,354.47767857142856,4331.5,488.57142857142856,354.47767857142856,4432,489.57142857142856,354.47767857142856,4534,490.57142857142856,354.47767857142856,4634.3,491.57142857142856,355.47767857142856,4740.3,489.57142857142856,368.47767857142856,4848.6,215.57142857142856,502.47767857142856,4953.7]","[]"
"5459","","<div style=""width:500px;"">
  <p>What determined the result of this run?</p>
  </div>","100","html-slider-response","19","598733","0.0-7.0-1.1","33","1","2025-07-30 08:41:19","36c45c0696341be0efffe67d72a12abb","197.185.146.44","Mozilla/5.0 (Windows NT 10.0; Win64; x64) AppleWebKit/537.36 (KHTML, like Gecko) Chrome/138.0.0.0 Safari/537.36 Edg/138.0.0.0","WebKit","Edge","138.0.0.0","Windows","10.0","https://app.prolific.com/","en-US,en;q=0.9,en-ZA;q=0.8","67d548b5aa5737666a77a6d2","687a19d2168e237449fb8af4","6889da13d6e20a33e7aad6f6","0","67d548b5aa5737666a77a6d2","0","2025-07-30T08:51:19.760Z","","","","AttribQ","","","","","","","","","","","50","","","","","","","","","","","","","","","","","","","","","","","","","","",""
"3063","","<div style=""width:500px;"">
  <p>How much control did you have over the ball?</p>
  </div>","100","html-slider-response","20","601797","0.0-7.0-2.1","33","1","2025-07-30 08:41:19","36c45c0696341be0efffe67d72a12abb","197.185.146.44","Mozilla/5.0 (Windows NT 10.0; Win64; x64) AppleWebKit/537.36 (KHTML, like Gecko) Chrome/138.0.0.0 Safari/537.36 Edg/138.0.0.0","WebKit","Edge","138.0.0.0","Windows","10.0","https://app.prolific.com/","en-US,en;q=0.9,en-ZA;q=0.8","67d548b5aa5737666a77a6d2","687a19d2168e237449fb8af4","6889da13d6e20a33e7aad6f6","0","67d548b5aa5737666a77a6d2","0","2025-07-30T08:51:22.824Z","","","","ControlQ","","","","","","","","","","","50","","","","","","","","","","","","","","","","","","","","","","","","","","",""
"3087","","<div style=""width:500px;"">
  <p>How would you describe your current emotional state?</p>
  </div>","0","html-slider-response","21","604885","0.0-7.0-3.1","33","1","2025-07-30 08:41:19","36c45c0696341be0efffe67d72a12abb","197.185.146.44","Mozilla/5.0 (Windows NT 10.0; Win64; x64) AppleWebKit/537.36 (KHTML, like Gecko) Chrome/138.0.0.0 Safari/537.36 Edg/138.0.0.0","WebKit","Edge","138.0.0.0","Windows","10.0","https://app.prolific.com/","en-US,en;q=0.9,en-ZA;q=0.8","67d548b5aa5737666a77a6d2","687a19d2168e237449fb8af4","6889da13d6e20a33e7aad6f6","0","67d548b5aa5737666a77a6d2","0","2025-07-30T08:51:25.912Z","","","","StressQ","","","","","","","","","","","50","","","","","","","","","","","","","","","","","","","","","","","","","","",""
"3015","","<div style=""width:500px;"">
  <p>What best describes how you currently feel?</p>
  </div>","100","html-slider-response","22","607901","0.0-7.0-4.1","33","1","2025-07-30 08:41:19","36c45c0696341be0efffe67d72a12abb","197.185.146.44","Mozilla/5.0 (Windows NT 10.0; Win64; x64) AppleWebKit/537.36 (KHTML, like Gecko) Chrome/138.0.0.0 Safari/537.36 Edg/138.0.0.0","WebKit","Edge","138.0.0.0","Windows","10.0","https://app.prolific.com/","en-US,en;q=0.9,en-ZA;q=0.8","67d548b5aa5737666a77a6d2","687a19d2168e237449fb8af4","6889da13d6e20a33e7aad6f6","0","67d548b5aa5737666a77a6d2","0","2025-07-30T08:51:28.928Z","","","","MotivationQ","","","","","","","","","","","50","","","","","","","","","","","","","","","","","","","","","","","","","","",""
"","","","","ctl-task-cpt","23","622544","0.0-7.0-0.2","33","1","2025-07-30 08:41:19","36c45c0696341be0efffe67d72a12abb","197.185.146.44","Mozilla/5.0 (Windows NT 10.0; Win64; x64) AppleWebKit/537.36 (KHTML, like Gecko) Chrome/138.0.0.0 Safari/537.36 Edg/138.0.0.0","WebKit","Edge","138.0.0.0","Windows","10.0","https://app.prolific.com/","en-US,en;q=0.9,en-ZA;q=0.8","67d548b5aa5737666a77a6d2","687a19d2168e237449fb8af4","6889da13d6e20a33e7aad6f6","0","67d548b5aa5737666a77a6d2","0","2025-07-30T08:51:43.571Z","","","","","","","","","","","","","","","","win-only","2","g1:SE,g2:NW","0.8","3","0","610740.1","2615.3","7616.6","11635.3","1","4","4","6","1","-1","-1","0","0","0","1455.3","3000","-2995","[""down"",""right""]","{""num_key_presses"":0,""num_perfect"":0,""num_errors"":0,""num_randdir"":0,""num_randdir_good_moves"":0,""num_whilered"":0,""num_whileblue"":0,""num_blue"":0,""num_good_moves"":0}","[408.57142857142856,422.47767857142856,0.2,408.57142857142856,421.47767857142856,101.1,408.57142857142856,421.47767857142856,205.3,408.57142857142856,421.47767857142856,305.6,408.57142857142856,420.47767857142856,405.8,445.57142857142856,457.47767857142856,506.2,468.57142857142856,484.47767857142856,611.1,465.57142857142856,474.47767857142856,715.2,461.57142857142856,475.47767857142856,816.3,487.57142857142856,602.4776785714286,920.4,502.57142857142856,657.4776785714286,1020.4,547.5714285714286,710.4776785714286,1121,714.5714285714286,758.4776785714286,1221.3,733.5714285714286,761.4776785714286,1324,762.5714285714286,764.4776785714286,1424.9,765.5714285714286,764.4776785714286,1525.5,766.5714285714286,764.4776785714286,1625.5,765.5714285714286,762.4776785714286,1725.6,755.5714285714286,763.4776785714286,1826.1,687.5714285714286,770.4776785714286,1930.2,595.5714285714286,751.4776785714286,2035.7,527.5714285714286,661.4776785714286,2136.8,508.57142857142856,604.4776785714286,2240.9,487.57142857142856,568.4776785714286,2340.9,478.57142857142856,537.4776785714286,2445.7,470.57142857142856,514.4776785714286,2552.2,469.57142857142856,512.4776785714286,2655.4,469.57142857142856,510.47767857142856,2760.2,469.57142857142856,509.47767857142856,2860.2,469.57142857142856,505.47767857142856,2960.3,469.57142857142856,505.47767857142856,3060.3,469.57142857142856,505.47767857142856,3165.3,469.57142857142856,505.47767857142856,3265.3,469.57142857142856,505.47767857142856,3365.5,469.57142857142856,505.47767857142856,3470.4,469.57142857142856,505.47767857142856,3575,469.57142857142856,504.47767857142856,3675.6,469.57142857142856,504.47767857142856,3776,469.57142857142856,504.47767857142856,3880.3,469.57142857142856,504.47767857142856,3985.2,469.57142857142856,504.47767857142856,4085.2,469.57142857142856,504.47767857142856,4190.4,469.57142857142856,504.47767857142856,4295.4,469.57142857142856,504.47767857142856,4400.2,469.57142857142856,504.47767857142856,4501,469.57142857142856,501.47767857142856,4605,467.57142857142856,494.47767857142856,4706,467.57142857142856,494.47767857142856,4810,465.57142857142856,489.47767857142856,4910.7]","[]"
"3076","","<div style=""width:500px;"">
  <p>What determined the result of this run?</p>
  </div>","100","html-slider-response","24","625621","0.0-7.0-1.2","33","1","2025-07-30 08:41:19","36c45c0696341be0efffe67d72a12abb","197.185.146.44","Mozilla/5.0 (Windows NT 10.0; Win64; x64) AppleWebKit/537.36 (KHTML, like Gecko) Chrome/138.0.0.0 Safari/537.36 Edg/138.0.0.0","WebKit","Edge","138.0.0.0","Windows","10.0","https://app.prolific.com/","en-US,en;q=0.9,en-ZA;q=0.8","67d548b5aa5737666a77a6d2","687a19d2168e237449fb8af4","6889da13d6e20a33e7aad6f6","0","67d548b5aa5737666a77a6d2","0","2025-07-30T08:51:46.648Z","","","","AttribQ","","","","","","","","","","","50","","","","","","","","","","","","","","","","","","","","","","","","","","",""
"3055","","<div style=""width:500px;"">
  <p>How much control did you have over the ball?</p>
  </div>","100","html-slider-response","25","628677","0.0-7.0-2.2","33","1","2025-07-30 08:41:19","36c45c0696341be0efffe67d72a12abb","197.185.146.44","Mozilla/5.0 (Windows NT 10.0; Win64; x64) AppleWebKit/537.36 (KHTML, like Gecko) Chrome/138.0.0.0 Safari/537.36 Edg/138.0.0.0","WebKit","Edge","138.0.0.0","Windows","10.0","https://app.prolific.com/","en-US,en;q=0.9,en-ZA;q=0.8","67d548b5aa5737666a77a6d2","687a19d2168e237449fb8af4","6889da13d6e20a33e7aad6f6","0","67d548b5aa5737666a77a6d2","0","2025-07-30T08:51:49.704Z","","","","ControlQ","","","","","","","","","","","50","","","","","","","","","","","","","","","","","","","","","","","","","","",""
"3040","","<div style=""width:500px;"">
  <p>How would you describe your current emotional state?</p>
  </div>","0","html-slider-response","26","631717","0.0-7.0-3.2","33","1","2025-07-30 08:41:19","36c45c0696341be0efffe67d72a12abb","197.185.146.44","Mozilla/5.0 (Windows NT 10.0; Win64; x64) AppleWebKit/537.36 (KHTML, like Gecko) Chrome/138.0.0.0 Safari/537.36 Edg/138.0.0.0","WebKit","Edge","138.0.0.0","Windows","10.0","https://app.prolific.com/","en-US,en;q=0.9,en-ZA;q=0.8","67d548b5aa5737666a77a6d2","687a19d2168e237449fb8af4","6889da13d6e20a33e7aad6f6","0","67d548b5aa5737666a77a6d2","0","2025-07-30T08:51:52.744Z","","","","StressQ","","","","","","","","","","","50","","","","","","","","","","","","","","","","","","","","","","","","","","",""
"2559","","<div style=""width:500px;"">
  <p>What best describes how you currently feel?</p>
  </div>","100","html-slider-response","27","634277","0.0-7.0-4.2","33","1","2025-07-30 08:41:19","36c45c0696341be0efffe67d72a12abb","197.185.146.44","Mozilla/5.0 (Windows NT 10.0; Win64; x64) AppleWebKit/537.36 (KHTML, like Gecko) Chrome/138.0.0.0 Safari/537.36 Edg/138.0.0.0","WebKit","Edge","138.0.0.0","Windows","10.0","https://app.prolific.com/","en-US,en;q=0.9,en-ZA;q=0.8","67d548b5aa5737666a77a6d2","687a19d2168e237449fb8af4","6889da13d6e20a33e7aad6f6","0","67d548b5aa5737666a77a6d2","0","2025-07-30T08:51:55.304Z","","","","MotivationQ","","","","","","","","","","","50","","","","","","","","","","","","","","","","","","","","","","","","","","",""
"","","","","ctl-task-cpt","28","651442","0.0-7.0-0.3","33","1","2025-07-30 08:41:19","36c45c0696341be0efffe67d72a12abb","197.185.146.44","Mozilla/5.0 (Windows NT 10.0; Win64; x64) AppleWebKit/537.36 (KHTML, like Gecko) Chrome/138.0.0.0 Safari/537.36 Edg/138.0.0.0","WebKit","Edge","138.0.0.0","Windows","10.0","https://app.prolific.com/","en-US,en;q=0.9,en-ZA;q=0.8","67d548b5aa5737666a77a6d2","687a19d2168e237449fb8af4","6889da13d6e20a33e7aad6f6","0","67d548b5aa5737666a77a6d2","0","2025-07-30T08:52:12.469Z","","","","","","","","","","","","","","","","win-only","3","g1:SW,g2:NE","0.7","4","0","637116","4462.3","9463.5","14145.3","1","4","8","6","2","-8","-8","0","0","0","1835.3","3000","-2435","[""up"",""right""]","{""num_key_presses"":0,""num_perfect"":0,""num_errors"":0,""num_randdir"":0,""num_randdir_good_moves"":0,""num_whilered"":0,""num_whileblue"":0,""num_blue"":0,""num_good_moves"":0}","[420.57142857142856,406.47767857142856,0.3,420.57142857142856,406.47767857142856,101.2,418.57142857142856,406.47767857142856,201.3,410.57142857142856,405.47767857142856,301.3,359.57142857142856,383.47767857142856,402.4,373.57142857142856,413.47767857142856,502.5,418.57142857142856,451.47767857142856,603.4,295.57142857142856,762.4776785714286,708.3,600.5714285714286,467.47767857142856,808.9,1064.5714285714287,-1.5223214285714306,919,1091.5714285714287,-46.52232142857143,1023.4,1057.5714285714287,-35.52232142857143,1128,892.5714285714286,78.47767857142857,1228.2,801.5714285714286,127.47767857142857,1336.2,748.5714285714286,151.47767857142856,1437.8,737.5714285714286,155.47767857142856,1537.8,756.5714285714286,112.47767857142857,1638.4,756.5714285714286,112.47767857142857,1743.4,759.5714285714286,107.47767857142857,1843.4,759.5714285714286,106.47767857142857,1952.7,759.5714285714286,106.47767857142857,2052.9,759.5714285714286,113.47767857142857,2153,773.5714285714286,178.47767857142856,2258.3,744.5714285714286,311.47767857142856,2363.9,647.5714285714286,430.47767857142856,2468.4,458.57142857142856,588.4776785714286,2569.6,391.57142857142856,579.4776785714286,2673.4,378.57142857142856,524.4776785714286,2773.4,384.57142857142856,507.47767857142856,2878.1,383.57142857142856,508.47767857142856,2983.2,376.57142857142856,516.4776785714286,3085.1,364.57142857142856,516.4776785714286,3185.5,362.57142857142856,506.47767857142856,3288,362.57142857142856,506.47767857142856,3388.2,355.57142857142856,501.47767857142856,3488.2,334.57142857142856,499.47767857142856,3589.6,332.57142857142856,499.47767857142856,3700.9,335.57142857142856,501.47767857142856,3801.6,340.57142857142856,502.47767857142856,3903.5,340.57142857142856,502.47767857142856,4009.1,340.57142857142856,502.47767857142856,4118.6,340.57142857142856,502.47767857142856,4218.9,340.57142857142856,502.47767857142856,4323.2,340.57142857142856,502.47767857142856,4423.3,340.57142857142856,502.47767857142856,4524.2,340.57142857142856,502.47767857142856,4628.2,340.57142857142856,502.47767857142856,4728.4,340.57142857142856,502.47767857142856,4833.1,340.57142857142856,502.47767857142856,4933.1]","[]"
"4635","","<div style=""width:500px;"">
  <p>What determined the result of this run?</p>
  </div>","100","html-slider-response","29","656077","0.0-7.0-1.3","33","1","2025-07-30 08:41:19","36c45c0696341be0efffe67d72a12abb","197.185.146.44","Mozilla/5.0 (Windows NT 10.0; Win64; x64) AppleWebKit/537.36 (KHTML, like Gecko) Chrome/138.0.0.0 Safari/537.36 Edg/138.0.0.0","WebKit","Edge","138.0.0.0","Windows","10.0","https://app.prolific.com/","en-US,en;q=0.9,en-ZA;q=0.8","67d548b5aa5737666a77a6d2","687a19d2168e237449fb8af4","6889da13d6e20a33e7aad6f6","0","67d548b5aa5737666a77a6d2","0","2025-07-30T08:52:17.104Z","","","","AttribQ","","","","","","","","","","","50","","","","","","","","","","","","","","","","","","","","","","","","","","",""
"4463","","<div style=""width:500px;"">
  <p>How much control did you have over the ball?</p>
  </div>","100","html-slider-response","30","660541","0.0-7.0-2.3","33","1","2025-07-30 08:41:19","36c45c0696341be0efffe67d72a12abb","197.185.146.44","Mozilla/5.0 (Windows NT 10.0; Win64; x64) AppleWebKit/537.36 (KHTML, like Gecko) Chrome/138.0.0.0 Safari/537.36 Edg/138.0.0.0","WebKit","Edge","138.0.0.0","Windows","10.0","https://app.prolific.com/","en-US,en;q=0.9,en-ZA;q=0.8","67d548b5aa5737666a77a6d2","687a19d2168e237449fb8af4","6889da13d6e20a33e7aad6f6","0","67d548b5aa5737666a77a6d2","0","2025-07-30T08:52:21.568Z","","","","ControlQ","","","","","","","","","","","50","","","","","","","","","","","","","","","","","","","","","","","","","","",""
"5343","","<div style=""width:500px;"">
  <p>How would you describe your current emotional state?</p>
  </div>","0","html-slider-response","31","665885","0.0-7.0-3.3","33","1","2025-07-30 08:41:19","36c45c0696341be0efffe67d72a12abb","197.185.146.44","Mozilla/5.0 (Windows NT 10.0; Win64; x64) AppleWebKit/537.36 (KHTML, like Gecko) Chrome/138.0.0.0 Safari/537.36 Edg/138.0.0.0","WebKit","Edge","138.0.0.0","Windows","10.0","https://app.prolific.com/","en-US,en;q=0.9,en-ZA;q=0.8","67d548b5aa5737666a77a6d2","687a19d2168e237449fb8af4","6889da13d6e20a33e7aad6f6","0","67d548b5aa5737666a77a6d2","0","2025-07-30T08:52:26.912Z","","","","StressQ","","","","","","","","","","","50","","","","","","","","","","","","","","","","","","","","","","","","","","",""
"2967","","<div style=""width:500px;"">
  <p>What best describes how you currently feel?</p>
  </div>","100","html-slider-response","32","668853","0.0-7.0-4.3","33","1","2025-07-30 08:41:19","36c45c0696341be0efffe67d72a12abb","197.185.146.44","Mozilla/5.0 (Windows NT 10.0; Win64; x64) AppleWebKit/537.36 (KHTML, like Gecko) Chrome/138.0.0.0 Safari/537.36 Edg/138.0.0.0","WebKit","Edge","138.0.0.0","Windows","10.0","https://app.prolific.com/","en-US,en;q=0.9,en-ZA;q=0.8","67d548b5aa5737666a77a6d2","687a19d2168e237449fb8af4","6889da13d6e20a33e7aad6f6","0","67d548b5aa5737666a77a6d2","0","2025-07-30T08:52:29.880Z","","","","MotivationQ","","","","","","","","","","","50","","","","","","","","","","","","","","","","","","","","","","","","","","",""
"","","","","ctl-task-cpt","33","686386","0.0-7.0-0.4","33","1","2025-07-30 08:41:19","36c45c0696341be0efffe67d72a12abb","197.185.146.44","Mozilla/5.0 (Windows NT 10.0; Win64; x64) AppleWebKit/537.36 (KHTML, like Gecko) Chrome/138.0.0.0 Safari/537.36 Edg/138.0.0.0","WebKit","Edge","138.0.0.0","Windows","10.0","https://app.prolific.com/","en-US,en;q=0.9,en-ZA;q=0.8","67d548b5aa5737666a77a6d2","687a19d2168e237449fb8af4","6889da13d6e20a33e7aad6f6","0","67d548b5aa5737666a77a6d2","0","2025-07-30T08:52:47.413Z","","","","","","","","","","","","","","","","win-only","1","g1:NE,g2:SW","0.6","5","0","671691.9","5510.7","10511.5","14521","1","4","8","6","2","-8","-8","0","0","0","1623.8","3000","-3010","[""down"",""left""]","{""num_key_presses"":0,""num_perfect"":0,""num_errors"":0,""num_randdir"":0,""num_randdir_good_moves"":0,""num_whilered"":0,""num_whileblue"":0,""num_blue"":0,""num_good_moves"":0}","[419.57142857142856,416.47767857142856,0.2,420.57142857142856,416.47767857142856,100.8,420.57142857142856,416.47767857142856,206.8,420.57142857142856,416.47767857142856,309.6,407.57142857142856,416.47767857142856,410,424.57142857142856,397.47767857142856,510.8,481.57142857142856,353.47767857142856,614.7,425.57142857142856,433.47767857142856,720.2,219.57142857142856,624.4776785714286,820.3,157.57142857142856,708.4776785714286,924.9,131.57142857142856,734.4776785714286,1025.1,131.57142857142856,738.4776785714286,1125.1,127.57142857142857,750.4776785714286,1230,114.57142857142857,763.4776785714286,1330.9,114.57142857142857,763.4776785714286,1434.9,107.57142857142857,763.4776785714286,1535,102.57142857142857,760.4776785714286,1637.5,102.57142857142857,760.4776785714286,1742,102.57142857142857,760.4776785714286,1844.5,102.57142857142857,753.4776785714286,1944.9,102.57142857142857,751.4776785714286,2045.5,116.57142857142857,744.4776785714286,2149.8,148.57142857142856,726.4776785714286,2255.3,215.57142857142856,689.4776785714286,2358.6,327.57142857142856,607.4776785714286,2459.5,388.57142857142856,525.4776785714286,2560.7,403.57142857142856,459.47767857142856,2664.8,410.57142857142856,381.47767857142856,2765.5,403.57142857142856,344.47767857142856,2870.1,386.57142857142856,280.47767857142856,2974.5,386.57142857142856,278.47767857142856,3074.6,386.57142857142856,278.47767857142856,3174.6,325.57142857142856,379.47767857142856,3274.7,281.57142857142856,530.4776785714286,3374.9,292.57142857142856,656.4776785714286,3479.6,459.57142857142856,958.4776785714286,3580.6,732.5714285714286,641.4776785714286,3680.8,954.5714285714286,317.47767857142856,3784.9,471.57142857142856,367.47767857142856,3885.2,454.57142857142856,397.47767857142856,3987.5,367.57142857142856,364.47767857142856,4089.6,488.57142857142856,230.47767857142856,4192.2,483.57142857142856,218.47767857142856,4294.9,472.57142857142856,204.47767857142856,4395,458.57142857142856,224.47767857142856,4495,452.57142857142856,320.47767857142856,4599.6,459.57142857142856,323.47767857142856,4699.6,483.57142857142856,342.47767857142856,4800.4,485.57142857142856,363.47767857142856,4900.9]","[]"
"4899","","<div style=""width:500px;"">
  <p>What determined the result of this run?</p>
  </div>","100","html-slider-response","34","691285","0.0-7.0-1.4","33","1","2025-07-30 08:41:19","36c45c0696341be0efffe67d72a12abb","197.185.146.44","Mozilla/5.0 (Windows NT 10.0; Win64; x64) AppleWebKit/537.36 (KHTML, like Gecko) Chrome/138.0.0.0 Safari/537.36 Edg/138.0.0.0","WebKit","Edge","138.0.0.0","Windows","10.0","https://app.prolific.com/","en-US,en;q=0.9,en-ZA;q=0.8","67d548b5aa5737666a77a6d2","687a19d2168e237449fb8af4","6889da13d6e20a33e7aad6f6","0","67d548b5aa5737666a77a6d2","0","2025-07-30T08:52:52.312Z","","","","AttribQ","","","","","","","","","","","50","","","","","","","","","","","","","","","","","","","","","","","","","","",""
"3879","","<div style=""width:500px;"">
  <p>How much control did you have over the ball?</p>
  </div>","100","html-slider-response","35","695165","0.0-7.0-2.4","33","1","2025-07-30 08:41:19","36c45c0696341be0efffe67d72a12abb","197.185.146.44","Mozilla/5.0 (Windows NT 10.0; Win64; x64) AppleWebKit/537.36 (KHTML, like Gecko) Chrome/138.0.0.0 Safari/537.36 Edg/138.0.0.0","WebKit","Edge","138.0.0.0","Windows","10.0","https://app.prolific.com/","en-US,en;q=0.9,en-ZA;q=0.8","67d548b5aa5737666a77a6d2","687a19d2168e237449fb8af4","6889da13d6e20a33e7aad6f6","0","67d548b5aa5737666a77a6d2","0","2025-07-30T08:52:56.192Z","","","","ControlQ","","","","","","","","","","","50","","","","","","","","","","","","","","","","","","","","","","","","","","",""
"9704","","<div style=""width:500px;"">
  <p>How would you describe your current emotional state?</p>
  </div>","0","html-slider-response","36","704869","0.0-7.0-3.4","33","1","2025-07-30 08:41:19","36c45c0696341be0efffe67d72a12abb","197.185.146.44","Mozilla/5.0 (Windows NT 10.0; Win64; x64) AppleWebKit/537.36 (KHTML, like Gecko) Chrome/138.0.0.0 Safari/537.36 Edg/138.0.0.0","WebKit","Edge","138.0.0.0","Windows","10.0","https://app.prolific.com/","en-US,en;q=0.9,en-ZA;q=0.8","67d548b5aa5737666a77a6d2","687a19d2168e237449fb8af4","6889da13d6e20a33e7aad6f6","0","67d548b5aa5737666a77a6d2","0","2025-07-30T08:53:05.896Z","","","","StressQ","","","","","","","","","","","50","","","","","","","","","","","","","","","","","","","","","","","","","","",""
"7223","","<div style=""width:500px;"">
  <p>What best describes how you currently feel?</p>
  </div>","100","html-slider-response","37","712093","0.0-7.0-4.4","33","1","2025-07-30 08:41:19","36c45c0696341be0efffe67d72a12abb","197.185.146.44","Mozilla/5.0 (Windows NT 10.0; Win64; x64) AppleWebKit/537.36 (KHTML, like Gecko) Chrome/138.0.0.0 Safari/537.36 Edg/138.0.0.0","WebKit","Edge","138.0.0.0","Windows","10.0","https://app.prolific.com/","en-US,en;q=0.9,en-ZA;q=0.8","67d548b5aa5737666a77a6d2","687a19d2168e237449fb8af4","6889da13d6e20a33e7aad6f6","0","67d548b5aa5737666a77a6d2","0","2025-07-30T08:53:13.120Z","","","","MotivationQ","","","","","","","","","","","50","","","","","","","","","","","","","","","","","","","","","","","","","","",""
"","","","","ctl-task-cpt","38","746874","0.0-7.0-0.5","33","1","2025-07-30 08:41:19","36c45c0696341be0efffe67d72a12abb","197.185.146.44","Mozilla/5.0 (Windows NT 10.0; Win64; x64) AppleWebKit/537.36 (KHTML, like Gecko) Chrome/138.0.0.0 Safari/537.36 Edg/138.0.0.0","WebKit","Edge","138.0.0.0","Windows","10.0","https://app.prolific.com/","en-US,en;q=0.9,en-ZA;q=0.8","67d548b5aa5737666a77a6d2","687a19d2168e237449fb8af4","6889da13d6e20a33e7aad6f6","0","67d548b5aa5737666a77a6d2","0","2025-07-30T08:53:47.901Z","","","","","","","","","","","","","","","","win-only","1","g1:NE,g2:SW","0.5","6","0","714931.9","2713.4","7716","31776.4","1","4","4","6","2","4","1","1","0","0.007575757575757576","3278.4","3000","40","[""down"",""left""]","{""num_key_presses"":9,""num_perfect"":3,""num_errors"":3,""num_randdir"":3,""num_randdir_good_moves"":2,""num_whilered"":0,""num_whileblue"":2,""num_blue"":2,""num_good_moves"":7}","[412.57142857142856,414.47767857142856,0.1,412.57142857142856,414.47767857142856,102.8,412.57142857142856,414.47767857142856,206.9,412.57142857142856,414.47767857142856,307.3,412.57142857142856,414.47767857142856,411.6,412.57142857142856,414.47767857142856,512.3,418.57142857142856,415.47767857142856,613.1,449.57142857142856,406.47767857142856,713.1,460.57142857142856,400.47767857142856,817.3,461.57142857142856,427.47767857142856,917.4,540.5714285714286,444.47767857142856,1022.2,672.5714285714286,454.47767857142856,1122.4,709.5714285714286,454.47767857142856,1227.3,709.5714285714286,454.47767857142856,1332,714.5714285714286,454.47767857142856,1433.3,720.5714285714286,456.47767857142856,1537.7,724.5714285714286,456.47767857142856,1642.3,726.5714285714286,456.47767857142856,1742.8,727.5714285714286,456.47767857142856,1843,727.5714285714286,455.47767857142856,1947.6,727.5714285714286,455.47767857142856,2050.9,727.5714285714286,455.47767857142856,2153.8,681.5714285714286,460.47767857142856,2258.5,440.57142857142856,520.4776785714286,2362.6,443.57142857142856,548.4776785714286,2467.4,338.57142857142856,595.4776785714286,2578.1,268.57142857142856,643.4776785714286,2686.1,248.57142857142856,680.4776785714286,2787.4,224.57142857142856,730.4776785714286,2892,107.57142857142857,750.4776785714286,2992.2,95.57142857142857,762.4776785714286,3092.2,93.57142857142857,768.4776785714286,3193.1,93.57142857142857,768.4776785714286,3294.5,93.57142857142857,768.4776785714286,3397.9,92.57142857142857,762.4776785714286,3501.7,98.57142857142857,754.4776785714286,3607.4,148.57142857142856,736.4776785714286,3707.5,580.5714285714286,570.4776785714286,3808.3,730.5714285714286,479.47767857142856,3910.8,858.5714285714286,421.47767857142856,4012.6,882.5714285714286,411.47767857142856,4117.4,882.5714285714286,411.47767857142856,4217.7,882.5714285714286,411.47767857142856,4323.3,882.5714285714286,411.47767857142856,4427.1,882.5714285714286,411.47767857142856,4527.7,882.5714285714286,411.47767857142856,4633.3,882.5714285714286,411.47767857142856,4737.4,882.5714285714286,411.47767857142856,4838.5,880.5714285714286,410.47767857142856,4942.5]","[1161.9,1161.9,1000,0,161.9,""smooth"",""down"",""down"",""good_move"",2877.4,1715.3,2713.3,1162.1,-998,""error"",""-"",""-"",""no_move"",6970,4092.4,2551.1,3879.3,539.6,""while_blue"",""right"",""down"",""good_move"",9338,2367.9,1812.7,6970.1,555.2,""oops"",""right"",""up"",""bad_move"",12066.1,2728,1867.2,9338.2,860.7,""oops"",""right"",""down"",""good_move"",15266.5,3200.3,2713,12066.2,487.3,""oops"",""left"",""left"",""good_move"",18234.2,2967.5,2572.6,15266.7,394.9,""smooth"",""left"",""left"",""good_move"",21225.9,2991.6,2437.5,18234.3,554.1,""smooth"",""left"",""left"",""good_move"",23970.1,2744.1,2439.5,21226,304.6,""while_blue"",""down"",""down"",""good_move""]"
"5554","","<div style=""width:500px;"">
  <p>What determined the result of this run?</p>
  </div>","100","html-slider-response","39","752429","0.0-7.0-1.5","33","1","2025-07-30 08:41:19","36c45c0696341be0efffe67d72a12abb","197.185.146.44","Mozilla/5.0 (Windows NT 10.0; Win64; x64) AppleWebKit/537.36 (KHTML, like Gecko) Chrome/138.0.0.0 Safari/537.36 Edg/138.0.0.0","WebKit","Edge","138.0.0.0","Windows","10.0","https://app.prolific.com/","en-US,en;q=0.9,en-ZA;q=0.8","67d548b5aa5737666a77a6d2","687a19d2168e237449fb8af4","6889da13d6e20a33e7aad6f6","0","67d548b5aa5737666a77a6d2","0","2025-07-30T08:53:53.456Z","","","","AttribQ","","","","","","","","","","","50","","","","","","","","","","","","","","","","","","","","","","","","","","",""
"4695","","<div style=""width:500px;"">
  <p>How much control did you have over the ball?</p>
  </div>","100","html-slider-response","40","757125","0.0-7.0-2.5","33","1","2025-07-30 08:41:19","36c45c0696341be0efffe67d72a12abb","197.185.146.44","Mozilla/5.0 (Windows NT 10.0; Win64; x64) AppleWebKit/537.36 (KHTML, like Gecko) Chrome/138.0.0.0 Safari/537.36 Edg/138.0.0.0","WebKit","Edge","138.0.0.0","Windows","10.0","https://app.prolific.com/","en-US,en;q=0.9,en-ZA;q=0.8","67d548b5aa5737666a77a6d2","687a19d2168e237449fb8af4","6889da13d6e20a33e7aad6f6","0","67d548b5aa5737666a77a6d2","0","2025-07-30T08:53:58.152Z","","","","ControlQ","","","","","","","","","","","50","","","","","","","","","","","","","","","","","","","","","","","","","","",""
"10944","","<div style=""width:500px;"">
  <p>How would you describe your current emotional state?</p>
  </div>","0","html-slider-response","41","768069","0.0-7.0-3.5","33","1","2025-07-30 08:41:19","36c45c0696341be0efffe67d72a12abb","197.185.146.44","Mozilla/5.0 (Windows NT 10.0; Win64; x64) AppleWebKit/537.36 (KHTML, like Gecko) Chrome/138.0.0.0 Safari/537.36 Edg/138.0.0.0","WebKit","Edge","138.0.0.0","Windows","10.0","https://app.prolific.com/","en-US,en;q=0.9,en-ZA;q=0.8","67d548b5aa5737666a77a6d2","687a19d2168e237449fb8af4","6889da13d6e20a33e7aad6f6","0","67d548b5aa5737666a77a6d2","0","2025-07-30T08:54:09.096Z","","","","StressQ","","","","","","","","","","","50","","","","","","","","","","","","","","","","","","","","","","","","","","",""
"3270","","<div style=""width:500px;"">
  <p>What best describes how you currently feel?</p>
  </div>","100","html-slider-response","42","771341","0.0-7.0-4.5","33","1","2025-07-30 08:41:19","36c45c0696341be0efffe67d72a12abb","197.185.146.44","Mozilla/5.0 (Windows NT 10.0; Win64; x64) AppleWebKit/537.36 (KHTML, like Gecko) Chrome/138.0.0.0 Safari/537.36 Edg/138.0.0.0","WebKit","Edge","138.0.0.0","Windows","10.0","https://app.prolific.com/","en-US,en;q=0.9,en-ZA;q=0.8","67d548b5aa5737666a77a6d2","687a19d2168e237449fb8af4","6889da13d6e20a33e7aad6f6","0","67d548b5aa5737666a77a6d2","0","2025-07-30T08:54:12.368Z","","","","MotivationQ","","","","","","","","","","","50","","","","","","","","","","","","","","","","","","","","","","","","","","",""
"","","","","ctl-task-cpt","43","805526","0.0-7.0-0.6","33","1","2025-07-30 08:41:19","36c45c0696341be0efffe67d72a12abb","197.185.146.44","Mozilla/5.0 (Windows NT 10.0; Win64; x64) AppleWebKit/537.36 (KHTML, like Gecko) Chrome/138.0.0.0 Safari/537.36 Edg/138.0.0.0","WebKit","Edge","138.0.0.0","Windows","10.0","https://app.prolific.com/","en-US,en;q=0.9,en-ZA;q=0.8","67d548b5aa5737666a77a6d2","687a19d2168e237449fb8af4","6889da13d6e20a33e7aad6f6","0","67d548b5aa5737666a77a6d2","0","2025-07-30T08:54:46.553Z","","","","","","","","","","","","","","","","win-only","0","g1:NW,g2:SE","0.4","7","0","774179.4","1343.7","6351.6","31156.1","1","4","8","6","2","-8","-8","0","1","0","1311.5","3000","-2435","[""down"",""right""]","{""num_key_presses"":7,""num_perfect"":4,""num_errors"":0,""num_randdir"":3,""num_randdir_good_moves"":1,""num_whilered"":0,""num_whileblue"":0,""num_blue"":1,""num_good_moves"":5}","[415.57142857142856,420.47767857142856,0.1,415.57142857142856,420.47767857142856,103.3,494.57142857142856,450.47767857142856,208.5,698.5714285714286,505.47767857142856,311.5,725.5714285714286,512.4776785714286,413.3,640.5714285714286,539.4776785714286,516.9,641.5714285714286,602.4776785714286,621.8,650.5714285714286,750.4776785714286,721.9,654.5714285714286,749.4776785714286,822.7,684.5714285714286,735.4776785714286,927.2,725.5714285714286,747.4776785714286,1032.4,725.5714285714286,747.4776785714286,1141.5,728.5714285714286,747.4776785714286,1247.8,734.5714285714286,747.4776785714286,1351.9,734.5714285714286,747.4776785714286,1458,747.5714285714286,745.4776785714286,1558.5,813.5714285714286,691.4776785714286,1660.2,899.5714285714286,642.4776785714286,1761.8,926.5714285714286,641.4776785714286,1863,930.5714285714286,642.4776785714286,1974.6,930.5714285714286,642.4776785714286,2077,930.5714285714286,642.4776785714286,2187.4,930.5714285714286,642.4776785714286,2292.8,930.5714285714286,642.4776785714286,2397.4,930.5714285714286,642.4776785714286,2507.9,930.5714285714286,642.4776785714286,2613.4,930.5714285714286,642.4776785714286,2717.9,930.5714285714286,642.4776785714286,2822.6,930.5714285714286,642.4776785714286,2923.3,930.5714285714286,642.4776785714286,3032.8,930.5714285714286,642.4776785714286,3139.6,930.5714285714286,642.4776785714286,3242.2,930.5714285714286,642.4776785714286,3342.7,930.5714285714286,642.4776785714286,3447.4,930.5714285714286,642.4776785714286,3557.7,930.5714285714286,642.4776785714286,3658.8,930.5714285714286,642.4776785714286,3763.4,930.5714285714286,642.4776785714286,3867.4,930.5714285714286,642.4776785714286,3970.8,930.5714285714286,642.4776785714286,4073.3,930.5714285714286,642.4776785714286,4177.1,930.5714285714286,642.4776785714286,4277.1,930.5714285714286,642.4776785714286,4390.7,930.5714285714286,642.4776785714286,4491.8,930.5714285714286,642.4776785714286,4592.8,930.5714285714286,642.4776785714286,4696.6,930.5714285714286,642.4776785714286,4796.8,930.5714285714286,642.4776785714286,4897.1,930.5714285714286,642.4776785714286,4997.2]","[1482.1,1482.1,1000,0,482.1,""smooth"",""right"",""right"",""good_move"",3732.3,2250,1674.5,1482.3,575.5,""oops"",""right"",""up"",""bad_move"",6950.8,3218.4,2788.8,3732.4,429.6,""smooth"",""right"",""right"",""good_move"",10182.3,3231.3,2834.8,6951,396.5,""smooth"",""down"",""down"",""good_move"",12866,2683.6,2282.1,10182.4,401.5,""oops"",""down"",""left"",""bad_move"",15887.2,3020.9,2619.1,12866.3,401.8,""smooth"",""down"",""down"",""good_move"",21854.7,5967.3,2211.1,19228.7,414.9,""oops"",""right"",""right"",""good_move""]"
"8702","","<div style=""width:500px;"">
  <p>What determined the result of this run?</p>
  </div>","100","html-slider-response","44","814229","0.0-7.0-1.6","33","1","2025-07-30 08:41:19","36c45c0696341be0efffe67d72a12abb","197.185.146.44","Mozilla/5.0 (Windows NT 10.0; Win64; x64) AppleWebKit/537.36 (KHTML, like Gecko) Chrome/138.0.0.0 Safari/537.36 Edg/138.0.0.0","WebKit","Edge","138.0.0.0","Windows","10.0","https://app.prolific.com/","en-US,en;q=0.9,en-ZA;q=0.8","67d548b5aa5737666a77a6d2","687a19d2168e237449fb8af4","6889da13d6e20a33e7aad6f6","0","67d548b5aa5737666a77a6d2","0","2025-07-30T08:54:55.256Z","","","","AttribQ","","","","","","","","","","","50","","","","","","","","","","","","","","","","","","","","","","","","","","",""
"4711","","<div style=""width:500px;"">
  <p>How much control did you have over the ball?</p>
  </div>","100","html-slider-response","45","818940","0.0-7.0-2.6","33","1","2025-07-30 08:41:19","36c45c0696341be0efffe67d72a12abb","197.185.146.44","Mozilla/5.0 (Windows NT 10.0; Win64; x64) AppleWebKit/537.36 (KHTML, like Gecko) Chrome/138.0.0.0 Safari/537.36 Edg/138.0.0.0","WebKit","Edge","138.0.0.0","Windows","10.0","https://app.prolific.com/","en-US,en;q=0.9,en-ZA;q=0.8","67d548b5aa5737666a77a6d2","687a19d2168e237449fb8af4","6889da13d6e20a33e7aad6f6","0","67d548b5aa5737666a77a6d2","0","2025-07-30T08:54:59.968Z","","","","ControlQ","","","","","","","","","","","50","","","","","","","","","","","","","","","","","","","","","","","","","","",""
"2887","","<div style=""width:500px;"">
  <p>How would you describe your current emotional state?</p>
  </div>","0","html-slider-response","46","821828","0.0-7.0-3.6","33","1","2025-07-30 08:41:19","36c45c0696341be0efffe67d72a12abb","197.185.146.44","Mozilla/5.0 (Windows NT 10.0; Win64; x64) AppleWebKit/537.36 (KHTML, like Gecko) Chrome/138.0.0.0 Safari/537.36 Edg/138.0.0.0","WebKit","Edge","138.0.0.0","Windows","10.0","https://app.prolific.com/","en-US,en;q=0.9,en-ZA;q=0.8","67d548b5aa5737666a77a6d2","687a19d2168e237449fb8af4","6889da13d6e20a33e7aad6f6","0","67d548b5aa5737666a77a6d2","0","2025-07-30T08:55:02.855Z","","","","StressQ","","","","","","","","","","","50","","","","","","","","","","","","","","","","","","","","","","","","","","",""
"2968","","<div style=""width:500px;"">
  <p>What best describes how you currently feel?</p>
  </div>","100","html-slider-response","47","824797","0.0-7.0-4.6","33","1","2025-07-30 08:41:19","36c45c0696341be0efffe67d72a12abb","197.185.146.44","Mozilla/5.0 (Windows NT 10.0; Win64; x64) AppleWebKit/537.36 (KHTML, like Gecko) Chrome/138.0.0.0 Safari/537.36 Edg/138.0.0.0","WebKit","Edge","138.0.0.0","Windows","10.0","https://app.prolific.com/","en-US,en;q=0.9,en-ZA;q=0.8","67d548b5aa5737666a77a6d2","687a19d2168e237449fb8af4","6889da13d6e20a33e7aad6f6","0","67d548b5aa5737666a77a6d2","0","2025-07-30T08:55:05.824Z","","","","MotivationQ","","","","","","","","","","","50","","","","","","","","","","","","","","","","","","","","","","","","","","",""
"","","","","ctl-task-cpt","48","867108","0.0-7.0-0.7","33","1","2025-07-30 08:41:19","36c45c0696341be0efffe67d72a12abb","197.185.146.44","Mozilla/5.0 (Windows NT 10.0; Win64; x64) AppleWebKit/537.36 (KHTML, like Gecko) Chrome/138.0.0.0 Safari/537.36 Edg/138.0.0.0","WebKit","Edge","138.0.0.0","Windows","10.0","https://app.prolific.com/","en-US,en;q=0.9,en-ZA;q=0.8","67d548b5aa5737666a77a6d2","687a19d2168e237449fb8af4","6889da13d6e20a33e7aad6f6","0","67d548b5aa5737666a77a6d2","0","2025-07-30T08:55:48.135Z","","","","","","","","","","","","","","","","win-only","2","g1:SE,g2:NW","0.3","8","0","827636.1","965.7","5966.5","39291.5","1","4","4","6","1","-1","-1","0","0","0","3756.4","3000","-2930","[""down"",""right""]","{""num_key_presses"":7,""num_perfect"":3,""num_errors"":0,""num_randdir"":4,""num_randdir_good_moves"":2,""num_whilered"":0,""num_whileblue"":0,""num_blue"":3,""num_good_moves"":5}","[410.57142857142856,422.47767857142856,0.1,410.57142857142856,422.47767857142856,105.4,448.57142857142856,441.47767857142856,209.5,516.5714285714286,478.47767857142856,315.1,543.5714285714286,475.47767857142856,419.6,545.5714285714286,475.47767857142856,529.7,545.5714285714286,475.47767857142856,630.6,545.5714285714286,475.47767857142856,735.5,545.5714285714286,475.47767857142856,840.9,545.5714285714286,475.47767857142856,945.1,545.5714285714286,475.47767857142856,1045.5,545.5714285714286,475.47767857142856,1149.4,545.5714285714286,475.47767857142856,1250.4,545.5714285714286,475.47767857142856,1355.9,545.5714285714286,475.47767857142856,1457.9,545.5714285714286,475.47767857142856,1559.5,545.5714285714286,475.47767857142856,1660.3,545.5714285714286,475.47767857142856,1760.5,545.5714285714286,475.47767857142856,1864.4,547.5714285714286,474.47767857142856,1964.9,22.57142857142857,177.47767857142856,2069.5,-107.42857142857143,23.47767857142857,2169.9,-151.42857142857144,-56.52232142857143,2274.7,-1.4285714285714306,-13.52232142857143,2374.7,6.571428571428569,11.47767857142857,2475.6,50.57142857142857,46.47767857142857,2579.7,101.57142857142857,66.47767857142857,2679.7,96.57142857142857,62.47767857142857,2780.2,92.57142857142857,61.47767857142857,2887.5,92.57142857142857,61.47767857142857,2989.9,92.57142857142857,62.47767857142857,3095.1,304.57142857142856,337.47767857142856,3199.5,840.5714285714286,756.4776785714286,3299.9,856.5714285714286,757.4776785714286,3400.5,883.5714285714286,799.4776785714286,3505.7,805.5714285714286,786.4776785714286,3611.2,792.5714285714286,778.4776785714286,3715,791.5714285714286,774.4776785714286,3815.3,795.5714285714286,772.4776785714286,3920.1,870.5714285714286,788.4776785714286,4020.3,893.5714285714286,785.4776785714286,4120.3,899.5714285714286,777.4776785714286,4220.3,899.5714285714286,777.4776785714286,4330,899.5714285714286,777.4776785714286,4430.1,899.5714285714286,777.4776785714286,4537.7,899.5714285714286,777.4776785714286,4640.2,899.5714285714286,777.4776785714286,4745.3,899.5714285714286,777.4776785714286,4850.9,899.5714285714286,777.4776785714286,4955.1]","[1519.3,1519.3,1000,0,519.3,""oops"",""right"",""up"",""bad_move"",8239.7,6720.1,2963.1,4893.7,382.9,""smooth"",""right"",""right"",""good_move"",11372.2,3132.3,2684.1,8239.9,448.2,""oops"",""right"",""right"",""good_move"",17478.9,6106.5,1863.5,15258.6,356.8,""smooth"",""down"",""down"",""good_move"",20273.7,2794.6,2266.4,17479.1,528.2,""oops"",""down"",""up"",""bad_move"",26990.9,6717,2953.6,23663.6,373.7,""oops"",""down"",""down"",""good_move"",30399.6,3408.5,2885.4,26991.1,523.1,""smooth"",""down"",""down"",""good_move""]"
"14071","","<div style=""width:500px;"">
  <p>What determined the result of this run?</p>
  </div>","100","html-slider-response","49","881180","0.0-7.0-1.7","33","1","2025-07-30 08:41:19","36c45c0696341be0efffe67d72a12abb","197.185.146.44","Mozilla/5.0 (Windows NT 10.0; Win64; x64) AppleWebKit/537.36 (KHTML, like Gecko) Chrome/138.0.0.0 Safari/537.36 Edg/138.0.0.0","WebKit","Edge","138.0.0.0","Windows","10.0","https://app.prolific.com/","en-US,en;q=0.9,en-ZA;q=0.8","67d548b5aa5737666a77a6d2","687a19d2168e237449fb8af4","6889da13d6e20a33e7aad6f6","0","67d548b5aa5737666a77a6d2","0","2025-07-30T08:56:02.207Z","","","","AttribQ","","","","","","","","","","","50","","","","","","","","","","","","","","","","","","","","","","","","","","",""
"4679","","<div style=""width:500px;"">
  <p>How much control did you have over the ball?</p>
  </div>","100","html-slider-response","50","885860","0.0-7.0-2.7","33","1","2025-07-30 08:41:19","36c45c0696341be0efffe67d72a12abb","197.185.146.44","Mozilla/5.0 (Windows NT 10.0; Win64; x64) AppleWebKit/537.36 (KHTML, like Gecko) Chrome/138.0.0.0 Safari/537.36 Edg/138.0.0.0","WebKit","Edge","138.0.0.0","Windows","10.0","https://app.prolific.com/","en-US,en;q=0.9,en-ZA;q=0.8","67d548b5aa5737666a77a6d2","687a19d2168e237449fb8af4","6889da13d6e20a33e7aad6f6","0","67d548b5aa5737666a77a6d2","0","2025-07-30T08:56:06.887Z","","","","ControlQ","","","","","","","","","","","50","","","","","","","","","","","","","","","","","","","","","","","","","","",""
"3679","","<div style=""width:500px;"">
  <p>How would you describe your current emotional state?</p>
  </div>","0","html-slider-response","51","889540","0.0-7.0-3.7","33","1","2025-07-30 08:41:19","36c45c0696341be0efffe67d72a12abb","197.185.146.44","Mozilla/5.0 (Windows NT 10.0; Win64; x64) AppleWebKit/537.36 (KHTML, like Gecko) Chrome/138.0.0.0 Safari/537.36 Edg/138.0.0.0","WebKit","Edge","138.0.0.0","Windows","10.0","https://app.prolific.com/","en-US,en;q=0.9,en-ZA;q=0.8","67d548b5aa5737666a77a6d2","687a19d2168e237449fb8af4","6889da13d6e20a33e7aad6f6","0","67d548b5aa5737666a77a6d2","0","2025-07-30T08:56:10.567Z","","","","StressQ","","","","","","","","","","","50","","","","","","","","","","","","","","","","","","","","","","","","","","",""
"4567","","<div style=""width:500px;"">
  <p>What best describes how you currently feel?</p>
  </div>","100","html-slider-response","52","894108","0.0-7.0-4.7","33","1","2025-07-30 08:41:19","36c45c0696341be0efffe67d72a12abb","197.185.146.44","Mozilla/5.0 (Windows NT 10.0; Win64; x64) AppleWebKit/537.36 (KHTML, like Gecko) Chrome/138.0.0.0 Safari/537.36 Edg/138.0.0.0","WebKit","Edge","138.0.0.0","Windows","10.0","https://app.prolific.com/","en-US,en;q=0.9,en-ZA;q=0.8","67d548b5aa5737666a77a6d2","687a19d2168e237449fb8af4","6889da13d6e20a33e7aad6f6","0","67d548b5aa5737666a77a6d2","0","2025-07-30T08:56:15.135Z","","","","MotivationQ","","","","","","","","","","","50","","","","","","","","","","","","","","","","","","","","","","","","","","",""
"","","","","ctl-task-cpt","53","916644","0.0-7.0-0.8","33","1","2025-07-30 08:41:19","36c45c0696341be0efffe67d72a12abb","197.185.146.44","Mozilla/5.0 (Windows NT 10.0; Win64; x64) AppleWebKit/537.36 (KHTML, like Gecko) Chrome/138.0.0.0 Safari/537.36 Edg/138.0.0.0","WebKit","Edge","138.0.0.0","Windows","10.0","https://app.prolific.com/","en-US,en;q=0.9,en-ZA;q=0.8","67d548b5aa5737666a77a6d2","687a19d2168e237449fb8af4","6889da13d6e20a33e7aad6f6","0","67d548b5aa5737666a77a6d2","0","2025-07-30T08:56:37.671Z","","","","","","","","","","","","","","","","win-only","2","g1:SE,g2:NW","0.4","9","0","896947.2","1478.5","6481.1","19517.5","1","4","8","6","1","-1","-1","0","0","0","4624.8","3000","-2195","[""down"",""right""]","{""num_key_presses"":2,""num_perfect"":0,""num_errors"":0,""num_randdir"":2,""num_randdir_good_moves"":1,""num_whilered"":0,""num_whileblue"":0,""num_blue"":1,""num_good_moves"":1}","[422.57142857142856,413.47767857142856,0.2,422.57142857142856,413.47767857142856,107.8,438.57142857142856,425.47767857142856,224.4,453.57142857142856,462.47767857142856,325,453.57142857142856,462.47767857142856,428.6,453.57142857142856,462.47767857142856,535.2,453.57142857142856,462.47767857142856,637.2,453.57142857142856,462.47767857142856,737.6,453.57142857142856,462.47767857142856,842.2,453.57142857142856,462.47767857142856,942.9,453.57142857142856,462.47767857142856,1043.2,453.57142857142856,462.47767857142856,1157.5,453.57142857142856,462.47767857142856,1258.1,453.57142857142856,462.47767857142856,1362.3,453.57142857142856,462.47767857142856,1462.5,453.57142857142856,462.47767857142856,1572.9,453.57142857142856,462.47767857142856,1673.3,453.57142857142856,462.47767857142856,1773.9,453.57142857142856,462.47767857142856,1874,453.57142857142856,462.47767857142856,1977.4,453.57142857142856,462.47767857142856,2077.7,453.57142857142856,462.47767857142856,2177.7,453.57142857142856,462.47767857142856,2283.3,453.57142857142856,462.47767857142856,2386.6,453.57142857142856,462.47767857142856,2486.6,453.57142857142856,462.47767857142856,2586.8,453.57142857142856,462.47767857142856,2687.5,453.57142857142856,462.47767857142856,2790.1,453.57142857142856,462.47767857142856,2890.8,453.57142857142856,462.47767857142856,2992.2,453.57142857142856,462.47767857142856,3097.2,453.57142857142856,462.47767857142856,3198,453.57142857142856,462.47767857142856,3302.7,545.5714285714286,513.4776785714286,3407.5,666.5714285714286,530.4776785714286,3508,750.5714285714286,542.4776785714286,3611.6,837.5714285714286,721.4776785714286,3712.1,855.5714285714286,771.4776785714286,3812.2,845.5714285714286,792.4776785714286,3918.5,834.5714285714286,797.4776785714286,4022.6,832.5714285714286,796.4776785714286,4127.5,818.5714285714286,792.4776785714286,4228,793.5714285714286,790.4776785714286,4332.7,791.5714285714286,790.4776785714286,4437.3,779.5714285714286,777.4776785714286,4537.5,778.5714285714286,776.4776785714286,4637.5,778.5714285714286,775.4776785714286,4737.5,778.5714285714286,775.4776785714286,4842.2,780.5714285714286,746.4776785714286,4942.4]","[1737.3,1737.3,1000,0,737.3,""oops"",""right"",""down"",""good_move"",8325.1,6587.5,2578.3,5071.3,675.5,""oops"",""left"",""up"",""bad_move""]"
"3456","","<div style=""width:500px;"">
  <p>What determined the result of this run?</p>
  </div>","100","html-slider-response","54","920100","0.0-7.0-1.8","33","1","2025-07-30 08:41:19","36c45c0696341be0efffe67d72a12abb","197.185.146.44","Mozilla/5.0 (Windows NT 10.0; Win64; x64) AppleWebKit/537.36 (KHTML, like Gecko) Chrome/138.0.0.0 Safari/537.36 Edg/138.0.0.0","WebKit","Edge","138.0.0.0","Windows","10.0","https://app.prolific.com/","en-US,en;q=0.9,en-ZA;q=0.8","67d548b5aa5737666a77a6d2","687a19d2168e237449fb8af4","6889da13d6e20a33e7aad6f6","0","67d548b5aa5737666a77a6d2","0","2025-07-30T08:56:41.127Z","","","","AttribQ","","","","","","","","","","","50","","","","","","","","","","","","","","","","","","","","","","","","","","",""
"5391","","<div style=""width:500px;"">
  <p>How much control did you have over the ball?</p>
  </div>","100","html-slider-response","55","925492","0.0-7.0-2.8","33","1","2025-07-30 08:41:19","36c45c0696341be0efffe67d72a12abb","197.185.146.44","Mozilla/5.0 (Windows NT 10.0; Win64; x64) AppleWebKit/537.36 (KHTML, like Gecko) Chrome/138.0.0.0 Safari/537.36 Edg/138.0.0.0","WebKit","Edge","138.0.0.0","Windows","10.0","https://app.prolific.com/","en-US,en;q=0.9,en-ZA;q=0.8","67d548b5aa5737666a77a6d2","687a19d2168e237449fb8af4","6889da13d6e20a33e7aad6f6","0","67d548b5aa5737666a77a6d2","0","2025-07-30T08:56:46.519Z","","","","ControlQ","","","","","","","","","","","50","","","","","","","","","","","","","","","","","","","","","","","","","","",""
"2552","","<div style=""width:500px;"">
  <p>How would you describe your current emotional state?</p>
  </div>","0","html-slider-response","56","928044","0.0-7.0-3.8","33","1","2025-07-30 08:41:19","36c45c0696341be0efffe67d72a12abb","197.185.146.44","Mozilla/5.0 (Windows NT 10.0; Win64; x64) AppleWebKit/537.36 (KHTML, like Gecko) Chrome/138.0.0.0 Safari/537.36 Edg/138.0.0.0","WebKit","Edge","138.0.0.0","Windows","10.0","https://app.prolific.com/","en-US,en;q=0.9,en-ZA;q=0.8","67d548b5aa5737666a77a6d2","687a19d2168e237449fb8af4","6889da13d6e20a33e7aad6f6","0","67d548b5aa5737666a77a6d2","0","2025-07-30T08:56:49.071Z","","","","StressQ","","","","","","","","","","","50","","","","","","","","","","","","","","","","","","","","","","","","","","",""
"2455","","<div style=""width:500px;"">
  <p>What best describes how you currently feel?</p>
  </div>","100","html-slider-response","57","930500","0.0-7.0-4.8","33","1","2025-07-30 08:41:19","36c45c0696341be0efffe67d72a12abb","197.185.146.44","Mozilla/5.0 (Windows NT 10.0; Win64; x64) AppleWebKit/537.36 (KHTML, like Gecko) Chrome/138.0.0.0 Safari/537.36 Edg/138.0.0.0","WebKit","Edge","138.0.0.0","Windows","10.0","https://app.prolific.com/","en-US,en;q=0.9,en-ZA;q=0.8","67d548b5aa5737666a77a6d2","687a19d2168e237449fb8af4","6889da13d6e20a33e7aad6f6","0","67d548b5aa5737666a77a6d2","0","2025-07-30T08:56:51.527Z","","","","MotivationQ","","","","","","","","","","","50","","","","","","","","","","","","","","","","","","","","","","","","","","",""
"","","","","ctl-task-cpt","58","957829","0.0-7.0-0.9","33","1","2025-07-30 08:41:19","36c45c0696341be0efffe67d72a12abb","197.185.146.44","Mozilla/5.0 (Windows NT 10.0; Win64; x64) AppleWebKit/537.36 (KHTML, like Gecko) Chrome/138.0.0.0 Safari/537.36 Edg/138.0.0.0","WebKit","Edge","138.0.0.0","Windows","10.0","https://app.prolific.com/","en-US,en;q=0.9,en-ZA;q=0.8","67d548b5aa5737666a77a6d2","687a19d2168e237449fb8af4","6889da13d6e20a33e7aad6f6","0","67d548b5aa5737666a77a6d2","0","2025-07-30T08:57:18.856Z","","","","","","","","","","","","","","","","win-only","2","g1:SE,g2:NW","0.5","10","0","933338.7","1050","6050.5","24311","1","4","4","6","2","-4","-4","0","0","0","2669","3000","-2950","[""left"",""up""]","{""num_key_presses"":6,""num_perfect"":3,""num_errors"":0,""num_randdir"":3,""num_randdir_good_moves"":1,""num_whilered"":0,""num_whileblue"":0,""num_blue"":0,""num_good_moves"":4}","[418.57142857142856,420.47767857142856,0.2,420.57142857142856,420.47767857142856,100.2,516.5714285714286,477.47767857142856,201.7,631.5714285714286,891.4776785714286,306.7,705.5714285714286,959.4776785714286,410.6,705.5714285714286,959.4776785714286,510.6,705.5714285714286,959.4776785714286,610.6,705.5714285714286,959.4776785714286,715.8,705.5714285714286,959.4776785714286,820.1,705.5714285714286,959.4776785714286,927.1,705.5714285714286,959.4776785714286,1031.1,705.5714285714286,959.4776785714286,1136,643.5714285714286,926.4776785714286,1240.9,354.57142857142856,814.4776785714286,1347,458.57142857142856,734.4776785714286,1450.2,445.57142857142856,700.4776785714286,1550.2,327.57142857142856,576.4776785714286,1650.7,241.57142857142856,412.47767857142856,1755.1,189.57142857142856,353.47767857142856,1855.1,131.57142857142856,237.47767857142856,1956.8,163.57142857142856,270.47767857142856,2060.8,80.57142857142857,252.47767857142856,2160.9,-73.42857142857143,71.47767857142857,2265.4,-63.42857142857143,71.47767857142857,2365.4,35.57142857142857,100.47767857142857,2465.8,36.57142857142857,99.47767857142857,2566,62.57142857142857,91.47767857142857,2682.6,64.57142857142857,90.47767857142857,2785.4,143.57142857142856,140.47767857142856,2885.9,374.57142857142856,428.47767857142856,2991.1,525.5714285714286,684.4776785714286,3096,526.5714285714286,684.4776785714286,3201.1,526.5714285714286,684.4776785714286,3305,526.5714285714286,684.4776785714286,3406.5,526.5714285714286,684.4776785714286,3511.6,526.5714285714286,684.4776785714286,3615.5,526.5714285714286,684.4776785714286,3715.5,526.5714285714286,684.4776785714286,3821.3,526.5714285714286,684.4776785714286,3922.1,526.5714285714286,684.4776785714286,4025.5,526.5714285714286,684.4776785714286,4126.1,526.5714285714286,684.4776785714286,4231.2,526.5714285714286,684.4776785714286,4335.3,526.5714285714286,684.4776785714286,4441.8,526.5714285714286,684.4776785714286,4541.8,526.5714285714286,684.4776785714286,4645.9,526.5714285714286,684.4776785714286,4747,526.5714285714286,684.4776785714286,4850.9,526.5714285714286,684.4776785714286,4954.5]","[1804.7,1804.7,1000,0,804.7,""oops"",""up"",""up"",""good_move"",4380.1,2575.2,2062.9,1804.9,512.3,""oops"",""left"",""right"",""bad_move"",7604.2,3223.9,2869.7,4380.3,354.2,""oops"",""up"",""right"",""bad_move"",10316.1,2711.8,2297.2,7604.3,414.6,""smooth"",""left"",""left"",""good_move"",12740.7,2424.4,2073.2,10316.3,351.2,""smooth"",""up"",""up"",""good_move"",15284,2543.2,2093.4,12740.8,449.8,""smooth"",""up"",""up"",""good_move""]"
"4647","","<div style=""width:500px;"">
  <p>What determined the result of this run?</p>
  </div>","100","html-slider-response","59","962476","0.0-7.0-1.9","33","1","2025-07-30 08:41:19","36c45c0696341be0efffe67d72a12abb","197.185.146.44","Mozilla/5.0 (Windows NT 10.0; Win64; x64) AppleWebKit/537.36 (KHTML, like Gecko) Chrome/138.0.0.0 Safari/537.36 Edg/138.0.0.0","WebKit","Edge","138.0.0.0","Windows","10.0","https://app.prolific.com/","en-US,en;q=0.9,en-ZA;q=0.8","67d548b5aa5737666a77a6d2","687a19d2168e237449fb8af4","6889da13d6e20a33e7aad6f6","0","67d548b5aa5737666a77a6d2","0","2025-07-30T08:57:23.503Z","","","","AttribQ","","","","","","","","","","","50","","","","","","","","","","","","","","","","","","","","","","","","","","",""
"8495","","<div style=""width:500px;"">
  <p>How much control did you have over the ball?</p>
  </div>","100","html-slider-response","60","970972","0.0-7.0-2.9","33","1","2025-07-30 08:41:19","36c45c0696341be0efffe67d72a12abb","197.185.146.44","Mozilla/5.0 (Windows NT 10.0; Win64; x64) AppleWebKit/537.36 (KHTML, like Gecko) Chrome/138.0.0.0 Safari/537.36 Edg/138.0.0.0","WebKit","Edge","138.0.0.0","Windows","10.0","https://app.prolific.com/","en-US,en;q=0.9,en-ZA;q=0.8","67d548b5aa5737666a77a6d2","687a19d2168e237449fb8af4","6889da13d6e20a33e7aad6f6","0","67d548b5aa5737666a77a6d2","0","2025-07-30T08:57:31.999Z","","","","ControlQ","","","","","","","","","","","50","","","","","","","","","","","","","","","","","","","","","","","","","","",""
"4383","","<div style=""width:500px;"">
  <p>How would you describe your current emotional state?</p>
  </div>","0","html-slider-response","61","975356","0.0-7.0-3.9","33","1","2025-07-30 08:41:19","36c45c0696341be0efffe67d72a12abb","197.185.146.44","Mozilla/5.0 (Windows NT 10.0; Win64; x64) AppleWebKit/537.36 (KHTML, like Gecko) Chrome/138.0.0.0 Safari/537.36 Edg/138.0.0.0","WebKit","Edge","138.0.0.0","Windows","10.0","https://app.prolific.com/","en-US,en;q=0.9,en-ZA;q=0.8","67d548b5aa5737666a77a6d2","687a19d2168e237449fb8af4","6889da13d6e20a33e7aad6f6","0","67d548b5aa5737666a77a6d2","0","2025-07-30T08:57:36.383Z","","","","StressQ","","","","","","","","","","","50","","","","","","","","","","","","","","","","","","","","","","","","","","",""
"3333","","<div style=""width:500px;"">
  <p>What best describes how you currently feel?</p>
  </div>","100","html-slider-response","62","978689","0.0-7.0-4.9","33","1","2025-07-30 08:41:19","36c45c0696341be0efffe67d72a12abb","197.185.146.44","Mozilla/5.0 (Windows NT 10.0; Win64; x64) AppleWebKit/537.36 (KHTML, like Gecko) Chrome/138.0.0.0 Safari/537.36 Edg/138.0.0.0","WebKit","Edge","138.0.0.0","Windows","10.0","https://app.prolific.com/","en-US,en;q=0.9,en-ZA;q=0.8","67d548b5aa5737666a77a6d2","687a19d2168e237449fb8af4","6889da13d6e20a33e7aad6f6","0","67d548b5aa5737666a77a6d2","0","2025-07-30T08:57:39.716Z","","","","MotivationQ","","","","","","","","","","","50","","","","","","","","","","","","","","","","","","","","","","","","","","",""
"","","","","ctl-task-cpt","63","1017147","0.0-7.0-0.10","33","1","2025-07-30 08:41:19","36c45c0696341be0efffe67d72a12abb","197.185.146.44","Mozilla/5.0 (Windows NT 10.0; Win64; x64) AppleWebKit/537.36 (KHTML, like Gecko) Chrome/138.0.0.0 Safari/537.36 Edg/138.0.0.0","WebKit","Edge","138.0.0.0","Windows","10.0","https://app.prolific.com/","en-US,en;q=0.9,en-ZA;q=0.8","67d548b5aa5737666a77a6d2","687a19d2168e237449fb8af4","6889da13d6e20a33e7aad6f6","0","67d548b5aa5737666a77a6d2","0","2025-07-30T08:58:18.174Z","","","","","","","","","","","","","","","","win-only","3","g1:SW,g2:NE","0.6","11","0","981527.9","1263.1","6265.5","35442.6","1","4","8","6","1","-1","-2","0","0","0","2674.4","3000","-2265","[""down"",""left""]","{""num_key_presses"":9,""num_perfect"":5,""num_errors"":1,""num_randdir"":3,""num_randdir_good_moves"":0,""num_whilered"":0,""num_whileblue"":1,""num_blue"":1,""num_good_moves"":4}","[419.57142857142856,413.47767857142856,0.1,419.57142857142856,413.47767857142856,103,308.57142857142856,280.47767857142856,203.8,-313.42857142857144,-119.52232142857143,307.8,-543.4285714285714,-119.52232142857143,412.5,-543.4285714285714,-119.52232142857143,514.4,-528.4285714285714,-119.52232142857143,617.2,-533.4285714285714,-117.52232142857143,717.6,-456.42857142857144,95.47767857142857,824.4,-127.42857142857143,747.4776785714286,928.5,-40.42857142857143,893.4776785714286,1033,50.57142857142857,959.4776785714286,1142.6,50.57142857142857,959.4776785714286,1242.8,48.57142857142857,950.4776785714286,1342.9,53.57142857142857,948.4776785714286,1447.1,-161.42857142857144,959.4776785714286,1547.1,-250.42857142857144,959.4776785714286,1659.6,-251.42857142857144,918.4776785714286,1774.3,-259.42857142857144,893.4776785714286,1875.5,-268.42857142857144,893.4776785714286,1977.2,32.57142857142857,920.4776785714286,2077.5,75.57142857142857,922.4776785714286,2177.7,96.57142857142857,902.4776785714286,2277.8,56.57142857142857,845.4776785714286,2382.4,56.57142857142857,824.4776785714286,2482.4,74.57142857142857,803.4776785714286,2582.8,75.57142857142857,795.4776785714286,2688.8,75.57142857142857,794.4776785714286,2792.4,80.57142857142857,793.4776785714286,2910.1,48.57142857142857,620.4776785714286,3012.9,23.57142857142857,121.47767857142857,3125.3,28.57142857142857,117.47767857142857,3227.5,28.57142857142857,117.47767857142857,3327.6,28.57142857142857,117.47767857142857,3442.8,28.57142857142857,117.47767857142857,3551.8,28.57142857142857,117.47767857142857,3660,28.57142857142857,117.47767857142857,3762.3,28.57142857142857,117.47767857142857,3876.2,28.57142857142857,117.47767857142857,3985,28.57142857142857,117.47767857142857,4087.6,28.57142857142857,117.47767857142857,4192.4,28.57142857142857,117.47767857142857,4292.8,28.57142857142857,117.47767857142857,4393.1,28.57142857142857,117.47767857142857,4509.7,28.57142857142857,117.47767857142857,4612.7,28.57142857142857,117.47767857142857,4725.1,28.57142857142857,117.47767857142857,4826.4,28.57142857142857,117.47767857142857,4927.3]","[1567.7,1567.7,1000,0,567.7,""smooth"",""left"",""left"",""good_move"",4555.9,2987.9,2206,1568,781.9,""smooth"",""left"",""left"",""good_move"",7696.4,3140.4,2768.1,4556,372.3,""smooth"",""right"",""right"",""bad_move"",11439.8,3743.2,3315.6,7696.6,427.6,""oops"",""down"",""right"",""bad_move"",14589.2,3149.3,2610,11439.9,539.3,""oops"",""left"",""right"",""bad_move"",17621.6,3032.2,2667.5,14589.4,364.7,""while_blue"",""down"",""up"",""bad_move"",20296.5,2674.7,2107.8,17621.8,566.9,""smooth"",""down"",""down"",""good_move"",22935.5,2638.8,2252.5,20296.7,386.3,""oops"",""down"",""up"",""bad_move"",25971.6,3035.9,2497.1,22935.7,538.8,""smooth"",""down"",""down"",""good_move""]"
"4129","","<div style=""width:500px;"">
  <p>What determined the result of this run?</p>
  </div>","100","html-slider-response","64","1021276","0.0-7.0-1.10","33","1","2025-07-30 08:41:19","36c45c0696341be0efffe67d72a12abb","197.185.146.44","Mozilla/5.0 (Windows NT 10.0; Win64; x64) AppleWebKit/537.36 (KHTML, like Gecko) Chrome/138.0.0.0 Safari/537.36 Edg/138.0.0.0","WebKit","Edge","138.0.0.0","Windows","10.0","https://app.prolific.com/","en-US,en;q=0.9,en-ZA;q=0.8","67d548b5aa5737666a77a6d2","687a19d2168e237449fb8af4","6889da13d6e20a33e7aad6f6","0","67d548b5aa5737666a77a6d2","0","2025-07-30T08:58:22.303Z","","","","AttribQ","","","","","","","","","","","50","","","","","","","","","","","","","","","","","","","","","","","","","","",""
"3855","","<div style=""width:500px;"">
  <p>How much control did you have over the ball?</p>
  </div>","100","html-slider-response","65","1025132","0.0-7.0-2.10","33","1","2025-07-30 08:41:19","36c45c0696341be0efffe67d72a12abb","197.185.146.44","Mozilla/5.0 (Windows NT 10.0; Win64; x64) AppleWebKit/537.36 (KHTML, like Gecko) Chrome/138.0.0.0 Safari/537.36 Edg/138.0.0.0","WebKit","Edge","138.0.0.0","Windows","10.0","https://app.prolific.com/","en-US,en;q=0.9,en-ZA;q=0.8","67d548b5aa5737666a77a6d2","687a19d2168e237449fb8af4","6889da13d6e20a33e7aad6f6","0","67d548b5aa5737666a77a6d2","0","2025-07-30T08:58:26.159Z","","","","ControlQ","","","","","","","","","","","50","","","","","","","","","","","","","","","","","","","","","","","","","","",""
"5936","","<div style=""width:500px;"">
  <p>How would you describe your current emotional state?</p>
  </div>","0","html-slider-response","66","1031068","0.0-7.0-3.10","33","1","2025-07-30 08:41:19","36c45c0696341be0efffe67d72a12abb","197.185.146.44","Mozilla/5.0 (Windows NT 10.0; Win64; x64) AppleWebKit/537.36 (KHTML, like Gecko) Chrome/138.0.0.0 Safari/537.36 Edg/138.0.0.0","WebKit","Edge","138.0.0.0","Windows","10.0","https://app.prolific.com/","en-US,en;q=0.9,en-ZA;q=0.8","67d548b5aa5737666a77a6d2","687a19d2168e237449fb8af4","6889da13d6e20a33e7aad6f6","0","67d548b5aa5737666a77a6d2","0","2025-07-30T08:58:32.095Z","","","","StressQ","","","","","","","","","","","50","","","","","","","","","","","","","","","","","","","","","","","","","","",""
"3279","","<div style=""width:500px;"">
  <p>What best describes how you currently feel?</p>
  </div>","100","html-slider-response","67","1034348","0.0-7.0-4.10","33","1","2025-07-30 08:41:19","36c45c0696341be0efffe67d72a12abb","197.185.146.44","Mozilla/5.0 (Windows NT 10.0; Win64; x64) AppleWebKit/537.36 (KHTML, like Gecko) Chrome/138.0.0.0 Safari/537.36 Edg/138.0.0.0","WebKit","Edge","138.0.0.0","Windows","10.0","https://app.prolific.com/","en-US,en;q=0.9,en-ZA;q=0.8","67d548b5aa5737666a77a6d2","687a19d2168e237449fb8af4","6889da13d6e20a33e7aad6f6","0","67d548b5aa5737666a77a6d2","0","2025-07-30T08:58:35.375Z","","","","MotivationQ","","","","","","","","","","","50","","","","","","","","","","","","","","","","","","","","","","","","","","",""
"","","","","ctl-task-cpt","68","1062516","0.0-7.0-0.11","33","1","2025-07-30 08:41:19","36c45c0696341be0efffe67d72a12abb","197.185.146.44","Mozilla/5.0 (Windows NT 10.0; Win64; x64) AppleWebKit/537.36 (KHTML, like Gecko) Chrome/138.0.0.0 Safari/537.36 Edg/138.0.0.0","WebKit","Edge","138.0.0.0","Windows","10.0","https://app.prolific.com/","en-US,en;q=0.9,en-ZA;q=0.8","67d548b5aa5737666a77a6d2","687a19d2168e237449fb8af4","6889da13d6e20a33e7aad6f6","0","67d548b5aa5737666a77a6d2","0","2025-07-30T08:59:03.543Z","","","","","","","","","","","","","","","","win-only","3","g1:SW,g2:NE","0.7","12","0","1037186.3","1215.1","6216.5","25151.1","1","4","4","6","2","-4","-4","0","0","0","5001.4","3000","-2960","[""up"",""right""]","{""num_key_presses"":4,""num_perfect"":3,""num_errors"":0,""num_randdir"":1,""num_randdir_good_moves"":0,""num_whilered"":0,""num_whileblue"":0,""num_blue"":1,""num_good_moves"":3}","[420.57142857142856,422.47767857142856,0.1,420.57142857142856,422.47767857142856,100.4,420.57142857142856,422.47767857142856,201.4,427.57142857142856,437.47767857142856,309,527.5714285714286,498.47767857142856,410.3,735.5714285714286,608.4776785714286,511,748.5714285714286,642.4776785714286,615.3,723.5714285714286,705.4776785714286,715.3,727.5714285714286,711.4776785714286,815.7,727.5714285714286,711.4776785714286,921.3,727.5714285714286,711.4776785714286,1021.7,727.5714285714286,711.4776785714286,1125.1,727.5714285714286,711.4776785714286,1225.3,727.5714285714286,711.4776785714286,1325.3,727.5714285714286,711.4776785714286,1430,727.5714285714286,711.4776785714286,1531,727.5714285714286,711.4776785714286,1631.3,727.5714285714286,711.4776785714286,1735.7,727.5714285714286,711.4776785714286,1841.2,727.5714285714286,711.4776785714286,1941.3,727.5714285714286,711.4776785714286,2045.2,727.5714285714286,711.4776785714286,2145.3,727.5714285714286,711.4776785714286,2250.3,727.5714285714286,711.4776785714286,2350.3,727.5714285714286,711.4776785714286,2450.7,727.5714285714286,711.4776785714286,2555.1,727.5714285714286,711.4776785714286,2656.3,727.5714285714286,711.4776785714286,2760.6,727.5714285714286,711.4776785714286,2861.4,727.5714285714286,711.4776785714286,2965.1,727.5714285714286,711.4776785714286,3065.7,727.5714285714286,711.4776785714286,3165.8,727.5714285714286,711.4776785714286,3270,727.5714285714286,711.4776785714286,3370.2,727.5714285714286,711.4776785714286,3475.7,727.5714285714286,711.4776785714286,3580.2,727.5714285714286,711.4776785714286,3680.3,727.5714285714286,711.4776785714286,3780.8,727.5714285714286,711.4776785714286,3885.9,727.5714285714286,711.4776785714286,3991.4,727.5714285714286,711.4776785714286,4095,727.5714285714286,711.4776785714286,4195.7,727.5714285714286,711.4776785714286,4301.5,727.5714285714286,711.4776785714286,4405.4,727.5714285714286,711.4776785714286,4511.1,727.5714285714286,711.4776785714286,4616.5,727.5714285714286,711.4776785714286,4721.7,727.5714285714286,711.4776785714286,4826.5,727.5714285714286,711.4776785714286,4932.1]","[2694.6,2694.6,1000,0,1694.6,""smooth"",""right"",""right"",""good_move"",6126.2,3431.3,3078.1,2694.9,353.2,""smooth"",""up"",""up"",""good_move"",9414.2,3287.8,2837.3,6126.4,450.6,""oops"",""up"",""down"",""bad_move"",12614.1,3199.6,2737.3,9414.5,462.3,""smooth"",""up"",""up"",""good_move""]"
"4607","","<div style=""width:500px;"">
  <p>What determined the result of this run?</p>
  </div>","100","html-slider-response","69","1067124","0.0-7.0-1.11","33","1","2025-07-30 08:41:19","36c45c0696341be0efffe67d72a12abb","197.185.146.44","Mozilla/5.0 (Windows NT 10.0; Win64; x64) AppleWebKit/537.36 (KHTML, like Gecko) Chrome/138.0.0.0 Safari/537.36 Edg/138.0.0.0","WebKit","Edge","138.0.0.0","Windows","10.0","https://app.prolific.com/","en-US,en;q=0.9,en-ZA;q=0.8","67d548b5aa5737666a77a6d2","687a19d2168e237449fb8af4","6889da13d6e20a33e7aad6f6","0","67d548b5aa5737666a77a6d2","0","2025-07-30T08:59:08.151Z","","","","AttribQ","","","","","","","","","","","50","","","","","","","","","","","","","","","","","","","","","","","","","","",""
"3207","","<div style=""width:500px;"">
  <p>How much control did you have over the ball?</p>
  </div>","100","html-slider-response","70","1070332","0.0-7.0-2.11","33","1","2025-07-30 08:41:19","36c45c0696341be0efffe67d72a12abb","197.185.146.44","Mozilla/5.0 (Windows NT 10.0; Win64; x64) AppleWebKit/537.36 (KHTML, like Gecko) Chrome/138.0.0.0 Safari/537.36 Edg/138.0.0.0","WebKit","Edge","138.0.0.0","Windows","10.0","https://app.prolific.com/","en-US,en;q=0.9,en-ZA;q=0.8","67d548b5aa5737666a77a6d2","687a19d2168e237449fb8af4","6889da13d6e20a33e7aad6f6","0","67d548b5aa5737666a77a6d2","0","2025-07-30T08:59:11.359Z","","","","ControlQ","","","","","","","","","","","50","","","","","","","","","","","","","","","","","","","","","","","","","","",""
"5768","","<div style=""width:500px;"">
  <p>How would you describe your current emotional state?</p>
  </div>","0","html-slider-response","71","1076100","0.0-7.0-3.11","33","1","2025-07-30 08:41:19","36c45c0696341be0efffe67d72a12abb","197.185.146.44","Mozilla/5.0 (Windows NT 10.0; Win64; x64) AppleWebKit/537.36 (KHTML, like Gecko) Chrome/138.0.0.0 Safari/537.36 Edg/138.0.0.0","WebKit","Edge","138.0.0.0","Windows","10.0","https://app.prolific.com/","en-US,en;q=0.9,en-ZA;q=0.8","67d548b5aa5737666a77a6d2","687a19d2168e237449fb8af4","6889da13d6e20a33e7aad6f6","0","67d548b5aa5737666a77a6d2","0","2025-07-30T08:59:17.127Z","","","","StressQ","","","","","","","","","","","50","","","","","","","","","","","","","","","","","","","","","","","","","","",""
"3151","","<div style=""width:500px;"">
  <p>What best describes how you currently feel?</p>
  </div>","100","html-slider-response","72","1079252","0.0-7.0-4.11","33","1","2025-07-30 08:41:19","36c45c0696341be0efffe67d72a12abb","197.185.146.44","Mozilla/5.0 (Windows NT 10.0; Win64; x64) AppleWebKit/537.36 (KHTML, like Gecko) Chrome/138.0.0.0 Safari/537.36 Edg/138.0.0.0","WebKit","Edge","138.0.0.0","Windows","10.0","https://app.prolific.com/","en-US,en;q=0.9,en-ZA;q=0.8","67d548b5aa5737666a77a6d2","687a19d2168e237449fb8af4","6889da13d6e20a33e7aad6f6","0","67d548b5aa5737666a77a6d2","0","2025-07-30T08:59:20.279Z","","","","MotivationQ","","","","","","","","","","","50","","","","","","","","","","","","","","","","","","","","","","","","","","",""
"","","","","ctl-task-cpt","73","1112225","0.0-7.0-0.12","33","1","2025-07-30 08:41:19","36c45c0696341be0efffe67d72a12abb","197.185.146.44","Mozilla/5.0 (Windows NT 10.0; Win64; x64) AppleWebKit/537.36 (KHTML, like Gecko) Chrome/138.0.0.0 Safari/537.36 Edg/138.0.0.0","WebKit","Edge","138.0.0.0","Windows","10.0","https://app.prolific.com/","en-US,en;q=0.9,en-ZA;q=0.8","67d548b5aa5737666a77a6d2","687a19d2168e237449fb8af4","6889da13d6e20a33e7aad6f6","0","67d548b5aa5737666a77a6d2","0","2025-07-30T08:59:53.252Z","","","","","","","","","","","","","","","","win-only","3","g1:SW,g2:NE","0.8","13","0","1082090.2","3111.5","8120.9","29966.3","1","4","8","6","2","8","7","7","0","0.05303030303030303","3046.8","3000","685","[""up"",""right""]","{""num_key_presses"":8,""num_perfect"":5,""num_errors"":1,""num_randdir"":2,""num_randdir_good_moves"":2,""num_whilered"":0,""num_whileblue"":1,""num_blue"":1,""num_good_moves"":7}","[407.57142857142856,417.47767857142856,0.1,407.57142857142856,417.47767857142856,103.9,407.57142857142856,418.47767857142856,204.7,413.57142857142856,446.47767857142856,308.7,431.57142857142856,495.47767857142856,410,473.57142857142856,564.4776785714286,513.9,473.57142857142856,564.4776785714286,615.2,473.57142857142856,564.4776785714286,719,473.57142857142856,564.4776785714286,824.2,473.57142857142856,564.4776785714286,928.9,473.57142857142856,564.4776785714286,1029,473.57142857142856,564.4776785714286,1134.2,473.57142857142856,564.4776785714286,1234.4,473.57142857142856,564.4776785714286,1338.8,473.57142857142856,564.4776785714286,1439.1,441.57142857142856,519.4776785714286,1539.3,546.5714285714286,124.47767857142857,1640.2,822.5714285714286,-119.52232142857143,1744.4,825.5714285714286,-119.52232142857143,1845.4,825.5714285714286,-112.52232142857143,1949.3,849.5714285714286,-60.52232142857143,2054.2,785.5714285714286,15.47767857142857,2158.8,618.5714285714286,57.47767857142857,2259.7,639.5714285714286,71.47767857142857,2360,648.5714285714286,73.47767857142857,2464.1,678.5714285714286,85.47767857142857,2582.2,691.5714285714286,93.47767857142857,2684.1,693.5714285714286,93.47767857142857,2797.9,695.5714285714286,93.47767857142857,2898.9,728.5714285714286,104.47767857142857,3016.1,730.5714285714286,104.47767857142857,3125.1,732.5714285714286,104.47767857142857,3228.9,733.5714285714286,106.47767857142857,3329.8,817.5714285714286,119.47767857142857,3432.6,955.5714285714286,234.47767857142856,3542.1,754.5714285714286,517.4776785714286,3644.1,707.5714285714286,546.4776785714286,3752.8,750.5714285714286,504.47767857142856,3854.6,875.5714285714286,467.47767857142856,3964.3,891.5714285714286,457.47767857142856,4066,891.5714285714286,457.47767857142856,4182.5,891.5714285714286,457.47767857142856,4285.1,891.5714285714286,457.47767857142856,4389.4,891.5714285714286,457.47767857142856,4495,891.5714285714286,457.47767857142856,4599.5,891.5714285714286,457.47767857142856,4714.4,891.5714285714286,457.47767857142856,4815,891.5714285714286,457.47767857142856,4915.8]","[1438.3,1438.3,1000,0,438.3,""smooth"",""up"",""up"",""good_move"",4696.4,3257.9,2736.5,1438.5,521.4,""smooth"",""right"",""right"",""good_move"",7333.9,2637.4,2257.3,4696.5,380.1,""smooth"",""up"",""up"",""good_move"",10213.7,2879.6,2502,7334.1,377.6,""smooth"",""right"",""right"",""good_move"",13286.6,3072.7,2758.6,10213.9,314.1,""while_blue"",""up"",""down"",""bad_move"",15969.9,2682.9,1945.1,13287,737.8,""smooth"",""up"",""up"",""good_move"",18405.7,2435.5,2072.5,15970.2,363,""oops"",""right"",""right"",""good_move"",21717.6,3311.8,2955.9,18405.8,355.9,""oops"",""up"",""up"",""good_move""]"
"4475","","<div style=""width:500px;"">
  <p>What determined the result of this run?</p>
  </div>","100","html-slider-response","74","1116700","0.0-7.0-1.12","33","1","2025-07-30 08:41:19","36c45c0696341be0efffe67d72a12abb","197.185.146.44","Mozilla/5.0 (Windows NT 10.0; Win64; x64) AppleWebKit/537.36 (KHTML, like Gecko) Chrome/138.0.0.0 Safari/537.36 Edg/138.0.0.0","WebKit","Edge","138.0.0.0","Windows","10.0","https://app.prolific.com/","en-US,en;q=0.9,en-ZA;q=0.8","67d548b5aa5737666a77a6d2","687a19d2168e237449fb8af4","6889da13d6e20a33e7aad6f6","0","67d548b5aa5737666a77a6d2","0","2025-07-30T08:59:57.727Z","","","","AttribQ","","","","","","","","","","","50","","","","","","","","","","","","","","","","","","","","","","","","","","",""
"3175","","<div style=""width:500px;"">
  <p>How much control did you have over the ball?</p>
  </div>","100","html-slider-response","75","1119875","0.0-7.0-2.12","33","1","2025-07-30 08:41:19","36c45c0696341be0efffe67d72a12abb","197.185.146.44","Mozilla/5.0 (Windows NT 10.0; Win64; x64) AppleWebKit/537.36 (KHTML, like Gecko) Chrome/138.0.0.0 Safari/537.36 Edg/138.0.0.0","WebKit","Edge","138.0.0.0","Windows","10.0","https://app.prolific.com/","en-US,en;q=0.9,en-ZA;q=0.8","67d548b5aa5737666a77a6d2","687a19d2168e237449fb8af4","6889da13d6e20a33e7aad6f6","0","67d548b5aa5737666a77a6d2","0","2025-07-30T09:00:00.903Z","","","","ControlQ","","","","","","","","","","","50","","","","","","","","","","","","","","","","","","","","","","","","","","",""
"2527","","<div style=""width:500px;"">
  <p>How would you describe your current emotional state?</p>
  </div>","0","html-slider-response","76","1122403","0.0-7.0-3.12","33","1","2025-07-30 08:41:19","36c45c0696341be0efffe67d72a12abb","197.185.146.44","Mozilla/5.0 (Windows NT 10.0; Win64; x64) AppleWebKit/537.36 (KHTML, like Gecko) Chrome/138.0.0.0 Safari/537.36 Edg/138.0.0.0","WebKit","Edge","138.0.0.0","Windows","10.0","https://app.prolific.com/","en-US,en;q=0.9,en-ZA;q=0.8","67d548b5aa5737666a77a6d2","687a19d2168e237449fb8af4","6889da13d6e20a33e7aad6f6","0","67d548b5aa5737666a77a6d2","0","2025-07-30T09:00:03.431Z","","","","StressQ","","","","","","","","","","","50","","","","","","","","","","","","","","","","","","","","","","","","","","",""
"4255","","<div style=""width:500px;"">
  <p>What best describes how you currently feel?</p>
  </div>","100","html-slider-response","77","1126659","0.0-7.0-4.12","33","1","2025-07-30 08:41:19","36c45c0696341be0efffe67d72a12abb","197.185.146.44","Mozilla/5.0 (Windows NT 10.0; Win64; x64) AppleWebKit/537.36 (KHTML, like Gecko) Chrome/138.0.0.0 Safari/537.36 Edg/138.0.0.0","WebKit","Edge","138.0.0.0","Windows","10.0","https://app.prolific.com/","en-US,en;q=0.9,en-ZA;q=0.8","67d548b5aa5737666a77a6d2","687a19d2168e237449fb8af4","6889da13d6e20a33e7aad6f6","0","67d548b5aa5737666a77a6d2","0","2025-07-30T09:00:07.687Z","","","","MotivationQ","","","","","","","","","","","50","","","","","","","","","","","","","","","","","","","","","","","","","","",""
"","","","","ctl-task-cpt","78","1154389","0.0-7.0-0.13","33","1","2025-07-30 08:41:19","36c45c0696341be0efffe67d72a12abb","197.185.146.44","Mozilla/5.0 (Windows NT 10.0; Win64; x64) AppleWebKit/537.36 (KHTML, like Gecko) Chrome/138.0.0.0 Safari/537.36 Edg/138.0.0.0","WebKit","Edge","138.0.0.0","Windows","10.0","https://app.prolific.com/","en-US,en;q=0.9,en-ZA;q=0.8","67d548b5aa5737666a77a6d2","687a19d2168e237449fb8af4","6889da13d6e20a33e7aad6f6","0","67d548b5aa5737666a77a6d2","0","2025-07-30T09:00:35.416Z","","","","","","","","","","","","","","","","win-only","3","g1:SW,g2:NE","0.9","14","0","1129498.1","1231","6235.7","24725.7","1","4","4","6","2","4","4","11","7","0.08333333333333333","1505.4","3000","1200","[""up"",""right""]","{""num_key_presses"":6,""num_perfect"":6,""num_errors"":0,""num_randdir"":0,""num_randdir_good_moves"":0,""num_whilered"":0,""num_whileblue"":0,""num_blue"":1,""num_good_moves"":6}","[420.57142857142856,419.47767857142856,0.1,420.57142857142856,419.47767857142856,104.7,442.57142857142856,463.47767857142856,221.5,495.57142857142856,601.4776785714286,339.2,478.57142857142856,653.4776785714286,447.9,453.57142857142856,716.4776785714286,549.7,383.57142857142856,787.4776785714286,655.6,346.57142857142856,750.4776785714286,767.1,537.5714285714286,207.47767857142856,870.9,600.5714285714286,73.47767857142857,974.5,657.5714285714286,43.47767857142857,1074.7,675.5714285714286,39.47767857142857,1174.8,742.5714285714286,96.47767857142857,1288.3,745.5714285714286,94.47767857142857,1388.4,748.5714285714286,91.47767857142857,1504.2,748.5714285714286,91.47767857142857,1604.2,748.5714285714286,93.47767857142857,1706.4,747.5714285714286,154.47767857142856,1814.5,743.5714285714286,262.47767857142856,1915,732.5714285714286,364.47767857142856,2015.3,733.5714285714286,367.47767857142856,2120.4,733.5714285714286,367.47767857142856,2220.6,733.5714285714286,367.47767857142856,2338.8,733.5714285714286,367.47767857142856,2447.6,733.5714285714286,367.47767857142856,2549.2,733.5714285714286,367.47767857142856,2649.2,733.5714285714286,367.47767857142856,2750.1,733.5714285714286,367.47767857142856,2854.6,733.5714285714286,367.47767857142856,2954.8,733.5714285714286,367.47767857142856,3070.7,733.5714285714286,367.47767857142856,3174.5,733.5714285714286,367.47767857142856,3279.4,733.5714285714286,367.47767857142856,3384.1,733.5714285714286,367.47767857142856,3486.7,733.5714285714286,367.47767857142856,3597.3,733.5714285714286,367.47767857142856,3703.9,733.5714285714286,367.47767857142856,3804.8,733.5714285714286,367.47767857142856,3904.9,733.5714285714286,367.47767857142856,4020.5,733.5714285714286,367.47767857142856,4138.7,733.5714285714286,367.47767857142856,4246.3,733.5714285714286,367.47767857142856,4349.2,733.5714285714286,367.47767857142856,4449.4,733.5714285714286,367.47767857142856,4549.5,733.5714285714286,367.47767857142856,4653.5,733.5714285714286,367.47767857142856,4754.4,733.5714285714286,367.47767857142856,4854.4,733.5714285714286,367.47767857142856,4954.5]","[4499.5,4499.5,1983.2,2016.8,499.5,""smooth"",""up"",""up"",""good_move"",6960.1,2460.4,2056.5,4499.7,403.9,""smooth"",""right"",""right"",""good_move"",10008,3047.6,2580,6960.4,467.6,""smooth"",""up"",""up"",""good_move"",12214.8,2206.7,1782.5,10008.3,424.1,""smooth"",""right"",""right"",""good_move"",15864.5,3649.6,3229.7,12214.9,419.9,""smooth"",""up"",""up"",""good_move"",18346.7,2482,2099.8,15864.7,382.2,""smooth"",""right"",""right"",""good_move""]"
"3774","","<div style=""width:500px;"">
