"rt","response_timestamp","stimulus","response","trial_type","trial_index","time_elapsed","internal_node_id","run_id","condition","recorded_at","source_code_version","ip","user_agent","device","browser","browser_version","platform","platform_version","referer","accept_language","PROLIFIC_PID","STUDY_ID","SESSION_ID","BATCH","prolific_id","batch","realtime","success","question_order","question_id","eventType","responses","item_order","radio_event_ids","radio_event_times","key_event_times","mouse_event_times","straightlining","zigzagging","honeypot","view_history","slider_start","which_type","canvas_config","goals_layout","control_level","trial_number","tutorial_trial_number","trial_start_time","phase1_start_time","phase2_start_time","phase3_start_time","goal_1_value","goal_1_distance","goal_2_value","goal_2_distance","goal_selected","outcome","outcome_total","participant_final_score","participant_initial_score","participant_final_score_prop","goal_choice_rt","allocated_time","allocated_time_remaining","goal_direction","counts","mouse_movements","key_presses"
"8873","1753864941689","<p style='font-size:40px;line-height:1.25'><strong>Welcome to the experiment!</strong></p><p style='font-size:1.1em;line-height:1.25'>Thank you for participanting in our experiment again! You will be asked to play the Dysfunctional Ball Game again. We will briefly recap the rules before we start.</p><p style='font-size:1.1em;line-height:1.25'>Press <strong>Next</strong> to continue.</p>","0","custom-html-button-response","0","8877","0.0-0.0","39","1","2025-07-30 08:42:10","36c45c0696341be0efffe67d72a12abb","102.209.191.18","Mozilla/5.0 (Windows NT 10.0; Win64; x64) AppleWebKit/537.36 (KHTML, like Gecko) Chrome/138.0.0.0 Safari/537.36","WebKit","Chrome","138.0.0.0","Windows","10.0","https://app.prolific.com/","en-US,en;q=0.9","67d7fa657f5ac0292a291a38","687a360dabe5252b5ada7185","6889dab2cc4abddb0f9e52c9","0","67d7fa657f5ac0292a291a38","0","2025-07-30T08:42:21.692Z","","","","","","","","","","","","","","","","","","","","","","","","","","","","","","","","","","","","","","","","","",""
"4099","","","","fullscreen","1","13982","0.0-1.0","39","1","2025-07-30 08:42:10","36c45c0696341be0efffe67d72a12abb","102.209.191.18","Mozilla/5.0 (Windows NT 10.0; Win64; x64) AppleWebKit/537.36 (KHTML, like Gecko) Chrome/138.0.0.0 Safari/537.36","WebKit","Chrome","138.0.0.0","Windows","10.0","https://app.prolific.com/","en-US,en;q=0.9","67d7fa657f5ac0292a291a38","687a360dabe5252b5ada7185","6889dab2cc4abddb0f9e52c9","0","67d7fa657f5ac0292a291a38","0","","true","","","","","","","","","","","","","","","","","","","","","","","","","","","","","","","","","","","","","","","","",""
"6033","1753864952831"," <p style='font-size:1.1em;line-height:1.25'>Thank you for closing all other tabs.</p><p style='font-size:1.1em;line-height:1.25'>We will now invite you to fill in some questionnaires, before starting the game.<br>This will take about 5 minutes.<br></p><p style='font-size:1.1em;line-height:1.25'>Press the <strong>Next</strong> button to continue.</p>","0","custom-html-button-response","2","20018","0.0-2.0","39","1","2025-07-30 08:42:10","36c45c0696341be0efffe67d72a12abb","102.209.191.18","Mozilla/5.0 (Windows NT 10.0; Win64; x64) AppleWebKit/537.36 (KHTML, like Gecko) Chrome/138.0.0.0 Safari/537.36","WebKit","Chrome","138.0.0.0","Windows","10.0","https://app.prolific.com/","en-US,en;q=0.9","67d7fa657f5ac0292a291a38","687a360dabe5252b5ada7185","6889dab2cc4abddb0f9e52c9","0","67d7fa657f5ac0292a291a38","0","2025-07-30T08:42:32.832Z","","","","","","","","","","","","","","","","","","","","","","","","","","","","","","","","","","","","","","","","","",""
"5095","","","{""assigned_sex"":""female""}","survey-multi-choice","3","25115","0.0-3.0-0.0","39","1","2025-07-30 08:42:10","36c45c0696341be0efffe67d72a12abb","102.209.191.18","Mozilla/5.0 (Windows NT 10.0; Win64; x64) AppleWebKit/537.36 (KHTML, like Gecko) Chrome/138.0.0.0 Safari/537.36","WebKit","Chrome","138.0.0.0","Windows","10.0","https://app.prolific.com/","en-US,en;q=0.9","67d7fa657f5ac0292a291a38","687a360dabe5252b5ada7185","6889dab2cc4abddb0f9e52c9","0","67d7fa657f5ac0292a291a38","0","","","[0]","0","demographics","","","","","","","","","","","","","","","","","","","","","","","","","","","","","","","","","","","","","",""
"10237","1753864968168","<p style='font-size:1.1em;line-height:1.25'>In the following, we will perform a baseline assessment. This means that we will ask you a few questions relating to your experiences over the past month.<br></p><p style='font-size:1.1em;line-height:1.25'>Press the <strong>Next</strong> button to continue.</p>","0","custom-html-button-response","4","35354","0.0-4.0-0.0","39","1","2025-07-30 08:42:10","36c45c0696341be0efffe67d72a12abb","102.209.191.18","Mozilla/5.0 (Windows NT 10.0; Win64; x64) AppleWebKit/537.36 (KHTML, like Gecko) Chrome/138.0.0.0 Safari/537.36","WebKit","Chrome","138.0.0.0","Windows","10.0","https://app.prolific.com/","en-US,en;q=0.9","67d7fa657f5ac0292a291a38","687a360dabe5252b5ada7185","6889dab2cc4abddb0f9e52c9","0","67d7fa657f5ac0292a291a38","0","2025-07-30T08:42:48.168Z","","","","","","","","","","","","","","","","","","","","","","","","","","","","","","","","","","","","","","","","","",""
"70141.59999999404","","","","survey-template","5","105502","0.0-4.0-1.0","39","1","2025-07-30 08:42:10","36c45c0696341be0efffe67d72a12abb","102.209.191.18","Mozilla/5.0 (Windows NT 10.0; Win64; x64) AppleWebKit/537.36 (KHTML, like Gecko) Chrome/138.0.0.0 Safari/537.36","WebKit","Chrome","138.0.0.0","Windows","10.0","https://app.prolific.com/","en-US,en;q=0.9","67d7fa657f5ac0292a291a38","687a360dabe5252b5ada7185","6889dab2cc4abddb0f9e52c9","0","67d7fa657f5ac0292a291a38","0","2025-07-30T08:43:58.316Z","","","","pss","{""Q01"":""3"",""Q02"":""4"",""Q03"":""3"",""Q04"":""2"",""Q05"":""1"",""Q06"":""3"",""Q07"":""3"",""Q08"":""3"",""Q09"":""4"",""Q10"":""4""}","[0,1,2,3,4,5,6,7,8,9]","[""Q01"",""Q02"",""Q03"",""Q04"",""Q04"",""Q05"",""Q06"",""Q06"",""Q07"",""Q08"",""Q09"",""Q10""]","[6321.199999988079,12369,16106.799999982119,21648.69999998808,24225.69999998808,30095.09999999404,37431,40068.29999998212,44638.69999998808,53065.89999997616,64119.69999998808,69096.79999998212]","[]","[0.3999999761581421,6321.199999988079,12369,16106.799999982119,21648.69999998808,24225.69999998808,30095.09999999404,37431,40068.29999998212,44638.69999998808,46244.89999997616,53065.89999997616,64119.69999998808,69096.79999998212,70138]","0.4","0.4444444444444444","0","","","","","","","","","","","","","","","","","","","","","","","","","","","","",""
"3612","1753865041929","<p style='font-size:1.1em;line-height:1.25'>Thank you for your answers! Now we will ask you a few more questions relating to your feelings in the last 24 hours.<br></p><p style='font-size:1.1em;line-height:1.25'>Press the <strong>Next</strong> button to continue.</p>","0","custom-html-button-response","6","109116","0.0-4.0-2.0","39","1","2025-07-30 08:42:10","36c45c0696341be0efffe67d72a12abb","102.209.191.18","Mozilla/5.0 (Windows NT 10.0; Win64; x64) AppleWebKit/537.36 (KHTML, like Gecko) Chrome/138.0.0.0 Safari/537.36","WebKit","Chrome","138.0.0.0","Windows","10.0","https://app.prolific.com/","en-US,en;q=0.9","67d7fa657f5ac0292a291a38","687a360dabe5252b5ada7185","6889dab2cc4abddb0f9e52c9","0","67d7fa657f5ac0292a291a38","0","2025-07-30T08:44:01.930Z","","","","","","","","","","","","","","","","","","","","","","","","","","","","","","","","","","","","","","","","","",""
"89874.90000000596","","","","survey-template","7","198997","0.0-4.0-3.0","39","1","2025-07-30 08:42:10","36c45c0696341be0efffe67d72a12abb","102.209.191.18","Mozilla/5.0 (Windows NT 10.0; Win64; x64) AppleWebKit/537.36 (KHTML, like Gecko) Chrome/138.0.0.0 Safari/537.36","WebKit","Chrome","138.0.0.0","Windows","10.0","https://app.prolific.com/","en-US,en;q=0.9","67d7fa657f5ac0292a291a38","687a360dabe5252b5ada7185","6889dab2cc4abddb0f9e52c9","0","67d7fa657f5ac0292a291a38","0","2025-07-30T08:45:31.812Z","","","","drsp","{""Q01"":""5"",""Q02"":""5"",""Q03"":""2"",""Q04"":""5"",""Q05"":""5"",""Q06"":""5"",""Q07"":""5"",""Q08"":""3"",""Q09"":""4"",""Q10"":""4"",""Q11"":""5"",""Q12"":""0"",""Q13"":""5"",""Q14"":""0"",""Q15"":""0"",""Q16"":""5"",""Q17"":""5"",""Q18"":""5"",""Q19"":""5"",""Q20"":""5"",""Q21"":""5"",""Q22"":""5""}","[0,1,2,3,4,5,6,7,8,9,10,11,12,13,14,15,16,17,18,19,20,21]","[""Q01"",""Q02"",""Q03"",""Q04"",""Q05"",""Q06"",""Q07"",""Q08"",""Q09"",""Q10"",""Q11"",""Q12"",""Q13"",""Q14"",""Q15"",""Q15"",""Q16"",""Q17"",""Q18"",""Q19"",""Q20"",""Q21"",""Q22""]","[3207,4536,7133.5999999940395,9572.5,10871.5,12963.300000011921,14569.699999988079,17296.5,25059,27290.30000001192,30810.09999999404,33625.59999999404,37036.19999998808,41448.5,44690.80000001192,62981.80000001192,65281.90000000596,68554.19999998808,71429.30000001192,76257.30000001192,81373.09999999404,85576.40000000596,88700]","[]","[0.4000000059604645,3207,4536,7133.5999999940395,9572.5,10871.5,12963.300000011921,14569.699999988079,17296.5,19011.69999998808,25059,27290.30000001192,30810.09999999404,33625.59999999404,37036.19999998808,41448.5,44690.80000001192,45583.09999999404,57162.90000000596,62981.80000001192,65281.90000000596,68554.19999998808,70021.30000001192,71429.30000001192,76257.30000001192,81373.09999999404,85576.40000000596,88700,89869.80000001192]","0.6818181818181818","0.2857142857142857","0","","","","","","","","","","","","","","","","","","","","","","","","","","","","",""
"36466.90000000596","","","","survey-template","8","235467","0.0-4.0-4.0","39","1","2025-07-30 08:42:10","36c45c0696341be0efffe67d72a12abb","102.209.191.18","Mozilla/5.0 (Windows NT 10.0; Win64; x64) AppleWebKit/537.36 (KHTML, like Gecko) Chrome/138.0.0.0 Safari/537.36","WebKit","Chrome","138.0.0.0","Windows","10.0","https://app.prolific.com/","en-US,en;q=0.9","67d7fa657f5ac0292a291a38","687a360dabe5252b5ada7185","6889dab2cc4abddb0f9e52c9","0","67d7fa657f5ac0292a291a38","0","2025-07-30T08:46:08.281Z","","","","stress","{""Q01"":""5"",""Q02"":""5"",""Q03"":""5""}","[0,1,2]","[""Q01"",""Q02"",""Q03"",""Q03""]","[7456.4000000059605,29148.70000001788,33164.10000002384,33223.10000002384]","[]","[7456.4000000059605,29148.70000001788,33164.10000002384,33223.10000002384,36465.60000002384]","0.6666666666666666","1","0","","","","","","","","","","","","","","","","","","","","","","","","","","","","",""
"45839","","","","instructions","9","281308","0.0-5.0-0.0","39","1","2025-07-30 08:42:10","36c45c0696341be0efffe67d72a12abb","102.209.191.18","Mozilla/5.0 (Windows NT 10.0; Win64; x64) AppleWebKit/537.36 (KHTML, like Gecko) Chrome/138.0.0.0 Safari/537.36","WebKit","Chrome","138.0.0.0","Windows","10.0","https://app.prolific.com/","en-US,en;q=0.9","67d7fa657f5ac0292a291a38","687a360dabe5252b5ada7185","6889dab2cc4abddb0f9e52c9","0","67d7fa657f5ac0292a291a38","0","","","","","","","","","","","","","","","[{""page_index"":0,""viewing_time"":45838}]","","","","","","","","","","","","","","","","","","","","","","","","","","","",""
"15387","","<p>Before you start with this game please answer the following three questions yourself. </p>
  <p>Through this game, we measure several aspects of your cognitive performance, such as reaction times, multi-tasking capabilities </p>
  <p>and the ability to assess the situation you are in.</p>
  <p></p>
  <p><b>How good do you usually are in such tasks?</b></p>","100","html-slider-response","10","296773","0.0-6.0-0.0","39","1","2025-07-30 08:42:10","36c45c0696341be0efffe67d72a12abb","102.209.191.18","Mozilla/5.0 (Windows NT 10.0; Win64; x64) AppleWebKit/537.36 (KHTML, like Gecko) Chrome/138.0.0.0 Safari/537.36","WebKit","Chrome","138.0.0.0","Windows","10.0","https://app.prolific.com/","en-US,en;q=0.9","67d7fa657f5ac0292a291a38","687a360dabe5252b5ada7185","6889dab2cc4abddb0f9e52c9","0","67d7fa657f5ac0292a291a38","0","2025-07-30T08:47:09.587Z","","","","PreSkillQ","","","","","","","","","","","50","","","","","","","","","","","","","","","","","","","","","","","","","","",""
"6015","","<div style=""width:500px;"">
  <p>How well do you think you will perform in this task compared to other participants?</p>
  </div>","100","html-slider-response","11","302791","0.0-6.0-1.0","39","1","2025-07-30 08:42:10","36c45c0696341be0efffe67d72a12abb","102.209.191.18","Mozilla/5.0 (Windows NT 10.0; Win64; x64) AppleWebKit/537.36 (KHTML, like Gecko) Chrome/138.0.0.0 Safari/537.36","WebKit","Chrome","138.0.0.0","Windows","10.0","https://app.prolific.com/","en-US,en;q=0.9","67d7fa657f5ac0292a291a38","687a360dabe5252b5ada7185","6889dab2cc4abddb0f9e52c9","0","67d7fa657f5ac0292a291a38","0","2025-07-30T08:47:15.605Z","","","","PrePerfQ","","","","","","","","","","","50","","","","","","","","","","","","","","","","","","","","","","","","","","",""
"7920","","<div style=""width:500px;"">
  <p>What best describes how you currently feel?</p>
  </div>","100","html-slider-response","12","310713","0.0-6.0-2.0","39","1","2025-07-30 08:42:10","36c45c0696341be0efffe67d72a12abb","102.209.191.18","Mozilla/5.0 (Windows NT 10.0; Win64; x64) AppleWebKit/537.36 (KHTML, like Gecko) Chrome/138.0.0.0 Safari/537.36","WebKit","Chrome","138.0.0.0","Windows","10.0","https://app.prolific.com/","en-US,en;q=0.9","67d7fa657f5ac0292a291a38","687a360dabe5252b5ada7185","6889dab2cc4abddb0f9e52c9","0","67d7fa657f5ac0292a291a38","0","2025-07-30T08:47:23.527Z","","","","PreMotivationQ","","","","","","","","","","","50","","","","","","","","","","","","","","","","","","","","","","","","","","",""
"","","","","ctl-task-cpt","13","343685","0.0-7.0-0.0","39","1","2025-07-30 08:42:10","36c45c0696341be0efffe67d72a12abb","102.209.191.18","Mozilla/5.0 (Windows NT 10.0; Win64; x64) AppleWebKit/537.36 (KHTML, like Gecko) Chrome/138.0.0.0 Safari/537.36","WebKit","Chrome","138.0.0.0","Windows","10.0","https://app.prolific.com/","en-US,en;q=0.9","67d7fa657f5ac0292a291a38","687a360dabe5252b5ada7185","6889dab2cc4abddb0f9e52c9","0","67d7fa657f5ac0292a291a38","0","2025-07-30T08:47:56.499Z","","","","","","","","","","","","","","","","win-only","2","g1:SE,g2:NW","1","1","0","313718.2","4361.3","9365.7","29962.5","1","4","4","6","2","4","3","3","0","0.022727272727272728","2466.5","3000","895","[""left"",""up""]","{""num_key_presses"":7,""num_perfect"":6,""num_errors"":1,""num_randdir"":0,""num_randdir_good_moves"":0,""num_whilered"":0,""num_whileblue"":0,""num_blue"":1,""num_good_moves"":6}","[297.22232142857143,300.12857142857143,0.5,297.22232142857143,300.12857142857143,156.8,297.22232142857143,300.12857142857143,268.7,297.22232142857143,300.12857142857143,369.7,297.22232142857143,300.12857142857143,474.6,297.22232142857143,300.12857142857143,583.2,297.22232142857143,300.12857142857143,684.3,297.22232142857143,300.12857142857143,784.6,297.22232142857143,300.12857142857143,884.6,297.22232142857143,300.12857142857143,984.7,297.22232142857143,300.12857142857143,1089.5,297.22232142857143,300.12857142857143,1190.9,297.22232142857143,300.12857142857143,1300.1,254.22232142857143,264.12857142857143,1404.3,246.22232142857143,259.12857142857143,1504.9,246.22232142857143,259.12857142857143,1620.1,158.22232142857143,136.12857142857143,1721.1,85.22232142857143,50.128571428571426,1826.1,85.22232142857143,50.128571428571426,1928,85.22232142857143,50.128571428571426,2029.6,77.22232142857143,51.128571428571426,2240.6,74.22232142857143,51.128571428571426,2346,74.22232142857143,51.128571428571426,2450.7,74.22232142857143,51.128571428571426,2555.5,74.22232142857143,51.128571428571426,2660.4,74.22232142857143,51.128571428571426,2764.2,74.22232142857143,51.128571428571426,2870.2,74.22232142857143,51.128571428571426,2974.1,74.22232142857143,51.128571428571426,3074.4,74.22232142857143,51.128571428571426,3174.8,74.22232142857143,51.128571428571426,3281.3,74.22232142857143,51.128571428571426,3384.8,74.22232142857143,51.128571428571426,3489,74.22232142857143,51.128571428571426,3589.4,74.22232142857143,51.128571428571426,3690.6,74.22232142857143,51.128571428571426,3794.3,74.22232142857143,51.128571428571426,3894.5,74.22232142857143,51.128571428571426,3994.6,74.22232142857143,51.128571428571426,4096,74.22232142857143,51.128571428571426,4199.5,74.22232142857143,51.128571428571426,4299.9,74.22232142857143,51.128571428571426,4404.5,74.22232142857143,51.128571428571426,4510.6,74.22232142857143,51.128571428571426,4615.2,74.22232142857143,51.128571428571426,4716.6,74.22232142857143,51.128571428571426,4820.9,74.22232142857143,51.128571428571426,4924.5]","[1579.6,1579.6,1000,0,579.6,""smooth"",""up"",""up"",""good_move"",4735.5,3154.5,2775.6,1581.1,378.8,""smooth"",""up"",""up"",""good_move"",7593.3,2857.4,2447.7,4735.9,409.7,""smooth"",""up"",""up"",""good_move"",14195.2,6600.6,2813.5,10950.3,431.4,""smooth"",""left"",""left"",""good_move"",16409.3,2213.3,1698.3,14196,515,""smooth"",""left"",""left"",""good_move"",16626.2,216.5,2404.5,16409.8,-2188.1,""error"",""-"",""-"",""no_move"",20473.4,3846.1,2409.7,17631.7,432,""smooth"",""left"",""left"",""good_move""]"
"5332","","<div style=""width:500px;"">
  <p>What determined the result of this run?</p>
  </div>","88","html-slider-response","14","349020","0.0-7.0-1.0","39","1","2025-07-30 08:42:10","36c45c0696341be0efffe67d72a12abb","102.209.191.18","Mozilla/5.0 (Windows NT 10.0; Win64; x64) AppleWebKit/537.36 (KHTML, like Gecko) Chrome/138.0.0.0 Safari/537.36","WebKit","Chrome","138.0.0.0","Windows","10.0","https://app.prolific.com/","en-US,en;q=0.9","67d7fa657f5ac0292a291a38","687a360dabe5252b5ada7185","6889dab2cc4abddb0f9e52c9","0","67d7fa657f5ac0292a291a38","0","2025-07-30T08:48:01.834Z","","","","AttribQ","","","","","","","","","","","50","","","","","","","","","","","","","","","","","","","","","","","","","","",""
"4350","","<div style=""width:500px;"">
  <p>How much control did you have over the ball?</p>
  </div>","98","html-slider-response","15","353373","0.0-7.0-2.0","39","1","2025-07-30 08:42:10","36c45c0696341be0efffe67d72a12abb","102.209.191.18","Mozilla/5.0 (Windows NT 10.0; Win64; x64) AppleWebKit/537.36 (KHTML, like Gecko) Chrome/138.0.0.0 Safari/537.36","WebKit","Chrome","138.0.0.0","Windows","10.0","https://app.prolific.com/","en-US,en;q=0.9","67d7fa657f5ac0292a291a38","687a360dabe5252b5ada7185","6889dab2cc4abddb0f9e52c9","0","67d7fa657f5ac0292a291a38","0","2025-07-30T08:48:06.187Z","","","","ControlQ","","","","","","","","","","","50","","","","","","","","","","","","","","","","","","","","","","","","","","",""
"5878","","<div style=""width:500px;"">
  <p>How would you describe your current emotional state?</p>
  </div>","1","html-slider-response","16","359252","0.0-7.0-3.0","39","1","2025-07-30 08:42:10","36c45c0696341be0efffe67d72a12abb","102.209.191.18","Mozilla/5.0 (Windows NT 10.0; Win64; x64) AppleWebKit/537.36 (KHTML, like Gecko) Chrome/138.0.0.0 Safari/537.36","WebKit","Chrome","138.0.0.0","Windows","10.0","https://app.prolific.com/","en-US,en;q=0.9","67d7fa657f5ac0292a291a38","687a360dabe5252b5ada7185","6889dab2cc4abddb0f9e52c9","0","67d7fa657f5ac0292a291a38","0","2025-07-30T08:48:12.066Z","","","","StressQ","","","","","","","","","","","50","","","","","","","","","","","","","","","","","","","","","","","","","","",""
"3359","","<div style=""width:500px;"">
  <p>What best describes how you currently feel?</p>
  </div>","99","html-slider-response","17","362613","0.0-7.0-4.0","39","1","2025-07-30 08:42:10","36c45c0696341be0efffe67d72a12abb","102.209.191.18","Mozilla/5.0 (Windows NT 10.0; Win64; x64) AppleWebKit/537.36 (KHTML, like Gecko) Chrome/138.0.0.0 Safari/537.36","WebKit","Chrome","138.0.0.0","Windows","10.0","https://app.prolific.com/","en-US,en;q=0.9","67d7fa657f5ac0292a291a38","687a360dabe5252b5ada7185","6889dab2cc4abddb0f9e52c9","0","67d7fa657f5ac0292a291a38","0","2025-07-30T08:48:15.428Z","","","","MotivationQ","","","","","","","","","","","50","","","","","","","","","","","","","","","","","","","","","","","","","","",""
"","","","","ctl-task-cpt","18","398221","0.0-7.0-0.1","39","1","2025-07-30 08:42:10","36c45c0696341be0efffe67d72a12abb","102.209.191.18","Mozilla/5.0 (Windows NT 10.0; Win64; x64) AppleWebKit/537.36 (KHTML, like Gecko) Chrome/138.0.0.0 Safari/537.36","WebKit","Chrome","138.0.0.0","Windows","10.0","https://app.prolific.com/","en-US,en;q=0.9","67d7fa657f5ac0292a291a38","687a360dabe5252b5ada7185","6889dab2cc4abddb0f9e52c9","0","67d7fa657f5ac0292a291a38","0","2025-07-30T08:48:51.035Z","","","","","","","","","","","","","","","","win-only","1","g1:NE,g2:SW","0.9","2","0","365616","2043.1","7046.2","32588.7","1","4","8","6","2","-8","-8","0","3","0","2586","3000","-2565","[""down"",""left""]","{""num_key_presses"":7,""num_perfect"":6,""num_errors"":0,""num_randdir"":1,""num_randdir_good_moves"":0,""num_whilered"":0,""num_whileblue"":0,""num_blue"":1,""num_good_moves"":6}","[296.22232142857143,299.12857142857143,0.3,296.22232142857143,299.12857142857143,102.5,296.22232142857143,299.12857142857143,202.9,296.22232142857143,299.12857142857143,307.6,296.22232142857143,299.12857142857143,415.7,296.22232142857143,299.12857142857143,516.7,296.22232142857143,299.12857142857143,617.7,296.22232142857143,299.12857142857143,719.2,296.22232142857143,299.12857142857143,822.4,296.22232142857143,299.12857142857143,922.4,296.22232142857143,299.12857142857143,1023,296.22232142857143,299.12857142857143,1123.2,296.22232142857143,299.12857142857143,1231.5,296.22232142857143,299.12857142857143,1333,296.22232142857143,299.12857142857143,1433.1,296.22232142857143,299.12857142857143,1538.6,296.22232142857143,299.12857142857143,1639.2,294.22232142857143,299.12857142857143,1748.9,64.22232142857143,497.12857142857143,1849.1,-12.777678571428574,554.1285714285714,1953.1,-17.777678571428574,554.1285714285714,2059.6,-12.777678571428574,554.1285714285714,2165.8,29.222321428571426,550.1285714285714,2267.2,43.222321428571426,547.1285714285714,2368.3,44.222321428571426,546.1285714285714,2472.6,44.222321428571426,546.1285714285714,2574.6,44.222321428571426,546.1285714285714,2680.5,44.222321428571426,546.1285714285714,2782.2,44.222321428571426,546.1285714285714,2883,44.222321428571426,546.1285714285714,2983.1,44.222321428571426,546.1285714285714,3087.6,44.222321428571426,546.1285714285714,3187.6,44.222321428571426,546.1285714285714,3298.3,44.222321428571426,546.1285714285714,3403.3,44.222321428571426,546.1285714285714,3508.6,44.222321428571426,546.1285714285714,3614.7,44.222321428571426,546.1285714285714,3715.6,44.222321428571426,546.1285714285714,3818.7,44.222321428571426,546.1285714285714,3922.5,44.222321428571426,546.1285714285714,4031.6,44.222321428571426,546.1285714285714,4132.1,44.222321428571426,546.1285714285714,4232.8,44.222321428571426,546.1285714285714,4334.1,44.222321428571426,546.1285714285714,4438,44.222321428571426,546.1285714285714,4548.9,44.222321428571426,546.1285714285714,4652.9,44.222321428571426,546.1285714285714,4765,44.222321428571426,546.1285714285714,4865.1,44.222321428571426,546.1285714285714,4965.1]","[1427.6,1427.6,1000,0.1,427.5,""smooth"",""down"",""down"",""good_move"",4460.3,3032.2,2598,1428.1,434.2,""smooth"",""down"",""down"",""good_move"",7159.7,2698.8,2291.4,4460.9,407.4,""smooth"",""down"",""down"",""good_move"",14193.2,7033.3,2351.5,11476.4,365.3,""smooth"",""left"",""left"",""good_move"",17422.3,3228.6,2537.7,14193.7,690.9,""oops"",""left"",""right"",""bad_move"",19560,2134.9,1701.7,17425.1,433.2,""smooth"",""left"",""left"",""good_move"",22848.3,3288.1,2978.6,19560.3,309.4,""smooth"",""left"",""left"",""good_move""]"
"4590","","<div style=""width:500px;"">
  <p>What determined the result of this run?</p>
  </div>","17","html-slider-response","19","402813","0.0-7.0-1.1","39","1","2025-07-30 08:42:10","36c45c0696341be0efffe67d72a12abb","102.209.191.18","Mozilla/5.0 (Windows NT 10.0; Win64; x64) AppleWebKit/537.36 (KHTML, like Gecko) Chrome/138.0.0.0 Safari/537.36","WebKit","Chrome","138.0.0.0","Windows","10.0","https://app.prolific.com/","en-US,en;q=0.9","67d7fa657f5ac0292a291a38","687a360dabe5252b5ada7185","6889dab2cc4abddb0f9e52c9","0","67d7fa657f5ac0292a291a38","0","2025-07-30T08:48:55.628Z","","","","AttribQ","","","","","","","","","","","50","","","","","","","","","","","","","","","","","","","","","","","","","","",""
"4608","","<div style=""width:500px;"">
  <p>How much control did you have over the ball?</p>
  </div>","1","html-slider-response","20","407423","0.0-7.0-2.1","39","1","2025-07-30 08:42:10","36c45c0696341be0efffe67d72a12abb","102.209.191.18","Mozilla/5.0 (Windows NT 10.0; Win64; x64) AppleWebKit/537.36 (KHTML, like Gecko) Chrome/138.0.0.0 Safari/537.36","WebKit","Chrome","138.0.0.0","Windows","10.0","https://app.prolific.com/","en-US,en;q=0.9","67d7fa657f5ac0292a291a38","687a360dabe5252b5ada7185","6889dab2cc4abddb0f9e52c9","0","67d7fa657f5ac0292a291a38","0","2025-07-30T08:49:00.237Z","","","","ControlQ","","","","","","","","","","","50","","","","","","","","","","","","","","","","","","","","","","","","","","",""
"3449","","<div style=""width:500px;"">
  <p>How would you describe your current emotional state?</p>
  </div>","58","html-slider-response","21","410874","0.0-7.0-3.1","39","1","2025-07-30 08:42:10","36c45c0696341be0efffe67d72a12abb","102.209.191.18","Mozilla/5.0 (Windows NT 10.0; Win64; x64) AppleWebKit/537.36 (KHTML, like Gecko) Chrome/138.0.0.0 Safari/537.36","WebKit","Chrome","138.0.0.0","Windows","10.0","https://app.prolific.com/","en-US,en;q=0.9","67d7fa657f5ac0292a291a38","687a360dabe5252b5ada7185","6889dab2cc4abddb0f9e52c9","0","67d7fa657f5ac0292a291a38","0","2025-07-30T08:49:03.688Z","","","","StressQ","","","","","","","","","","","50","","","","","","","","","","","","","","","","","","","","","","","","","","",""
"6217","","<div style=""width:500px;"">
  <p>What best describes how you currently feel?</p>
  </div>","60","html-slider-response","22","417093","0.0-7.0-4.1","39","1","2025-07-30 08:42:10","36c45c0696341be0efffe67d72a12abb","102.209.191.18","Mozilla/5.0 (Windows NT 10.0; Win64; x64) AppleWebKit/537.36 (KHTML, like Gecko) Chrome/138.0.0.0 Safari/537.36","WebKit","Chrome","138.0.0.0","Windows","10.0","https://app.prolific.com/","en-US,en;q=0.9","67d7fa657f5ac0292a291a38","687a360dabe5252b5ada7185","6889dab2cc4abddb0f9e52c9","0","67d7fa657f5ac0292a291a38","0","2025-07-30T08:49:09.908Z","","","","MotivationQ","","","","","","","","","","","50","","","","","","","","","","","","","","","","","","","","","","","","","","",""
"","","","","ctl-task-cpt","23","441414","0.0-7.0-0.2","39","1","2025-07-30 08:42:10","36c45c0696341be0efffe67d72a12abb","102.209.191.18","Mozilla/5.0 (Windows NT 10.0; Win64; x64) AppleWebKit/537.36 (KHTML, like Gecko) Chrome/138.0.0.0 Safari/537.36","WebKit","Chrome","138.0.0.0","Windows","10.0","https://app.prolific.com/","en-US,en;q=0.9","67d7fa657f5ac0292a291a38","687a360dabe5252b5ada7185","6889dab2cc4abddb0f9e52c9","0","67d7fa657f5ac0292a291a38","0","2025-07-30T08:49:34.228Z","","","","","","","","","","","","","","","","win-only","3","g1:SW,g2:NE","0.8","3","0","420098.1","1927.5","6931.5","21302","1","4","4","6","2","4","3","3","0","0.022727272727272728","1792.6","3000","1095","[""up"",""right""]","{""num_key_presses"":6,""num_perfect"":4,""num_errors"":1,""num_randdir"":1,""num_randdir_good_moves"":1,""num_whilered"":0,""num_whileblue"":1,""num_blue"":1,""num_good_moves"":6}","[295.22232142857143,296.12857142857143,0.1,295.22232142857143,296.12857142857143,104.1,295.22232142857143,296.12857142857143,204.1,295.22232142857143,296.12857142857143,304.6,295.22232142857143,296.12857142857143,411.5,295.22232142857143,296.12857142857143,513.5,295.22232142857143,296.12857142857143,615.1,295.22232142857143,296.12857142857143,728.8,295.22232142857143,296.12857142857143,828.8,376.22232142857143,189.12857142857143,946.4,499.22232142857143,49.128571428571426,1048.4,499.22232142857143,49.128571428571426,1150,499.22232142857143,49.128571428571426,1262,499.22232142857143,49.128571428571426,1362.9,509.22232142857143,51.128571428571426,1464.8,527.2223214285714,53.128571428571426,1570.3,529.2223214285714,53.128571428571426,1675.7,529.2223214285714,53.128571428571426,1776.6,529.2223214285714,53.128571428571426,1878.8,529.2223214285714,53.128571428571426,1979.8,529.2223214285714,53.128571428571426,2083.6,529.2223214285714,53.128571428571426,2183.8,529.2223214285714,53.128571428571426,2293,529.2223214285714,53.128571428571426,2393.3,529.2223214285714,53.128571428571426,2496,529.2223214285714,53.128571428571426,2598.7,529.2223214285714,53.128571428571426,2698.7,529.2223214285714,53.128571428571426,2804.2,529.2223214285714,53.128571428571426,2909.3,529.2223214285714,53.128571428571426,3009.7,529.2223214285714,53.128571428571426,3110.1,529.2223214285714,53.128571428571426,3213,529.2223214285714,53.128571428571426,3313.5,529.2223214285714,53.128571428571426,3427.7,529.2223214285714,53.128571428571426,3528.2,529.2223214285714,53.128571428571426,3628.5,529.2223214285714,53.128571428571426,3729.7,529.2223214285714,53.128571428571426,3844.5,529.2223214285714,53.128571428571426,3951.9,529.2223214285714,53.128571428571426,4055.6,529.2223214285714,53.128571428571426,4160.3,529.2223214285714,53.128571428571426,4263.6,529.2223214285714,53.128571428571426,4377.3,529.2223214285714,53.128571428571426,4479.8,529.2223214285714,53.128571428571426,4583.1,529.2223214285714,53.128571428571426,4684,529.2223214285714,53.128571428571426,4784.4,529.2223214285714,53.128571428571426,4884.6,529.2223214285714,53.128571428571426,4993.8]","[1824.1,1824.1,1000,0,824.1,""smooth"",""up"",""up"",""good_move"",3973,2148.6,1772.1,1824.4,376.5,""smooth"",""up"",""up"",""good_move"",6647.7,2674.5,2346.2,3973.2,328.3,""oops"",""up"",""right"",""good_move"",9009.2,2360.4,1975.3,6648.8,385.1,""smooth"",""up"",""up"",""good_move"",11937.5,2928.1,2560.2,9009.5,367.9,""smooth"",""right"",""right"",""good_move"",14274.1,2336.3,1981.5,11937.8,354.8,""while_blue"",""right"",""right"",""good_move""]"
"4505","","<div style=""width:500px;"">
  <p>What determined the result of this run?</p>
  </div>","96","html-slider-response","24","445921","0.0-7.0-1.2","39","1","2025-07-30 08:42:10","36c45c0696341be0efffe67d72a12abb","102.209.191.18","Mozilla/5.0 (Windows NT 10.0; Win64; x64) AppleWebKit/537.36 (KHTML, like Gecko) Chrome/138.0.0.0 Safari/537.36","WebKit","Chrome","138.0.0.0","Windows","10.0","https://app.prolific.com/","en-US,en;q=0.9","67d7fa657f5ac0292a291a38","687a360dabe5252b5ada7185","6889dab2cc4abddb0f9e52c9","0","67d7fa657f5ac0292a291a38","0","2025-07-30T08:49:38.735Z","","","","AttribQ","","","","","","","","","","","50","","","","","","","","","","","","","","","","","","","","","","","","","","",""
"3098","","<div style=""width:500px;"">
  <p>How much control did you have over the ball?</p>
  </div>","67","html-slider-response","25","449024","0.0-7.0-2.2","39","1","2025-07-30 08:42:10","36c45c0696341be0efffe67d72a12abb","102.209.191.18","Mozilla/5.0 (Windows NT 10.0; Win64; x64) AppleWebKit/537.36 (KHTML, like Gecko) Chrome/138.0.0.0 Safari/537.36","WebKit","Chrome","138.0.0.0","Windows","10.0","https://app.prolific.com/","en-US,en;q=0.9","67d7fa657f5ac0292a291a38","687a360dabe5252b5ada7185","6889dab2cc4abddb0f9e52c9","0","67d7fa657f5ac0292a291a38","0","2025-07-30T08:49:41.838Z","","","","ControlQ","","","","","","","","","","","50","","","","","","","","","","","","","","","","","","","","","","","","","","",""
"3418","","<div style=""width:500px;"">
  <p>How would you describe your current emotional state?</p>
  </div>","41","html-slider-response","26","452444","0.0-7.0-3.2","39","1","2025-07-30 08:42:10","36c45c0696341be0efffe67d72a12abb","102.209.191.18","Mozilla/5.0 (Windows NT 10.0; Win64; x64) AppleWebKit/537.36 (KHTML, like Gecko) Chrome/138.0.0.0 Safari/537.36","WebKit","Chrome","138.0.0.0","Windows","10.0","https://app.prolific.com/","en-US,en;q=0.9","67d7fa657f5ac0292a291a38","687a360dabe5252b5ada7185","6889dab2cc4abddb0f9e52c9","0","67d7fa657f5ac0292a291a38","0","2025-07-30T08:49:45.258Z","","","","StressQ","","","","","","","","","","","50","","","","","","","","","","","","","","","","","","","","","","","","","","",""
"4093","","<div style=""width:500px;"">
  <p>What best describes how you currently feel?</p>
  </div>","69","html-slider-response","27","456539","0.0-7.0-4.2","39","1","2025-07-30 08:42:10","36c45c0696341be0efffe67d72a12abb","102.209.191.18","Mozilla/5.0 (Windows NT 10.0; Win64; x64) AppleWebKit/537.36 (KHTML, like Gecko) Chrome/138.0.0.0 Safari/537.36","WebKit","Chrome","138.0.0.0","Windows","10.0","https://app.prolific.com/","en-US,en;q=0.9","67d7fa657f5ac0292a291a38","687a360dabe5252b5ada7185","6889dab2cc4abddb0f9e52c9","0","67d7fa657f5ac0292a291a38","0","2025-07-30T08:49:49.353Z","","","","MotivationQ","","","","","","","","","","","50","","","","","","","","","","","","","","","","","","","","","","","","","","",""
"","","","","ctl-task-cpt","28","488812","0.0-7.0-0.3","39","1","2025-07-30 08:42:10","36c45c0696341be0efffe67d72a12abb","102.209.191.18","Mozilla/5.0 (Windows NT 10.0; Win64; x64) AppleWebKit/537.36 (KHTML, like Gecko) Chrome/138.0.0.0 Safari/537.36","WebKit","Chrome","138.0.0.0","Windows","10.0","https://app.prolific.com/","en-US,en;q=0.9","67d7fa657f5ac0292a291a38","687a360dabe5252b5ada7185","6889dab2cc4abddb0f9e52c9","0","67d7fa657f5ac0292a291a38","0","2025-07-30T08:50:21.626Z","","","","","","","","","","","","","","","","win-only","3","g1:SW,g2:NE","0.7","4","0","459543.7","1704.4","6706","29252.8","1","4","8","6","2","8","8","11","3","0.08333333333333333","2368.8","3000","800","[""up"",""right""]","{""num_key_presses"":6,""num_perfect"":3,""num_errors"":0,""num_randdir"":3,""num_randdir_good_moves"":3,""num_whilered"":0,""num_whileblue"":0,""num_blue"":2,""num_good_moves"":6}","[296.22232142857143,292.12857142857143,0.4,296.22232142857143,292.12857142857143,102.5,296.22232142857143,292.12857142857143,205,296.22232142857143,292.12857142857143,318.3,296.22232142857143,292.12857142857143,421.9,296.22232142857143,292.12857142857143,535.6,296.22232142857143,292.12857142857143,636.2,296.22232142857143,292.12857142857143,736.5,303.22232142857143,268.12857142857143,836.5,323.22232142857143,253.12857142857143,948.6,323.22232142857143,253.12857142857143,1054.1,335.22232142857143,211.12857142857143,1159.8,463.22232142857143,60.128571428571426,1268.8,499.22232142857143,38.128571428571426,1371.8,503.22232142857143,36.128571428571426,1477,503.22232142857143,36.128571428571426,1586,503.22232142857143,49.128571428571426,1686,503.22232142857143,54.128571428571426,1787.3,503.22232142857143,54.128571428571426,1888.2,503.22232142857143,54.128571428571426,1993,504.22232142857143,54.128571428571426,2096.3,515.2223214285714,50.128571428571426,2197.1,515.2223214285714,50.128571428571426,2302.2,515.2223214285714,50.128571428571426,2403.1,515.2223214285714,50.128571428571426,2506,515.2223214285714,50.128571428571426,2607.7,515.2223214285714,50.128571428571426,2720.2,515.2223214285714,50.128571428571426,2822,515.2223214285714,50.128571428571426,2926.8,515.2223214285714,50.128571428571426,3037.1,515.2223214285714,50.128571428571426,3148.7,515.2223214285714,50.128571428571426,3252.8,515.2223214285714,50.128571428571426,3368.1,515.2223214285714,50.128571428571426,3468.9,515.2223214285714,50.128571428571426,3572.2,515.2223214285714,50.128571428571426,3685.4,515.2223214285714,50.128571428571426,3786.4,515.2223214285714,50.128571428571426,3902,515.2223214285714,50.128571428571426,4002.5,515.2223214285714,50.128571428571426,4106,515.2223214285714,50.128571428571426,4209.2,515.2223214285714,50.128571428571426,4313,515.2223214285714,50.128571428571426,4418.2,515.2223214285714,50.128571428571426,4518.2,515.2223214285714,50.128571428571426,4621.8,515.2223214285714,50.128571428571426,4722.4,515.2223214285714,50.128571428571426,4822.6,515.2223214285714,50.128571428571426,4922.8]","[1446.7,1446.7,1000,0,446.7,""oops"",""up"",""right"",""good_move"",4748.2,3300.6,2403.8,1447.6,896.8,""smooth"",""up"",""up"",""good_move"",8496.4,3747.8,3338.4,4748.6,409.4,""smooth"",""up"",""up"",""good_move"",14171.7,5674.4,2281.3,11451.8,438.6,""oops"",""up"",""up"",""good_move"",19728.6,5556,2070.5,17218.6,439.5,""oops"",""right"",""right"",""good_move"",22431.7,2702.3,2258.3,19729.5,443.9,""smooth"",""right"",""right"",""good_move""]"
"5576","","<div style=""width:500px;"">
  <p>What determined the result of this run?</p>
  </div>","79","html-slider-response","29","494390","0.0-7.0-1.3","39","1","2025-07-30 08:42:10","36c45c0696341be0efffe67d72a12abb","102.209.191.18","Mozilla/5.0 (Windows NT 10.0; Win64; x64) AppleWebKit/537.36 (KHTML, like Gecko) Chrome/138.0.0.0 Safari/537.36","WebKit","Chrome","138.0.0.0","Windows","10.0","https://app.prolific.com/","en-US,en;q=0.9","67d7fa657f5ac0292a291a38","687a360dabe5252b5ada7185","6889dab2cc4abddb0f9e52c9","0","67d7fa657f5ac0292a291a38","0","2025-07-30T08:50:27.204Z","","","","AttribQ","","","","","","","","","","","50","","","","","","","","","","","","","","","","","","","","","","","","","","",""
"4986","","<div style=""width:500px;"">
  <p>How much control did you have over the ball?</p>
  </div>","64","html-slider-response","30","499377","0.0-7.0-2.3","39","1","2025-07-30 08:42:10","36c45c0696341be0efffe67d72a12abb","102.209.191.18","Mozilla/5.0 (Windows NT 10.0; Win64; x64) AppleWebKit/537.36 (KHTML, like Gecko) Chrome/138.0.0.0 Safari/537.36","WebKit","Chrome","138.0.0.0","Windows","10.0","https://app.prolific.com/","en-US,en;q=0.9","67d7fa657f5ac0292a291a38","687a360dabe5252b5ada7185","6889dab2cc4abddb0f9e52c9","0","67d7fa657f5ac0292a291a38","0","2025-07-30T08:50:32.191Z","","","","ControlQ","","","","","","","","","","","50","","","","","","","","","","","","","","","","","","","","","","","","","","",""
"6411","","<div style=""width:500px;"">
  <p>How would you describe your current emotional state?</p>
  </div>","39","html-slider-response","31","505792","0.0-7.0-3.3","39","1","2025-07-30 08:42:10","36c45c0696341be0efffe67d72a12abb","102.209.191.18","Mozilla/5.0 (Windows NT 10.0; Win64; x64) AppleWebKit/537.36 (KHTML, like Gecko) Chrome/138.0.0.0 Safari/537.36","WebKit","Chrome","138.0.0.0","Windows","10.0","https://app.prolific.com/","en-US,en;q=0.9","67d7fa657f5ac0292a291a38","687a360dabe5252b5ada7185","6889dab2cc4abddb0f9e52c9","0","67d7fa657f5ac0292a291a38","0","2025-07-30T08:50:38.606Z","","","","StressQ","","","","","","","","","","","50","","","","","","","","","","","","","","","","","","","","","","","","","","",""
"3667","","<div style=""width:500px;"">
  <p>What best describes how you currently feel?</p>
  </div>","63","html-slider-response","32","509461","0.0-7.0-4.3","39","1","2025-07-30 08:42:10","36c45c0696341be0efffe67d72a12abb","102.209.191.18","Mozilla/5.0 (Windows NT 10.0; Win64; x64) AppleWebKit/537.36 (KHTML, like Gecko) Chrome/138.0.0.0 Safari/537.36","WebKit","Chrome","138.0.0.0","Windows","10.0","https://app.prolific.com/","en-US,en;q=0.9","67d7fa657f5ac0292a291a38","687a360dabe5252b5ada7185","6889dab2cc4abddb0f9e52c9","0","67d7fa657f5ac0292a291a38","0","2025-07-30T08:50:42.275Z","","","","MotivationQ","","","","","","","","","","","50","","","","","","","","","","","","","","","","","","","","","","","","","","",""
"","","","","ctl-task-cpt","33","552558","0.0-7.0-0.4","39","1","2025-07-30 08:42:10","36c45c0696341be0efffe67d72a12abb","102.209.191.18","Mozilla/5.0 (Windows NT 10.0; Win64; x64) AppleWebKit/537.36 (KHTML, like Gecko) Chrome/138.0.0.0 Safari/537.36","WebKit","Chrome","138.0.0.0","Windows","10.0","https://app.prolific.com/","en-US,en;q=0.9","67d7fa657f5ac0292a291a38","687a360dabe5252b5ada7185","6889dab2cc4abddb0f9e52c9","0","67d7fa657f5ac0292a291a38","0","2025-07-30T08:51:25.372Z","","","","","","","","","","","","","","","","win-only","1","g1:NE,g2:SW","0.6","5","0","512465.1","1492.8","6496.9","40081.6","1","4","4","6","2","4","3","14","11","0.10606060606060606","1697.8","3000","585","[""down"",""left""]","{""num_key_presses"":8,""num_perfect"":6,""num_errors"":1,""num_randdir"":1,""num_randdir_good_moves"":1,""num_whilered"":0,""num_whileblue"":1,""num_blue"":4,""num_good_moves"":7}","[297.22232142857143,302.12857142857143,0.3,297.22232142857143,302.12857142857143,102.8,297.22232142857143,302.12857142857143,208.9,297.22232142857143,302.12857142857143,309.9,297.22232142857143,302.12857142857143,419.1,297.22232142857143,302.12857142857143,521.8,297.22232142857143,302.12857142857143,622.1,216.22232142857143,359.12857142857143,723.5,161.22232142857143,418.12857142857143,838.5,161.22232142857143,418.12857142857143,944.1,146.22232142857143,442.12857142857143,1048.2,98.22232142857143,530.1285714285714,1148.6,78.22232142857143,559.1285714285714,1248.7,77.22232142857143,560.1285714285714,1354.5,66.22232142857143,555.1285714285714,1455.1,65.22232142857143,554.1285714285714,1570.4,65.22232142857143,554.1285714285714,1674.1,65.22232142857143,554.1285714285714,1786.8,65.22232142857143,554.1285714285714,1892.5,65.22232142857143,554.1285714285714,2007,65.22232142857143,554.1285714285714,2109.3,65.22232142857143,554.1285714285714,2219,65.22232142857143,554.1285714285714,2322.9,65.22232142857143,554.1285714285714,2423.6,65.22232142857143,554.1285714285714,2538,65.22232142857143,554.1285714285714,2639.7,65.22232142857143,554.1285714285714,2744,65.22232142857143,554.1285714285714,2844.4,65.22232142857143,554.1285714285714,2956.5,65.22232142857143,554.1285714285714,3072.6,65.22232142857143,554.1285714285714,3173,65.22232142857143,554.1285714285714,3278.6,65.22232142857143,554.1285714285714,3379.7,65.22232142857143,554.1285714285714,3486.3,65.22232142857143,554.1285714285714,3588.7,65.22232142857143,554.1285714285714,3689.2,65.22232142857143,554.1285714285714,3794.6,65.22232142857143,554.1285714285714,3905,65.22232142857143,554.1285714285714,4005,65.22232142857143,554.1285714285714,4114.1,65.22232142857143,554.1285714285714,4214.7,65.22232142857143,554.1285714285714,4317.8,65.22232142857143,554.1285714285714,4419.4,65.22232142857143,554.1285714285714,4522.1,65.22232142857143,554.1285714285714,4623.8,65.22232142857143,554.1285714285714,4733.3,65.22232142857143,554.1285714285714,4834.5,65.22232142857143,554.1285714285714,4938.2]","[4628.7,4628.7,2245.1,2013.7,370,""while_blue"",""down"",""right"",""bad_move"",8108,3477.3,2915.1,4630.7,562.2,""smooth"",""down"",""down"",""good_move"",18256.5,10147.6,1824.5,15780.3,651.8,""smooth"",""down"",""down"",""good_move"",21889.2,3631.5,3162.9,18257.7,468.6,""smooth"",""down"",""down"",""good_move"",24844.1,2954.5,2512,21889.7,442.4,""smooth"",""left"",""left"",""good_move"",27777.7,2932.9,2481.9,24844.8,451,""oops"",""left"",""left"",""good_move"",30528.3,2750.1,2313.6,27778.2,436.5,""smooth"",""left"",""left"",""good_move"",33457.3,2928.8,2515.4,30528.5,413.4,""smooth"",""left"",""left"",""good_move""]"
"5380","","<div style=""width:500px;"">
  <p>What determined the result of this run?</p>
  </div>","34","html-slider-response","34","557941","0.0-7.0-1.4","39","1","2025-07-30 08:42:10","36c45c0696341be0efffe67d72a12abb","102.209.191.18","Mozilla/5.0 (Windows NT 10.0; Win64; x64) AppleWebKit/537.36 (KHTML, like Gecko) Chrome/138.0.0.0 Safari/537.36","WebKit","Chrome","138.0.0.0","Windows","10.0","https://app.prolific.com/","en-US,en;q=0.9","67d7fa657f5ac0292a291a38","687a360dabe5252b5ada7185","6889dab2cc4abddb0f9e52c9","0","67d7fa657f5ac0292a291a38","0","2025-07-30T08:51:30.755Z","","","","AttribQ","","","","","","","","","","","50","","","","","","","","","","","","","","","","","","","","","","","","","","",""
"4460","","<div style=""width:500px;"">
  <p>How much control did you have over the ball?</p>
  </div>","65","html-slider-response","35","562402","0.0-7.0-2.4","39","1","2025-07-30 08:42:10","36c45c0696341be0efffe67d72a12abb","102.209.191.18","Mozilla/5.0 (Windows NT 10.0; Win64; x64) AppleWebKit/537.36 (KHTML, like Gecko) Chrome/138.0.0.0 Safari/537.36","WebKit","Chrome","138.0.0.0","Windows","10.0","https://app.prolific.com/","en-US,en;q=0.9","67d7fa657f5ac0292a291a38","687a360dabe5252b5ada7185","6889dab2cc4abddb0f9e52c9","0","67d7fa657f5ac0292a291a38","0","2025-07-30T08:51:35.216Z","","","","ControlQ","","","","","","","","","","","50","","","","","","","","","","","","","","","","","","","","","","","","","","",""
"4143","","<div style=""width:500px;"">
  <p>How would you describe your current emotional state?</p>
  </div>","43","html-slider-response","36","566547","0.0-7.0-3.4","39","1","2025-07-30 08:42:10","36c45c0696341be0efffe67d72a12abb","102.209.191.18","Mozilla/5.0 (Windows NT 10.0; Win64; x64) AppleWebKit/537.36 (KHTML, like Gecko) Chrome/138.0.0.0 Safari/537.36","WebKit","Chrome","138.0.0.0","Windows","10.0","https://app.prolific.com/","en-US,en;q=0.9","67d7fa657f5ac0292a291a38","687a360dabe5252b5ada7185","6889dab2cc4abddb0f9e52c9","0","67d7fa657f5ac0292a291a38","0","2025-07-30T08:51:39.361Z","","","","StressQ","","","","","","","","","","","50","","","","","","","","","","","","","","","","","","","","","","","","","","",""
"9417","","<div style=""width:500px;"">
  <p>What best describes how you currently feel?</p>
  </div>","100","html-slider-response","37","575966","0.0-7.0-4.4","39","1","2025-07-30 08:42:10","36c45c0696341be0efffe67d72a12abb","102.209.191.18","Mozilla/5.0 (Windows NT 10.0; Win64; x64) AppleWebKit/537.36 (KHTML, like Gecko) Chrome/138.0.0.0 Safari/537.36","WebKit","Chrome","138.0.0.0","Windows","10.0","https://app.prolific.com/","en-US,en;q=0.9","67d7fa657f5ac0292a291a38","687a360dabe5252b5ada7185","6889dab2cc4abddb0f9e52c9","0","67d7fa657f5ac0292a291a38","0","2025-07-30T08:51:48.780Z","","","","MotivationQ","","","","","","","","","","","50","","","","","","","","","","","","","","","","","","","","","","","","","","",""
"","","","","ctl-task-cpt","38","632286","0.0-7.0-0.5","39","1","2025-07-30 08:42:10","36c45c0696341be0efffe67d72a12abb","102.209.191.18","Mozilla/5.0 (Windows NT 10.0; Win64; x64) AppleWebKit/537.36 (KHTML, like Gecko) Chrome/138.0.0.0 Safari/537.36","WebKit","Chrome","138.0.0.0","Windows","10.0","https://app.prolific.com/","en-US,en;q=0.9","67d7fa657f5ac0292a291a38","687a360dabe5252b5ada7185","6889dab2cc4abddb0f9e52c9","0","67d7fa657f5ac0292a291a38","0","2025-07-30T08:52:45.101Z","","","","","","","","","","","","","","","","win-only","1","g1:NE,g2:SW","0.5","6","0","578973","1891","6891.9","53297.7","1","4","8","6","2","-8","-9","5","14","0.03787878787878788","1720.5","3000","-2090","[""down"",""left""]","{""num_key_presses"":10,""num_perfect"":5,""num_errors"":1,""num_randdir"":4,""num_randdir_good_moves"":1,""num_whilered"":0,""num_whileblue"":0,""num_blue"":4,""num_good_moves"":6}","[293.22232142857143,297.12857142857143,0.4,293.22232142857143,297.12857142857143,104,293.22232142857143,297.12857142857143,204.9,293.22232142857143,297.12857142857143,305.8,293.22232142857143,297.12857142857143,411.7,293.22232142857143,297.12857142857143,526.2,282.22232142857143,307.12857142857143,626.3,178.22232142857143,435.12857142857143,737.2,141.22232142857143,475.12857142857143,838.4,140.22232142857143,475.12857142857143,941.7,140.22232142857143,475.12857142857143,1057.8,107.22232142857143,513.1285714285714,1158.6,87.22232142857143,528.1285714285714,1262.1,71.22232142857143,535.1285714285714,1376.6,67.22232142857143,535.1285714285714,1476.7,65.22232142857143,533.1285714285714,1580.1,65.22232142857143,533.1285714285714,1687.3,65.22232142857143,533.1285714285714,1790.4,65.22232142857143,533.1285714285714,1894.2,65.22232142857143,533.1285714285714,1996.9,65.22232142857143,533.1285714285714,2097.3,65.22232142857143,533.1285714285714,2208.3,65.22232142857143,533.1285714285714,2309.3,65.22232142857143,533.1285714285714,2411,65.22232142857143,533.1285714285714,2524.3,65.22232142857143,533.1285714285714,2625.8,65.22232142857143,533.1285714285714,2730.8,65.22232142857143,533.1285714285714,2835.5,65.22232142857143,533.1285714285714,2937.3,65.22232142857143,533.1285714285714,3037.4,65.22232142857143,533.1285714285714,3139.8,65.22232142857143,533.1285714285714,3242.3,65.22232142857143,533.1285714285714,3346.6,65.22232142857143,533.1285714285714,3455.4,65.22232142857143,533.1285714285714,3559.4,65.22232142857143,533.1285714285714,3659.9,65.22232142857143,533.1285714285714,3760.2,65.22232142857143,533.1285714285714,3869.4,65.22232142857143,533.1285714285714,3970.4,65.22232142857143,533.1285714285714,4072.6,65.22232142857143,533.1285714285714,4174.9,65.22232142857143,533.1285714285714,4275.2,65.22232142857143,533.1285714285714,4376.6,65.22232142857143,533.1285714285714,4481.4,65.22232142857143,533.1285714285714,4587,65.22232142857143,533.1285714285714,4687.5,65.22232142857143,533.1285714285714,4790,65.22232142857143,533.1285714285714,4903.5]","[1386.1,1386.1,1000,0,386.1,""oops"",""down"",""up"",""bad_move"",5137,3750.4,3242.4,1386.6,508,""smooth"",""down"",""down"",""good_move"",8885.2,3747.7,3147.5,5137.5,600.2,""oops"",""down"",""left"",""good_move"",23153.2,14267.5,2951.6,19717.8,483.8,""oops"",""down"",""right"",""bad_move"",26103.1,2949.4,2506.3,23153.7,443.1,""smooth"",""down"",""down"",""good_move"",29835.5,3730.8,3163.2,26104.8,567.5,""smooth"",""down"",""down"",""good_move"",30069.1,232.7,2135.3,29836.4,-1902.6,""error"",""-"",""-"",""no_move"",33767,3697.5,2253.6,31084.5,428.9,""smooth"",""down"",""down"",""good_move"",40548.9,6780.8,3367,36785,396.9,""smooth"",""left"",""left"",""good_move"",43588.4,3038.9,2627.5,40549.5,411.5,""oops"",""left"",""up"",""bad_move""]"
"4617","","<div style=""width:500px;"">
  <p>What determined the result of this run?</p>
  </div>","0","html-slider-response","39","636905","0.0-7.0-1.5","39","1","2025-07-30 08:42:10","36c45c0696341be0efffe67d72a12abb","102.209.191.18","Mozilla/5.0 (Windows NT 10.0; Win64; x64) AppleWebKit/537.36 (KHTML, like Gecko) Chrome/138.0.0.0 Safari/537.36","WebKit","Chrome","138.0.0.0","Windows","10.0","https://app.prolific.com/","en-US,en;q=0.9","67d7fa657f5ac0292a291a38","687a360dabe5252b5ada7185","6889dab2cc4abddb0f9e52c9","0","67d7fa657f5ac0292a291a38","0","2025-07-30T08:52:49.719Z","","","","AttribQ","","","","","","","","","","","50","","","","","","","","","","","","","","","","","","","","","","","","","","",""
"4045","","<div style=""width:500px;"">
  <p>How much control did you have over the ball?</p>
  </div>","1","html-slider-response","40","640952","0.0-7.0-2.5","39","1","2025-07-30 08:42:10","36c45c0696341be0efffe67d72a12abb","102.209.191.18","Mozilla/5.0 (Windows NT 10.0; Win64; x64) AppleWebKit/537.36 (KHTML, like Gecko) Chrome/138.0.0.0 Safari/537.36","WebKit","Chrome","138.0.0.0","Windows","10.0","https://app.prolific.com/","en-US,en;q=0.9","67d7fa657f5ac0292a291a38","687a360dabe5252b5ada7185","6889dab2cc4abddb0f9e52c9","0","67d7fa657f5ac0292a291a38","0","2025-07-30T08:52:53.766Z","","","","ControlQ","","","","","","","","","","","50","","","","","","","","","","","","","","","","","","","","","","","","","","",""
"4838","","<div style=""width:500px;"">
  <p>How would you describe your current emotional state?</p>
  </div>","68","html-slider-response","41","645794","0.0-7.0-3.5","39","1","2025-07-30 08:42:10","36c45c0696341be0efffe67d72a12abb","102.209.191.18","Mozilla/5.0 (Windows NT 10.0; Win64; x64) AppleWebKit/537.36 (KHTML, like Gecko) Chrome/138.0.0.0 Safari/537.36","WebKit","Chrome","138.0.0.0","Windows","10.0","https://app.prolific.com/","en-US,en;q=0.9","67d7fa657f5ac0292a291a38","687a360dabe5252b5ada7185","6889dab2cc4abddb0f9e52c9","0","67d7fa657f5ac0292a291a38","0","2025-07-30T08:52:58.608Z","","","","StressQ","","","","","","","","","","","50","","","","","","","","","","","","","","","","","","","","","","","","","","",""
"3390","","<div style=""width:500px;"">
  <p>What best describes how you currently feel?</p>
  </div>","66","html-slider-response","42","649187","0.0-7.0-4.5","39","1","2025-07-30 08:42:10","36c45c0696341be0efffe67d72a12abb","102.209.191.18","Mozilla/5.0 (Windows NT 10.0; Win64; x64) AppleWebKit/537.36 (KHTML, like Gecko) Chrome/138.0.0.0 Safari/537.36","WebKit","Chrome","138.0.0.0","Windows","10.0","https://app.prolific.com/","en-US,en;q=0.9","67d7fa657f5ac0292a291a38","687a360dabe5252b5ada7185","6889dab2cc4abddb0f9e52c9","0","67d7fa657f5ac0292a291a38","0","2025-07-30T08:53:02.001Z","","","","MotivationQ","","","","","","","","","","","50","","","","","","","","","","","","","","","","","","","","","","","","","","",""
"","","","","ctl-task-cpt","43","710780","0.0-7.0-0.6","39","1","2025-07-30 08:42:10","36c45c0696341be0efffe67d72a12abb","102.209.191.18","Mozilla/5.0 (Windows NT 10.0; Win64; x64) AppleWebKit/537.36 (KHTML, like Gecko) Chrome/138.0.0.0 Safari/537.36","WebKit","Chrome","138.0.0.0","Windows","10.0","https://app.prolific.com/","en-US,en;q=0.9","67d7fa657f5ac0292a291a38","687a360dabe5252b5ada7185","6889dab2cc4abddb0f9e52c9","0","67d7fa657f5ac0292a291a38","0","2025-07-30T08:54:03.594Z","","","","","","","","","","","","","","","","win-only","2","g1:SE,g2:NW","0.4","7","0","652191.7","3006.7","8008","58580.4","1","4","4","6","2","4","3","8","5","0.06060606060606061","2254.6","3000","240","[""left"",""up""]","{""num_key_presses"":11,""num_perfect"":4,""num_errors"":1,""num_randdir"":6,""num_randdir_good_moves"":4,""num_whilered"":0,""num_whileblue"":0,""num_blue"":5,""num_good_moves"":8}","[292.22232142857143,297.12857142857143,0.4,292.22232142857143,297.12857142857143,102.6,292.22232142857143,297.12857142857143,208.1,292.22232142857143,297.12857142857143,310,292.22232142857143,297.12857142857143,413.2,292.22232142857143,297.12857142857143,519.8,292.22232142857143,297.12857142857143,621.3,311.22232142857143,329.12857142857143,731.2,335.22232142857143,360.12857142857143,837.5,328.22232142857143,352.12857142857143,938.8,241.22232142857143,289.12857142857143,1040.2,233.22232142857143,286.12857142857143,1156.6,233.22232142857143,286.12857142857143,1261.5,189.22232142857143,243.12857142857143,1367.3,126.22232142857143,166.12857142857143,1471.1,119.22232142857143,147.12857142857143,1575.4,119.22232142857143,147.12857142857143,1678.4,108.22232142857143,119.12857142857143,1780.4,71.22232142857143,79.12857142857143,1886.8,64.22232142857143,73.12857142857143,1988.2,63.222321428571426,73.12857142857143,2102.2,63.222321428571426,73.12857142857143,2216.6,63.222321428571426,73.12857142857143,2339.3,63.222321428571426,73.12857142857143,2447.9,63.222321428571426,73.12857142857143,2550.9,63.222321428571426,73.12857142857143,2655.5,63.222321428571426,73.12857142857143,2768.1,99.22232142857143,103.12857142857143,2886.9,103.22232142857143,119.12857142857143,2997.5,103.22232142857143,119.12857142857143,3112.8,103.22232142857143,119.12857142857143,3213.9,103.22232142857143,119.12857142857143,3319.9,103.22232142857143,119.12857142857143,3420.3,103.22232142857143,119.12857142857143,3525.9,103.22232142857143,119.12857142857143,3629.1,103.22232142857143,119.12857142857143,3738.6,103.22232142857143,119.12857142857143,3851,103.22232142857143,119.12857142857143,3969.8,103.22232142857143,119.12857142857143,4078.1,103.22232142857143,119.12857142857143,4180.2,103.22232142857143,119.12857142857143,4291.2,103.22232142857143,119.12857142857143,4402.7,103.22232142857143,119.12857142857143,4507.1,103.22232142857143,119.12857142857143,4611.4,103.22232142857143,119.12857142857143,4711.4,103.22232142857143,119.12857142857143,4815.1,103.22232142857143,119.12857142857143,4917.4]","[1470.3,1470.3,1000,0,470.3,""oops"",""up"",""right"",""bad_move"",12094.4,10622.9,2441.9,9196.8,455.7,""smooth"",""up"",""up"",""good_move"",15759.3,3664.3,3228.2,12095,436.1,""smooth"",""up"",""up"",""good_move"",22622.9,6862.7,2123.2,19957.8,541.9,""oops"",""up"",""up"",""good_move"",25808.6,3185.1,2753.8,22623.5,431.3,""oops"",""left"",""down"",""bad_move"",28607.6,2797.4,2399.9,25810.2,397.5,""oops"",""left"",""left"",""good_move"",32082.9,3473.9,3019.9,28609,454,""smooth"",""left"",""left"",""good_move"",34019,1935,2179.8,32084.1,-244.9,""error"",""-"",""-"",""no_move"",37493.9,3474.3,1995.6,35025.7,472.6,""oops"",""left"",""left"",""good_move"",44044.4,6549.7,2515.4,41114.9,414.1,""oops"",""left"",""up"",""good_move"",50421.3,6375.8,2433.8,47540.6,447,""smooth"",""left"",""left"",""good_move""]"
"4966","","<div style=""width:500px;"">
  <p>What determined the result of this run?</p>
  </div>","68","html-slider-response","44","715751","0.0-7.0-1.6","39","1","2025-07-30 08:42:10","36c45c0696341be0efffe67d72a12abb","102.209.191.18","Mozilla/5.0 (Windows NT 10.0; Win64; x64) AppleWebKit/537.36 (KHTML, like Gecko) Chrome/138.0.0.0 Safari/537.36","WebKit","Chrome","138.0.0.0","Windows","10.0","https://app.prolific.com/","en-US,en;q=0.9","67d7fa657f5ac0292a291a38","687a360dabe5252b5ada7185","6889dab2cc4abddb0f9e52c9","0","67d7fa657f5ac0292a291a38","0","2025-07-30T08:54:08.566Z","","","","AttribQ","","","","","","","","","","","50","","","","","","","","","","","","","","","","","","","","","","","","","","",""
"3209","","<div style=""width:500px;"">
  <p>How much control did you have over the ball?</p>
  </div>","61","html-slider-response","45","718966","0.0-7.0-2.6","39","1","2025-07-30 08:42:10","36c45c0696341be0efffe67d72a12abb","102.209.191.18","Mozilla/5.0 (Windows NT 10.0; Win64; x64) AppleWebKit/537.36 (KHTML, like Gecko) Chrome/138.0.0.0 Safari/537.36","WebKit","Chrome","138.0.0.0","Windows","10.0","https://app.prolific.com/","en-US,en;q=0.9","67d7fa657f5ac0292a291a38","687a360dabe5252b5ada7185","6889dab2cc4abddb0f9e52c9","0","67d7fa657f5ac0292a291a38","0","2025-07-30T08:54:11.780Z","","","","ControlQ","","","","","","","","","","","50","","","","","","","","","","","","","","","","","","","","","","","","","","",""
"3955","","<div style=""width:500px;"">
  <p>How would you describe your current emotional state?</p>
  </div>","34","html-slider-response","46","722922","0.0-7.0-3.6","39","1","2025-07-30 08:42:10","36c45c0696341be0efffe67d72a12abb","102.209.191.18","Mozilla/5.0 (Windows NT 10.0; Win64; x64) AppleWebKit/537.36 (KHTML, like Gecko) Chrome/138.0.0.0 Safari/537.36","WebKit","Chrome","138.0.0.0","Windows","10.0","https://app.prolific.com/","en-US,en;q=0.9","67d7fa657f5ac0292a291a38","687a360dabe5252b5ada7185","6889dab2cc4abddb0f9e52c9","0","67d7fa657f5ac0292a291a38","0","2025-07-30T08:54:15.737Z","","","","StressQ","","","","","","","","","","","50","","","","","","","","","","","","","","","","","","","","","","","","","","",""
"4449","","<div style=""width:500px;"">
  <p>What best describes how you currently feel?</p>
  </div>","67","html-slider-response","47","727374","0.0-7.0-4.6","39","1","2025-07-30 08:42:10","36c45c0696341be0efffe67d72a12abb","102.209.191.18","Mozilla/5.0 (Windows NT 10.0; Win64; x64) AppleWebKit/537.36 (KHTML, like Gecko) Chrome/138.0.0.0 Safari/537.36","WebKit","Chrome","138.0.0.0","Windows","10.0","https://app.prolific.com/","en-US,en;q=0.9","67d7fa657f5ac0292a291a38","687a360dabe5252b5ada7185","6889dab2cc4abddb0f9e52c9","0","67d7fa657f5ac0292a291a38","0","2025-07-30T08:54:20.189Z","","","","MotivationQ","","","","","","","","","","","50","","","","","","","","","","","","","","","","","","","","","","","","","","",""
"","","","","ctl-task-cpt","48","770411","0.0-7.0-0.7","39","1","2025-07-30 08:42:10","36c45c0696341be0efffe67d72a12abb","102.209.191.18","Mozilla/5.0 (Windows NT 10.0; Win64; x64) AppleWebKit/537.36 (KHTML, like Gecko) Chrome/138.0.0.0 Safari/537.36","WebKit","Chrome","138.0.0.0","Windows","10.0","https://app.prolific.com/","en-US,en;q=0.9","67d7fa657f5ac0292a291a38","687a360dabe5252b5ada7185","6889dab2cc4abddb0f9e52c9","0","67d7fa657f5ac0292a291a38","0","2025-07-30T08:55:03.226Z","","","","","","","","","","","","","","","","win-only","2","g1:SE,g2:NW","0.3","8","0","730380.9","1621.3","6630.9","40012","1","4","8","6","2","-8","-9","0","8","0","1743.5","3000","-1810","[""left"",""up""]","{""num_key_presses"":11,""num_perfect"":3,""num_errors"":1,""num_randdir"":7,""num_randdir_good_moves"":3,""num_whilered"":0,""num_whileblue"":1,""num_blue"":1,""num_good_moves"":6}","[296.22232142857143,301.12857142857143,0.9,296.22232142857143,301.12857142857143,102.4,296.22232142857143,301.12857142857143,208.8,296.22232142857143,301.12857142857143,311.9,296.22232142857143,301.12857142857143,416.1,296.22232142857143,301.12857142857143,523.6,296.22232142857143,301.12857142857143,626.8,296.22232142857143,301.12857142857143,739.7,225.22232142857143,226.12857142857143,840.8,196.22232142857143,187.12857142857143,944.4,196.22232142857143,187.12857142857143,1050.7,196.22232142857143,171.12857142857143,1152.4,89.22232142857143,71.12857142857143,1259,68.22232142857143,52.128571428571426,1366.2,62.222321428571426,49.128571428571426,1474.2,62.222321428571426,49.128571428571426,1579.2,62.222321428571426,49.128571428571426,1689.1,62.222321428571426,49.128571428571426,1803.7,62.222321428571426,49.128571428571426,1923,62.222321428571426,49.128571428571426,2029.5,62.222321428571426,49.128571428571426,2133.2,62.222321428571426,49.128571428571426,2236,62.222321428571426,49.128571428571426,2337.9,62.222321428571426,49.128571428571426,2442.4,62.222321428571426,49.128571428571426,2545.5,62.222321428571426,49.128571428571426,2648.8,62.222321428571426,49.128571428571426,2750.8,62.222321428571426,49.128571428571426,2856.9,62.222321428571426,49.128571428571426,2958.1,62.222321428571426,49.128571428571426,3064.5,62.222321428571426,49.128571428571426,3169.5,62.222321428571426,49.128571428571426,3275.4,62.222321428571426,49.128571428571426,3398,62.222321428571426,49.128571428571426,3502.5,62.222321428571426,49.128571428571426,3621,62.222321428571426,49.128571428571426,3725,62.222321428571426,49.128571428571426,3828.3,62.222321428571426,49.128571428571426,3932.1,62.222321428571426,49.128571428571426,4037.8,62.222321428571426,49.128571428571426,4148.5,62.222321428571426,49.128571428571426,4257.7,62.222321428571426,49.128571428571426,4358.8,62.222321428571426,49.128571428571426,4463.6,62.222321428571426,49.128571428571426,4564.7,62.222321428571426,49.128571428571426,4664.9,62.222321428571426,49.128571428571426,4772.6,62.222321428571426,49.128571428571426,4898.8,62.222321428571426,49.128571428571426,4999]","[1492,1492,1000,0,492,""oops"",""up"",""down"",""bad_move"",4167.2,2673.6,2218.1,1493.6,455.5,""oops"",""up"",""down"",""bad_move"",7745.6,3576.8,3185.3,4168.8,391.5,""smooth"",""left"",""left"",""good_move"",10567.7,2820.4,2341.5,7747.3,478.9,""oops"",""left"",""right"",""bad_move"",13449.2,2880.2,2482.9,10569,397.3,""smooth"",""left"",""left"",""good_move"",15779.1,2329.5,1941.5,13449.6,388,""smooth"",""left"",""left"",""good_move"",18433.3,2653.6,2276.3,15779.7,377.3,""oops"",""left"",""left"",""good_move"",21132.9,2698.9,2262.6,18434.1,436.2,""oops"",""up"",""up"",""good_move"",23676,2541.6,2180.7,21134.5,360.8,""while_blue"",""up"",""down"",""bad_move"",27563.7,3886.2,3054.3,23677.5,831.9,""oops"",""up"",""up"",""good_move"",30315.4,2751.2,2360,27564.2,391.2,""oops"",""up"",""down"",""bad_move""]"
"4282","","<div style=""width:500px;"">
  <p>What determined the result of this run?</p>
  </div>","62","html-slider-response","49","774697","0.0-7.0-1.7","39","1","2025-07-30 08:42:10","36c45c0696341be0efffe67d72a12abb","102.209.191.18","Mozilla/5.0 (Windows NT 10.0; Win64; x64) AppleWebKit/537.36 (KHTML, like Gecko) Chrome/138.0.0.0 Safari/537.36","WebKit","Chrome","138.0.0.0","Windows","10.0","https://app.prolific.com/","en-US,en;q=0.9","67d7fa657f5ac0292a291a38","687a360dabe5252b5ada7185","6889dab2cc4abddb0f9e52c9","0","67d7fa657f5ac0292a291a38","0","2025-07-30T08:55:07.511Z","","","","AttribQ","","","","","","","","","","","50","","","","","","","","","","","","","","","","","","","","","","","","","","",""
"4633","","<div style=""width:500px;"">
  <p>How much control did you have over the ball?</p>
  </div>","1","html-slider-response","50","779334","0.0-7.0-2.7","39","1","2025-07-30 08:42:10","36c45c0696341be0efffe67d72a12abb","102.209.191.18","Mozilla/5.0 (Windows NT 10.0; Win64; x64) AppleWebKit/537.36 (KHTML, like Gecko) Chrome/138.0.0.0 Safari/537.36","WebKit","Chrome","138.0.0.0","Windows","10.0","https://app.prolific.com/","en-US,en;q=0.9","67d7fa657f5ac0292a291a38","687a360dabe5252b5ada7185","6889dab2cc4abddb0f9e52c9","0","67d7fa657f5ac0292a291a38","0","2025-07-30T08:55:12.148Z","","","","ControlQ","","","","","","","","","","","50","","","","","","","","","","","","","","","","","","","","","","","","","","",""
"5015","","<div style=""width:500px;"">
  <p>How would you describe your current emotional state?</p>
  </div>","66","html-slider-response","51","784353","0.0-7.0-3.7","39","1","2025-07-30 08:42:10","36c45c0696341be0efffe67d72a12abb","102.209.191.18","Mozilla/5.0 (Windows NT 10.0; Win64; x64) AppleWebKit/537.36 (KHTML, like Gecko) Chrome/138.0.0.0 Safari/537.36","WebKit","Chrome","138.0.0.0","Windows","10.0","https://app.prolific.com/","en-US,en;q=0.9","67d7fa657f5ac0292a291a38","687a360dabe5252b5ada7185","6889dab2cc4abddb0f9e52c9","0","67d7fa657f5ac0292a291a38","0","2025-07-30T08:55:17.168Z","","","","StressQ","","","","","","","","","","","50","","","","","","","","","","","","","","","","","","","","","","","","","","",""
"4487","","<div style=""width:500px;"">
  <p>What best describes how you currently feel?</p>
  </div>","28","html-slider-response","52","788846","0.0-7.0-4.7","39","1","2025-07-30 08:42:10","36c45c0696341be0efffe67d72a12abb","102.209.191.18","Mozilla/5.0 (Windows NT 10.0; Win64; x64) AppleWebKit/537.36 (KHTML, like Gecko) Chrome/138.0.0.0 Safari/537.36","WebKit","Chrome","138.0.0.0","Windows","10.0","https://app.prolific.com/","en-US,en;q=0.9","67d7fa657f5ac0292a291a38","687a360dabe5252b5ada7185","6889dab2cc4abddb0f9e52c9","0","67d7fa657f5ac0292a291a38","0","2025-07-30T08:55:21.660Z","","","","MotivationQ","","","","","","","","","","","50","","","","","","","","","","","","","","","","","","","","","","","","","","",""
"","","","","ctl-task-cpt","53","845754","0.0-7.0-0.8","39","1","2025-07-30 08:42:10","36c45c0696341be0efffe67d72a12abb","102.209.191.18","Mozilla/5.0 (Windows NT 10.0; Win64; x64) AppleWebKit/537.36 (KHTML, like Gecko) Chrome/138.0.0.0 Safari/537.36","WebKit","Chrome","138.0.0.0","Windows","10.0","https://app.prolific.com/","en-US,en;q=0.9","67d7fa657f5ac0292a291a38","687a360dabe5252b5ada7185","6889dab2cc4abddb0f9e52c9","0","67d7fa657f5ac0292a291a38","0","2025-07-30T08:56:18.568Z","","","","","","","","","","","","","","","","win-only","0","g1:NW,g2:SE","0.4","9","0","791851.3","1984.4","6986.7","53887.9","1","4","8","6","2","8","7","7","0","0.05303030303030303","1914.8","3000","55","[""down"",""right""]","{""num_key_presses"":14,""num_perfect"":6,""num_errors"":1,""num_randdir"":7,""num_randdir_good_moves"":3,""num_whilered"":0,""num_whileblue"":1,""num_blue"":3,""num_good_moves"":10}","[297.22232142857143,296.12857142857143,0.4,297.22232142857143,296.12857142857143,102.2,297.22232142857143,296.12857142857143,204,297.22232142857143,296.12857142857143,307,297.22232142857143,296.12857142857143,414.5,297.22232142857143,296.12857142857143,514.7,304.22232142857143,339.12857142857143,617.5,313.22232142857143,384.12857142857143,717.5,313.22232142857143,383.12857142857143,839.9,316.22232142857143,385.12857142857143,947.9,395.22232142857143,462.12857142857143,1051.3,432.22232142857143,503.12857142857143,1153.5,432.22232142857143,503.12857142857143,1257.8,432.22232142857143,503.12857142857143,1361.5,496.22232142857143,537.1285714285714,1462.1,521.2223214285714,546.1285714285714,1585.4,522.2223214285714,547.1285714285714,1690,522.2223214285714,547.1285714285714,1805.7,522.2223214285714,547.1285714285714,1924.3,522.2223214285714,547.1285714285714,2028.6,522.2223214285714,547.1285714285714,2134,522.2223214285714,547.1285714285714,2234.4,522.2223214285714,547.1285714285714,2337.7,522.2223214285714,547.1285714285714,2439.4,522.2223214285714,547.1285714285714,2542.4,522.2223214285714,547.1285714285714,2647.2,522.2223214285714,547.1285714285714,2748.3,522.2223214285714,547.1285714285714,2853.6,522.2223214285714,547.1285714285714,2960.7,522.2223214285714,547.1285714285714,3067.2,522.2223214285714,547.1285714285714,3188,522.2223214285714,547.1285714285714,3291.2,522.2223214285714,547.1285714285714,3399.5,522.2223214285714,547.1285714285714,3503.4,522.2223214285714,547.1285714285714,3605.6,522.2223214285714,547.1285714285714,3715,522.2223214285714,547.1285714285714,3819.1,522.2223214285714,547.1285714285714,3922.8,522.2223214285714,547.1285714285714,4046.1,522.2223214285714,547.1285714285714,4147.6,522.2223214285714,547.1285714285714,4251.4,522.2223214285714,547.1285714285714,4365.7,522.2223214285714,547.1285714285714,4467,522.2223214285714,547.1285714285714,4591.9,522.2223214285714,547.1285714285714,4698.1,522.2223214285714,547.1285714285714,4803.7,522.2223214285714,547.1285714285714,4907]","[1500.3,1500.3,1000,0,500.3,""oops"",""right"",""left"",""bad_move"",4710.4,3208.6,2905,1501.8,303.6,""oops"",""right"",""left"",""bad_move"",7129.2,2417.9,1893.1,4711.3,524.8,""oops"",""right"",""right"",""good_move"",13190.2,6058.7,1895.4,10850,444.9,""smooth"",""right"",""right"",""good_move"",16483.7,3290.3,2890.6,13193.4,399.7,""oops"",""right"",""left"",""bad_move"",19685.1,3199.8,2740.3,16485.3,459.5,""while_blue"",""down"",""down"",""good_move"",26570.8,6884.3,2651.5,23503.3,416,""oops"",""down"",""right"",""good_move"",29309.5,2736.9,2200,26572.6,536.9,""smooth"",""down"",""down"",""good_move"",32225.2,2915.4,2492.1,29309.8,423.3,""smooth"",""right"",""right"",""good_move"",35778.2,3552.2,3110.8,32226,441.4,""oops"",""right"",""left"",""bad_move"",38283.2,2504.6,2069.8,35778.7,434.8,""smooth"",""down"",""down"",""good_move"",41549,3264.5,2823.3,38284.7,441.1,""smooth"",""right"",""right"",""good_move"",44188.8,2636.6,2219.7,41552.2,417,""smooth"",""right"",""right"",""good_move"",46717.8,2528.2,2122.4,44189.8,405.7,""oops"",""right"",""right"",""good_move""]"
"4080","","<div style=""width:500px;"">
  <p>What determined the result of this run?</p>
  </div>","72","html-slider-response","54","849836","0.0-7.0-1.8","39","1","2025-07-30 08:42:10","36c45c0696341be0efffe67d72a12abb","102.209.191.18","Mozilla/5.0 (Windows NT 10.0; Win64; x64) AppleWebKit/537.36 (KHTML, like Gecko) Chrome/138.0.0.0 Safari/537.36","WebKit","Chrome","138.0.0.0","Windows","10.0","https://app.prolific.com/","en-US,en;q=0.9","67d7fa657f5ac0292a291a38","687a360dabe5252b5ada7185","6889dab2cc4abddb0f9e52c9","0","67d7fa657f5ac0292a291a38","0","2025-07-30T08:56:22.650Z","","","","AttribQ","","","","","","","","","","","50","","","","","","","","","","","","","","","","","","","","","","","","","","",""
"3585","","<div style=""width:500px;"">
  <p>How much control did you have over the ball?</p>
  </div>","61","html-slider-response","55","853424","0.0-7.0-2.8","39","1","2025-07-30 08:42:10","36c45c0696341be0efffe67d72a12abb","102.209.191.18","Mozilla/5.0 (Windows NT 10.0; Win64; x64) AppleWebKit/537.36 (KHTML, like Gecko) Chrome/138.0.0.0 Safari/537.36","WebKit","Chrome","138.0.0.0","Windows","10.0","https://app.prolific.com/","en-US,en;q=0.9","67d7fa657f5ac0292a291a38","687a360dabe5252b5ada7185","6889dab2cc4abddb0f9e52c9","0","67d7fa657f5ac0292a291a38","0","2025-07-30T08:56:26.238Z","","","","ControlQ","","","","","","","","","","","50","","","","","","","","","","","","","","","","","","","","","","","","","","",""
"3343","","<div style=""width:500px;"">
  <p>How would you describe your current emotional state?</p>
  </div>","40","html-slider-response","56","856774","0.0-7.0-3.8","39","1","2025-07-30 08:42:10","36c45c0696341be0efffe67d72a12abb","102.209.191.18","Mozilla/5.0 (Windows NT 10.0; Win64; x64) AppleWebKit/537.36 (KHTML, like Gecko) Chrome/138.0.0.0 Safari/537.36","WebKit","Chrome","138.0.0.0","Windows","10.0","https://app.prolific.com/","en-US,en;q=0.9","67d7fa657f5ac0292a291a38","687a360dabe5252b5ada7185","6889dab2cc4abddb0f9e52c9","0","67d7fa657f5ac0292a291a38","0","2025-07-30T08:56:29.589Z","","","","StressQ","","","","","","","","","","","50","","","","","","","","","","","","","","","","","","","","","","","","","","",""
"4135","","<div style=""width:500px;"">
  <p>What best describes how you currently feel?</p>
  </div>","57","html-slider-response","57","860913","0.0-7.0-4.8","39","1","2025-07-30 08:42:10","36c45c0696341be0efffe67d72a12abb","102.209.191.18","Mozilla/5.0 (Windows NT 10.0; Win64; x64) AppleWebKit/537.36 (KHTML, like Gecko) Chrome/138.0.0.0 Safari/537.36","WebKit","Chrome","138.0.0.0","Windows","10.0","https://app.prolific.com/","en-US,en;q=0.9","67d7fa657f5ac0292a291a38","687a360dabe5252b5ada7185","6889dab2cc4abddb0f9e52c9","0","67d7fa657f5ac0292a291a38","0","2025-07-30T08:56:33.727Z","","","","MotivationQ","","","","","","","","","","","50","","","","","","","","","","","","","","","","","","","","","","","","","","",""
"","","","","ctl-task-cpt","58","921444","0.0-7.0-0.9","39","1","2025-07-30 08:42:10","36c45c0696341be0efffe67d72a12abb","102.209.191.18","Mozilla/5.0 (Windows NT 10.0; Win64; x64) AppleWebKit/537.36 (KHTML, like Gecko) Chrome/138.0.0.0 Safari/537.36","WebKit","Chrome","138.0.0.0","Windows","10.0","https://app.prolific.com/","en-US,en;q=0.9","67d7fa657f5ac0292a291a38","687a360dabe5252b5ada7185","6889dab2cc4abddb0f9e52c9","0","67d7fa657f5ac0292a291a38","0","2025-07-30T08:57:34.259Z","","","","","","","","","","","","","","","","win-only","3","g1:SW,g2:NE","0.5","10","0","863919.3","2224.1","7230.2","57499.7","1","4","4","6","2","-4","-4","3","7","0.022727272727272728","2175.1","3000","-1500","[""up"",""right""]","{""num_key_presses"":12,""num_perfect"":6,""num_errors"":0,""num_randdir"":6,""num_randdir_good_moves"":1,""num_whilered"":0,""num_whileblue"":0,""num_blue"":3,""num_good_moves"":7}","[300.22232142857143,298.12857142857143,1.6,300.22232142857143,298.12857142857143,105.5,300.22232142857143,298.12857142857143,209.4,300.22232142857143,298.12857142857143,315.7,300.22232142857143,298.12857142857143,417.8,300.22232142857143,298.12857142857143,529.2,277.22232142857143,310.12857142857143,635.6,251.22232142857143,365.12857142857143,741.4,241.22232142857143,340.12857142857143,842.7,337.22232142857143,236.12857142857143,943.6,347.22232142857143,227.12857142857143,1063.6,347.22232142857143,227.12857142857143,1166.2,352.22232142857143,218.12857142857143,1266.2,585.2223214285714,41.128571428571426,1373.4,598.2223214285714,31.128571428571426,1474.6,598.2223214285714,31.128571428571426,1576.6,598.2223214285714,31.128571428571426,1685.6,592.2223214285714,31.128571428571426,1798.6,570.2223214285714,41.128571428571426,1904.1,565.2223214285714,42.128571428571426,2009.7,565.2223214285714,42.128571428571426,2110.3,565.2223214285714,42.128571428571426,2217.3,565.2223214285714,42.128571428571426,2322.3,565.2223214285714,42.128571428571426,2454.6,565.2223214285714,42.128571428571426,2554.9,565.2223214285714,42.128571428571426,2658.4,565.2223214285714,42.128571428571426,2763.2,565.2223214285714,42.128571428571426,2870.3,565.2223214285714,42.128571428571426,2979.5,565.2223214285714,42.128571428571426,3079.9,565.2223214285714,42.128571428571426,3192.7,565.2223214285714,42.128571428571426,3297.4,565.2223214285714,42.128571428571426,3407.4,565.2223214285714,42.128571428571426,3515.3,565.2223214285714,42.128571428571426,3616.6,565.2223214285714,42.128571428571426,3734.6,565.2223214285714,42.128571428571426,3837.2,565.2223214285714,42.128571428571426,3938.1,565.2223214285714,42.128571428571426,4038.8,565.2223214285714,42.128571428571426,4147,565.2223214285714,42.128571428571426,4260.3,565.2223214285714,42.128571428571426,4360.8,565.2223214285714,42.128571428571426,4464.5,565.2223214285714,42.128571428571426,4569,565.2223214285714,42.128571428571426,4670.7,565.2223214285714,42.128571428571426,4776.9,565.2223214285714,42.128571428571426,4884.5,565.2223214285714,42.128571428571426,4985.5]","[1645.7,1645.7,1000,0,645.7,""oops"",""up"",""down"",""bad_move"",8791.5,7144.7,3012.9,5398.3,380.3,""smooth"",""right"",""right"",""good_move"",12408.9,3615,3131.1,8794,483.8,""oops"",""right"",""right"",""good_move"",15669.3,3258.6,2747.4,12410.7,511.2,""smooth"",""right"",""right"",""good_move"",19211.5,3539.3,2896.3,15672.2,643,""oops"",""up"",""down"",""bad_move"",22430.6,3217.4,2600,19213.2,617.4,""smooth"",""up"",""up"",""good_move"",28581.7,6150.6,2707.4,25311,563.3,""smooth"",""up"",""up"",""good_move"",31917.4,3335.3,2832.8,28582.1,502.5,""oops"",""up"",""down"",""bad_move"",34326.7,2404.2,1917.9,31922.6,486.2,""smooth"",""up"",""up"",""good_move"",37449.8,3122.9,2725.8,34326.9,397.1,""oops"",""up"",""down"",""bad_move"",44195.2,6744.9,3132.1,40649.7,413.4,""smooth"",""up"",""up"",""good_move"",47628.9,3433.1,2971.2,44195.9,461.8,""oops"",""up"",""down"",""bad_move""]"
"2898","","<div style=""width:500px;"">
  <p>What determined the result of this run?</p>
  </div>","11","html-slider-response","59","924345","0.0-7.0-1.9","39","1","2025-07-30 08:42:10","36c45c0696341be0efffe67d72a12abb","102.209.191.18","Mozilla/5.0 (Windows NT 10.0; Win64; x64) AppleWebKit/537.36 (KHTML, like Gecko) Chrome/138.0.0.0 Safari/537.36","WebKit","Chrome","138.0.0.0","Windows","10.0","https://app.prolific.com/","en-US,en;q=0.9","67d7fa657f5ac0292a291a38","687a360dabe5252b5ada7185","6889dab2cc4abddb0f9e52c9","0","67d7fa657f5ac0292a291a38","0","2025-07-30T08:57:37.159Z","","","","AttribQ","","","","","","","","","","","50","","","","","","","","","","","","","","","","","","","","","","","","","","",""
"3400","","<div style=""width:500px;"">
  <p>How much control did you have over the ball?</p>
  </div>","0","html-slider-response","60","927749","0.0-7.0-2.9","39","1","2025-07-30 08:42:10","36c45c0696341be0efffe67d72a12abb","102.209.191.18","Mozilla/5.0 (Windows NT 10.0; Win64; x64) AppleWebKit/537.36 (KHTML, like Gecko) Chrome/138.0.0.0 Safari/537.36","WebKit","Chrome","138.0.0.0","Windows","10.0","https://app.prolific.com/","en-US,en;q=0.9","67d7fa657f5ac0292a291a38","687a360dabe5252b5ada7185","6889dab2cc4abddb0f9e52c9","0","67d7fa657f5ac0292a291a38","0","2025-07-30T08:57:40.564Z","","","","ControlQ","","","","","","","","","","","50","","","","","","","","","","","","","","","","","","","","","","","","","","",""
"3625","","<div style=""width:500px;"">
  <p>How would you describe your current emotional state?</p>
  </div>","100","html-slider-response","61","931382","0.0-7.0-3.9","39","1","2025-07-30 08:42:10","36c45c0696341be0efffe67d72a12abb","102.209.191.18","Mozilla/5.0 (Windows NT 10.0; Win64; x64) AppleWebKit/537.36 (KHTML, like Gecko) Chrome/138.0.0.0 Safari/537.36","WebKit","Chrome","138.0.0.0","Windows","10.0","https://app.prolific.com/","en-US,en;q=0.9","67d7fa657f5ac0292a291a38","687a360dabe5252b5ada7185","6889dab2cc4abddb0f9e52c9","0","67d7fa657f5ac0292a291a38","0","2025-07-30T08:57:44.197Z","","","","StressQ","","","","","","","","","","","50","","","","","","","","","","","","","","","","","","","","","","","","","","",""
"3768","","<div style=""width:500px;"">
  <p>What best describes how you currently feel?</p>
  </div>","0","html-slider-response","62","935156","0.0-7.0-4.9","39","1","2025-07-30 08:42:10","36c45c0696341be0efffe67d72a12abb","102.209.191.18","Mozilla/5.0 (Windows NT 10.0; Win64; x64) AppleWebKit/537.36 (KHTML, like Gecko) Chrome/138.0.0.0 Safari/537.36","WebKit","Chrome","138.0.0.0","Windows","10.0","https://app.prolific.com/","en-US,en;q=0.9","67d7fa657f5ac0292a291a38","687a360dabe5252b5ada7185","6889dab2cc4abddb0f9e52c9","0","67d7fa657f5ac0292a291a38","0","2025-07-30T08:57:47.971Z","","","","MotivationQ","","","","","","","","","","","50","","","","","","","","","","","","","","","","","","","","","","","","","","",""
"","","","","ctl-task-cpt","63","977942","0.0-7.0-0.10","39","1","2025-07-30 08:42:10","36c45c0696341be0efffe67d72a12abb","102.209.191.18","Mozilla/5.0 (Windows NT 10.0; Win64; x64) AppleWebKit/537.36 (KHTML, like Gecko) Chrome/138.0.0.0 Safari/537.36","WebKit","Chrome","138.0.0.0","Windows","10.0","https://app.prolific.com/","en-US,en;q=0.9","67d7fa657f5ac0292a291a38","687a360dabe5252b5ada7185","6889dab2cc4abddb0f9e52c9","0","67d7fa657f5ac0292a291a38","0","2025-07-30T08:58:30.756Z","","","","","","","","","","","","","","","","win-only","2","g1:SE,g2:NW","0.6","11","0","938169.2","4814.4","9815.9","39741.1","1","4","4","6","1","1","1","4","3","0.030303030303030304","2762.4","3000","1395","[""down"",""right""]","{""num_key_presses"":8,""num_perfect"":4,""num_errors"":0,""num_randdir"":4,""num_randdir_good_moves"":2,""num_whilered"":0,""num_whileblue"":0,""num_blue"":2,""num_good_moves"":6}","[292.22232142857143,300.12857142857143,0.4,292.22232142857143,300.12857142857143,125,292.22232142857143,300.12857142857143,231.3,292.22232142857143,300.12857142857143,332.8,292.22232142857143,300.12857142857143,441.8,292.22232142857143,300.12857142857143,546.1,292.22232142857143,300.12857142857143,649.5,334.22232142857143,324.12857142857143,774.7,343.22232142857143,348.12857142857143,899.5,239.22232142857143,308.12857142857143,1002.2,210.22232142857143,264.12857142857143,1104.9,210.22232142857143,264.12857142857143,1223.5,210.22232142857143,261.12857142857143,1324.7,196.22232142857143,208.12857142857143,1444.7,244.22232142857143,266.12857142857143,1551.6,245.22232142857143,268.12857142857143,1676,264.22232142857143,278.12857142857143,1777.3,425.22232142857143,404.12857142857143,1887.3,425.22232142857143,404.12857142857143,2003.9,425.22232142857143,404.12857142857143,2105.4,475.22232142857143,436.12857142857143,2208.7,518.2223214285714,485.12857142857143,2309.9,545.2223214285714,502.12857142857143,2417.1,548.2223214285714,518.1285714285714,2531,548.2223214285714,521.1285714285714,2669.4,548.2223214285714,521.1285714285714,2776.9,548.2223214285714,521.1285714285714,2882.5,548.2223214285714,521.1285714285714,3022,548.2223214285714,521.1285714285714,3135.8,548.2223214285714,521.1285714285714,3258.7,548.2223214285714,521.1285714285714,3366.7,548.2223214285714,521.1285714285714,3468.2,548.2223214285714,521.1285714285714,3598.6,548.2223214285714,521.1285714285714,3700.5,548.2223214285714,521.1285714285714,3802.6,548.2223214285714,521.1285714285714,3906.8,548.2223214285714,521.1285714285714,4015,548.2223214285714,521.1285714285714,4116,548.2223214285714,521.1285714285714,4238.1,548.2223214285714,521.1285714285714,4371.7,548.2223214285714,521.1285714285714,4471.9,548.2223214285714,521.1285714285714,4581.8,548.2223214285714,521.1285714285714,4702.7,548.2223214285714,521.1285714285714,4807,548.2223214285714,521.1285714285714,4939.4]","[1470.4,1470.5,1000,0,470.5,""oops"",""down"",""left"",""bad_move"",5015.3,3541.7,3104.2,1473.6,437.5,""oops"",""down"",""left"",""bad_move"",8442.7,3426.1,2873.5,5016.6,552.6,""oops"",""down"",""down"",""good_move"",11365.4,2919.3,2420.7,8446.2,498.6,""oops"",""down"",""right"",""good_move"",17814.9,6447.3,2749.5,14654.8,410.6,""smooth"",""down"",""down"",""good_move"",20512.1,2695.8,2255,17816.3,440.8,""smooth"",""right"",""right"",""good_move"",27313.8,6799.8,3011,23830.6,472.2,""smooth"",""right"",""right"",""good_move"",29735.3,2420.6,1850.4,27314.7,570.2,""smooth"",""right"",""right"",""good_move""]"
"4009","","<div style=""width:500px;"">
  <p>What determined the result of this run?</p>
  </div>","83","html-slider-response","64","981953","0.0-7.0-1.10","39","1","2025-07-30 08:42:10","36c45c0696341be0efffe67d72a12abb","102.209.191.18","Mozilla/5.0 (Windows NT 10.0; Win64; x64) AppleWebKit/537.36 (KHTML, like Gecko) Chrome/138.0.0.0 Safari/537.36","WebKit","Chrome","138.0.0.0","Windows","10.0","https://app.prolific.com/","en-US,en;q=0.9","67d7fa657f5ac0292a291a38","687a360dabe5252b5ada7185","6889dab2cc4abddb0f9e52c9","0","67d7fa657f5ac0292a291a38","0","2025-07-30T08:58:34.768Z","","","","AttribQ","","","","","","","","","","","50","","","","","","","","","","","","","","","","","","","","","","","","","","",""
"2785","","<div style=""width:500px;"">
  <p>How much control did you have over the ball?</p>
  </div>","38","html-slider-response","65","984744","0.0-7.0-2.10","39","1","2025-07-30 08:42:10","36c45c0696341be0efffe67d72a12abb","102.209.191.18","Mozilla/5.0 (Windows NT 10.0; Win64; x64) AppleWebKit/537.36 (KHTML, like Gecko) Chrome/138.0.0.0 Safari/537.36","WebKit","Chrome","138.0.0.0","Windows","10.0","https://app.prolific.com/","en-US,en;q=0.9","67d7fa657f5ac0292a291a38","687a360dabe5252b5ada7185","6889dab2cc4abddb0f9e52c9","0","67d7fa657f5ac0292a291a38","0","2025-07-30T08:58:37.559Z","","","","ControlQ","","","","","","","","","","","50","","","","","","","","","","","","","","","","","","","","","","","","","","",""
"2902","","<div style=""width:500px;"">
  <p>How would you describe your current emotional state?</p>
  </div>","39","html-slider-response","66","987654","0.0-7.0-3.10","39","1","2025-07-30 08:42:10","36c45c0696341be0efffe67d72a12abb","102.209.191.18","Mozilla/5.0 (Windows NT 10.0; Win64; x64) AppleWebKit/537.36 (KHTML, like Gecko) Chrome/138.0.0.0 Safari/537.36","WebKit","Chrome","138.0.0.0","Windows","10.0","https://app.prolific.com/","en-US,en;q=0.9","67d7fa657f5ac0292a291a38","687a360dabe5252b5ada7185","6889dab2cc4abddb0f9e52c9","0","67d7fa657f5ac0292a291a38","0","2025-07-30T08:58:40.468Z","","","","StressQ","","","","","","","","","","","50","","","","","","","","","","","","","","","","","","","","","","","","","","",""
"2916","","<div style=""width:500px;"">
  <p>What best describes how you currently feel?</p>
  </div>","41","html-slider-response","67","990576","0.0-7.0-4.10","39","1","2025-07-30 08:42:10","36c45c0696341be0efffe67d72a12abb","102.209.191.18","Mozilla/5.0 (Windows NT 10.0; Win64; x64) AppleWebKit/537.36 (KHTML, like Gecko) Chrome/138.0.0.0 Safari/537.36","WebKit","Chrome","138.0.0.0","Windows","10.0","https://app.prolific.com/","en-US,en;q=0.9","67d7fa657f5ac0292a291a38","687a360dabe5252b5ada7185","6889dab2cc4abddb0f9e52c9","0","67d7fa657f5ac0292a291a38","0","2025-07-30T08:58:43.390Z","","","","MotivationQ","","","","","","","","","","","50","","","","","","","","","","","","","","","","","","","","","","","","","","",""
"","","","","ctl-task-cpt","68","1044914","0.0-7.0-0.11","39","1","2025-07-30 08:42:10","36c45c0696341be0efffe67d72a12abb","102.209.191.18","Mozilla/5.0 (Windows NT 10.0; Win64; x64) AppleWebKit/537.36 (KHTML, like Gecko) Chrome/138.0.0.0 Safari/537.36","WebKit","Chrome","138.0.0.0","Windows","10.0","https://app.prolific.com/","en-US,en;q=0.9","67d7fa657f5ac0292a291a38","687a360dabe5252b5ada7185","6889dab2cc4abddb0f9e52c9","0","67d7fa657f5ac0292a291a38","0","2025-07-30T08:59:37.728Z","","","","","","","","","","","","","","","","win-only","0","g1:NW,g2:SE","0.7","12","0","993582.3","4024.9","9034.1","51312.8","1","4","8","6","2","8","8","12","4","0.09090909090909091","1944.7","3000","815","[""down"",""right""]","{""num_key_presses"":12,""num_perfect"":9,""num_errors"":0,""num_randdir"":3,""num_randdir_good_moves"":0,""num_whilered"":0,""num_whileblue"":0,""num_blue"":2,""num_good_moves"":9}","[299.22232142857143,295.12857142857143,0.9,299.22232142857143,295.12857142857143,124.5,299.22232142857143,295.12857142857143,228.9,299.22232142857143,295.12857142857143,331.8,299.22232142857143,295.12857142857143,444.9,295.22232142857143,287.12857142857143,555.6,248.22232142857143,317.12857142857143,664,246.22232142857143,318.12857142857143,767.9,357.22232142857143,343.12857142857143,868.7,401.22232142857143,369.12857142857143,1003.7,401.22232142857143,369.12857142857143,1106.2,435.22232142857143,412.12857142857143,1214,488.22232142857143,522.1285714285714,1359.6,502.22232142857143,537.1285714285714,1466.8,510.22232142857143,537.1285714285714,1577.1,517.2223214285714,536.1285714285714,1690.7,517.2223214285714,536.1285714285714,1793.7,517.2223214285714,536.1285714285714,1903.3,517.2223214285714,536.1285714285714,2011.7,517.2223214285714,536.1285714285714,2122.6,517.2223214285714,536.1285714285714,2232.4,517.2223214285714,536.1285714285714,2334.4,517.2223214285714,536.1285714285714,2436.9,517.2223214285714,536.1285714285714,2539.9,517.2223214285714,536.1285714285714,2649.4,517.2223214285714,536.1285714285714,2751.4,517.2223214285714,536.1285714285714,2866.5,517.2223214285714,536.1285714285714,2968.6,517.2223214285714,536.1285714285714,3073.9,517.2223214285714,536.1285714285714,3177.3,517.2223214285714,536.1285714285714,3280,517.2223214285714,536.1285714285714,3386.6,517.2223214285714,536.1285714285714,3494.4,517.2223214285714,536.1285714285714,3597.9,517.2223214285714,536.1285714285714,3705.4,517.2223214285714,536.1285714285714,3816.1,517.2223214285714,536.1285714285714,3919.1,517.2223214285714,536.1285714285714,4033.6,517.2223214285714,536.1285714285714,4144.7,517.2223214285714,536.1285714285714,4245.5,517.2223214285714,536.1285714285714,4349.5,517.2223214285714,536.1285714285714,4450.5,517.2223214285714,536.1285714285714,4565.2,517.2223214285714,536.1285714285714,4669.7,517.2223214285714,536.1285714285714,4784,517.2223214285714,536.1285714285714,4886.5,517.2223214285714,536.1285714285714,4997.4]","[1457.2,1457.2,1000,0,457.2,""smooth"",""down"",""down"",""good_move"",4424.1,2965.9,2462.5,1458.2,503.4,""oops"",""down"",""up"",""bad_move"",7815.4,3389.9,2936.3,4425.5,453.6,""smooth"",""right"",""right"",""good_move"",10049.9,2230.2,1732.5,7819.7,497.7,""smooth"",""right"",""right"",""good_move"",16975.6,6924.2,2719.5,13795.8,460.3,""oops"",""right"",""left"",""bad_move"",19952.4,2975,1719.9,16977.4,1255.1,""smooth"",""down"",""down"",""good_move"",22987.8,3032,2588.1,19955.8,443.9,""smooth"",""down"",""down"",""good_move"",25975.5,2985.9,2488.8,22989.7,497,""oops"",""down"",""up"",""bad_move"",28880.7,2903.5,2411.6,25977.2,491.9,""smooth"",""down"",""down"",""good_move"",32684.6,3803.6,3329.7,28881.1,474,""smooth"",""right"",""right"",""good_move"",39719.9,7031.7,3262.2,35888.4,569.3,""smooth"",""right"",""right"",""good_move"",42038.3,2317.8,1820.5,39720.5,497.3,""smooth"",""down"",""down"",""good_move""]"
"4235","","<div style=""width:500px;"">
  <p>What determined the result of this run?</p>
  </div>","71","html-slider-response","69","1049151","0.0-7.0-1.11","39","1","2025-07-30 08:42:10","36c45c0696341be0efffe67d72a12abb","102.209.191.18","Mozilla/5.0 (Windows NT 10.0; Win64; x64) AppleWebKit/537.36 (KHTML, like Gecko) Chrome/138.0.0.0 Safari/537.36","WebKit","Chrome","138.0.0.0","Windows","10.0","https://app.prolific.com/","en-US,en;q=0.9","67d7fa657f5ac0292a291a38","687a360dabe5252b5ada7185","6889dab2cc4abddb0f9e52c9","0","67d7fa657f5ac0292a291a38","0","2025-07-30T08:59:41.966Z","","","","AttribQ","","","","","","","","","","","50","","","","","","","","","","","","","","","","","","","","","","","","","","",""
"2698","","<div style=""width:500px;"">
  <p>How much control did you have over the ball?</p>
  </div>","66","html-slider-response","70","1051853","0.0-7.0-2.11","39","1","2025-07-30 08:42:10","36c45c0696341be0efffe67d72a12abb","102.209.191.18","Mozilla/5.0 (Windows NT 10.0; Win64; x64) AppleWebKit/537.36 (KHTML, like Gecko) Chrome/138.0.0.0 Safari/537.36","WebKit","Chrome","138.0.0.0","Windows","10.0","https://app.prolific.com/","en-US,en;q=0.9","67d7fa657f5ac0292a291a38","687a360dabe5252b5ada7185","6889dab2cc4abddb0f9e52c9","0","67d7fa657f5ac0292a291a38","0","2025-07-30T08:59:44.667Z","","","","ControlQ","","","","","","","","","","","50","","","","","","","","","","","","","","","","","","","","","","","","","","",""
"2223","","<div style=""width:500px;"">
  <p>How would you describe your current emotional state?</p>
  </div>","40","html-slider-response","71","1054080","0.0-7.0-3.11","39","1","2025-07-30 08:42:10","36c45c0696341be0efffe67d72a12abb","102.209.191.18","Mozilla/5.0 (Windows NT 10.0; Win64; x64) AppleWebKit/537.36 (KHTML, like Gecko) Chrome/138.0.0.0 Safari/537.36","WebKit","Chrome","138.0.0.0","Windows","10.0","https://app.prolific.com/","en-US,en;q=0.9","67d7fa657f5ac0292a291a38","687a360dabe5252b5ada7185","6889dab2cc4abddb0f9e52c9","0","67d7fa657f5ac0292a291a38","0","2025-07-30T08:59:46.897Z","","","","StressQ","","","","","","","","","","","50","","","","","","","","","","","","","","","","","","","","","","","","","","",""
"2300","","<div style=""width:500px;"">
  <p>What best describes how you currently feel?</p>
  </div>","60","html-slider-response","72","1056387","0.0-7.0-4.11","39","1","2025-07-30 08:42:10","36c45c0696341be0efffe67d72a12abb","102.209.191.18","Mozilla/5.0 (Windows NT 10.0; Win64; x64) AppleWebKit/537.36 (KHTML, like Gecko) Chrome/138.0.0.0 Safari/537.36","WebKit","Chrome","138.0.0.0","Windows","10.0","https://app.prolific.com/","en-US,en;q=0.9","67d7fa657f5ac0292a291a38","687a360dabe5252b5ada7185","6889dab2cc4abddb0f9e52c9","0","67d7fa657f5ac0292a291a38","0","2025-07-30T08:59:49.202Z","","","","MotivationQ","","","","","","","","","","","50","","","","","","","","","","","","","","","","","","","","","","","","","","",""
"","","","","ctl-task-cpt","73","1109354","0.0-7.0-0.12","39","1","2025-07-30 08:42:10","36c45c0696341be0efffe67d72a12abb","102.209.191.18","Mozilla/5.0 (Windows NT 10.0; Win64; x64) AppleWebKit/537.36 (KHTML, like Gecko) Chrome/138.0.0.0 Safari/537.36","WebKit","Chrome","138.0.0.0","Windows","10.0","https://app.prolific.com/","en-US,en;q=0.9","67d7fa657f5ac0292a291a38","687a360dabe5252b5ada7185","6889dab2cc4abddb0f9e52c9","0","67d7fa657f5ac0292a291a38","0","2025-07-30T09:00:42.168Z","","","","","","","","","","","","","","","","win-only","1","g1:NE,g2:SW","0.8","13","0","1059400.5","5099.8","10106.5","49935.4","1","4","8","6","2","8","7","19","12","0.14393939393939395","2095.9","3000","1445","[""down"",""left""]","{""num_key_presses"":10,""num_perfect"":7,""num_errors"":1,""num_randdir"":2,""num_randdir_good_moves"":1,""num_whilered"":0,""num_whileblue"":1,""num_blue"":3,""num_good_moves"":8}","[300.22232142857143,293.12857142857143,0.6,300.22232142857143,293.12857142857143,103.7,300.22232142857143,293.12857142857143,206,300.22232142857143,293.12857142857143,311.3,300.22232142857143,293.12857142857143,419.1,300.22232142857143,293.12857142857143,540.3,300.22232142857143,293.12857142857143,643.9,308.22232142857143,286.12857142857143,749.7,271.22232142857143,325.12857142857143,883.7,264.22232142857143,331.12857142857143,987.3,264.22232142857143,331.12857142857143,1090.3,148.22232142857143,481.12857142857143,1194.1,94.22232142857143,557.1285714285714,1299.1,94.22232142857143,557.1285714285714,1407.3,89.22232142857143,561.1285714285714,1511.7,31.222321428571426,582.1285714285714,1632.3,29.222321428571426,572.1285714285714,1739.4,33.222321428571426,565.1285714285714,1849.3,38.222321428571426,563.1285714285714,1979.8,38.222321428571426,563.1285714285714,2087.3,38.222321428571426,563.1285714285714,2189.7,38.222321428571426,563.1285714285714,2302.2,38.222321428571426,563.1285714285714,2408.2,38.222321428571426,563.1285714285714,2533.1,38.222321428571426,563.1285714285714,2638.8,38.222321428571426,563.1285714285714,2743.5,38.222321428571426,563.1285714285714,2850.7,38.222321428571426,563.1285714285714,2950.9,38.222321428571426,563.1285714285714,3063.8,38.222321428571426,563.1285714285714,3167.1,38.222321428571426,563.1285714285714,3274.8,38.222321428571426,563.1285714285714,3379.5,38.222321428571426,563.1285714285714,3486.6,38.222321428571426,563.1285714285714,3591.6,38.222321428571426,563.1285714285714,3702.5,38.222321428571426,563.1285714285714,3815.8,38.222321428571426,563.1285714285714,3923,38.222321428571426,563.1285714285714,4029.1,38.222321428571426,563.1285714285714,4134.2,38.222321428571426,563.1285714285714,4240.3,38.222321428571426,563.1285714285714,4350.3,38.222321428571426,563.1285714285714,4451.1,38.222321428571426,563.1285714285714,4554.3,38.222321428571426,563.1285714285714,4672.5,38.222321428571426,563.1285714285714,4773.7,38.222321428571426,563.1285714285714,4886.7,38.222321428571426,563.1285714285714,4990.6]","[9072.3,9072.3,2848,5733.7,490.6,""smooth"",""down"",""down"",""good_move"",12841.6,3766.8,3337.2,9074.8,429.6,""oops"",""down"",""down"",""good_move"",15380.6,2538.2,2049.1,12842.4,489.1,""smooth"",""down"",""down"",""good_move"",17854.9,2473.4,1844.5,15381.6,628.8,""oops"",""left"",""up"",""bad_move"",21598.7,3742.8,3322.1,17855.9,420.7,""smooth"",""left"",""left"",""good_move"",25450,3850.5,3409.9,21599.6,440.5,""while_blue"",""left"",""right"",""bad_move"",29200.9,3749.1,3129.5,25451.8,619.6,""smooth"",""left"",""left"",""good_move"",32416.5,3215.3,2554.5,29201.2,660.8,""smooth"",""left"",""left"",""good_move"",36097.2,3680.3,3256.2,32416.9,424.1,""smooth"",""left"",""left"",""good_move"",39607.5,3509.4,3001.4,36098.1,508,""smooth"",""down"",""down"",""good_move""]"
"5307","","<div style=""width:500px;"">
  <p>What determined the result of this run?</p>
  </div>","21","html-slider-response","74","1114664","0.0-7.0-1.12","39","1","2025-07-30 08:42:10","36c45c0696341be0efffe67d72a12abb","102.209.191.18","Mozilla/5.0 (Windows NT 10.0; Win64; x64) AppleWebKit/537.36 (KHTML, like Gecko) Chrome/138.0.0.0 Safari/537.36","WebKit","Chrome","138.0.0.0","Windows","10.0","https://app.prolific.com/","en-US,en;q=0.9","67d7fa657f5ac0292a291a38","687a360dabe5252b5ada7185","6889dab2cc4abddb0f9e52c9","0","67d7fa657f5ac0292a291a38","0","2025-07-30T09:00:47.478Z","","","","AttribQ","","","","","","","","","","","50","","","","","","","","","","","","","","","","","","","","","","","","","","",""
"2659","","<div style=""width:500px;"">
  <p>How much control did you have over the ball?</p>
  </div>","63","html-slider-response","75","1117329","0.0-7.0-2.12","39","1","2025-07-30 08:42:10","36c45c0696341be0efffe67d72a12abb","102.209.191.18","Mozilla/5.0 (Windows NT 10.0; Win64; x64) AppleWebKit/537.36 (KHTML, like Gecko) Chrome/138.0.0.0 Safari/537.36","WebKit","Chrome","138.0.0.0","Windows","10.0","https://app.prolific.com/","en-US,en;q=0.9","67d7fa657f5ac0292a291a38","687a360dabe5252b5ada7185","6889dab2cc4abddb0f9e52c9","0","67d7fa657f5ac0292a291a38","0","2025-07-30T09:00:50.144Z","","","","ControlQ","","","","","","","","","","","50","","","","","","","","","","","","","","","","","","","","","","","","","","",""
"3012","","<div style=""width:500px;"">
  <p>How would you describe your current emotional state?</p>
  </div>","32","html-slider-response","76","1120345","0.0-7.0-3.12","39","1","2025-07-30 08:42:10","36c45c0696341be0efffe67d72a12abb","102.209.191.18","Mozilla/5.0 (Windows NT 10.0; Win64; x64) AppleWebKit/537.36 (KHTML, like Gecko) Chrome/138.0.0.0 Safari/537.36","WebKit","Chrome","138.0.0.0","Windows","10.0","https://app.prolific.com/","en-US,en;q=0.9","67d7fa657f5ac0292a291a38","687a360dabe5252b5ada7185","6889dab2cc4abddb0f9e52c9","0","67d7fa657f5ac0292a291a38","0","2025-07-30T09:00:53.159Z","","","","StressQ","","","","","","","","","","","50","","","","","","","","","","","","","","","","","","","","","","","","","","",""
"3356","","<div style=""width:500px;"">
  <p>What best describes how you currently feel?</p>
  </div>","61","html-slider-response","77","1123707","0.0-7.0-4.12","39","1","2025-07-30 08:42:10","36c45c0696341be0efffe67d72a12abb","102.209.191.18","Mozilla/5.0 (Windows NT 10.0; Win64; x64) AppleWebKit/537.36 (KHTML, like Gecko) Chrome/138.0.0.0 Safari/537.36","WebKit","Chrome","138.0.0.0","Windows","10.0","https://app.prolific.com/","en-US,en;q=0.9","67d7fa657f5ac0292a291a38","687a360dabe5252b5ada7185","6889dab2cc4abddb0f9e52c9","0","67d7fa657f5ac0292a291a38","0","2025-07-30T09:00:56.521Z","","","","MotivationQ","","","","","","","","","","","50","","","","","","","","","","","","","","","","","","","","","","","","","","",""
