"rt","response_timestamp","stimulus","response","trial_type","trial_index","time_elapsed","internal_node_id","run_id","condition","recorded_at","source_code_version","ip","user_agent","device","browser","browser_version","platform","platform_version","referer","accept_language","PROLIFIC_PID","STUDY_ID","SESSION_ID","BATCH","prolific_id","batch","realtime","success","question_order","question_id","eventType","responses","item_order","radio_event_ids","radio_event_times","key_event_times","mouse_event_times","straightlining","zigzagging","honeypot","view_history","slider_start","which_type","canvas_config","goals_layout","control_level","trial_number","tutorial_trial_number","trial_start_time","phase1_start_time","phase2_start_time","phase3_start_time","goal_1_value","goal_1_distance","goal_2_value","goal_2_distance","goal_selected","outcome","outcome_total","participant_final_score","participant_initial_score","participant_final_score_prop","goal_choice_rt","allocated_time","allocated_time_remaining","goal_direction","counts","mouse_movements","key_presses"
"247923","1754474969751","<p style='font-size:40px;line-height:1.25'><strong>Welcome to the experiment!</strong></p><p style='font-size:1.1em;line-height:1.25'>Thank you for participanting in our experiment again! You will be asked to play the Dysfunctional Ball Game again. We will briefly recap the rules before we start.</p><p style='font-size:1.1em;line-height:1.25'>Press <strong>Next</strong> to continue.</p>","0","custom-html-button-response","0","247925","0.0-0.0","173","1","2025-08-06 10:05:16","36c45c0696341be0efffe67d72a12abb","105.12.4.189","Mozilla/5.0 (Windows NT 10.0; Win64; x64) AppleWebKit/537.36 (KHTML, like Gecko) Chrome/138.0.0.0 Safari/537.36","WebKit","Chrome","138.0.0.0","Windows","10.0","https://app.prolific.com/","en-GB,en-US;q=0.9,en;q=0.8","67d95269b47464c18da766ca","687a1a965b9f5b85a264363e","689328d4c62e1d06e42c24e8","1","67d95269b47464c18da766ca","1","2025-08-06T10:09:29.752Z","","","","","","","","","","","","","","","","","","","","","","","","","","","","","","","","","","","","","","","","","",""
"6011","","","","fullscreen","1","254960","0.0-1.0","173","1","2025-08-06 10:05:16","36c45c0696341be0efffe67d72a12abb","105.12.4.189","Mozilla/5.0 (Windows NT 10.0; Win64; x64) AppleWebKit/537.36 (KHTML, like Gecko) Chrome/138.0.0.0 Safari/537.36","WebKit","Chrome","138.0.0.0","Windows","10.0","https://app.prolific.com/","en-GB,en-US;q=0.9,en;q=0.8","67d95269b47464c18da766ca","687a1a965b9f5b85a264363e","689328d4c62e1d06e42c24e8","1","67d95269b47464c18da766ca","1","","true","","","","","","","","","","","","","","","","","","","","","","","","","","","","","","","","","","","","","","","","",""
"91156","1754475067943"," <p style='font-size:1.1em;line-height:1.25'>Thank you for closing all other tabs.</p><p style='font-size:1.1em;line-height:1.25'>We will now invite you to fill in some questionnaires, before starting the game.<br>This will take about 5 minutes.<br></p><p style='font-size:1.1em;line-height:1.25'>Press the <strong>Next</strong> button to continue.</p>","0","custom-html-button-response","2","346117","0.0-2.0","173","1","2025-08-06 10:05:16","36c45c0696341be0efffe67d72a12abb","105.12.4.189","Mozilla/5.0 (Windows NT 10.0; Win64; x64) AppleWebKit/537.36 (KHTML, like Gecko) Chrome/138.0.0.0 Safari/537.36","WebKit","Chrome","138.0.0.0","Windows","10.0","https://app.prolific.com/","en-GB,en-US;q=0.9,en;q=0.8","67d95269b47464c18da766ca","687a1a965b9f5b85a264363e","689328d4c62e1d06e42c24e8","1","67d95269b47464c18da766ca","1","2025-08-06T10:11:07.944Z","","","","","","","","","","","","","","","","","","","","","","","","","","","","","","","","","","","","","","","","","",""
"5034","","","{""assigned_sex"":""female""}","survey-multi-choice","3","351154","0.0-3.0-0.0","173","1","2025-08-06 10:05:16","36c45c0696341be0efffe67d72a12abb","105.12.4.189","Mozilla/5.0 (Windows NT 10.0; Win64; x64) AppleWebKit/537.36 (KHTML, like Gecko) Chrome/138.0.0.0 Safari/537.36","WebKit","Chrome","138.0.0.0","Windows","10.0","https://app.prolific.com/","en-GB,en-US;q=0.9,en;q=0.8","67d95269b47464c18da766ca","687a1a965b9f5b85a264363e","689328d4c62e1d06e42c24e8","1","67d95269b47464c18da766ca","1","","","[0]","0","demographics","","","","","","","","","","","","","","","","","","","","","","","","","","","","","","","","","","","","","",""
"2232","1754475075213","<p style='font-size:1.1em;line-height:1.25'>In the following, we will perform a baseline assessment. This means that we will ask you a few questions relating to your experiences over the past month.<br></p><p style='font-size:1.1em;line-height:1.25'>Press the <strong>Next</strong> button to continue.</p>","0","custom-html-button-response","4","353387","0.0-4.0-0.0","173","1","2025-08-06 10:05:16","36c45c0696341be0efffe67d72a12abb","105.12.4.189","Mozilla/5.0 (Windows NT 10.0; Win64; x64) AppleWebKit/537.36 (KHTML, like Gecko) Chrome/138.0.0.0 Safari/537.36","WebKit","Chrome","138.0.0.0","Windows","10.0","https://app.prolific.com/","en-GB,en-US;q=0.9,en;q=0.8","67d95269b47464c18da766ca","687a1a965b9f5b85a264363e","689328d4c62e1d06e42c24e8","1","67d95269b47464c18da766ca","1","2025-08-06T10:11:15.214Z","","","","","","","","","","","","","","","","","","","","","","","","","","","","","","","","","","","","","","","","","",""
"80977.39999997616","","","","survey-template","5","434367","0.0-4.0-1.0","173","1","2025-08-06 10:05:16","36c45c0696341be0efffe67d72a12abb","105.12.4.189","Mozilla/5.0 (Windows NT 10.0; Win64; x64) AppleWebKit/537.36 (KHTML, like Gecko) Chrome/138.0.0.0 Safari/537.36","WebKit","Chrome","138.0.0.0","Windows","10.0","https://app.prolific.com/","en-GB,en-US;q=0.9,en;q=0.8","67d95269b47464c18da766ca","687a1a965b9f5b85a264363e","689328d4c62e1d06e42c24e8","1","67d95269b47464c18da766ca","1","2025-08-06T10:12:36.194Z","","","","pss","{""Q01"":""1"",""Q02"":""1"",""Q03"":""2"",""Q04"":""1"",""Q05"":""1"",""Q06"":""1"",""Q07"":""1"",""Q08"":""1"",""Q09"":""2"",""Q10"":""1""}","[0,1,2,3,4,5,6,7,8,9]","[""Q01"",""Q02"",""Q03"",""Q03"",""Q04"",""Q05"",""Q06"",""Q07"",""Q08"",""Q09"",""Q10""]","[10145.899999976158,17578.100000023842,21791.600000023842,23236.69999998808,33549.39999997616,38081.39999997616,45765,51112.39999997616,56507.39999997616,64736.60000002384,73072.5]","[]","[0,9121.100000023842,10145.899999976158,17578.100000023842,21791.600000023842,23236.69999998808,33549.39999997616,38081.39999997616,45765,51112.39999997616,56507.39999997616,63664.69999998808,64736.60000002384,73072.5,80974.89999997616]","0.4","0.4444444444444444","0","","","","","","","","","","","","","","","","","","","","","","","","","","","","",""
"2678","1754475158873","<p style='font-size:1.1em;line-height:1.25'>Thank you for your answers! Now we will ask you a few more questions relating to your feelings in the last 24 hours.<br></p><p style='font-size:1.1em;line-height:1.25'>Press the <strong>Next</strong> button to continue.</p>","0","custom-html-button-response","6","437046","0.0-4.0-2.0","173","1","2025-08-06 10:05:16","36c45c0696341be0efffe67d72a12abb","105.12.4.189","Mozilla/5.0 (Windows NT 10.0; Win64; x64) AppleWebKit/537.36 (KHTML, like Gecko) Chrome/138.0.0.0 Safari/537.36","WebKit","Chrome","138.0.0.0","Windows","10.0","https://app.prolific.com/","en-GB,en-US;q=0.9,en;q=0.8","67d95269b47464c18da766ca","687a1a965b9f5b85a264363e","689328d4c62e1d06e42c24e8","1","67d95269b47464c18da766ca","1","2025-08-06T10:12:38.874Z","","","","","","","","","","","","","","","","","","","","","","","","","","","","","","","","","","","","","","","","","",""
"116592.09999996424","","","","survey-template","7","553643","0.0-4.0-3.0","173","1","2025-08-06 10:05:16","36c45c0696341be0efffe67d72a12abb","105.12.4.189","Mozilla/5.0 (Windows NT 10.0; Win64; x64) AppleWebKit/537.36 (KHTML, like Gecko) Chrome/138.0.0.0 Safari/537.36","WebKit","Chrome","138.0.0.0","Windows","10.0","https://app.prolific.com/","en-GB,en-US;q=0.9,en;q=0.8","67d95269b47464c18da766ca","687a1a965b9f5b85a264363e","689328d4c62e1d06e42c24e8","1","67d95269b47464c18da766ca","1","2025-08-06T10:14:35.470Z","","","","drsp","{""Q01"":""0"",""Q02"":""0"",""Q03"":""0"",""Q04"":""1"",""Q05"":""1"",""Q06"":""0"",""Q07"":""0"",""Q08"":""0"",""Q09"":""0"",""Q10"":""0"",""Q11"":""1"",""Q12"":""0"",""Q13"":""5"",""Q14"":""1"",""Q15"":""0"",""Q16"":""0"",""Q17"":""0"",""Q18"":""0"",""Q19"":""0"",""Q20"":""0"",""Q21"":""0"",""Q22"":""0""}","[0,1,2,3,4,5,6,7,8,9,10,11,12,13,14,15,16,17,18,19,20,21]","[""Q01"",""Q02"",""Q03"",""Q04"",""Q05"",""Q06"",""Q08"",""Q07"",""Q10"",""Q11"",""Q12"",""Q13"",""Q14"",""Q15"",""Q17"",""Q16"",""Q18"",""Q19"",""Q20"",""Q21"",""Q22"",""Q09""]","[23612.399999976158,24642.899999976158,25695.5,29201.899999976158,30338.69999998808,43806.299999952316,47429.299999952316,48303.19999998808,54360.19999998808,67141.5,68179.19999998808,71371.69999998808,74520.5,80487.89999997616,85486.29999995232,87777.59999996424,89209.69999998808,92893.79999995232,98024.5,101205.69999998808,104120.29999995232,113337.89999997616]","[]","[0,23612.399999976158,24642.899999976158,25695.5,27955.899999976158,29201.899999976158,30338.69999998808,42866.89999997616,43806.299999952316,45064.59999996424,46543.59999996424,47429.299999952316,48303.19999998808,51431.69999998808,53448.89999997616,54360.19999998808,55266.19999998808,67141.5,68179.19999998808,71371.69999998808,74520.5,79002.59999996424,80487.89999997616,81617.5,85486.29999995232,86202.09999996424,87777.59999996424,89209.69999998808,92893.79999995232,98024.5,101205.69999998808,102510.19999998808,104120.29999995232,106496.59999996424,113337.89999997616,116586.5]","0.7727272727272727","0.2857142857142857","0","","","","","","","","","","","","","","","","","","","","","","","","","","","","",""
"18750.30000001192","","","","survey-template","8","572396","0.0-4.0-4.0","173","1","2025-08-06 10:05:16","36c45c0696341be0efffe67d72a12abb","105.12.4.189","Mozilla/5.0 (Windows NT 10.0; Win64; x64) AppleWebKit/537.36 (KHTML, like Gecko) Chrome/138.0.0.0 Safari/537.36","WebKit","Chrome","138.0.0.0","Windows","10.0","https://app.prolific.com/","en-GB,en-US;q=0.9,en;q=0.8","67d95269b47464c18da766ca","687a1a965b9f5b85a264363e","689328d4c62e1d06e42c24e8","1","67d95269b47464c18da766ca","1","2025-08-06T10:14:54.223Z","","","","stress","{""Q01"":""0"",""Q02"":""5"",""Q03"":""0""}","[0,1,2]","[""Q01"",""Q02"",""Q03""]","[12012,12958.800000011921,17298.100000023842]","[]","[9851.300000011921,11005.899999976158,12012,12958.800000011921,14231.899999976158,15305.199999988079,17298.100000023842,18748.399999976158]","1","0","0","","","","","","","","","","","","","","","","","","","","","","","","","","","","",""
"215748","","","","instructions","9","788145","0.0-5.0-0.0","173","1","2025-08-06 10:05:16","36c45c0696341be0efffe67d72a12abb","105.12.4.189","Mozilla/5.0 (Windows NT 10.0; Win64; x64) AppleWebKit/537.36 (KHTML, like Gecko) Chrome/138.0.0.0 Safari/537.36","WebKit","Chrome","138.0.0.0","Windows","10.0","https://app.prolific.com/","en-GB,en-US;q=0.9,en;q=0.8","67d95269b47464c18da766ca","687a1a965b9f5b85a264363e","689328d4c62e1d06e42c24e8","1","67d95269b47464c18da766ca","1","","","","","","","","","","","","","","","[{""page_index"":0,""viewing_time"":215748}]","","","","","","","","","","","","","","","","","","","","","","","","","","","",""
"14797","","<p>Before you start with this game please answer the following three questions yourself. </p>
  <p>Through this game, we measure several aspects of your cognitive performance, such as reaction times, multi-tasking capabilities </p>
  <p>and the ability to assess the situation you are in.</p>
  <p></p>
  <p><b>How good do you usually are in such tasks?</b></p>","54","html-slider-response","10","802946","0.0-6.0-0.0","173","1","2025-08-06 10:05:16","36c45c0696341be0efffe67d72a12abb","105.12.4.189","Mozilla/5.0 (Windows NT 10.0; Win64; x64) AppleWebKit/537.36 (KHTML, like Gecko) Chrome/138.0.0.0 Safari/537.36","WebKit","Chrome","138.0.0.0","Windows","10.0","https://app.prolific.com/","en-GB,en-US;q=0.9,en;q=0.8","67d95269b47464c18da766ca","687a1a965b9f5b85a264363e","689328d4c62e1d06e42c24e8","1","67d95269b47464c18da766ca","1","2025-08-06T10:18:44.773Z","","","","PreSkillQ","","","","","","","","","","","50","","","","","","","","","","","","","","","","","","","","","","","","","","",""
"6449","","<div style=""width:500px;"">
  <p>How well do you think you will perform in this task compared to other participants?</p>
  </div>","50","html-slider-response","11","809396","0.0-6.0-1.0","173","1","2025-08-06 10:05:16","36c45c0696341be0efffe67d72a12abb","105.12.4.189","Mozilla/5.0 (Windows NT 10.0; Win64; x64) AppleWebKit/537.36 (KHTML, like Gecko) Chrome/138.0.0.0 Safari/537.36","WebKit","Chrome","138.0.0.0","Windows","10.0","https://app.prolific.com/","en-GB,en-US;q=0.9,en;q=0.8","67d95269b47464c18da766ca","687a1a965b9f5b85a264363e","689328d4c62e1d06e42c24e8","1","67d95269b47464c18da766ca","1","2025-08-06T10:18:51.223Z","","","","PrePerfQ","","","","","","","","","","","50","","","","","","","","","","","","","","","","","","","","","","","","","","",""
"7549","","<div style=""width:500px;"">
  <p>What best describes how you currently feel?</p>
  </div>","85","html-slider-response","12","816946","0.0-6.0-2.0","173","1","2025-08-06 10:05:16","36c45c0696341be0efffe67d72a12abb","105.12.4.189","Mozilla/5.0 (Windows NT 10.0; Win64; x64) AppleWebKit/537.36 (KHTML, like Gecko) Chrome/138.0.0.0 Safari/537.36","WebKit","Chrome","138.0.0.0","Windows","10.0","https://app.prolific.com/","en-GB,en-US;q=0.9,en;q=0.8","67d95269b47464c18da766ca","687a1a965b9f5b85a264363e","689328d4c62e1d06e42c24e8","1","67d95269b47464c18da766ca","1","2025-08-06T10:18:58.773Z","","","","PreMotivationQ","","","","","","","","","","","50","","","","","","","","","","","","","","","","","","","","","","","","","","",""
"","","","","ctl-task-cpt","13","862458","0.0-7.0-0.0","173","1","2025-08-06 10:05:16","36c45c0696341be0efffe67d72a12abb","105.12.4.189","Mozilla/5.0 (Windows NT 10.0; Win64; x64) AppleWebKit/537.36 (KHTML, like Gecko) Chrome/138.0.0.0 Safari/537.36","WebKit","Chrome","138.0.0.0","Windows","10.0","https://app.prolific.com/","en-GB,en-US;q=0.9,en;q=0.8","67d95269b47464c18da766ca","687a1a965b9f5b85a264363e","689328d4c62e1d06e42c24e8","1","67d95269b47464c18da766ca","1","2025-08-06T10:19:44.285Z","","","","","","","","","","","","","","","","win-only","0","g1:NW,g2:SE","1","1","0","822223.1","5271.7","10277","42499.4","1","4","8","6","2","-8","-9","0","0","0","5005.3","3000","-2695","[""down"",""right""]","{""num_key_presses"":6,""num_perfect"":5,""num_errors"":1,""num_randdir"":0,""num_randdir_good_moves"":0,""num_whilered"":0,""num_whileblue"":0,""num_blue"":4,""num_good_moves"":5}","[419.0714133126395,417.82142761775424,1.4,419.0714133126395,417.82142761775424,105.5,419.0714133126395,417.82142761775424,208.9,419.0714133126395,417.82142761775424,309.6,419.0714133126395,417.82142761775424,410.2,419.0714133126395,417.82142761775424,514.8,419.0714133126395,417.82142761775424,621.4,419.0714133126395,417.82142761775424,722.3,419.0714133126395,417.82142761775424,824.8,419.0714133126395,417.82142761775424,929.2,419.0714133126395,417.82142761775424,1038.5,419.0714133126395,417.82142761775424,1139.3,419.0714133126395,417.82142761775424,1245.2,419.0714133126395,417.82142761775424,1345.8,419.0714133126395,417.82142761775424,1445.8,419.0714133126395,417.82142761775424,1545.9,419.0714133126395,417.82142761775424,1650.4,419.0714133126395,417.82142761775424,1755.5,419.0714133126395,417.82142761775424,1859.3,419.0714133126395,417.82142761775424,1960.3,419.0714133126395,417.82142761775424,2064.4,419.0714133126395,417.82142761775424,2165.5,419.0714133126395,417.82142761775424,2272,419.0714133126395,417.82142761775424,2374.4,419.0714133126395,417.82142761775424,2480.4,419.0714133126395,417.82142761775424,2588.5,419.0714133126395,417.82142761775424,2689.9,419.0714133126395,417.82142761775424,2795.2,419.0714133126395,417.82142761775424,2904.8,419.0714133126395,417.82142761775424,3009.6,419.0714133126395,417.82142761775424,3110.2,419.0714133126395,417.82142761775424,3215.4,419.0714133126395,417.82142761775424,3322,419.0714133126395,417.82142761775424,3423.6,419.0714133126395,417.82142761775424,3524.2,419.0714133126395,417.82142761775424,3624.8,419.0714133126395,417.82142761775424,3729.5,419.0714133126395,417.82142761775424,3829.5,419.0714133126395,417.82142761775424,3929.8,419.0714133126395,417.82142761775424,4038,419.0714133126395,417.82142761775424,4138.4,419.0714133126395,417.82142761775424,4239.7,419.0714133126395,417.82142761775424,4345.4,419.0714133126395,417.82142761775424,4454.8,419.0714133126395,417.82142761775424,4554.8,419.0714133126395,417.82142761775424,4659.6,419.0714133126395,417.82142761775424,4764.9,419.0714133126395,417.82142761775424,4871.9,419.0714133126395,417.82142761775424,4973.1]","[343.6,343.6,1000,0,-656.4,""error"",""-"",""-"",""no_move"",7396.8,7053.1,2103.3,4833,460.5,""smooth"",""right"",""right"",""good_move"",10132.5,2734.9,2171.4,7397.6,563.5,""smooth"",""right"",""right"",""good_move"",12981.8,2849.1,2247.7,10132.7,601.4,""smooth"",""right"",""right"",""good_move"",16203.3,3221.3,2263.6,12982,957.7,""smooth"",""down"",""down"",""good_move"",29414.6,13210.7,1841.4,26920.2,653,""smooth"",""down"",""down"",""good_move""]"
"16356","","<div style=""width:500px;"">
  <p>What determined the result of this run?</p>
  </div>","48","html-slider-response","14","878816","0.0-7.0-1.0","173","1","2025-08-06 10:05:16","36c45c0696341be0efffe67d72a12abb","105.12.4.189","Mozilla/5.0 (Windows NT 10.0; Win64; x64) AppleWebKit/537.36 (KHTML, like Gecko) Chrome/138.0.0.0 Safari/537.36","WebKit","Chrome","138.0.0.0","Windows","10.0","https://app.prolific.com/","en-GB,en-US;q=0.9,en;q=0.8","67d95269b47464c18da766ca","687a1a965b9f5b85a264363e","689328d4c62e1d06e42c24e8","1","67d95269b47464c18da766ca","1","2025-08-06T10:20:00.643Z","","","","AttribQ","","","","","","","","","","","50","","","","","","","","","","","","","","","","","","","","","","","","","","",""
"6411","","<div style=""width:500px;"">
  <p>How much control did you have over the ball?</p>
  </div>","50","html-slider-response","15","885228","0.0-7.0-2.0","173","1","2025-08-06 10:05:16","36c45c0696341be0efffe67d72a12abb","105.12.4.189","Mozilla/5.0 (Windows NT 10.0; Win64; x64) AppleWebKit/537.36 (KHTML, like Gecko) Chrome/138.0.0.0 Safari/537.36","WebKit","Chrome","138.0.0.0","Windows","10.0","https://app.prolific.com/","en-GB,en-US;q=0.9,en;q=0.8","67d95269b47464c18da766ca","687a1a965b9f5b85a264363e","689328d4c62e1d06e42c24e8","1","67d95269b47464c18da766ca","1","2025-08-06T10:20:07.055Z","","","","ControlQ","","","","","","","","","","","50","","","","","","","","","","","","","","","","","","","","","","","","","","",""
"5405","","<div style=""width:500px;"">
  <p>How would you describe your current emotional state?</p>
  </div>","45","html-slider-response","16","890635","0.0-7.0-3.0","173","1","2025-08-06 10:05:16","36c45c0696341be0efffe67d72a12abb","105.12.4.189","Mozilla/5.0 (Windows NT 10.0; Win64; x64) AppleWebKit/537.36 (KHTML, like Gecko) Chrome/138.0.0.0 Safari/537.36","WebKit","Chrome","138.0.0.0","Windows","10.0","https://app.prolific.com/","en-GB,en-US;q=0.9,en;q=0.8","67d95269b47464c18da766ca","687a1a965b9f5b85a264363e","689328d4c62e1d06e42c24e8","1","67d95269b47464c18da766ca","1","2025-08-06T10:20:12.462Z","","","","StressQ","","","","","","","","","","","50","","","","","","","","","","","","","","","","","","","","","","","","","","",""
"4928","","<div style=""width:500px;"">
  <p>What best describes how you currently feel?</p>
  </div>","61","html-slider-response","17","895563","0.0-7.0-4.0","173","1","2025-08-06 10:05:16","36c45c0696341be0efffe67d72a12abb","105.12.4.189","Mozilla/5.0 (Windows NT 10.0; Win64; x64) AppleWebKit/537.36 (KHTML, like Gecko) Chrome/138.0.0.0 Safari/537.36","WebKit","Chrome","138.0.0.0","Windows","10.0","https://app.prolific.com/","en-GB,en-US;q=0.9,en;q=0.8","67d95269b47464c18da766ca","687a1a965b9f5b85a264363e","689328d4c62e1d06e42c24e8","1","67d95269b47464c18da766ca","1","2025-08-06T10:20:17.390Z","","","","MotivationQ","","","","","","","","","","","50","","","","","","","","","","","","","","","","","","","","","","","","","","",""
"","","","","ctl-task-cpt","18","928647","0.0-7.0-0.1","173","1","2025-08-06 10:05:16","36c45c0696341be0efffe67d72a12abb","105.12.4.189","Mozilla/5.0 (Windows NT 10.0; Win64; x64) AppleWebKit/537.36 (KHTML, like Gecko) Chrome/138.0.0.0 Safari/537.36","WebKit","Chrome","138.0.0.0","Windows","10.0","https://app.prolific.com/","en-GB,en-US;q=0.9,en;q=0.8","67d95269b47464c18da766ca","687a1a965b9f5b85a264363e","689328d4c62e1d06e42c24e8","1","67d95269b47464c18da766ca","1","2025-08-06T10:20:50.474Z","","","","","","","","","","","","","","","","win-only","3","g1:SW,g2:NE","0.9","2","0","900838.5","7497.5","12501.8","30071.6","1","4","4","6","1","1","1","1","0","0.007575757575757576","5004.3","3000","1000","[""down"",""left""]","{""num_key_presses"":4,""num_perfect"":4,""num_errors"":0,""num_randdir"":0,""num_randdir_good_moves"":0,""num_whilered"":0,""num_whileblue"":0,""num_blue"":2,""num_good_moves"":4}","[407.8214133126395,422.82142761775424,0.2,407.8214133126395,422.82142761775424,104.4,407.8214133126395,422.82142761775424,204.5,407.8214133126395,425.32142761775424,308,447.8214133126395,484.07142761775424,410.8,456.5714133126395,492.82142761775424,513.5,456.5714133126395,492.82142761775424,613.8,757.8214133126395,755.3214276177542,718.1,761.5714133126395,760.3214276177542,819.7,761.5714133126395,760.3214276177542,923.4,761.5714133126395,760.3214276177542,1023.8,761.5714133126395,760.3214276177542,1128.6,761.5714133126395,760.3214276177542,1228.6,761.5714133126395,760.3214276177542,1334.7,761.5714133126395,760.3214276177542,1439.1,761.5714133126395,760.3214276177542,1544.5,761.5714133126395,760.3214276177542,1646,761.5714133126395,760.3214276177542,1746.1,761.5714133126395,760.3214276177542,1849.6,761.5714133126395,760.3214276177542,1954.2,761.5714133126395,760.3214276177542,2054.2,761.5714133126395,760.3214276177542,2159.7,761.5714133126395,760.3214276177542,2263.2,761.5714133126395,760.3214276177542,2364.1,761.5714133126395,760.3214276177542,2468.2,761.5714133126395,760.3214276177542,2569,761.5714133126395,760.3214276177542,2673.4,761.5714133126395,760.3214276177542,2776.5,761.5714133126395,760.3214276177542,2879.9,761.5714133126395,760.3214276177542,2984.8,761.5714133126395,760.3214276177542,3089.2,761.5714133126395,760.3214276177542,3195.8,761.5714133126395,760.3214276177542,3299,761.5714133126395,760.3214276177542,3404.6,761.5714133126395,760.3214276177542,3509.7,761.5714133126395,760.3214276177542,3610.8,761.5714133126395,760.3214276177542,3713.1,761.5714133126395,760.3214276177542,3813.7,761.5714133126395,760.3214276177542,3919,761.5714133126395,760.3214276177542,4019.3,761.5714133126395,760.3214276177542,4124.2,761.5714133126395,760.3214276177542,4228.8,761.5714133126395,760.3214276177542,4329,761.5714133126395,760.3214276177542,4429.5,761.5714133126395,760.3214276177542,4534.2,761.5714133126395,760.3214276177542,4634.4,761.5714133126395,760.3214276177542,4739.1,761.5714133126395,760.3214276177542,4839.7,761.5714133126395,760.3214276177542,4949.8]","[5337.9,5337.9,2751.6,2004.9,581.4,""smooth"",""down"",""down"",""good_move"",11247.1,5908.6,2206.6,8569.7,470.8,""smooth"",""down"",""down"",""good_move"",13798.5,2551,2044.5,11247.5,506.5,""smooth"",""left"",""left"",""good_move"",17482,3682.9,3210.5,13799.1,472.4,""smooth"",""left"",""left"",""good_move""]"
"5125","","<div style=""width:500px;"">
  <p>What determined the result of this run?</p>
  </div>","44","html-slider-response","19","933774","0.0-7.0-1.1","173","1","2025-08-06 10:05:16","36c45c0696341be0efffe67d72a12abb","105.12.4.189","Mozilla/5.0 (Windows NT 10.0; Win64; x64) AppleWebKit/537.36 (KHTML, like Gecko) Chrome/138.0.0.0 Safari/537.36","WebKit","Chrome","138.0.0.0","Windows","10.0","https://app.prolific.com/","en-GB,en-US;q=0.9,en;q=0.8","67d95269b47464c18da766ca","687a1a965b9f5b85a264363e","689328d4c62e1d06e42c24e8","1","67d95269b47464c18da766ca","1","2025-08-06T10:20:55.601Z","","","","AttribQ","","","","","","","","","","","50","","","","","","","","","","","","","","","","","","","","","","","","","","",""
"3574","","<div style=""width:500px;"">
  <p>How much control did you have over the ball?</p>
  </div>","54","html-slider-response","20","937349","0.0-7.0-2.1","173","1","2025-08-06 10:05:16","36c45c0696341be0efffe67d72a12abb","105.12.4.189","Mozilla/5.0 (Windows NT 10.0; Win64; x64) AppleWebKit/537.36 (KHTML, like Gecko) Chrome/138.0.0.0 Safari/537.36","WebKit","Chrome","138.0.0.0","Windows","10.0","https://app.prolific.com/","en-GB,en-US;q=0.9,en;q=0.8","67d95269b47464c18da766ca","687a1a965b9f5b85a264363e","689328d4c62e1d06e42c24e8","1","67d95269b47464c18da766ca","1","2025-08-06T10:20:59.176Z","","","","ControlQ","","","","","","","","","","","50","","","","","","","","","","","","","","","","","","","","","","","","","","",""
"3313","","<div style=""width:500px;"">
  <p>How would you describe your current emotional state?</p>
  </div>","44","html-slider-response","21","940663","0.0-7.0-3.1","173","1","2025-08-06 10:05:16","36c45c0696341be0efffe67d72a12abb","105.12.4.189","Mozilla/5.0 (Windows NT 10.0; Win64; x64) AppleWebKit/537.36 (KHTML, like Gecko) Chrome/138.0.0.0 Safari/537.36","WebKit","Chrome","138.0.0.0","Windows","10.0","https://app.prolific.com/","en-GB,en-US;q=0.9,en;q=0.8","67d95269b47464c18da766ca","687a1a965b9f5b85a264363e","689328d4c62e1d06e42c24e8","1","67d95269b47464c18da766ca","1","2025-08-06T10:21:02.490Z","","","","StressQ","","","","","","","","","","","50","","","","","","","","","","","","","","","","","","","","","","","","","","",""
"29582","","<div style=""width:500px;"">
  <p>What best describes how you currently feel?</p>
  </div>","56","html-slider-response","22","970246","0.0-7.0-4.1","173","1","2025-08-06 10:05:16","36c45c0696341be0efffe67d72a12abb","105.12.4.189","Mozilla/5.0 (Windows NT 10.0; Win64; x64) AppleWebKit/537.36 (KHTML, like Gecko) Chrome/138.0.0.0 Safari/537.36","WebKit","Chrome","138.0.0.0","Windows","10.0","https://app.prolific.com/","en-GB,en-US;q=0.9,en;q=0.8","67d95269b47464c18da766ca","687a1a965b9f5b85a264363e","689328d4c62e1d06e42c24e8","1","67d95269b47464c18da766ca","1","2025-08-06T10:21:32.073Z","","","","MotivationQ","","","","","","","","","","","50","","","","","","","","","","","","","","","","","","","","","","","","","","",""
"","","","","ctl-task-cpt","23","1004873","0.0-7.0-0.2","173","1","2025-08-06 10:05:16","36c45c0696341be0efffe67d72a12abb","105.12.4.189","Mozilla/5.0 (Windows NT 10.0; Win64; x64) AppleWebKit/537.36 (KHTML, like Gecko) Chrome/138.0.0.0 Safari/537.36","WebKit","Chrome","138.0.0.0","Windows","10.0","https://app.prolific.com/","en-GB,en-US;q=0.9,en;q=0.8","67d95269b47464c18da766ca","687a1a965b9f5b85a264363e","689328d4c62e1d06e42c24e8","1","67d95269b47464c18da766ca","1","2025-08-06T10:22:06.700Z","","","","","","","","","","","","","","","","win-only","2","g1:SE,g2:NW","0.8","3","0","975522.1","1923.9","6926.7","31620.8","1","4","4","6","1","1","0","1","1","0.007575757575757576","5002.8","3000","1090","[""down"",""right""]","{""num_key_presses"":5,""num_perfect"":2,""num_errors"":1,""num_randdir"":2,""num_randdir_good_moves"":2,""num_whilered"":0,""num_whileblue"":0,""num_blue"":3,""num_good_moves"":4}","[406.5714133126395,421.57142761775424,0.2,406.5714133126395,421.57142761775424,101.7,406.5714133126395,421.57142761775424,202.3,406.5714133126395,421.57142761775424,307.2,409.0714133126395,431.57142761775424,407.6,471.5714133126395,566.5714276177542,515.8,514.0714133126395,606.5714276177542,617.4,520.3214133126395,616.5714276177542,721.7,564.0714133126395,656.5714276177542,822.7,637.8214133126395,694.0714276177542,932.3,750.3214133126395,707.8214276177542,1036.1,816.5714133126395,731.5714276177542,1137.4,816.5714133126395,731.5714276177542,1242.2,816.5714133126395,731.5714276177542,1344.8,816.5714133126395,731.5714276177542,1451.9,816.5714133126395,731.5714276177542,1552.6,816.5714133126395,731.5714276177542,1656.9,816.5714133126395,731.5714276177542,1765.6,816.5714133126395,731.5714276177542,1865.7,816.5714133126395,731.5714276177542,1966.3,816.5714133126395,731.5714276177542,2067.3,816.5714133126395,731.5714276177542,2167.5,816.5714133126395,731.5714276177542,2267.9,816.5714133126395,731.5714276177542,2372.5,816.5714133126395,731.5714276177542,2472.6,816.5714133126395,731.5714276177542,2582.5,816.5714133126395,731.5714276177542,2682.9,816.5714133126395,731.5714276177542,2786.9,816.5714133126395,731.5714276177542,2886.9,816.5714133126395,731.5714276177542,2987.4,816.5714133126395,731.5714276177542,3087.6,816.5714133126395,731.5714276177542,3192.7,816.5714133126395,731.5714276177542,3293.4,816.5714133126395,731.5714276177542,3393.6,816.5714133126395,731.5714276177542,3499.5,816.5714133126395,731.5714276177542,3601.7,816.5714133126395,731.5714276177542,3703.4,816.5714133126395,731.5714276177542,3808.3,816.5714133126395,731.5714276177542,3916.4,816.5714133126395,731.5714276177542,4017.4,816.5714133126395,731.5714276177542,4122.2,816.5714133126395,731.5714276177542,4222.3,816.5714133126395,731.5714276177542,4333.3,816.5714133126395,731.5714276177542,4436.8,816.5714133126395,731.5714276177542,4537.3,816.5714133126395,731.5714276177542,4637.4,816.5714133126395,731.5714276177542,4738.2,816.5714133126395,731.5714276177542,4843.2,816.5714133126395,731.5714276177542,4948.9]","[485.8,485.8,1000,0,-514.2,""error"",""-"",""-"",""no_move"",4711.9,4225.9,2686.6,1489.2,536.1,""oops"",""right"",""right"",""good_move"",7497.1,2784.6,2161.3,4712.5,623.3,""smooth"",""right"",""right"",""good_move"",14328.3,6830.8,2640.6,11162.3,525.4,""smooth"",""right"",""down"",""good_move"",24588.5,10259.9,2114.4,21954.4,519.7,""oops"",""right"",""down"",""good_move""]"
"11011","","<div style=""width:500px;"">
  <p>What determined the result of this run?</p>
  </div>","47","html-slider-response","24","1015885","0.0-7.0-1.2","173","1","2025-08-06 10:05:16","36c45c0696341be0efffe67d72a12abb","105.12.4.189","Mozilla/5.0 (Windows NT 10.0; Win64; x64) AppleWebKit/537.36 (KHTML, like Gecko) Chrome/138.0.0.0 Safari/537.36","WebKit","Chrome","138.0.0.0","Windows","10.0","https://app.prolific.com/","en-GB,en-US;q=0.9,en;q=0.8","67d95269b47464c18da766ca","687a1a965b9f5b85a264363e","689328d4c62e1d06e42c24e8","1","67d95269b47464c18da766ca","1","2025-08-06T10:22:17.713Z","","","","AttribQ","","","","","","","","","","","50","","","","","","","","","","","","","","","","","","","","","","","","","","",""
"4255","","<div style=""width:500px;"">
  <p>How much control did you have over the ball?</p>
  </div>","55","html-slider-response","25","1020141","0.0-7.0-2.2","173","1","2025-08-06 10:05:16","36c45c0696341be0efffe67d72a12abb","105.12.4.189","Mozilla/5.0 (Windows NT 10.0; Win64; x64) AppleWebKit/537.36 (KHTML, like Gecko) Chrome/138.0.0.0 Safari/537.36","WebKit","Chrome","138.0.0.0","Windows","10.0","https://app.prolific.com/","en-GB,en-US;q=0.9,en;q=0.8","67d95269b47464c18da766ca","687a1a965b9f5b85a264363e","689328d4c62e1d06e42c24e8","1","67d95269b47464c18da766ca","1","2025-08-06T10:22:21.968Z","","","","ControlQ","","","","","","","","","","","50","","","","","","","","","","","","","","","","","","","","","","","","","","",""
"3105","","<div style=""width:500px;"">
  <p>How would you describe your current emotional state?</p>
  </div>","44","html-slider-response","26","1023247","0.0-7.0-3.2","173","1","2025-08-06 10:05:16","36c45c0696341be0efffe67d72a12abb","105.12.4.189","Mozilla/5.0 (Windows NT 10.0; Win64; x64) AppleWebKit/537.36 (KHTML, like Gecko) Chrome/138.0.0.0 Safari/537.36","WebKit","Chrome","138.0.0.0","Windows","10.0","https://app.prolific.com/","en-GB,en-US;q=0.9,en;q=0.8","67d95269b47464c18da766ca","687a1a965b9f5b85a264363e","689328d4c62e1d06e42c24e8","1","67d95269b47464c18da766ca","1","2025-08-06T10:22:25.074Z","","","","StressQ","","","","","","","","","","","50","","","","","","","","","","","","","","","","","","","","","","","","","","",""
"5434","","<div style=""width:500px;"">
  <p>What best describes how you currently feel?</p>
  </div>","47","html-slider-response","27","1028682","0.0-7.0-4.2","173","1","2025-08-06 10:05:16","36c45c0696341be0efffe67d72a12abb","105.12.4.189","Mozilla/5.0 (Windows NT 10.0; Win64; x64) AppleWebKit/537.36 (KHTML, like Gecko) Chrome/138.0.0.0 Safari/537.36","WebKit","Chrome","138.0.0.0","Windows","10.0","https://app.prolific.com/","en-GB,en-US;q=0.9,en;q=0.8","67d95269b47464c18da766ca","687a1a965b9f5b85a264363e","689328d4c62e1d06e42c24e8","1","67d95269b47464c18da766ca","1","2025-08-06T10:22:30.510Z","","","","MotivationQ","","","","","","","","","","","50","","","","","","","","","","","","","","","","","","","","","","","","","","",""
"","","","","ctl-task-cpt","28","1072186","0.0-7.0-0.3","173","1","2025-08-06 10:05:16","36c45c0696341be0efffe67d72a12abb","105.12.4.189","Mozilla/5.0 (Windows NT 10.0; Win64; x64) AppleWebKit/537.36 (KHTML, like Gecko) Chrome/138.0.0.0 Safari/537.36","WebKit","Chrome","138.0.0.0","Windows","10.0","https://app.prolific.com/","en-GB,en-US;q=0.9,en;q=0.8","67d95269b47464c18da766ca","687a1a965b9f5b85a264363e","689328d4c62e1d06e42c24e8","1","67d95269b47464c18da766ca","1","2025-08-06T10:23:14.013Z","","","","","","","","","","","","","","","","win-only","0","g1:NW,g2:SE","0.7","4","0","1033957.9","1685.2","6685.9","40485.9","1","4","8","6","1","-1","-1","0","1","0","5000.7","3000","-2660","[""left"",""up""]","{""num_key_presses"":5,""num_perfect"":3,""num_errors"":0,""num_randdir"":2,""num_randdir_good_moves"":1,""num_whilered"":0,""num_whileblue"":0,""num_blue"":5,""num_good_moves"":1}","[411.5714133126395,422.82142761775424,0.1,411.5714133126395,422.82142761775424,100.1,411.5714133126395,422.82142761775424,200.1,411.5714133126395,422.82142761775424,300.3,421.5714133126395,436.57142761775424,405.6,450.3214133126395,491.57142761775424,505.7,466.5714133126395,551.5714276177542,610.5,499.0714133126395,615.3214276177542,718.5,514.0714133126395,651.5714276177542,820.5,521.5714133126395,675.3214276177542,920.8,522.8214133126395,677.8214276177542,1020.8,522.8214133126395,677.8214276177542,1121.5,556.5714133126395,696.5714276177542,1226.8,621.5714133126395,731.5714276177542,1334.1,760.3214133126395,761.5714276177542,1435.3,796.5714133126395,774.0714276177542,1536.4,839.0714133126395,780.3214276177542,1640.4,881.5714133126395,784.0714276177542,1741.5,885.3214133126395,784.0714276177542,1849.9,885.3214133126395,784.0714276177542,1953,885.3214133126395,784.0714276177542,2056.6,885.3214133126395,784.0714276177542,2166.9,885.3214133126395,784.0714276177542,2268.6,885.3214133126395,784.0714276177542,2370.9,885.3214133126395,784.0714276177542,2471.2,885.3214133126395,784.0714276177542,2576.4,885.3214133126395,784.0714276177542,2677.2,885.3214133126395,784.0714276177542,2784.2,885.3214133126395,784.0714276177542,2885.4,885.3214133126395,784.0714276177542,2985.4,885.3214133126395,784.0714276177542,3085.6,885.3214133126395,784.0714276177542,3186.5,885.3214133126395,784.0714276177542,3290.4,885.3214133126395,784.0714276177542,3391.9,885.3214133126395,784.0714276177542,3499.6,885.3214133126395,784.0714276177542,3600.4,885.3214133126395,784.0714276177542,3706,885.3214133126395,784.0714276177542,3810.2,885.3214133126395,784.0714276177542,3910.5,885.3214133126395,784.0714276177542,4017.1,885.3214133126395,784.0714276177542,4120.1,885.3214133126395,784.0714276177542,4222.4,885.3214133126395,784.0714276177542,4326.9,885.3214133126395,784.0714276177542,4434,885.3214133126395,784.0714276177542,4536.6,885.3214133126395,784.0714276177542,4637.4,885.3214133126395,784.0714276177542,4740.3,885.3214133126395,784.0714276177542,4840.6,885.3214133126395,784.0714276177542,4950.8]","[1616.3,1616.3,1000,0,616.3,""smooth"",""right"",""right"",""bad_move"",4899.7,3282,2744.6,1617.7,537.4,""smooth"",""right"",""right"",""bad_move"",10841.7,5941.9,2123,8284.9,433.8,""oops"",""right"",""right"",""bad_move"",13822.4,2980.6,2456.5,10841.8,524.1,""oops"",""down"",""left"",""good_move"",16715.6,2892.8,2268.4,13822.8,624.4,""smooth"",""down"",""down"",""bad_move""]"
"10514","","<div style=""width:500px;"">
  <p>What determined the result of this run?</p>
  </div>","54","html-slider-response","29","1082702","0.0-7.0-1.3","173","1","2025-08-06 10:05:16","36c45c0696341be0efffe67d72a12abb","105.12.4.189","Mozilla/5.0 (Windows NT 10.0; Win64; x64) AppleWebKit/537.36 (KHTML, like Gecko) Chrome/138.0.0.0 Safari/537.36","WebKit","Chrome","138.0.0.0","Windows","10.0","https://app.prolific.com/","en-GB,en-US;q=0.9,en;q=0.8","67d95269b47464c18da766ca","687a1a965b9f5b85a264363e","689328d4c62e1d06e42c24e8","1","67d95269b47464c18da766ca","1","2025-08-06T10:23:24.529Z","","","","AttribQ","","","","","","","","","","","50","","","","","","","","","","","","","","","","","","","","","","","","","","",""
"5891","","<div style=""width:500px;"">
  <p>How much control did you have over the ball?</p>
  </div>","33","html-slider-response","30","1088594","0.0-7.0-2.3","173","1","2025-08-06 10:05:16","36c45c0696341be0efffe67d72a12abb","105.12.4.189","Mozilla/5.0 (Windows NT 10.0; Win64; x64) AppleWebKit/537.36 (KHTML, like Gecko) Chrome/138.0.0.0 Safari/537.36","WebKit","Chrome","138.0.0.0","Windows","10.0","https://app.prolific.com/","en-GB,en-US;q=0.9,en;q=0.8","67d95269b47464c18da766ca","687a1a965b9f5b85a264363e","689328d4c62e1d06e42c24e8","1","67d95269b47464c18da766ca","1","2025-08-06T10:23:30.421Z","","","","ControlQ","","","","","","","","","","","50","","","","","","","","","","","","","","","","","","","","","","","","","","",""
"3264","","<div style=""width:500px;"">
  <p>How would you describe your current emotional state?</p>
  </div>","43","html-slider-response","31","1091858","0.0-7.0-3.3","173","1","2025-08-06 10:05:16","36c45c0696341be0efffe67d72a12abb","105.12.4.189","Mozilla/5.0 (Windows NT 10.0; Win64; x64) AppleWebKit/537.36 (KHTML, like Gecko) Chrome/138.0.0.0 Safari/537.36","WebKit","Chrome","138.0.0.0","Windows","10.0","https://app.prolific.com/","en-GB,en-US;q=0.9,en;q=0.8","67d95269b47464c18da766ca","687a1a965b9f5b85a264363e","689328d4c62e1d06e42c24e8","1","67d95269b47464c18da766ca","1","2025-08-06T10:23:33.685Z","","","","StressQ","","","","","","","","","","","50","","","","","","","","","","","","","","","","","","","","","","","","","","",""
"4037","","<div style=""width:500px;"">
  <p>What best describes how you currently feel?</p>
  </div>","63","html-slider-response","32","1095896","0.0-7.0-4.3","173","1","2025-08-06 10:05:16","36c45c0696341be0efffe67d72a12abb","105.12.4.189","Mozilla/5.0 (Windows NT 10.0; Win64; x64) AppleWebKit/537.36 (KHTML, like Gecko) Chrome/138.0.0.0 Safari/537.36","WebKit","Chrome","138.0.0.0","Windows","10.0","https://app.prolific.com/","en-GB,en-US;q=0.9,en;q=0.8","67d95269b47464c18da766ca","687a1a965b9f5b85a264363e","689328d4c62e1d06e42c24e8","1","67d95269b47464c18da766ca","1","2025-08-06T10:23:37.724Z","","","","MotivationQ","","","","","","","","","","","50","","","","","","","","","","","","","","","","","","","","","","","","","","",""
"","","","","ctl-task-cpt","33","1128500","0.0-7.0-0.4","173","1","2025-08-06 10:05:16","36c45c0696341be0efffe67d72a12abb","105.12.4.189","Mozilla/5.0 (Windows NT 10.0; Win64; x64) AppleWebKit/537.36 (KHTML, like Gecko) Chrome/138.0.0.0 Safari/537.36","WebKit","Chrome","138.0.0.0","Windows","10.0","https://app.prolific.com/","en-GB,en-US;q=0.9,en;q=0.8","67d95269b47464c18da766ca","687a1a965b9f5b85a264363e","689328d4c62e1d06e42c24e8","1","67d95269b47464c18da766ca","1","2025-08-06T10:24:10.327Z","","","","","","","","","","","","","","","","win-only","1","g1:NE,g2:SW","0.6","5","0","1101172.5","1916.1","6921.6","29583.4","1","4","8","6","2","8","8","8","0","0.06060606060606061","5005.5","3000","735","[""down"",""left""]","{""num_key_presses"":6,""num_perfect"":4,""num_errors"":0,""num_randdir"":2,""num_randdir_good_moves"":2,""num_whilered"":0,""num_whileblue"":0,""num_blue"":2,""num_good_moves"":6}","[406.5714133126395,415.32142761775424,0.3,411.5714133126395,416.57142761775424,105,419.0714133126395,426.57142761775424,209.6,427.8214133126395,441.57142761775424,316.2,484.0714133126395,506.57142761775424,420.4,500.3214133126395,525.3214276177542,526.1,522.8214133126395,545.3214276177542,629.4,535.3214133126395,554.0714276177542,730.3,559.0714133126395,564.0714276177542,830.7,607.8214133126395,572.8214276177542,938.7,612.8214133126395,576.5714276177542,1039.3,621.5714133126395,585.3214276177542,1139.7,621.5714133126395,585.3214276177542,1240,621.5714133126395,585.3214276177542,1340.3,621.5714133126395,585.3214276177542,1445.6,621.5714133126395,585.3214276177542,1550.3,621.5714133126395,585.3214276177542,1656.5,621.5714133126395,585.3214276177542,1760.4,621.5714133126395,585.3214276177542,1860.4,621.5714133126395,585.3214276177542,1964.5,621.5714133126395,585.3214276177542,2065.5,621.5714133126395,585.3214276177542,2170.1,621.5714133126395,585.3214276177542,2270.2,621.5714133126395,585.3214276177542,2371.6,621.5714133126395,585.3214276177542,2475.3,621.5714133126395,585.3214276177542,2575.8,621.5714133126395,585.3214276177542,2677.1,621.5714133126395,585.3214276177542,2780.7,621.5714133126395,585.3214276177542,2888.4,621.5714133126395,585.3214276177542,2990.4,621.5714133126395,585.3214276177542,3094.5,621.5714133126395,585.3214276177542,3195.8,621.5714133126395,585.3214276177542,3304.1,621.5714133126395,585.3214276177542,3405.2,621.5714133126395,585.3214276177542,3505.8,621.5714133126395,585.3214276177542,3610.6,621.5714133126395,585.3214276177542,3715.8,621.5714133126395,585.3214276177542,3820.8,621.5714133126395,585.3214276177542,3925.1,621.5714133126395,585.3214276177542,4030.1,621.5714133126395,585.3214276177542,4133.9,621.5714133126395,585.3214276177542,4234.9,621.5714133126395,585.3214276177542,4336.1,621.5714133126395,585.3214276177542,4441.7,621.5714133126395,585.3214276177542,4544.2,621.5714133126395,585.3214276177542,4646.9,621.5714133126395,585.3214276177542,4754.5,621.5714133126395,585.3214276177542,4854.7,621.5714133126395,585.3214276177542,4960.1]","[4398.3,4398.3,1944,2014.3,440,""smooth"",""down"",""down"",""good_move"",7484.6,3086,2572.7,4398.6,513.3,""smooth"",""down"",""down"",""good_move"",13496.5,6011.8,2194.4,10913.7,388.4,""oops"",""left"",""left"",""good_move"",16778.7,3281.9,2792.5,13496.8,489.4,""smooth"",""left"",""left"",""good_move"",19532.4,2753.5,2339.2,16778.9,414.3,""oops"",""left"",""left"",""good_move"",22561,3028.5,2585.7,19532.5,442.8,""smooth"",""down"",""down"",""good_move""]"
"64757","","<div style=""width:500px;"">
  <p>What determined the result of this run?</p>
  </div>","57","html-slider-response","34","1193259","0.0-7.0-1.4","173","1","2025-08-06 10:05:16","36c45c0696341be0efffe67d72a12abb","105.12.4.189","Mozilla/5.0 (Windows NT 10.0; Win64; x64) AppleWebKit/537.36 (KHTML, like Gecko) Chrome/138.0.0.0 Safari/537.36","WebKit","Chrome","138.0.0.0","Windows","10.0","https://app.prolific.com/","en-GB,en-US;q=0.9,en;q=0.8","67d95269b47464c18da766ca","687a1a965b9f5b85a264363e","689328d4c62e1d06e42c24e8","1","67d95269b47464c18da766ca","1","2025-08-06T10:25:15.086Z","","","","AttribQ","","","","","","","","","","","50","","","","","","","","","","","","","","","","","","","","","","","","","","",""
"6226","","<div style=""width:500px;"">
  <p>How much control did you have over the ball?</p>
  </div>","55","html-slider-response","35","1199488","0.0-7.0-2.4","173","1","2025-08-06 10:05:16","36c45c0696341be0efffe67d72a12abb","105.12.4.189","Mozilla/5.0 (Windows NT 10.0; Win64; x64) AppleWebKit/537.36 (KHTML, like Gecko) Chrome/138.0.0.0 Safari/537.36","WebKit","Chrome","138.0.0.0","Windows","10.0","https://app.prolific.com/","en-GB,en-US;q=0.9,en;q=0.8","67d95269b47464c18da766ca","687a1a965b9f5b85a264363e","689328d4c62e1d06e42c24e8","1","67d95269b47464c18da766ca","1","2025-08-06T10:25:21.315Z","","","","ControlQ","","","","","","","","","","","50","","","","","","","","","","","","","","","","","","","","","","","","","","",""
"4330","","<div style=""width:500px;"">
  <p>How would you describe your current emotional state?</p>
  </div>","44","html-slider-response","36","1203819","0.0-7.0-3.4","173","1","2025-08-06 10:05:16","36c45c0696341be0efffe67d72a12abb","105.12.4.189","Mozilla/5.0 (Windows NT 10.0; Win64; x64) AppleWebKit/537.36 (KHTML, like Gecko) Chrome/138.0.0.0 Safari/537.36","WebKit","Chrome","138.0.0.0","Windows","10.0","https://app.prolific.com/","en-GB,en-US;q=0.9,en;q=0.8","67d95269b47464c18da766ca","687a1a965b9f5b85a264363e","689328d4c62e1d06e42c24e8","1","67d95269b47464c18da766ca","1","2025-08-06T10:25:25.647Z","","","","StressQ","","","","","","","","","","","50","","","","","","","","","","","","","","","","","","","","","","","","","","",""
"5023","","<div style=""width:500px;"">
  <p>What best describes how you currently feel?</p>
  </div>","62","html-slider-response","37","1208843","0.0-7.0-4.4","173","1","2025-08-06 10:05:16","36c45c0696341be0efffe67d72a12abb","105.12.4.189","Mozilla/5.0 (Windows NT 10.0; Win64; x64) AppleWebKit/537.36 (KHTML, like Gecko) Chrome/138.0.0.0 Safari/537.36","WebKit","Chrome","138.0.0.0","Windows","10.0","https://app.prolific.com/","en-GB,en-US;q=0.9,en;q=0.8","67d95269b47464c18da766ca","687a1a965b9f5b85a264363e","689328d4c62e1d06e42c24e8","1","67d95269b47464c18da766ca","1","2025-08-06T10:25:30.670Z","","","","MotivationQ","","","","","","","","","","","50","","","","","","","","","","","","","","","","","","","","","","","","","","",""
"","","","","ctl-task-cpt","38","1239896","0.0-7.0-0.5","173","1","2025-08-06 10:05:16","36c45c0696341be0efffe67d72a12abb","105.12.4.189","Mozilla/5.0 (Windows NT 10.0; Win64; x64) AppleWebKit/537.36 (KHTML, like Gecko) Chrome/138.0.0.0 Safari/537.36","WebKit","Chrome","138.0.0.0","Windows","10.0","https://app.prolific.com/","en-GB,en-US;q=0.9,en;q=0.8","67d95269b47464c18da766ca","687a1a965b9f5b85a264363e","689328d4c62e1d06e42c24e8","1","67d95269b47464c18da766ca","1","2025-08-06T10:26:01.723Z","","","","","","","","","","","","","","","","win-only","3","g1:SW,g2:NE","0.5","6","0","1214118.4","1915.4","6919.2","28036.3","1","4","4","6","2","-4","-4","4","8","0.030303030303030304","5003.8","3000","-2620","[""up"",""right""]","{""num_key_presses"":5,""num_perfect"":1,""num_errors"":0,""num_randdir"":4,""num_randdir_good_moves"":3,""num_whilered"":0,""num_whileblue"":0,""num_blue"":1,""num_good_moves"":4}","[412.8214133126395,429.07142761775424,0.2,412.8214133126395,429.07142761775424,100.7,412.8214133126395,429.07142761775424,206.4,412.8214133126395,429.07142761775424,310.2,412.8214133126395,429.07142761775424,410.3,412.8214133126395,429.07142761775424,520.1,412.8214133126395,429.07142761775424,624.1,412.8214133126395,429.07142761775424,725.7,412.8214133126395,429.07142761775424,825.9,412.8214133126395,429.07142761775424,930.6,412.8214133126395,429.07142761775424,1035.6,412.8214133126395,429.07142761775424,1141.1,412.8214133126395,429.07142761775424,1253.1,412.8214133126395,429.07142761775424,1357.7,412.8214133126395,429.07142761775424,1460.3,412.8214133126395,429.07142761775424,1566.1,412.8214133126395,429.07142761775424,1670.1,412.8214133126395,429.07142761775424,1770.8,412.8214133126395,429.07142761775424,1871.3,412.8214133126395,429.07142761775424,1972.9,412.8214133126395,429.07142761775424,2122.4,412.8214133126395,429.07142761775424,2224.9,412.8214133126395,429.07142761775424,2325.3,412.8214133126395,429.07142761775424,2425.7,412.8214133126395,429.07142761775424,2531,412.8214133126395,429.07142761775424,2632.1,412.8214133126395,429.07142761775424,2732.4,412.8214133126395,429.07142761775424,2836,412.8214133126395,429.07142761775424,2942.4,412.8214133126395,429.07142761775424,3045.1,412.8214133126395,429.07142761775424,3153.3,412.8214133126395,429.07142761775424,3253.9,412.8214133126395,429.07142761775424,3356.1,412.8214133126395,429.07142761775424,3461,412.8214133126395,429.07142761775424,3561.6,412.8214133126395,429.07142761775424,3670.8,412.8214133126395,429.07142761775424,3775.1,412.8214133126395,429.07142761775424,3882.7,412.8214133126395,429.07142761775424,3991.3,412.8214133126395,429.07142761775424,4095.3,412.8214133126395,429.07142761775424,4203.4,412.8214133126395,429.07142761775424,4304.9,412.8214133126395,429.07142761775424,4406.1,412.8214133126395,429.07142761775424,4506.1,412.8214133126395,429.07142761775424,4611.9,412.8214133126395,429.07142761775424,4721.2,412.8214133126395,429.07142761775424,4826.2,412.8214133126395,429.07142761775424,4926.4]","[2498.5,2498.5,1000,0,1498.5,""oops"",""right"",""right"",""good_move"",8915.7,6416.9,2433,6002,480.7,""smooth"",""up"",""up"",""good_move"",12277.5,3361.4,2915.2,8916.1,446.3,""oops"",""up"",""right"",""good_move"",15096.8,2819,2336.3,12277.8,482.7,""oops"",""up"",""left"",""bad_move"",18371.1,3274,2847.9,15097.1,426.1,""oops"",""up"",""right"",""good_move""]"
"12403","","<div style=""width:500px;"">
  <p>What determined the result of this run?</p>
  </div>","45","html-slider-response","39","1252300","0.0-7.0-1.5","173","1","2025-08-06 10:05:16","36c45c0696341be0efffe67d72a12abb","105.12.4.189","Mozilla/5.0 (Windows NT 10.0; Win64; x64) AppleWebKit/537.36 (KHTML, like Gecko) Chrome/138.0.0.0 Safari/537.36","WebKit","Chrome","138.0.0.0","Windows","10.0","https://app.prolific.com/","en-GB,en-US;q=0.9,en;q=0.8","67d95269b47464c18da766ca","687a1a965b9f5b85a264363e","689328d4c62e1d06e42c24e8","1","67d95269b47464c18da766ca","1","2025-08-06T10:26:14.127Z","","","","AttribQ","","","","","","","","","","","50","","","","","","","","","","","","","","","","","","","","","","","","","","",""
"7935","","<div style=""width:500px;"">
  <p>How much control did you have over the ball?</p>
  </div>","46","html-slider-response","40","1260237","0.0-7.0-2.5","173","1","2025-08-06 10:05:16","36c45c0696341be0efffe67d72a12abb","105.12.4.189","Mozilla/5.0 (Windows NT 10.0; Win64; x64) AppleWebKit/537.36 (KHTML, like Gecko) Chrome/138.0.0.0 Safari/537.36","WebKit","Chrome","138.0.0.0","Windows","10.0","https://app.prolific.com/","en-GB,en-US;q=0.9,en;q=0.8","67d95269b47464c18da766ca","687a1a965b9f5b85a264363e","689328d4c62e1d06e42c24e8","1","67d95269b47464c18da766ca","1","2025-08-06T10:26:22.064Z","","","","ControlQ","","","","","","","","","","","50","","","","","","","","","","","","","","","","","","","","","","","","","","",""
"3916","","<div style=""width:500px;"">
  <p>How would you describe your current emotional state?</p>
  </div>","42","html-slider-response","41","1264154","0.0-7.0-3.5","173","1","2025-08-06 10:05:16","36c45c0696341be0efffe67d72a12abb","105.12.4.189","Mozilla/5.0 (Windows NT 10.0; Win64; x64) AppleWebKit/537.36 (KHTML, like Gecko) Chrome/138.0.0.0 Safari/537.36","WebKit","Chrome","138.0.0.0","Windows","10.0","https://app.prolific.com/","en-GB,en-US;q=0.9,en;q=0.8","67d95269b47464c18da766ca","687a1a965b9f5b85a264363e","689328d4c62e1d06e42c24e8","1","67d95269b47464c18da766ca","1","2025-08-06T10:26:25.981Z","","","","StressQ","","","","","","","","","","","50","","","","","","","","","","","","","","","","","","","","","","","","","","",""
"5837","","<div style=""width:500px;"">
  <p>What best describes how you currently feel?</p>
  </div>","55","html-slider-response","42","1269993","0.0-7.0-4.5","173","1","2025-08-06 10:05:16","36c45c0696341be0efffe67d72a12abb","105.12.4.189","Mozilla/5.0 (Windows NT 10.0; Win64; x64) AppleWebKit/537.36 (KHTML, like Gecko) Chrome/138.0.0.0 Safari/537.36","WebKit","Chrome","138.0.0.0","Windows","10.0","https://app.prolific.com/","en-GB,en-US;q=0.9,en;q=0.8","67d95269b47464c18da766ca","687a1a965b9f5b85a264363e","689328d4c62e1d06e42c24e8","1","67d95269b47464c18da766ca","1","2025-08-06T10:26:31.820Z","","","","MotivationQ","","","","","","","","","","","50","","","","","","","","","","","","","","","","","","","","","","","","","","",""
"","","","","ctl-task-cpt","43","1279694","0.0-7.0-0.6","173","1","2025-08-06 10:05:16","36c45c0696341be0efffe67d72a12abb","105.12.4.189","Mozilla/5.0 (Windows NT 10.0; Win64; x64) AppleWebKit/537.36 (KHTML, like Gecko) Chrome/138.0.0.0 Safari/537.36","WebKit","Chrome","138.0.0.0","Windows","10.0","https://app.prolific.com/","en-GB,en-US;q=0.9,en;q=0.8","67d95269b47464c18da766ca","687a1a965b9f5b85a264363e","689328d4c62e1d06e42c24e8","1","67d95269b47464c18da766ca","1","2025-08-06T10:26:41.521Z","","","","","","","","","","","","","","","","win-only","1","g1:NE,g2:SW","0.4","7","0","1275267.8","1676.6","-9999","6681.3","1","4","8","6","-9999","-4","-4","0","4","0","-9999","3000","3000","[]","{""num_key_presses"":0,""num_perfect"":0,""num_errors"":0,""num_randdir"":0,""num_randdir_good_moves"":0,""num_whilered"":0,""num_whileblue"":0,""num_blue"":0,""num_good_moves"":0}","[411.5714133126395,429.07142761775424,0.2,411.5714133126395,429.07142761775424,108.2,411.5714133126395,429.07142761775424,208.6,411.5714133126395,429.07142761775424,308.9,411.5714133126395,429.07142761775424,409.9,411.5714133126395,429.07142761775424,514.2,411.5714133126395,429.07142761775424,615,411.5714133126395,429.07142761775424,726.4,411.5714133126395,431.57142761775424,830.4,411.5714133126395,432.82142761775424,934.8,411.5714133126395,432.82142761775424,1034.9,411.5714133126395,432.82142761775424,1141.2,411.5714133126395,432.82142761775424,1244.8,411.5714133126395,432.82142761775424,1345.3,411.5714133126395,432.82142761775424,1449.5,411.5714133126395,432.82142761775424,1556.8,411.5714133126395,432.82142761775424,1658.2,411.5714133126395,432.82142761775424,1758.9,411.5714133126395,432.82142761775424,1859.8,411.5714133126395,432.82142761775424,1965,411.5714133126395,432.82142761775424,2073.7,411.5714133126395,432.82142761775424,2174.2,411.5714133126395,432.82142761775424,2280.1,411.5714133126395,432.82142761775424,2384.6,411.5714133126395,432.82142761775424,2486.6,411.5714133126395,432.82142761775424,2590.6,411.5714133126395,432.82142761775424,2692.4,411.5714133126395,432.82142761775424,2795.5,411.5714133126395,432.82142761775424,2900.8,411.5714133126395,432.82142761775424,3008.4,411.5714133126395,432.82142761775424,3109.8,411.5714133126395,432.82142761775424,3213.8,411.5714133126395,432.82142761775424,3314.9,411.5714133126395,432.82142761775424,3424.1,411.5714133126395,432.82142761775424,3529.2,411.5714133126395,432.82142761775424,3630.1,411.5714133126395,432.82142761775424,3734,411.5714133126395,432.82142761775424,3834.4,411.5714133126395,432.82142761775424,3935.9,411.5714133126395,432.82142761775424,4040.7,411.5714133126395,432.82142761775424,4144.8,411.5714133126395,432.82142761775424,4245.9,411.5714133126395,432.82142761775424,4346,411.5714133126395,432.82142761775424,4446.5,411.5714133126395,432.82142761775424,4549.4,411.5714133126395,432.82142761775424,4657.4,411.5714133126395,432.82142761775424,4760.8,411.5714133126395,432.82142761775424,4865.2,411.5714133126395,432.82142761775424,4965.5]","[]"
"6684","","<div style=""width:500px;"">
  <p>What determined the result of this run?</p>
  </div>","47","html-slider-response","44","1286378","0.0-7.0-1.6","173","1","2025-08-06 10:05:16","36c45c0696341be0efffe67d72a12abb","105.12.4.189","Mozilla/5.0 (Windows NT 10.0; Win64; x64) AppleWebKit/537.36 (KHTML, like Gecko) Chrome/138.0.0.0 Safari/537.36","WebKit","Chrome","138.0.0.0","Windows","10.0","https://app.prolific.com/","en-GB,en-US;q=0.9,en;q=0.8","67d95269b47464c18da766ca","687a1a965b9f5b85a264363e","689328d4c62e1d06e42c24e8","1","67d95269b47464c18da766ca","1","2025-08-06T10:26:48.205Z","","","","AttribQ","","","","","","","","","","","50","","","","","","","","","","","","","","","","","","","","","","","","","","",""
"4755","","<div style=""width:500px;"">
  <p>How much control did you have over the ball?</p>
  </div>","46","html-slider-response","45","1291133","0.0-7.0-2.6","173","1","2025-08-06 10:05:16","36c45c0696341be0efffe67d72a12abb","105.12.4.189","Mozilla/5.0 (Windows NT 10.0; Win64; x64) AppleWebKit/537.36 (KHTML, like Gecko) Chrome/138.0.0.0 Safari/537.36","WebKit","Chrome","138.0.0.0","Windows","10.0","https://app.prolific.com/","en-GB,en-US;q=0.9,en;q=0.8","67d95269b47464c18da766ca","687a1a965b9f5b85a264363e","689328d4c62e1d06e42c24e8","1","67d95269b47464c18da766ca","1","2025-08-06T10:26:52.961Z","","","","ControlQ","","","","","","","","","","","50","","","","","","","","","","","","","","","","","","","","","","","","","","",""
"3682","","<div style=""width:500px;"">
  <p>How would you describe your current emotional state?</p>
  </div>","54","html-slider-response","46","1294817","0.0-7.0-3.6","173","1","2025-08-06 10:05:16","36c45c0696341be0efffe67d72a12abb","105.12.4.189","Mozilla/5.0 (Windows NT 10.0; Win64; x64) AppleWebKit/537.36 (KHTML, like Gecko) Chrome/138.0.0.0 Safari/537.36","WebKit","Chrome","138.0.0.0","Windows","10.0","https://app.prolific.com/","en-GB,en-US;q=0.9,en;q=0.8","67d95269b47464c18da766ca","687a1a965b9f5b85a264363e","689328d4c62e1d06e42c24e8","1","67d95269b47464c18da766ca","1","2025-08-06T10:26:56.644Z","","","","StressQ","","","","","","","","","","","50","","","","","","","","","","","","","","","","","","","","","","","","","","",""
"5075","","<div style=""width:500px;"">
  <p>What best describes how you currently feel?</p>
  </div>","50","html-slider-response","47","1299893","0.0-7.0-4.6","173","1","2025-08-06 10:05:16","36c45c0696341be0efffe67d72a12abb","105.12.4.189","Mozilla/5.0 (Windows NT 10.0; Win64; x64) AppleWebKit/537.36 (KHTML, like Gecko) Chrome/138.0.0.0 Safari/537.36","WebKit","Chrome","138.0.0.0","Windows","10.0","https://app.prolific.com/","en-GB,en-US;q=0.9,en;q=0.8","67d95269b47464c18da766ca","687a1a965b9f5b85a264363e","689328d4c62e1d06e42c24e8","1","67d95269b47464c18da766ca","1","2025-08-06T10:27:01.720Z","","","","MotivationQ","","","","","","","","","","","50","","","","","","","","","","","","","","","","","","","","","","","","","","",""
"","","","","ctl-task-cpt","48","1345044","0.0-7.0-0.7","173","1","2025-08-06 10:05:16","36c45c0696341be0efffe67d72a12abb","105.12.4.189","Mozilla/5.0 (Windows NT 10.0; Win64; x64) AppleWebKit/537.36 (KHTML, like Gecko) Chrome/138.0.0.0 Safari/537.36","WebKit","Chrome","138.0.0.0","Windows","10.0","https://app.prolific.com/","en-GB,en-US;q=0.9,en;q=0.8","67d95269b47464c18da766ca","687a1a965b9f5b85a264363e","689328d4c62e1d06e42c24e8","1","67d95269b47464c18da766ca","1","2025-08-06T10:27:46.872Z","","","","","","","","","","","","","","","","win-only","3","g1:SW,g2:NE","0.3","8","0","1305168.8","1370.4","6371.6","42138","1","4","4","6","2","4","4","4","0","0.030303030303030304","5001.2","3000","75","[""up"",""right""]","{""num_key_presses"":8,""num_perfect"":3,""num_errors"":0,""num_randdir"":5,""num_randdir_good_moves"":5,""num_whilered"":0,""num_whileblue"":0,""num_blue"":4,""num_good_moves"":7}","[414.0714133126395,417.82142761775424,0.1,414.0714133126395,417.82142761775424,101.3,414.0714133126395,417.82142761775424,205.2,414.0714133126395,417.82142761775424,309.1,414.0714133126395,417.82142761775424,412.9,414.0714133126395,417.82142761775424,515.7,414.0714133126395,422.82142761775424,616.2,422.8214133126395,451.57142761775424,721.6,456.5714133126395,516.5714276177542,821.6,569.0714133126395,615.3214276177542,932,592.8214133126395,641.5714276177542,1035.6,611.5714133126395,659.0714276177542,1140.8,621.5714133126395,669.0714276177542,1242.5,701.5714133126395,715.3214276177542,1346.8,721.5714133126395,722.8214276177542,1448,721.5714133126395,722.8214276177542,1550.6,721.5714133126395,722.8214276177542,1651,721.5714133126395,722.8214276177542,1751.3,721.5714133126395,722.8214276177542,1856.1,721.5714133126395,722.8214276177542,1963.8,721.5714133126395,722.8214276177542,2064.3,721.5714133126395,722.8214276177542,2165.1,721.5714133126395,722.8214276177542,2271.3,721.5714133126395,722.8214276177542,2380.7,721.5714133126395,722.8214276177542,2481.7,721.5714133126395,722.8214276177542,2585.9,721.5714133126395,722.8214276177542,2694.9,721.5714133126395,722.8214276177542,2797.7,721.5714133126395,722.8214276177542,2899.7,721.5714133126395,722.8214276177542,3000.5,721.5714133126395,722.8214276177542,3113.3,721.5714133126395,722.8214276177542,3215,721.5714133126395,722.8214276177542,3315.5,721.5714133126395,722.8214276177542,3420.7,721.5714133126395,722.8214276177542,3530.9,721.5714133126395,722.8214276177542,3633.7,721.5714133126395,722.8214276177542,3735.1,721.5714133126395,722.8214276177542,3835.3,721.5714133126395,722.8214276177542,3935.7,721.5714133126395,722.8214276177542,4035.7,721.5714133126395,722.8214276177542,4142.1,721.5714133126395,722.8214276177542,4246.1,721.5714133126395,722.8214276177542,4346.7,721.5714133126395,722.8214276177542,4451.3,721.5714133126395,722.8214276177542,4555.2,721.5714133126395,722.8214276177542,4655.2,721.5714133126395,722.8214276177542,4757,721.5714133126395,722.8214276177542,4863.4,721.5714133126395,722.8214276177542,4963.4]","[1461.2,1461.2,1000,0,461.2,""smooth"",""left"",""left"",""bad_move"",4216.8,2755.2,2239,1461.6,516.5,""smooth"",""up"",""up"",""good_move"",7359.2,3141.7,2730.3,4217.5,411.4,""oops"",""up"",""up"",""good_move"",17348.2,9988.9,2683.7,14230.6,433.9,""oops"",""up"",""up"",""good_move"",23744.8,6396.1,2873.8,20344.1,526.9,""oops"",""right"",""right"",""good_move"",26159.4,2414.2,1840.8,23745.2,573.4,""oops"",""right"",""right"",""good_move"",32812.6,6653,2881,29549.2,382.4,""smooth"",""right"",""right"",""good_move"",35662.4,2849.6,2360.5,32812.8,489.1,""oops"",""right"",""right"",""good_move""]"
"6318","","<div style=""width:500px;"">
  <p>What determined the result of this run?</p>
  </div>","54","html-slider-response","49","1351367","0.0-7.0-1.7","173","1","2025-08-06 10:05:16","36c45c0696341be0efffe67d72a12abb","105.12.4.189","Mozilla/5.0 (Windows NT 10.0; Win64; x64) AppleWebKit/537.36 (KHTML, like Gecko) Chrome/138.0.0.0 Safari/537.36","WebKit","Chrome","138.0.0.0","Windows","10.0","https://app.prolific.com/","en-GB,en-US;q=0.9,en;q=0.8","67d95269b47464c18da766ca","687a1a965b9f5b85a264363e","689328d4c62e1d06e42c24e8","1","67d95269b47464c18da766ca","1","2025-08-06T10:27:53.195Z","","","","AttribQ","","","","","","","","","","","50","","","","","","","","","","","","","","","","","","","","","","","","","","",""
"3145","","<div style=""width:500px;"">
  <p>How much control did you have over the ball?</p>
  </div>","55","html-slider-response","50","1354516","0.0-7.0-2.7","173","1","2025-08-06 10:05:16","36c45c0696341be0efffe67d72a12abb","105.12.4.189","Mozilla/5.0 (Windows NT 10.0; Win64; x64) AppleWebKit/537.36 (KHTML, like Gecko) Chrome/138.0.0.0 Safari/537.36","WebKit","Chrome","138.0.0.0","Windows","10.0","https://app.prolific.com/","en-GB,en-US;q=0.9,en;q=0.8","67d95269b47464c18da766ca","687a1a965b9f5b85a264363e","689328d4c62e1d06e42c24e8","1","67d95269b47464c18da766ca","1","2025-08-06T10:27:56.343Z","","","","ControlQ","","","","","","","","","","","50","","","","","","","","","","","","","","","","","","","","","","","","","","",""
"3683","","<div style=""width:500px;"">
  <p>How would you describe your current emotional state?</p>
  </div>","56","html-slider-response","51","1358200","0.0-7.0-3.7","173","1","2025-08-06 10:05:16","36c45c0696341be0efffe67d72a12abb","105.12.4.189","Mozilla/5.0 (Windows NT 10.0; Win64; x64) AppleWebKit/537.36 (KHTML, like Gecko) Chrome/138.0.0.0 Safari/537.36","WebKit","Chrome","138.0.0.0","Windows","10.0","https://app.prolific.com/","en-GB,en-US;q=0.9,en;q=0.8","67d95269b47464c18da766ca","687a1a965b9f5b85a264363e","689328d4c62e1d06e42c24e8","1","67d95269b47464c18da766ca","1","2025-08-06T10:28:00.027Z","","","","StressQ","","","","","","","","","","","50","","","","","","","","","","","","","","","","","","","","","","","","","","",""
"4042","","<div style=""width:500px;"">
  <p>What best describes how you currently feel?</p>
  </div>","55","html-slider-response","52","1362243","0.0-7.0-4.7","173","1","2025-08-06 10:05:16","36c45c0696341be0efffe67d72a12abb","105.12.4.189","Mozilla/5.0 (Windows NT 10.0; Win64; x64) AppleWebKit/537.36 (KHTML, like Gecko) Chrome/138.0.0.0 Safari/537.36","WebKit","Chrome","138.0.0.0","Windows","10.0","https://app.prolific.com/","en-GB,en-US;q=0.9,en;q=0.8","67d95269b47464c18da766ca","687a1a965b9f5b85a264363e","689328d4c62e1d06e42c24e8","1","67d95269b47464c18da766ca","1","2025-08-06T10:28:04.070Z","","","","MotivationQ","","","","","","","","","","","50","","","","","","","","","","","","","","","","","","","","","","","","","","",""
"","","","","ctl-task-cpt","53","1402159","0.0-7.0-0.8","173","1","2025-08-06 10:05:16","36c45c0696341be0efffe67d72a12abb","105.12.4.189","Mozilla/5.0 (Windows NT 10.0; Win64; x64) AppleWebKit/537.36 (KHTML, like Gecko) Chrome/138.0.0.0 Safari/537.36","WebKit","Chrome","138.0.0.0","Windows","10.0","https://app.prolific.com/","en-GB,en-US;q=0.9,en;q=0.8","67d95269b47464c18da766ca","687a1a965b9f5b85a264363e","689328d4c62e1d06e42c24e8","1","67d95269b47464c18da766ca","1","2025-08-06T10:28:43.987Z","","","","","","","","","","","","","","","","win-only","3","g1:SW,g2:NE","0.4","9","0","1367518.9","3282.4","8285.6","36895.9","1","4","8","6","1","1","1","5","4","0.03787878787878788","5003.2","3000","290","[""down"",""left""]","{""num_key_presses"":8,""num_perfect"":4,""num_errors"":0,""num_randdir"":4,""num_randdir_good_moves"":2,""num_whilered"":0,""num_whileblue"":0,""num_blue"":2,""num_good_moves"":6}","[415.3214133126395,417.82142761775424,0.1,415.3214133126395,417.82142761775424,100.5,415.3214133126395,417.82142761775424,210.9,415.3214133126395,417.82142761775424,315.5,415.3214133126395,424.07142761775424,417.9,420.3214133126395,437.82142761775424,518.6,466.5714133126395,487.82142761775424,636,501.5714133126395,522.8214276177542,737.8,539.0714133126395,556.5714276177542,837.8,562.8214133126395,576.5714276177542,938.8,562.8214133126395,576.5714276177542,1038.8,562.8214133126395,576.5714276177542,1144.3,562.8214133126395,576.5714276177542,1248.8,562.8214133126395,576.5714276177542,1353.5,562.8214133126395,576.5714276177542,1460.8,562.8214133126395,576.5714276177542,1564.5,562.8214133126395,576.5714276177542,1664.9,562.8214133126395,576.5714276177542,1767.8,562.8214133126395,576.5714276177542,1868.8,562.8214133126395,576.5714276177542,1969.1,562.8214133126395,576.5714276177542,2084.8,562.8214133126395,576.5714276177542,2188,562.8214133126395,576.5714276177542,2288.7,562.8214133126395,576.5714276177542,2394.3,562.8214133126395,576.5714276177542,2498.3,562.8214133126395,576.5714276177542,2598.5,562.8214133126395,576.5714276177542,2698.5,562.8214133126395,576.5714276177542,2798.8,562.8214133126395,576.5714276177542,2903.2,562.8214133126395,576.5714276177542,3003.2,562.8214133126395,576.5714276177542,3103.8,562.8214133126395,576.5714276177542,3205,562.8214133126395,576.5714276177542,3317.3,562.8214133126395,576.5714276177542,3420.2,562.8214133126395,576.5714276177542,3524.6,562.8214133126395,576.5714276177542,3628.8,562.8214133126395,576.5714276177542,3733.2,562.8214133126395,576.5714276177542,3835.2,562.8214133126395,576.5714276177542,3947.8,562.8214133126395,576.5714276177542,4049,562.8214133126395,576.5714276177542,4149.3,562.8214133126395,576.5714276177542,4249.4,562.8214133126395,576.5714276177542,4352.9,562.8214133126395,576.5714276177542,4453.7,562.8214133126395,576.5714276177542,4553.8,562.8214133126395,576.5714276177542,4663.9,562.8214133126395,576.5714276177542,4767.5,562.8214133126395,576.5714276177542,4868.9,562.8214133126395,576.5714276177542,4974.3]","[1394.4,1394.4,1000,0,394.4,""oops"",""down"",""up"",""bad_move"",3901.9,2507.2,2409.1,1394.7,98.1,""smooth"",""left"",""left"",""good_move"",6528.1,2626,2183.5,3902.1,442.5,""oops"",""down"",""right"",""bad_move"",9150.4,2621.9,2196.6,6528.5,425.3,""oops"",""left"",""left"",""good_move"",12612.6,3462.1,2868.6,9150.5,593.5,""smooth"",""down"",""down"",""good_move"",22711.6,10098.4,3364.2,19297,50.5,""oops"",""down"",""down"",""good_move"",25908.9,3196.9,1974.6,22712,1222.3,""smooth"",""down"",""down"",""good_move"",28493.4,2584.4,2075.9,25909.1,508.5,""smooth"",""left"",""left"",""good_move""]"
"43844","","<div style=""width:500px;"">
  <p>What determined the result of this run?</p>
  </div>","56","html-slider-response","54","1446004","0.0-7.0-1.8","173","1","2025-08-06 10:05:16","36c45c0696341be0efffe67d72a12abb","105.12.4.189","Mozilla/5.0 (Windows NT 10.0; Win64; x64) AppleWebKit/537.36 (KHTML, like Gecko) Chrome/138.0.0.0 Safari/537.36","WebKit","Chrome","138.0.0.0","Windows","10.0","https://app.prolific.com/","en-GB,en-US;q=0.9,en;q=0.8","67d95269b47464c18da766ca","687a1a965b9f5b85a264363e","689328d4c62e1d06e42c24e8","1","67d95269b47464c18da766ca","1","2025-08-06T10:29:27.832Z","","","","AttribQ","","","","","","","","","","","50","","","","","","","","","","","","","","","","","","","","","","","","","","",""
"3540","","<div style=""width:500px;"">
  <p>How much control did you have over the ball?</p>
  </div>","54","html-slider-response","55","1449546","0.0-7.0-2.8","173","1","2025-08-06 10:05:16","36c45c0696341be0efffe67d72a12abb","105.12.4.189","Mozilla/5.0 (Windows NT 10.0; Win64; x64) AppleWebKit/537.36 (KHTML, like Gecko) Chrome/138.0.0.0 Safari/537.36","WebKit","Chrome","138.0.0.0","Windows","10.0","https://app.prolific.com/","en-GB,en-US;q=0.9,en;q=0.8","67d95269b47464c18da766ca","687a1a965b9f5b85a264363e","689328d4c62e1d06e42c24e8","1","67d95269b47464c18da766ca","1","2025-08-06T10:29:31.373Z","","","","ControlQ","","","","","","","","","","","50","","","","","","","","","","","","","","","","","","","","","","","","","","",""
"3003","","<div style=""width:500px;"">
  <p>How would you describe your current emotional state?</p>
  </div>","53","html-slider-response","56","1452550","0.0-7.0-3.8","173","1","2025-08-06 10:05:16","36c45c0696341be0efffe67d72a12abb","105.12.4.189","Mozilla/5.0 (Windows NT 10.0; Win64; x64) AppleWebKit/537.36 (KHTML, like Gecko) Chrome/138.0.0.0 Safari/537.36","WebKit","Chrome","138.0.0.0","Windows","10.0","https://app.prolific.com/","en-GB,en-US;q=0.9,en;q=0.8","67d95269b47464c18da766ca","687a1a965b9f5b85a264363e","689328d4c62e1d06e42c24e8","1","67d95269b47464c18da766ca","1","2025-08-06T10:29:34.377Z","","","","StressQ","","","","","","","","","","","50","","","","","","","","","","","","","","","","","","","","","","","","","","",""
"3196","","<div style=""width:500px;"">
  <p>What best describes how you currently feel?</p>
  </div>","54","html-slider-response","57","1455746","0.0-7.0-4.8","173","1","2025-08-06 10:05:16","36c45c0696341be0efffe67d72a12abb","105.12.4.189","Mozilla/5.0 (Windows NT 10.0; Win64; x64) AppleWebKit/537.36 (KHTML, like Gecko) Chrome/138.0.0.0 Safari/537.36","WebKit","Chrome","138.0.0.0","Windows","10.0","https://app.prolific.com/","en-GB,en-US;q=0.9,en;q=0.8","67d95269b47464c18da766ca","687a1a965b9f5b85a264363e","689328d4c62e1d06e42c24e8","1","67d95269b47464c18da766ca","1","2025-08-06T10:29:37.573Z","","","","MotivationQ","","","","","","","","","","","50","","","","","","","","","","","","","","","","","","","","","","","","","","",""
"","","","","ctl-task-cpt","58","1497642","0.0-7.0-0.9","173","1","2025-08-06 10:05:16","36c45c0696341be0efffe67d72a12abb","105.12.4.189","Mozilla/5.0 (Windows NT 10.0; Win64; x64) AppleWebKit/537.36 (KHTML, like Gecko) Chrome/138.0.0.0 Safari/537.36","WebKit","Chrome","138.0.0.0","Windows","10.0","https://app.prolific.com/","en-GB,en-US;q=0.9,en;q=0.8","67d95269b47464c18da766ca","687a1a965b9f5b85a264363e","689328d4c62e1d06e42c24e8","1","67d95269b47464c18da766ca","1","2025-08-06T10:30:19.469Z","","","","","","","","","","","","","","","","win-only","2","g1:SE,g2:NW","0.5","10","0","1461022.3","1273.8","6277.1","38875.6","1","4","4","6","2","-4","-5","0","5","0","5003.3","3000","-2400","[""left"",""up""]","{""num_key_presses"":8,""num_perfect"":4,""num_errors"":1,""num_randdir"":3,""num_randdir_good_moves"":2,""num_whilered"":0,""num_whileblue"":0,""num_blue"":2,""num_good_moves"":6}","[416.5714133126395,426.57142761775424,0.2,416.5714133126395,426.57142761775424,102.9,416.5714133126395,426.57142761775424,210.4,416.5714133126395,426.57142761775424,316.6,416.5714133126395,426.57142761775424,421.7,416.5714133126395,426.57142761775424,522.3,416.5714133126395,426.57142761775424,622.5,416.5714133126395,426.57142761775424,727.6,416.5714133126395,426.57142761775424,833.6,416.5714133126395,426.57142761775424,933.8,416.5714133126395,426.57142761775424,1037.7,416.5714133126395,426.57142761775424,1151.8,416.5714133126395,426.57142761775424,1252.4,416.5714133126395,426.57142761775424,1352.5,416.5714133126395,426.57142761775424,1456.8,416.5714133126395,426.57142761775424,1567,416.5714133126395,426.57142761775424,1667.7,416.5714133126395,426.57142761775424,1767.9,416.5714133126395,426.57142761775424,1868.2,416.5714133126395,426.57142761775424,1972.6,416.5714133126395,426.57142761775424,2078.3,416.5714133126395,426.57142761775424,2181.6,416.5714133126395,426.57142761775424,2282.9,416.5714133126395,426.57142761775424,2384.3,416.5714133126395,426.57142761775424,2484.9,416.5714133126395,426.57142761775424,2588.1,416.5714133126395,426.57142761775424,2691.6,416.5714133126395,426.57142761775424,2800.8,416.5714133126395,426.57142761775424,2901.6,416.5714133126395,426.57142761775424,3002.5,416.5714133126395,426.57142761775424,3102.9,416.5714133126395,426.57142761775424,3203.3,416.5714133126395,426.57142761775424,3316.3,416.5714133126395,426.57142761775424,3416.6,416.5714133126395,426.57142761775424,3518,416.5714133126395,426.57142761775424,3618.1,416.5714133126395,426.57142761775424,3722.8,416.5714133126395,426.57142761775424,3827.5,416.5714133126395,426.57142761775424,3931.9,416.5714133126395,426.57142761775424,4033.9,416.5714133126395,426.57142761775424,4137.5,416.5714133126395,426.57142761775424,4242.3,416.5714133126395,426.57142761775424,4349.7,416.5714133126395,426.57142761775424,4451.8,416.5714133126395,426.57142761775424,4552.1,416.5714133126395,426.57142761775424,4652.4,416.5714133126395,426.57142761775424,4757.3,416.5714133126395,426.57142761775424,4857.5,416.5714133126395,426.57142761775424,4967.1]","[378.6,378.6,1000,0,-621.4,""error"",""-"",""-"",""no_move"",5069.6,4690.9,3026.2,1379.8,663.6,""smooth"",""up"",""up"",""good_move"",11361.3,6291.1,2273.8,8613.5,474,""oops"",""up"",""up"",""good_move"",14874.4,3512.8,3078.8,11361.6,434,""oops"",""left"",""up"",""good_move"",21447.8,6573.2,2767.9,18263.8,416.1,""smooth"",""left"",""left"",""good_move"",24714.3,3266,2801.4,21448.3,464.6,""oops"",""left"",""down"",""bad_move"",27680.2,2965.7,2466.8,24714.5,498.9,""smooth"",""left"",""left"",""good_move"",29960.1,2279.7,1807.8,27680.4,471.9,""smooth"",""left"",""left"",""good_move""]"
"7926","","<div style=""width:500px;"">
  <p>What determined the result of this run?</p>
  </div>","44","html-slider-response","59","1505569","0.0-7.0-1.9","173","1","2025-08-06 10:05:16","36c45c0696341be0efffe67d72a12abb","105.12.4.189","Mozilla/5.0 (Windows NT 10.0; Win64; x64) AppleWebKit/537.36 (KHTML, like Gecko) Chrome/138.0.0.0 Safari/537.36","WebKit","Chrome","138.0.0.0","Windows","10.0","https://app.prolific.com/","en-GB,en-US;q=0.9,en;q=0.8","67d95269b47464c18da766ca","687a1a965b9f5b85a264363e","689328d4c62e1d06e42c24e8","1","67d95269b47464c18da766ca","1","2025-08-06T10:30:27.396Z","","","","AttribQ","","","","","","","","","","","50","","","","","","","","","","","","","","","","","","","","","","","","","","",""
"3939","","<div style=""width:500px;"">
  <p>How much control did you have over the ball?</p>
  </div>","3","html-slider-response","60","1509508","0.0-7.0-2.9","173","1","2025-08-06 10:05:16","36c45c0696341be0efffe67d72a12abb","105.12.4.189","Mozilla/5.0 (Windows NT 10.0; Win64; x64) AppleWebKit/537.36 (KHTML, like Gecko) Chrome/138.0.0.0 Safari/537.36","WebKit","Chrome","138.0.0.0","Windows","10.0","https://app.prolific.com/","en-GB,en-US;q=0.9,en;q=0.8","67d95269b47464c18da766ca","687a1a965b9f5b85a264363e","689328d4c62e1d06e42c24e8","1","67d95269b47464c18da766ca","1","2025-08-06T10:30:31.335Z","","","","ControlQ","","","","","","","","","","","50","","","","","","","","","","","","","","","","","","","","","","","","","","",""
"3845","","<div style=""width:500px;"">
  <p>How would you describe your current emotional state?</p>
  </div>","62","html-slider-response","61","1513355","0.0-7.0-3.9","173","1","2025-08-06 10:05:16","36c45c0696341be0efffe67d72a12abb","105.12.4.189","Mozilla/5.0 (Windows NT 10.0; Win64; x64) AppleWebKit/537.36 (KHTML, like Gecko) Chrome/138.0.0.0 Safari/537.36","WebKit","Chrome","138.0.0.0","Windows","10.0","https://app.prolific.com/","en-GB,en-US;q=0.9,en;q=0.8","67d95269b47464c18da766ca","687a1a965b9f5b85a264363e","689328d4c62e1d06e42c24e8","1","67d95269b47464c18da766ca","1","2025-08-06T10:30:35.182Z","","","","StressQ","","","","","","","","","","","50","","","","","","","","","","","","","","","","","","","","","","","","","","",""
"3317","","<div style=""width:500px;"">
  <p>What best describes how you currently feel?</p>
  </div>","46","html-slider-response","62","1516673","0.0-7.0-4.9","173","1","2025-08-06 10:05:16","36c45c0696341be0efffe67d72a12abb","105.12.4.189","Mozilla/5.0 (Windows NT 10.0; Win64; x64) AppleWebKit/537.36 (KHTML, like Gecko) Chrome/138.0.0.0 Safari/537.36","WebKit","Chrome","138.0.0.0","Windows","10.0","https://app.prolific.com/","en-GB,en-US;q=0.9,en;q=0.8","67d95269b47464c18da766ca","687a1a965b9f5b85a264363e","689328d4c62e1d06e42c24e8","1","67d95269b47464c18da766ca","1","2025-08-06T10:30:38.500Z","","","","MotivationQ","","","","","","","","","","","50","","","","","","","","","","","","","","","","","","","","","","","","","","",""
"","","","","ctl-task-cpt","63","1567469","0.0-7.0-0.10","173","1","2025-08-06 10:05:16","36c45c0696341be0efffe67d72a12abb","105.12.4.189","Mozilla/5.0 (Windows NT 10.0; Win64; x64) AppleWebKit/537.36 (KHTML, like Gecko) Chrome/138.0.0.0 Safari/537.36","WebKit","Chrome","138.0.0.0","Windows","10.0","https://app.prolific.com/","en-GB,en-US;q=0.9,en;q=0.8","67d95269b47464c18da766ca","687a1a965b9f5b85a264363e","689328d4c62e1d06e42c24e8","1","67d95269b47464c18da766ca","1","2025-08-06T10:31:29.296Z","","","","","","","","","","","","","","","","win-only","0","g1:NW,g2:SE","0.6","11","0","1521947.6","1216.4","6231.7","47770.9","1","4","8","6","2","8","8","8","0","0.06060606060606061","5015.3","3000","80","[""down"",""right""]","{""num_key_presses"":8,""num_perfect"":5,""num_errors"":0,""num_randdir"":3,""num_randdir_good_moves"":2,""num_whilered"":0,""num_whileblue"":0,""num_blue"":6,""num_good_moves"":7}","[407.8214133126395,422.82142761775424,0.1,407.8214133126395,422.82142761775424,100,407.8214133126395,422.82142761775424,206.8,407.8214133126395,422.82142761775424,314.5,407.8214133126395,422.82142761775424,419,407.8214133126395,422.82142761775424,519,407.8214133126395,422.82142761775424,619.9,407.8214133126395,422.82142761775424,726.4,407.8214133126395,422.82142761775424,828.2,407.8214133126395,422.82142761775424,930.1,407.8214133126395,422.82142761775424,1035.3,407.8214133126395,422.82142761775424,1148,407.8214133126395,422.82142761775424,1249.7,407.8214133126395,422.82142761775424,1350.3,407.8214133126395,422.82142761775424,1463.5,407.8214133126395,422.82142761775424,1565.4,407.8214133126395,422.82142761775424,1669.1,407.8214133126395,422.82142761775424,1780.4,407.8214133126395,422.82142761775424,1881,407.8214133126395,422.82142761775424,1981.3,407.8214133126395,422.82142761775424,2085.4,407.8214133126395,422.82142761775424,2189.8,407.8214133126395,422.82142761775424,2290.6,407.8214133126395,422.82142761775424,2395.4,407.8214133126395,422.82142761775424,2499.2,407.8214133126395,422.82142761775424,2599.7,407.8214133126395,422.82142761775424,2713.5,407.8214133126395,422.82142761775424,2814.1,407.8214133126395,422.82142761775424,2915.6,407.8214133126395,422.82142761775424,3019.6,407.8214133126395,422.82142761775424,3125.5,407.8214133126395,422.82142761775424,3230.6,407.8214133126395,422.82142761775424,3335.5,407.8214133126395,422.82142761775424,3436.8,407.8214133126395,422.82142761775424,3539.9,407.8214133126395,422.82142761775424,3651.4,407.8214133126395,422.82142761775424,3754.8,407.8214133126395,422.82142761775424,3855.2,407.8214133126395,422.82142761775424,3963.7,407.8214133126395,422.82142761775424,4064.4,407.8214133126395,422.82142761775424,4169.4,407.8214133126395,422.82142761775424,4270.1,407.8214133126395,422.82142761775424,4370.1,407.8214133126395,422.82142761775424,4475.5,407.8214133126395,422.82142761775424,4578.7,407.8214133126395,422.82142761775424,4680.6,407.8214133126395,422.82142761775424,4785.4,407.8214133126395,422.82142761775424,4890.2,407.8214133126395,422.82142761775424,4990.7]","[1418.9,1418.9,1000,0,418.9,""smooth"",""down"",""down"",""good_move"",8047.3,6628.1,2964.4,4603.9,479,""smooth"",""right"",""right"",""good_move"",10406.9,2359.2,1816.3,8047.7,542.9,""smooth"",""right"",""right"",""good_move"",13329,2921.9,2566.6,10407.2,355.3,""smooth"",""right"",""right"",""good_move"",19462,6132.6,2349.6,16484.2,628.2,""oops"",""down"",""up"",""bad_move"",36300.9,16837.8,2690.5,33084.5,526,""oops"",""down"",""down"",""good_move"",38439.2,2137.8,1352.2,36301.4,785.6,""smooth"",""down"",""down"",""good_move"",41428.8,2989.2,2598.7,38439.6,390.5,""oops"",""down"",""down"",""good_move""]"
"6970","","<div style=""width:500px;"">
  <p>What determined the result of this run?</p>
  </div>","54","html-slider-response","64","1574442","0.0-7.0-1.10","173","1","2025-08-06 10:05:16","36c45c0696341be0efffe67d72a12abb","105.12.4.189","Mozilla/5.0 (Windows NT 10.0; Win64; x64) AppleWebKit/537.36 (KHTML, like Gecko) Chrome/138.0.0.0 Safari/537.36","WebKit","Chrome","138.0.0.0","Windows","10.0","https://app.prolific.com/","en-GB,en-US;q=0.9,en;q=0.8","67d95269b47464c18da766ca","687a1a965b9f5b85a264363e","689328d4c62e1d06e42c24e8","1","67d95269b47464c18da766ca","1","2025-08-06T10:31:36.269Z","","","","AttribQ","","","","","","","","","","","50","","","","","","","","","","","","","","","","","","","","","","","","","","",""
"4801","","<div style=""width:500px;"">
  <p>How much control did you have over the ball?</p>
  </div>","24","html-slider-response","65","1579248","0.0-7.0-2.10","173","1","2025-08-06 10:05:16","36c45c0696341be0efffe67d72a12abb","105.12.4.189","Mozilla/5.0 (Windows NT 10.0; Win64; x64) AppleWebKit/537.36 (KHTML, like Gecko) Chrome/138.0.0.0 Safari/537.36","WebKit","Chrome","138.0.0.0","Windows","10.0","https://app.prolific.com/","en-GB,en-US;q=0.9,en;q=0.8","67d95269b47464c18da766ca","687a1a965b9f5b85a264363e","689328d4c62e1d06e42c24e8","1","67d95269b47464c18da766ca","1","2025-08-06T10:31:41.076Z","","","","ControlQ","","","","","","","","","","","50","","","","","","","","","","","","","","","","","","","","","","","","","","",""
"4244","","<div style=""width:500px;"">
  <p>How would you describe your current emotional state?</p>
  </div>","56","html-slider-response","66","1583496","0.0-7.0-3.10","173","1","2025-08-06 10:05:16","36c45c0696341be0efffe67d72a12abb","105.12.4.189","Mozilla/5.0 (Windows NT 10.0; Win64; x64) AppleWebKit/537.36 (KHTML, like Gecko) Chrome/138.0.0.0 Safari/537.36","WebKit","Chrome","138.0.0.0","Windows","10.0","https://app.prolific.com/","en-GB,en-US;q=0.9,en;q=0.8","67d95269b47464c18da766ca","687a1a965b9f5b85a264363e","689328d4c62e1d06e42c24e8","1","67d95269b47464c18da766ca","1","2025-08-06T10:31:45.323Z","","","","StressQ","","","","","","","","","","","50","","","","","","","","","","","","","","","","","","","","","","","","","","",""
"9374","","<div style=""width:500px;"">
  <p>What best describes how you currently feel?</p>
  </div>","55","html-slider-response","67","1592871","0.0-7.0-4.10","173","1","2025-08-06 10:05:16","36c45c0696341be0efffe67d72a12abb","105.12.4.189","Mozilla/5.0 (Windows NT 10.0; Win64; x64) AppleWebKit/537.36 (KHTML, like Gecko) Chrome/138.0.0.0 Safari/537.36","WebKit","Chrome","138.0.0.0","Windows","10.0","https://app.prolific.com/","en-GB,en-US;q=0.9,en;q=0.8","67d95269b47464c18da766ca","687a1a965b9f5b85a264363e","689328d4c62e1d06e42c24e8","1","67d95269b47464c18da766ca","1","2025-08-06T10:31:54.698Z","","","","MotivationQ","","","","","","","","","","","50","","","","","","","","","","","","","","","","","","","","","","","","","","",""
"","","","","ctl-task-cpt","68","1632501","0.0-7.0-0.11","173","1","2025-08-06 10:05:16","36c45c0696341be0efffe67d72a12abb","105.12.4.189","Mozilla/5.0 (Windows NT 10.0; Win64; x64) AppleWebKit/537.36 (KHTML, like Gecko) Chrome/138.0.0.0 Safari/537.36","WebKit","Chrome","138.0.0.0","Windows","10.0","https://app.prolific.com/","en-GB,en-US;q=0.9,en;q=0.8","67d95269b47464c18da766ca","687a1a965b9f5b85a264363e","689328d4c62e1d06e42c24e8","1","67d95269b47464c18da766ca","1","2025-08-06T10:32:34.328Z","","","","","","","","","","","","","","","","win-only","0","g1:NW,g2:SE","0.7","12","0","1598147.2","5293.5","10296.6","36611.5","1","4","4","6","2","-4","-4","4","8","0.030303030303030304","5003.1","3000","-2235","[""down"",""right""]","{""num_key_presses"":7,""num_perfect"":6,""num_errors"":0,""num_randdir"":1,""num_randdir_good_moves"":0,""num_whilered"":0,""num_whileblue"":0,""num_blue"":1,""num_good_moves"":6}","[417.8214133126395,421.57142761775424,0.6,417.8214133126395,421.57142761775424,102.2,417.8214133126395,421.57142761775424,202.4,417.8214133126395,421.57142761775424,302.8,417.8214133126395,421.57142761775424,407.7,417.8214133126395,421.57142761775424,508.3,417.8214133126395,421.57142761775424,612.2,417.8214133126395,421.57142761775424,713,417.8214133126395,421.57142761775424,813.6,417.8214133126395,421.57142761775424,913.6,417.8214133126395,421.57142761775424,1014.6,417.8214133126395,421.57142761775424,1119,417.8214133126395,421.57142761775424,1233.5,417.8214133126395,421.57142761775424,1333.6,417.8214133126395,421.57142761775424,1433.6,417.8214133126395,421.57142761775424,1536.3,417.8214133126395,421.57142761775424,1636.9,417.8214133126395,421.57142761775424,1738.8,417.8214133126395,421.57142761775424,1841.9,417.8214133126395,421.57142761775424,1942.3,417.8214133126395,421.57142761775424,2049,417.8214133126395,421.57142761775424,2152.4,417.8214133126395,421.57142761775424,2252.9,417.8214133126395,421.57142761775424,2353.1,417.8214133126395,421.57142761775424,2457.8,417.8214133126395,421.57142761775424,2558.5,417.8214133126395,421.57142761775424,2663.7,417.8214133126395,421.57142761775424,2763.9,417.8214133126395,421.57142761775424,2867.1,417.8214133126395,421.57142761775424,2968.4,417.8214133126395,421.57142761775424,3073,417.8214133126395,421.57142761775424,3178.2,417.8214133126395,421.57142761775424,3283.9,417.8214133126395,421.57142761775424,3388,417.8214133126395,421.57142761775424,3500.9,417.8214133126395,421.57142761775424,3602.5,417.8214133126395,421.57142761775424,3703,417.8214133126395,421.57142761775424,3803,417.8214133126395,421.57142761775424,3907.8,417.8214133126395,421.57142761775424,4015.7,417.8214133126395,421.57142761775424,4117.1,417.8214133126395,421.57142761775424,4217.8,417.8214133126395,421.57142761775424,4331.6,417.8214133126395,421.57142761775424,4432.3,417.8214133126395,421.57142761775424,4533.6,417.8214133126395,421.57142761775424,4634.2,417.8214133126395,421.57142761775424,4734.2,417.8214133126395,421.57142761775424,4838.1,417.8214133126395,421.57142761775424,4938.5]","[1773.9,1773.9,1000,0,773.9,""smooth"",""down"",""down"",""good_move"",5211.9,3436.6,2899,1775.3,537.6,""oops"",""right"",""up"",""bad_move"",8928.9,3716.6,3222.3,5212.3,494.3,""smooth"",""right"",""right"",""good_move"",14768.9,5839.7,2390.6,11857.2,521.1,""smooth"",""right"",""right"",""good_move"",18261.9,3493,2931.9,14768.9,561.1,""smooth"",""right"",""right"",""good_move"",21197.7,2935.7,2466.7,18262,469,""smooth"",""down"",""down"",""good_move"",23577.1,2379,1800.6,21198.1,578.4,""smooth"",""down"",""down"",""good_move""]"
"4891","","<div style=""width:500px;"">
  <p>What determined the result of this run?</p>
  </div>","36","html-slider-response","69","1637394","0.0-7.0-1.11","173","1","2025-08-06 10:05:16","36c45c0696341be0efffe67d72a12abb","105.12.4.189","Mozilla/5.0 (Windows NT 10.0; Win64; x64) AppleWebKit/537.36 (KHTML, like Gecko) Chrome/138.0.0.0 Safari/537.36","WebKit","Chrome","138.0.0.0","Windows","10.0","https://app.prolific.com/","en-GB,en-US;q=0.9,en;q=0.8","67d95269b47464c18da766ca","687a1a965b9f5b85a264363e","689328d4c62e1d06e42c24e8","1","67d95269b47464c18da766ca","1","2025-08-06T10:32:39.221Z","","","","AttribQ","","","","","","","","","","","50","","","","","","","","","","","","","","","","","","","","","","","","","","",""
"4267","","<div style=""width:500px;"">
  <p>How much control did you have over the ball?</p>
  </div>","8","html-slider-response","70","1641664","0.0-7.0-2.11","173","1","2025-08-06 10:05:16","36c45c0696341be0efffe67d72a12abb","105.12.4.189","Mozilla/5.0 (Windows NT 10.0; Win64; x64) AppleWebKit/537.36 (KHTML, like Gecko) Chrome/138.0.0.0 Safari/537.36","WebKit","Chrome","138.0.0.0","Windows","10.0","https://app.prolific.com/","en-GB,en-US;q=0.9,en;q=0.8","67d95269b47464c18da766ca","687a1a965b9f5b85a264363e","689328d4c62e1d06e42c24e8","1","67d95269b47464c18da766ca","1","2025-08-06T10:32:43.491Z","","","","ControlQ","","","","","","","","","","","50","","","","","","","","","","","","","","","","","","","","","","","","","","",""
"4599","","<div style=""width:500px;"">
  <p>How would you describe your current emotional state?</p>
  </div>","63","html-slider-response","71","1646266","0.0-7.0-3.11","173","1","2025-08-06 10:05:16","36c45c0696341be0efffe67d72a12abb","105.12.4.189","Mozilla/5.0 (Windows NT 10.0; Win64; x64) AppleWebKit/537.36 (KHTML, like Gecko) Chrome/138.0.0.0 Safari/537.36","WebKit","Chrome","138.0.0.0","Windows","10.0","https://app.prolific.com/","en-GB,en-US;q=0.9,en;q=0.8","67d95269b47464c18da766ca","687a1a965b9f5b85a264363e","689328d4c62e1d06e42c24e8","1","67d95269b47464c18da766ca","1","2025-08-06T10:32:48.093Z","","","","StressQ","","","","","","","","","","","50","","","","","","","","","","","","","","","","","","","","","","","","","","",""
"5646","","<div style=""width:500px;"">
  <p>What best describes how you currently feel?</p>
  </div>","44","html-slider-response","72","1651916","0.0-7.0-4.11","173","1","2025-08-06 10:05:16","36c45c0696341be0efffe67d72a12abb","105.12.4.189","Mozilla/5.0 (Windows NT 10.0; Win64; x64) AppleWebKit/537.36 (KHTML, like Gecko) Chrome/138.0.0.0 Safari/537.36","WebKit","Chrome","138.0.0.0","Windows","10.0","https://app.prolific.com/","en-GB,en-US;q=0.9,en;q=0.8","67d95269b47464c18da766ca","687a1a965b9f5b85a264363e","689328d4c62e1d06e42c24e8","1","67d95269b47464c18da766ca","1","2025-08-06T10:32:53.743Z","","","","MotivationQ","","","","","","","","","","","50","","","","","","","","","","","","","","","","","","","","","","","","","","",""
"","","","","ctl-task-cpt","73","1700732","0.0-7.0-0.12","173","1","2025-08-06 10:05:16","36c45c0696341be0efffe67d72a12abb","105.12.4.189","Mozilla/5.0 (Windows NT 10.0; Win64; x64) AppleWebKit/537.36 (KHTML, like Gecko) Chrome/138.0.0.0 Safari/537.36","WebKit","Chrome","138.0.0.0","Windows","10.0","https://app.prolific.com/","en-GB,en-US;q=0.9,en;q=0.8","67d95269b47464c18da766ca","687a1a965b9f5b85a264363e","689328d4c62e1d06e42c24e8","1","67d95269b47464c18da766ca","1","2025-08-06T10:33:42.560Z","","","","","","","","","","","","","","","","win-only","1","g1:NE,g2:SW","0.8","13","0","1657190.6","1430.3","6435.1","45787","1","4","8","6","2","8","7","11","4","0.08333333333333333","5004.8","3000","55","[""down"",""left""]","{""num_key_presses"":9,""num_perfect"":7,""num_errors"":1,""num_randdir"":1,""num_randdir_good_moves"":0,""num_whilered"":0,""num_whileblue"":0,""num_blue"":4,""num_good_moves"":7}","[407.8214133126395,416.57142761775424,0.1,407.8214133126395,416.57142761775424,102.4,407.8214133126395,416.57142761775424,205.3,407.8214133126395,416.57142761775424,311.9,407.8214133126395,416.57142761775424,415.2,407.8214133126395,416.57142761775424,515.8,407.8214133126395,416.57142761775424,616.3,407.8214133126395,416.57142761775424,720.8,407.8214133126395,416.57142761775424,837.6,407.8214133126395,416.57142761775424,940.6,407.8214133126395,416.57142761775424,1040.6,407.8214133126395,416.57142761775424,1146,407.8214133126395,416.57142761775424,1246.9,407.8214133126395,416.57142761775424,1350.5,407.8214133126395,416.57142761775424,1452.3,407.8214133126395,416.57142761775424,1568.5,407.8214133126395,416.57142761775424,1670.8,407.8214133126395,416.57142761775424,1775.6,407.8214133126395,416.57142761775424,1876.3,407.8214133126395,416.57142761775424,1981.2,407.8214133126395,416.57142761775424,2085.3,407.8214133126395,416.57142761775424,2185.8,407.8214133126395,416.57142761775424,2301.8,407.8214133126395,416.57142761775424,2405.2,407.8214133126395,416.57142761775424,2510.7,407.8214133126395,416.57142761775424,2610.7,407.8214133126395,416.57142761775424,2710.9,407.8214133126395,416.57142761775424,2811.2,407.8214133126395,416.57142761775424,2916.2,407.8214133126395,416.57142761775424,3020.3,407.8214133126395,416.57142761775424,3138,407.8214133126395,416.57142761775424,3240.4,407.8214133126395,416.57142761775424,3341,407.8214133126395,416.57142761775424,3445.9,407.8214133126395,416.57142761775424,3550.6,407.8214133126395,416.57142761775424,3656.5,407.8214133126395,416.57142761775424,3773.5,407.8214133126395,416.57142761775424,3874.8,407.8214133126395,416.57142761775424,3975.2,407.8214133126395,416.57142761775424,4080.4,407.8214133126395,416.57142761775424,4180.8,407.8214133126395,416.57142761775424,4280.8,407.8214133126395,416.57142761775424,4381,407.8214133126395,416.57142761775424,4481.1,407.8214133126395,416.57142761775424,4585.1,407.8214133126395,416.57142761775424,4686,407.8214133126395,416.57142761775424,4803.2,407.8214133126395,416.57142761775424,4906]","[395,395,1000,0,-605,""error"",""-"",""-"",""no_move"",4198.3,3803.3,2313.1,1397.3,488,""smooth"",""down"",""down"",""good_move"",11480.9,7282.2,3263.2,7780.2,437.5,""smooth"",""down"",""down"",""good_move"",14664.9,3183.6,2668.2,11481.3,515.4,""smooth"",""down"",""down"",""good_move"",20644.6,5979.7,2842.5,17365.6,436.5,""smooth"",""left"",""left"",""good_move"",23104.3,2459.4,1910.1,20644.9,549.3,""smooth"",""left"",""left"",""good_move"",25844.4,2739.6,2353.4,23104.8,386.2,""oops"",""left"",""up"",""bad_move"",28510.5,2665.6,1754.1,25844.9,911.5,""smooth"",""left"",""left"",""good_move"",39229.7,10718.9,2514.7,36112.2,602.9,""smooth"",""down"",""down"",""good_move""]"
"10773","","<div style=""width:500px;"">
  <p>What determined the result of this run?</p>
  </div>","51","html-slider-response","74","1711507","0.0-7.0-1.12","173","1","2025-08-06 10:05:16","36c45c0696341be0efffe67d72a12abb","105.12.4.189","Mozilla/5.0 (Windows NT 10.0; Win64; x64) AppleWebKit/537.36 (KHTML, like Gecko) Chrome/138.0.0.0 Safari/537.36","WebKit","Chrome","138.0.0.0","Windows","10.0","https://app.prolific.com/","en-GB,en-US;q=0.9,en;q=0.8","67d95269b47464c18da766ca","687a1a965b9f5b85a264363e","689328d4c62e1d06e42c24e8","1","67d95269b47464c18da766ca","1","2025-08-06T10:33:53.334Z","","","","AttribQ","","","","","","","","","","","50","","","","","","","","","","","","","","","","","","","","","","","","","","",""
"4507","","<div style=""width:500px;"">
  <p>How much control did you have over the ball?</p>
  </div>","30","html-slider-response","75","1716018","0.0-7.0-2.12","173","1","2025-08-06 10:05:16","36c45c0696341be0efffe67d72a12abb","105.12.4.189","Mozilla/5.0 (Windows NT 10.0; Win64; x64) AppleWebKit/537.36 (KHTML, like Gecko) Chrome/138.0.0.0 Safari/537.36","WebKit","Chrome","138.0.0.0","Windows","10.0","https://app.prolific.com/","en-GB,en-US;q=0.9,en;q=0.8","67d95269b47464c18da766ca","687a1a965b9f5b85a264363e","689328d4c62e1d06e42c24e8","1","67d95269b47464c18da766ca","1","2025-08-06T10:33:57.846Z","","","","ControlQ","","","","","","","","","","","50","","","","","","","","","","","","","","","","","","","","","","","","","","",""
"4629","","<div style=""width:500px;"">
  <p>How would you describe your current emotional state?</p>
  </div>","73","html-slider-response","76","1720653","0.0-7.0-3.12","173","1","2025-08-06 10:05:16","36c45c0696341be0efffe67d72a12abb","105.12.4.189","Mozilla/5.0 (Windows NT 10.0; Win64; x64) AppleWebKit/537.36 (KHTML, like Gecko) Chrome/138.0.0.0 Safari/537.36","WebKit","Chrome","138.0.0.0","Windows","10.0","https://app.prolific.com/","en-GB,en-US;q=0.9,en;q=0.8","67d95269b47464c18da766ca","687a1a965b9f5b85a264363e","689328d4c62e1d06e42c24e8","1","67d95269b47464c18da766ca","1","2025-08-06T10:34:02.480Z","","","","StressQ","","","","","","","","","","","50","","","","","","","","","","","","","","","","","","","","","","","","","","",""
"12422","","<div style=""width:500px;"">
  <p>What best describes how you currently feel?</p>
  </div>","37","html-slider-response","77","1733078","0.0-7.0-4.12","173","1","2025-08-06 10:05:16","36c45c0696341be0efffe67d72a12abb","105.12.4.189","Mozilla/5.0 (Windows NT 10.0; Win64; x64) AppleWebKit/537.36 (KHTML, like Gecko) Chrome/138.0.0.0 Safari/537.36","WebKit","Chrome","138.0.0.0","Windows","10.0","https://app.prolific.com/","en-GB,en-US;q=0.9,en;q=0.8","67d95269b47464c18da766ca","687a1a965b9f5b85a264363e","689328d4c62e1d06e42c24e8","1","67d95269b47464c18da766ca","1","2025-08-06T10:34:14.906Z","","","","MotivationQ","","","","","","","","","","","50","","","","","","","","","","","","","","","","","","","","","","","","","","",""
