"rt","response_timestamp","stimulus","response","trial_type","trial_index","time_elapsed","internal_node_id","run_id","condition","recorded_at","source_code_version","ip","user_agent","device","browser","browser_version","platform","platform_version","referer","accept_language","PROLIFIC_PID","STUDY_ID","SESSION_ID","BATCH","prolific_id","batch","realtime","success","question_order","question_id","eventType","responses","item_order","radio_event_ids","radio_event_times","key_event_times","mouse_event_times","straightlining","zigzagging","honeypot","view_history","slider_start","which_type","canvas_config","goals_layout","control_level","trial_number","tutorial_trial_number","trial_start_time","phase1_start_time","phase2_start_time","phase3_start_time","goal_1_value","goal_1_distance","goal_2_value","goal_2_distance","goal_selected","outcome","outcome_total","participant_final_score","participant_initial_score","participant_final_score_prop","goal_choice_rt","allocated_time","allocated_time_remaining","goal_direction","counts","mouse_movements","key_presses"
"101708","1754516181130","<p style='font-size:40px;line-height:1.25'><strong>Welcome to the experiment!</strong></p><p style='font-size:1.1em;line-height:1.25'>Thank you for participanting in our experiment again! You will be asked to play the Dysfunctional Ball Game again. We will briefly recap the rules before we start.</p><p style='font-size:1.1em;line-height:1.25'>Press <strong>Next</strong> to continue.</p>","0","custom-html-button-response","0","101710","0.0-0.0","221","1","2025-08-06 21:34:36","36c45c0696341be0efffe67d72a12abb","88.24.41.49","Mozilla/5.0 (Windows NT 10.0; Win64; x64) AppleWebKit/537.36 (KHTML, like Gecko) Chrome/139.0.0.0 Safari/537.36","WebKit","Chrome","139.0.0.0","Windows","10.0","https://app.prolific.com/","es-ES,es;q=0.8","67db387c909560bc7b65ea88","687a1a965b9f5b85a264363e","6893ca6882b3c33ec49b0673","1","67db387c909560bc7b65ea88","1","2025-08-06T21:36:21.131Z","","","","","","","","","","","","","","","","","","","","","","","","","","","","","","","","","","","","","","","","","",""
"13100","","","","fullscreen","1","115817","0.0-1.0","221","1","2025-08-06 21:34:36","36c45c0696341be0efffe67d72a12abb","88.24.41.49","Mozilla/5.0 (Windows NT 10.0; Win64; x64) AppleWebKit/537.36 (KHTML, like Gecko) Chrome/139.0.0.0 Safari/537.36","WebKit","Chrome","139.0.0.0","Windows","10.0","https://app.prolific.com/","es-ES,es;q=0.8","67db387c909560bc7b65ea88","687a1a965b9f5b85a264363e","6893ca6882b3c33ec49b0673","1","67db387c909560bc7b65ea88","1","","true","","","","","","","","","","","","","","","","","","","","","","","","","","","","","","","","","","","","","","","","",""
"3685","1754516198924"," <p style='font-size:1.1em;line-height:1.25'>Thank you for closing all other tabs.</p><p style='font-size:1.1em;line-height:1.25'>We will now invite you to fill in some questionnaires, before starting the game.<br>This will take about 5 minutes.<br></p><p style='font-size:1.1em;line-height:1.25'>Press the <strong>Next</strong> button to continue.</p>","0","custom-html-button-response","2","119503","0.0-2.0","221","1","2025-08-06 21:34:36","36c45c0696341be0efffe67d72a12abb","88.24.41.49","Mozilla/5.0 (Windows NT 10.0; Win64; x64) AppleWebKit/537.36 (KHTML, like Gecko) Chrome/139.0.0.0 Safari/537.36","WebKit","Chrome","139.0.0.0","Windows","10.0","https://app.prolific.com/","es-ES,es;q=0.8","67db387c909560bc7b65ea88","687a1a965b9f5b85a264363e","6893ca6882b3c33ec49b0673","1","67db387c909560bc7b65ea88","1","2025-08-06T21:36:38.924Z","","","","","","","","","","","","","","","","","","","","","","","","","","","","","","","","","","","","","","","","","",""
"7179","","","{""assigned_sex"":""female""}","survey-multi-choice","3","126684","0.0-3.0-0.0","221","1","2025-08-06 21:34:36","36c45c0696341be0efffe67d72a12abb","88.24.41.49","Mozilla/5.0 (Windows NT 10.0; Win64; x64) AppleWebKit/537.36 (KHTML, like Gecko) Chrome/139.0.0.0 Safari/537.36","WebKit","Chrome","139.0.0.0","Windows","10.0","https://app.prolific.com/","es-ES,es;q=0.8","67db387c909560bc7b65ea88","687a1a965b9f5b85a264363e","6893ca6882b3c33ec49b0673","1","67db387c909560bc7b65ea88","1","","","[0]","0","demographics","","","","","","","","","","","","","","","","","","","","","","","","","","","","","","","","","","","","","",""
"26583","1754516232687","<p style='font-size:1.1em;line-height:1.25'>In the following, we will perform a baseline assessment. This means that we will ask you a few questions relating to your experiences over the past month.<br></p><p style='font-size:1.1em;line-height:1.25'>Press the <strong>Next</strong> button to continue.</p>","0","custom-html-button-response","4","153267","0.0-4.0-0.0","221","1","2025-08-06 21:34:36","36c45c0696341be0efffe67d72a12abb","88.24.41.49","Mozilla/5.0 (Windows NT 10.0; Win64; x64) AppleWebKit/537.36 (KHTML, like Gecko) Chrome/139.0.0.0 Safari/537.36","WebKit","Chrome","139.0.0.0","Windows","10.0","https://app.prolific.com/","es-ES,es;q=0.8","67db387c909560bc7b65ea88","687a1a965b9f5b85a264363e","6893ca6882b3c33ec49b0673","1","67db387c909560bc7b65ea88","1","2025-08-06T21:37:12.688Z","","","","","","","","","","","","","","","","","","","","","","","","","","","","","","","","","","","","","","","","","",""
"64850.5","","","","survey-template","5","218119","0.0-4.0-1.0","221","1","2025-08-06 21:34:36","36c45c0696341be0efffe67d72a12abb","88.24.41.49","Mozilla/5.0 (Windows NT 10.0; Win64; x64) AppleWebKit/537.36 (KHTML, like Gecko) Chrome/139.0.0.0 Safari/537.36","WebKit","Chrome","139.0.0.0","Windows","10.0","https://app.prolific.com/","es-ES,es;q=0.8","67db387c909560bc7b65ea88","687a1a965b9f5b85a264363e","6893ca6882b3c33ec49b0673","1","67db387c909560bc7b65ea88","1","2025-08-06T21:38:17.540Z","","","","pss","{""Q01"":""3"",""Q02"":""1"",""Q03"":""3"",""Q04"":""0"",""Q05"":""1"",""Q06"":""2"",""Q07"":""0"",""Q08"":""1"",""Q09"":""2"",""Q10"":""2""}","[0,1,2,3,4,5,6,7,8,9]","[""Q01"",""Q02"",""Q03"",""Q04"",""Q04"",""Q05"",""Q06"",""Q07"",""Q07"",""Q08"",""Q09"",""Q10""]","[6828.299999952316,11588.299999952316,18246.099999904633,22586.099999904633,24166.099999904633,27164,44323.799999952316,48289.799999952316,50079.700000047684,53779.89999985695,57949.59999990463,64063.39999985695]","[]","[2.0999999046325684,6828.299999952316,11588.299999952316,18246.099999904633,22586.099999904633,24166.099999904633,27164,43891.799999952316,44323.799999952316,48289.799999952316,50079.700000047684,53271.799999952316,53779.89999985695,57949.59999990463,63061.5,63617.39999985695,64063.39999985695,64849.59999990463]","0.4","0.5555555555555556","0","","","","","","","","","","","","","","","","","","","","","","","","","","","","",""
"6265","1754516303806","<p style='font-size:1.1em;line-height:1.25'>Thank you for your answers! Now we will ask you a few more questions relating to your feelings in the last 24 hours.<br></p><p style='font-size:1.1em;line-height:1.25'>Press the <strong>Next</strong> button to continue.</p>","0","custom-html-button-response","6","224385","0.0-4.0-2.0","221","1","2025-08-06 21:34:36","36c45c0696341be0efffe67d72a12abb","88.24.41.49","Mozilla/5.0 (Windows NT 10.0; Win64; x64) AppleWebKit/537.36 (KHTML, like Gecko) Chrome/139.0.0.0 Safari/537.36","WebKit","Chrome","139.0.0.0","Windows","10.0","https://app.prolific.com/","es-ES,es;q=0.8","67db387c909560bc7b65ea88","687a1a965b9f5b85a264363e","6893ca6882b3c33ec49b0673","1","67db387c909560bc7b65ea88","1","2025-08-06T21:38:23.807Z","","","","","","","","","","","","","","","","","","","","","","","","","","","","","","","","","","","","","","","","","",""
"103993","","","","survey-template","7","328381","0.0-4.0-3.0","221","1","2025-08-06 21:34:36","36c45c0696341be0efffe67d72a12abb","88.24.41.49","Mozilla/5.0 (Windows NT 10.0; Win64; x64) AppleWebKit/537.36 (KHTML, like Gecko) Chrome/139.0.0.0 Safari/537.36","WebKit","Chrome","139.0.0.0","Windows","10.0","https://app.prolific.com/","es-ES,es;q=0.8","67db387c909560bc7b65ea88","687a1a965b9f5b85a264363e","6893ca6882b3c33ec49b0673","1","67db387c909560bc7b65ea88","1","2025-08-06T21:40:07.802Z","","","","drsp","{""Q01"":""3"",""Q02"":""4"",""Q03"":""2"",""Q04"":""4"",""Q05"":""4"",""Q06"":""5"",""Q07"":""3"",""Q08"":""4"",""Q09"":""2"",""Q10"":""1"",""Q11"":""3"",""Q12"":""1"",""Q13"":""5"",""Q14"":""1"",""Q15"":""3"",""Q16"":""4"",""Q17"":""2"",""Q18"":""0"",""Q19"":""1"",""Q20"":""3"",""Q21"":""4"",""Q22"":""4""}","[0,1,2,3,4,5,6,7,8,9,10,11,12,13,14,15,16,17,18,19,20,21]","[""Q01"",""Q01"",""Q02"",""Q03"",""Q04"",""Q05"",""Q06"",""Q07"",""Q08"",""Q09"",""Q10"",""Q11"",""Q12"",""Q12"",""Q13"",""Q14"",""Q15"",""Q16"",""Q17"",""Q18"",""Q19"",""Q20"",""Q21"",""Q22""]","[5936.5,7506.5,22442.400000095367,37022.200000047684,39324.09999990463,53404,56616,58849.90000009537,60245.700000047684,63283.700000047684,65899.70000004768,67611.59999990463,69523.90000009537,69897.70000004768,72531.70000004768,76073.70000004768,78989.59999990463,81013.5,83449.5,86363.29999995232,90239.29999995232,97185.29999995232,100617.29999995232,103299.20000004768]","[]","[2.0999999046325684,5936.5,6628.700000047684,7506.5,22442.400000095367,31630.200000047684,37022.200000047684,39324.09999990463,52824,53404,56272,56616,58545.90000009537,58849.90000009537,60245.700000047684,63283.700000047684,65899.70000004768,67611.59999990463,69523.90000009537,69897.70000004768,72531.70000004768,76073.70000004768,78989.59999990463,81013.5,82815.70000004768,83449.5,86363.29999995232,90239.29999995232,97185.29999995232,100617.29999995232,103299.20000004768,103991.29999995232]","0.3181818181818182","0.3333333333333333","0","","","","","","","","","","","","","","","","","","","","","","","","","","","","",""
"16284","","","","survey-template","8","344666","0.0-4.0-4.0","221","1","2025-08-06 21:34:36","36c45c0696341be0efffe67d72a12abb","88.24.41.49","Mozilla/5.0 (Windows NT 10.0; Win64; x64) AppleWebKit/537.36 (KHTML, like Gecko) Chrome/139.0.0.0 Safari/537.36","WebKit","Chrome","139.0.0.0","Windows","10.0","https://app.prolific.com/","es-ES,es;q=0.8","67db387c909560bc7b65ea88","687a1a965b9f5b85a264363e","6893ca6882b3c33ec49b0673","1","67db387c909560bc7b65ea88","1","2025-08-06T21:40:24.087Z","","","","stress","{""Q01"":""4"",""Q02"":""1"",""Q03"":""3""}","[0,1,2]","[""Q01"",""Q02"",""Q03""]","[11153.799999952316,12903.700000047684,15785.700000047684]","[]","[11153.799999952316,12903.700000047684,15093.799999952316,15785.700000047684,16283.599999904633]","0.6666666666666666","0.5","0","","","","","","","","","","","","","","","","","","","","","","","","","","","","",""
"41075","","","","instructions","9","385742","0.0-5.0-0.0","221","1","2025-08-06 21:34:36","36c45c0696341be0efffe67d72a12abb","88.24.41.49","Mozilla/5.0 (Windows NT 10.0; Win64; x64) AppleWebKit/537.36 (KHTML, like Gecko) Chrome/139.0.0.0 Safari/537.36","WebKit","Chrome","139.0.0.0","Windows","10.0","https://app.prolific.com/","es-ES,es;q=0.8","67db387c909560bc7b65ea88","687a1a965b9f5b85a264363e","6893ca6882b3c33ec49b0673","1","67db387c909560bc7b65ea88","1","","","","","","","","","","","","","","","[{""page_index"":0,""viewing_time"":41074}]","","","","","","","","","","","","","","","","","","","","","","","","","","","",""
"9680","","<p>Before you start with this game please answer the following three questions yourself. </p>
  <p>Through this game, we measure several aspects of your cognitive performance, such as reaction times, multi-tasking capabilities </p>
  <p>and the ability to assess the situation you are in.</p>
  <p></p>
  <p><b>How good do you usually are in such tasks?</b></p>","91","html-slider-response","10","395422","0.0-6.0-0.0","221","1","2025-08-06 21:34:36","36c45c0696341be0efffe67d72a12abb","88.24.41.49","Mozilla/5.0 (Windows NT 10.0; Win64; x64) AppleWebKit/537.36 (KHTML, like Gecko) Chrome/139.0.0.0 Safari/537.36","WebKit","Chrome","139.0.0.0","Windows","10.0","https://app.prolific.com/","es-ES,es;q=0.8","67db387c909560bc7b65ea88","687a1a965b9f5b85a264363e","6893ca6882b3c33ec49b0673","1","67db387c909560bc7b65ea88","1","2025-08-06T21:41:14.843Z","","","","PreSkillQ","","","","","","","","","","","50","","","","","","","","","","","","","","","","","","","","","","","","","","",""
"3485","","<div style=""width:500px;"">
  <p>How well do you think you will perform in this task compared to other participants?</p>
  </div>","65","html-slider-response","11","398908","0.0-6.0-1.0","221","1","2025-08-06 21:34:36","36c45c0696341be0efffe67d72a12abb","88.24.41.49","Mozilla/5.0 (Windows NT 10.0; Win64; x64) AppleWebKit/537.36 (KHTML, like Gecko) Chrome/139.0.0.0 Safari/537.36","WebKit","Chrome","139.0.0.0","Windows","10.0","https://app.prolific.com/","es-ES,es;q=0.8","67db387c909560bc7b65ea88","687a1a965b9f5b85a264363e","6893ca6882b3c33ec49b0673","1","67db387c909560bc7b65ea88","1","2025-08-06T21:41:18.329Z","","","","PrePerfQ","","","","","","","","","","","50","","","","","","","","","","","","","","","","","","","","","","","","","","",""
"5035","","<div style=""width:500px;"">
  <p>What best describes how you currently feel?</p>
  </div>","75","html-slider-response","12","403944","0.0-6.0-2.0","221","1","2025-08-06 21:34:36","36c45c0696341be0efffe67d72a12abb","88.24.41.49","Mozilla/5.0 (Windows NT 10.0; Win64; x64) AppleWebKit/537.36 (KHTML, like Gecko) Chrome/139.0.0.0 Safari/537.36","WebKit","Chrome","139.0.0.0","Windows","10.0","https://app.prolific.com/","es-ES,es;q=0.8","67db387c909560bc7b65ea88","687a1a965b9f5b85a264363e","6893ca6882b3c33ec49b0673","1","67db387c909560bc7b65ea88","1","2025-08-06T21:41:23.365Z","","","","PreMotivationQ","","","","","","","","","","","50","","","","","","","","","","","","","","","","","","","","","","","","","","",""
"","","","","ctl-task-cpt","13","447732","0.0-7.0-0.0","221","1","2025-08-06 21:34:36","36c45c0696341be0efffe67d72a12abb","88.24.41.49","Mozilla/5.0 (Windows NT 10.0; Win64; x64) AppleWebKit/537.36 (KHTML, like Gecko) Chrome/139.0.0.0 Safari/537.36","WebKit","Chrome","139.0.0.0","Windows","10.0","https://app.prolific.com/","es-ES,es;q=0.8","67db387c909560bc7b65ea88","687a1a965b9f5b85a264363e","6893ca6882b3c33ec49b0673","1","67db387c909560bc7b65ea88","1","2025-08-06T21:42:07.153Z","","","","","","","","","","","","","","","","win-only","3","g1:SW,g2:NE","1","1","0","405581.8","21284.5","26285.9","40781.4","1","4","8","6","1","1","-1","0","0","0","1788.3","3000","1190","[""down"",""left""]","{""num_key_presses"":7,""num_perfect"":4,""num_errors"":2,""num_randdir"":0,""num_randdir_good_moves"":0,""num_whilered"":1,""num_whileblue"":0,""num_blue"":0,""num_good_moves"":4}","[409.57142857142856,416.47767857142856,0.2,409.57142857142856,416.47767857142856,100.9,409.57142857142856,416.47767857142856,200.9,409.57142857142856,416.47767857142856,301,409.57142857142856,416.47767857142856,401.1,409.57142857142856,416.47767857142856,501.2,409.57142857142856,416.47767857142856,601.3,334.57142857142856,519.4776785714286,701.4,226.57142857142856,612.4776785714286,801.4,316.57142857142856,468.47767857142856,901.5,581.5714285714286,206.47767857142856,1001.6,662.5714285714286,163.47767857142856,1105.7,505.57142857142856,381.47767857142856,1205.8,227.57142857142856,683.4776785714286,1305.9,191.57142857142856,732.4776785714286,1405.9,157.57142857142856,741.4776785714286,1511,135.57142857142856,739.4776785714286,1611.2,126.57142857142857,739.4776785714286,1711.3,122.57142857142857,739.4776785714286,1811.5,122.57142857142857,739.4776785714286,1911.5,122.57142857142857,739.4776785714286,2011.8,122.57142857142857,739.4776785714286,2116.6,207.57142857142856,680.4776785714286,2220.8,584.5714285714286,494.47767857142856,2320.9,603.5714285714286,482.47767857142856,2421.3,603.5714285714286,482.47767857142856,2526,603.5714285714286,482.47767857142856,2626.1,603.5714285714286,482.47767857142856,2726.2,603.5714285714286,482.47767857142856,2826.3,603.5714285714286,482.47767857142856,2926.4,603.5714285714286,482.47767857142856,3026.5,603.5714285714286,482.47767857142856,3126.6,603.5714285714286,482.47767857142856,3226.7,603.5714285714286,482.47767857142856,3330.7,603.5714285714286,482.47767857142856,3430.8,603.5714285714286,482.47767857142856,3530.9,603.5714285714286,482.47767857142856,3631,603.5714285714286,482.47767857142856,3731.1,603.5714285714286,482.47767857142856,3831.2,603.5714285714286,482.47767857142856,3931.3,603.5714285714286,482.47767857142856,4031.3,603.5714285714286,482.47767857142856,4131.5,603.5714285714286,482.47767857142856,4231.5,603.5714285714286,482.47767857142856,4336.7,603.5714285714286,482.47767857142856,4440.7,603.5714285714286,482.47767857142856,4540.8,603.5714285714286,482.47767857142856,4640.9,603.5714285714286,482.47767857142856,4741,603.5714285714286,482.47767857142856,4841.1,603.5714285714286,482.47767857142856,4941.2]","[293.5,293.5,1000,0,-706.5,""error"",""-"",""-"",""no_move"",726.3,432.7,1000,0,-273.7,""while_red"",""-"",""-"",""no_move"",1742.2,1448.6,2577.4,1294.4,-2129.6,""error"",""-"",""-"",""no_move"",6159.3,4416.9,2850.9,2744.3,564.1,""smooth"",""down"",""down"",""good_move"",8452.2,2292.7,1802.1,6159.6,490.5,""smooth"",""left"",""left"",""good_move"",10863.2,2410.8,2007.2,8452.4,403.6,""smooth"",""down"",""down"",""good_move"",14409.1,3545.8,3163.7,10863.3,382.1,""smooth"",""left"",""left"",""good_move""]"
"7711","","<div style=""width:500px;"">
  <p>What determined the result of this run?</p>
  </div>","81","html-slider-response","14","455444","0.0-7.0-1.0","221","1","2025-08-06 21:34:36","36c45c0696341be0efffe67d72a12abb","88.24.41.49","Mozilla/5.0 (Windows NT 10.0; Win64; x64) AppleWebKit/537.36 (KHTML, like Gecko) Chrome/139.0.0.0 Safari/537.36","WebKit","Chrome","139.0.0.0","Windows","10.0","https://app.prolific.com/","es-ES,es;q=0.8","67db387c909560bc7b65ea88","687a1a965b9f5b85a264363e","6893ca6882b3c33ec49b0673","1","67db387c909560bc7b65ea88","1","2025-08-06T21:42:14.865Z","","","","AttribQ","","","","","","","","","","","50","","","","","","","","","","","","","","","","","","","","","","","","","","",""
"7143","","<div style=""width:500px;"">
  <p>How much control did you have over the ball?</p>
  </div>","100","html-slider-response","15","462588","0.0-7.0-2.0","221","1","2025-08-06 21:34:36","36c45c0696341be0efffe67d72a12abb","88.24.41.49","Mozilla/5.0 (Windows NT 10.0; Win64; x64) AppleWebKit/537.36 (KHTML, like Gecko) Chrome/139.0.0.0 Safari/537.36","WebKit","Chrome","139.0.0.0","Windows","10.0","https://app.prolific.com/","es-ES,es;q=0.8","67db387c909560bc7b65ea88","687a1a965b9f5b85a264363e","6893ca6882b3c33ec49b0673","1","67db387c909560bc7b65ea88","1","2025-08-06T21:42:22.009Z","","","","ControlQ","","","","","","","","","","","50","","","","","","","","","","","","","","","","","","","","","","","","","","",""
"4259","","<div style=""width:500px;"">
  <p>How would you describe your current emotional state?</p>
  </div>","11","html-slider-response","16","466847","0.0-7.0-3.0","221","1","2025-08-06 21:34:36","36c45c0696341be0efffe67d72a12abb","88.24.41.49","Mozilla/5.0 (Windows NT 10.0; Win64; x64) AppleWebKit/537.36 (KHTML, like Gecko) Chrome/139.0.0.0 Safari/537.36","WebKit","Chrome","139.0.0.0","Windows","10.0","https://app.prolific.com/","es-ES,es;q=0.8","67db387c909560bc7b65ea88","687a1a965b9f5b85a264363e","6893ca6882b3c33ec49b0673","1","67db387c909560bc7b65ea88","1","2025-08-06T21:42:26.268Z","","","","StressQ","","","","","","","","","","","50","","","","","","","","","","","","","","","","","","","","","","","","","","",""
"6869","","<div style=""width:500px;"">
  <p>What best describes how you currently feel?</p>
  </div>","86","html-slider-response","17","473717","0.0-7.0-4.0","221","1","2025-08-06 21:34:36","36c45c0696341be0efffe67d72a12abb","88.24.41.49","Mozilla/5.0 (Windows NT 10.0; Win64; x64) AppleWebKit/537.36 (KHTML, like Gecko) Chrome/139.0.0.0 Safari/537.36","WebKit","Chrome","139.0.0.0","Windows","10.0","https://app.prolific.com/","es-ES,es;q=0.8","67db387c909560bc7b65ea88","687a1a965b9f5b85a264363e","6893ca6882b3c33ec49b0673","1","67db387c909560bc7b65ea88","1","2025-08-06T21:42:33.138Z","","","","MotivationQ","","","","","","","","","","","50","","","","","","","","","","","","","","","","","","","","","","","","","","",""
"","","","","ctl-task-cpt","18","509105","0.0-7.0-0.1","221","1","2025-08-06 21:34:36","36c45c0696341be0efffe67d72a12abb","88.24.41.49","Mozilla/5.0 (Windows NT 10.0; Win64; x64) AppleWebKit/537.36 (KHTML, like Gecko) Chrome/139.0.0.0 Safari/537.36","WebKit","Chrome","139.0.0.0","Windows","10.0","https://app.prolific.com/","es-ES,es;q=0.8","67db387c909560bc7b65ea88","687a1a965b9f5b85a264363e","6893ca6882b3c33ec49b0673","1","67db387c909560bc7b65ea88","1","2025-08-06T21:43:08.526Z","","","","","","","","","","","","","","","","win-only","1","g1:NE,g2:SW","0.9","2","0","475354.7","1121.2","6125.6","32370.5","1","4","4","6","2","-4","-6","0","0","0","1785.9","3000","-3015","[""down"",""left""]","{""num_key_presses"":8,""num_perfect"":5,""num_errors"":2,""num_randdir"":1,""num_randdir_good_moves"":0,""num_whilered"":0,""num_whileblue"":2,""num_blue"":2,""num_good_moves"":6}","[419.57142857142856,414.47767857142856,0.1,419.57142857142856,414.47767857142856,104,419.57142857142856,414.47767857142856,204.9,419.57142857142856,414.47767857142856,309,418.57142857142856,414.47767857142856,409.1,416.57142857142856,414.47767857142856,509.2,415.57142857142856,414.47767857142856,609.3,431.57142857142856,393.47767857142856,709.4,510.57142857142856,332.47767857142856,809.4,698.5714285714286,186.47767857142856,909.6,812.5714285714286,63.47767857142857,1009.7,815.5714285714286,53.47767857142857,1109.8,815.5714285714286,53.47767857142857,1209.8,784.5714285714286,90.47767857142857,1310,510.57142857142856,314.47767857142856,1414,243.57142857142856,586.4776785714286,1514.2,148.57142857142856,701.4776785714286,1614.3,108.57142857142857,732.4776785714286,1714.3,107.57142857142857,733.4776785714286,1814.4,107.57142857142857,733.4776785714286,1914.5,107.57142857142857,733.4776785714286,2014.6,111.57142857142857,730.4776785714286,2114.8,353.57142857142856,561.4776785714286,2214.9,588.5714285714286,449.47767857142856,2314.9,594.5714285714286,445.47767857142856,2415,594.5714285714286,445.47767857142856,2519.1,594.5714285714286,445.47767857142856,2619.2,594.5714285714286,445.47767857142856,2719.3,594.5714285714286,445.47767857142856,2819.3,594.5714285714286,445.47767857142856,2919.4,594.5714285714286,445.47767857142856,3019.6,594.5714285714286,445.47767857142856,3119.6,594.5714285714286,445.47767857142856,3224.7,594.5714285714286,445.47767857142856,3324.8,594.5714285714286,445.47767857142856,3424.9,594.5714285714286,445.47767857142856,3524.9,594.5714285714286,445.47767857142856,3629,594.5714285714286,445.47767857142856,3729.1,594.5714285714286,445.47767857142856,3829.2,594.5714285714286,445.47767857142856,3929.3,594.5714285714286,445.47767857142856,4029.4,594.5714285714286,445.47767857142856,4129.4,594.5714285714286,445.47767857142856,4229.6,594.5714285714286,445.47767857142856,4329.7,594.5714285714286,445.47767857142856,4429.7,594.5714285714286,445.47767857142856,4529.8,594.5714285714286,445.47767857142856,4629.9,594.5714285714286,445.47767857142856,4734.1,594.5714285714286,445.47767857142856,4834.1,594.5714285714286,445.47767857142856,4934.2]","[1371.3,1371.3,1000,0,371.3,""smooth"",""down"",""down"",""good_move"",4456.1,3084.7,2701.9,1371.4,382.8,""smooth"",""left"",""left"",""good_move"",8197,3740.8,3363.6,4456.2,377.2,""while_blue"",""left"",""right"",""bad_move"",10894.9,2697.6,2254,8197.3,443.6,""oops"",""left"",""up"",""bad_move"",13423.9,2528.8,2100.9,10895.1,427.9,""smooth"",""down"",""down"",""good_move"",16464,3040,2309.4,13424,730.6,""smooth"",""down"",""down"",""good_move"",19790.1,3326,2972.4,16464.1,353.6,""smooth"",""left"",""left"",""good_move"",23075.7,3285.5,2974.9,19790.2,310.6,""while_blue"",""left"",""left"",""good_move""]"
"41839","","<div style=""width:500px;"">
  <p>What determined the result of this run?</p>
  </div>","83","html-slider-response","19","550944","0.0-7.0-1.1","221","1","2025-08-06 21:34:36","36c45c0696341be0efffe67d72a12abb","88.24.41.49","Mozilla/5.0 (Windows NT 10.0; Win64; x64) AppleWebKit/537.36 (KHTML, like Gecko) Chrome/139.0.0.0 Safari/537.36","WebKit","Chrome","139.0.0.0","Windows","10.0","https://app.prolific.com/","es-ES,es;q=0.8","67db387c909560bc7b65ea88","687a1a965b9f5b85a264363e","6893ca6882b3c33ec49b0673","1","67db387c909560bc7b65ea88","1","2025-08-06T21:43:50.365Z","","","","AttribQ","","","","","","","","","","","50","","","","","","","","","","","","","","","","","","","","","","","","","","",""
"4719","","<div style=""width:500px;"">
  <p>How much control did you have over the ball?</p>
  </div>","67","html-slider-response","20","555664","0.0-7.0-2.1","221","1","2025-08-06 21:34:36","36c45c0696341be0efffe67d72a12abb","88.24.41.49","Mozilla/5.0 (Windows NT 10.0; Win64; x64) AppleWebKit/537.36 (KHTML, like Gecko) Chrome/139.0.0.0 Safari/537.36","WebKit","Chrome","139.0.0.0","Windows","10.0","https://app.prolific.com/","es-ES,es;q=0.8","67db387c909560bc7b65ea88","687a1a965b9f5b85a264363e","6893ca6882b3c33ec49b0673","1","67db387c909560bc7b65ea88","1","2025-08-06T21:43:55.085Z","","","","ControlQ","","","","","","","","","","","50","","","","","","","","","","","","","","","","","","","","","","","","","","",""
"2541","","<div style=""width:500px;"">
  <p>How would you describe your current emotional state?</p>
  </div>","70","html-slider-response","21","558206","0.0-7.0-3.1","221","1","2025-08-06 21:34:36","36c45c0696341be0efffe67d72a12abb","88.24.41.49","Mozilla/5.0 (Windows NT 10.0; Win64; x64) AppleWebKit/537.36 (KHTML, like Gecko) Chrome/139.0.0.0 Safari/537.36","WebKit","Chrome","139.0.0.0","Windows","10.0","https://app.prolific.com/","es-ES,es;q=0.8","67db387c909560bc7b65ea88","687a1a965b9f5b85a264363e","6893ca6882b3c33ec49b0673","1","67db387c909560bc7b65ea88","1","2025-08-06T21:43:57.627Z","","","","StressQ","","","","","","","","","","","50","","","","","","","","","","","","","","","","","","","","","","","","","","",""
"7305","","<div style=""width:500px;"">
  <p>What best describes how you currently feel?</p>
  </div>","26","html-slider-response","22","565512","0.0-7.0-4.1","221","1","2025-08-06 21:34:36","36c45c0696341be0efffe67d72a12abb","88.24.41.49","Mozilla/5.0 (Windows NT 10.0; Win64; x64) AppleWebKit/537.36 (KHTML, like Gecko) Chrome/139.0.0.0 Safari/537.36","WebKit","Chrome","139.0.0.0","Windows","10.0","https://app.prolific.com/","es-ES,es;q=0.8","67db387c909560bc7b65ea88","687a1a965b9f5b85a264363e","6893ca6882b3c33ec49b0673","1","67db387c909560bc7b65ea88","1","2025-08-06T21:44:04.933Z","","","","MotivationQ","","","","","","","","","","","50","","","","","","","","","","","","","","","","","","","","","","","","","","",""
"","","","","ctl-task-cpt","23","590669","0.0-7.0-0.2","221","1","2025-08-06 21:34:36","36c45c0696341be0efffe67d72a12abb","88.24.41.49","Mozilla/5.0 (Windows NT 10.0; Win64; x64) AppleWebKit/537.36 (KHTML, like Gecko) Chrome/139.0.0.0 Safari/537.36","WebKit","Chrome","139.0.0.0","Windows","10.0","https://app.prolific.com/","es-ES,es;q=0.8","67db387c909560bc7b65ea88","687a1a965b9f5b85a264363e","6893ca6882b3c33ec49b0673","1","67db387c909560bc7b65ea88","1","2025-08-06T21:44:30.090Z","","","","","","","","","","","","","","","","win-only","1","g1:NE,g2:SW","0.8","3","0","567149.3","1371.5","6375.4","22140.3","1","4","8","6","1","1","0","0","0","0","2711.9","3000","995","[""up"",""right""]","{""num_key_presses"":5,""num_perfect"":4,""num_errors"":1,""num_randdir"":0,""num_randdir_good_moves"":0,""num_whilered"":0,""num_whileblue"":0,""num_blue"":1,""num_good_moves"":4}","[424.57142857142856,407.47767857142856,0.2,424.57142857142856,407.47767857142856,104.3,424.57142857142856,407.47767857142856,204.4,424.57142857142856,407.47767857142856,304.5,424.57142857142856,407.47767857142856,404.6,424.57142857142856,407.47767857142856,508.6,424.57142857142856,407.47767857142856,608.8,424.57142857142856,407.47767857142856,708.9,424.57142857142856,407.47767857142856,809,424.57142857142856,407.47767857142856,909,424.57142857142856,407.47767857142856,1009.2,424.57142857142856,407.47767857142856,1109.2,437.57142857142856,407.47767857142856,1214.3,445.57142857142856,407.47767857142856,1314.4,466.57142857142856,404.47767857142856,1414.5,616.5714285714286,395.47767857142856,1514.6,751.5714285714286,386.47767857142856,1618.7,789.5714285714286,384.47767857142856,1718.8,790.5714285714286,384.47767857142856,1818.9,790.5714285714286,384.47767857142856,1919,783.5714285714286,384.47767857142856,2019,737.5714285714286,377.47767857142856,2119.2,648.5714285714286,372.47767857142856,2219.2,618.5714285714286,367.47767857142856,2319.4,697.5714285714286,223.47767857142856,2419.4,768.5714285714286,113.47767857142857,2519.6,768.5714285714286,107.47767857142857,2619.6,770.5714285714286,60.47767857142857,2723.7,770.5714285714286,60.47767857142857,2823.8,769.5714285714286,64.47767857142857,2923.9,789.5714285714286,73.47767857142857,3024,981.5714285714286,2.4776785714285694,3124.1,1150.5714285714287,-112.52232142857143,3224.2,1150.5714285714287,-112.52232142857143,3324.3,1150.5714285714287,-112.52232142857143,3424.4,1150.5714285714287,-112.52232142857143,3528.8,1150.5714285714287,-112.52232142857143,3629.6,1150.5714285714287,-112.52232142857143,3733.7,1150.5714285714287,-112.52232142857143,3833.8,1150.5714285714287,-112.52232142857143,3933.8,1150.5714285714287,-112.52232142857143,4033.9,1340.5714285714287,-113.52232142857143,4134,1340.5714285714287,-113.52232142857143,4234,1340.5714285714287,-113.52232142857143,4334.1,1340.5714285714287,-113.52232142857143,4434.3,1340.5714285714287,-113.52232142857143,4534.4,1368.5714285714287,-112.52232142857143,4634.5,1368.5714285714287,-112.52232142857143,4734.6,1368.5714285714287,-112.52232142857143,4838.6,1368.5714285714287,-112.52232142857143,4938.7]","[479.4,479.4,1000,0,-520.6,""error"",""-"",""-"",""no_move"",3513.7,3034.2,1411,1480.2,622.5,""smooth"",""right"",""right"",""good_move"",10305.6,6791.6,2118.9,7739.9,446.8,""smooth"",""up"",""up"",""good_move"",13166.2,2860.4,2293.6,10305.8,566.8,""smooth"",""right"",""right"",""good_move"",15676.3,2510,2126.2,13166.3,383.8,""smooth"",""up"",""up"",""good_move""]"
"5170","","<div style=""width:500px;"">
  <p>What determined the result of this run?</p>
  </div>","84","html-slider-response","24","595840","0.0-7.0-1.2","221","1","2025-08-06 21:34:36","36c45c0696341be0efffe67d72a12abb","88.24.41.49","Mozilla/5.0 (Windows NT 10.0; Win64; x64) AppleWebKit/537.36 (KHTML, like Gecko) Chrome/139.0.0.0 Safari/537.36","WebKit","Chrome","139.0.0.0","Windows","10.0","https://app.prolific.com/","es-ES,es;q=0.8","67db387c909560bc7b65ea88","687a1a965b9f5b85a264363e","6893ca6882b3c33ec49b0673","1","67db387c909560bc7b65ea88","1","2025-08-06T21:44:35.261Z","","","","AttribQ","","","","","","","","","","","50","","","","","","","","","","","","","","","","","","","","","","","","","","",""
"2345","","<div style=""width:500px;"">
  <p>How much control did you have over the ball?</p>
  </div>","87","html-slider-response","25","598186","0.0-7.0-2.2","221","1","2025-08-06 21:34:36","36c45c0696341be0efffe67d72a12abb","88.24.41.49","Mozilla/5.0 (Windows NT 10.0; Win64; x64) AppleWebKit/537.36 (KHTML, like Gecko) Chrome/139.0.0.0 Safari/537.36","WebKit","Chrome","139.0.0.0","Windows","10.0","https://app.prolific.com/","es-ES,es;q=0.8","67db387c909560bc7b65ea88","687a1a965b9f5b85a264363e","6893ca6882b3c33ec49b0673","1","67db387c909560bc7b65ea88","1","2025-08-06T21:44:37.607Z","","","","ControlQ","","","","","","","","","","","50","","","","","","","","","","","","","","","","","","","","","","","","","","",""
"2041","","<div style=""width:500px;"">
  <p>How would you describe your current emotional state?</p>
  </div>","13","html-slider-response","26","600227","0.0-7.0-3.2","221","1","2025-08-06 21:34:36","36c45c0696341be0efffe67d72a12abb","88.24.41.49","Mozilla/5.0 (Windows NT 10.0; Win64; x64) AppleWebKit/537.36 (KHTML, like Gecko) Chrome/139.0.0.0 Safari/537.36","WebKit","Chrome","139.0.0.0","Windows","10.0","https://app.prolific.com/","es-ES,es;q=0.8","67db387c909560bc7b65ea88","687a1a965b9f5b85a264363e","6893ca6882b3c33ec49b0673","1","67db387c909560bc7b65ea88","1","2025-08-06T21:44:39.649Z","","","","StressQ","","","","","","","","","","","50","","","","","","","","","","","","","","","","","","","","","","","","","","",""
"2669","","<div style=""width:500px;"">
  <p>What best describes how you currently feel?</p>
  </div>","74","html-slider-response","27","602897","0.0-7.0-4.2","221","1","2025-08-06 21:34:36","36c45c0696341be0efffe67d72a12abb","88.24.41.49","Mozilla/5.0 (Windows NT 10.0; Win64; x64) AppleWebKit/537.36 (KHTML, like Gecko) Chrome/139.0.0.0 Safari/537.36","WebKit","Chrome","139.0.0.0","Windows","10.0","https://app.prolific.com/","es-ES,es;q=0.8","67db387c909560bc7b65ea88","687a1a965b9f5b85a264363e","6893ca6882b3c33ec49b0673","1","67db387c909560bc7b65ea88","1","2025-08-06T21:44:42.319Z","","","","MotivationQ","","","","","","","","","","","50","","","","","","","","","","","","","","","","","","","","","","","","","","",""
"","","","","ctl-task-cpt","28","638622","0.0-7.0-0.3","221","1","2025-08-06 21:34:36","36c45c0696341be0efffe67d72a12abb","88.24.41.49","Mozilla/5.0 (Windows NT 10.0; Win64; x64) AppleWebKit/537.36 (KHTML, like Gecko) Chrome/139.0.0.0 Safari/537.36","WebKit","Chrome","139.0.0.0","Windows","10.0","https://app.prolific.com/","es-ES,es;q=0.8","67db387c909560bc7b65ea88","687a1a965b9f5b85a264363e","6893ca6882b3c33ec49b0673","1","67db387c909560bc7b65ea88","1","2025-08-06T21:45:18.043Z","","","","","","","","","","","","","","","","win-only","2","g1:SE,g2:NW","0.7","4","0","604535","983.1","5985.9","32705.8","1","4","4","6","1","-1","-2","0","0","0","1424.3","3000","-3015","[""down"",""right""]","{""num_key_presses"":7,""num_perfect"":4,""num_errors"":1,""num_randdir"":2,""num_randdir_good_moves"":0,""num_whilered"":0,""num_whileblue"":0,""num_blue"":1,""num_good_moves"":4}","[409.57142857142856,416.47767857142856,0.1,409.57142857142856,416.47767857142856,102.2,409.57142857142856,416.47767857142856,202.4,409.57142857142856,416.47767857142856,307.7,409.57142857142856,416.47767857142856,412.6,409.57142857142856,416.47767857142856,512.8,409.57142857142856,416.47767857142856,617,413.57142857142856,429.47767857142856,717.9,590.5714285714286,550.4776785714286,822.7,780.5714285714286,706.4776785714286,922.8,789.5714285714286,717.4776785714286,1027.2,789.5714285714286,722.4776785714286,1127.2,789.5714285714286,722.4776785714286,1227.3,789.5714285714286,722.4776785714286,1327.5,789.5714285714286,722.4776785714286,1428,789.5714285714286,722.4776785714286,1528,789.5714285714286,722.4776785714286,1632.7,789.5714285714286,722.4776785714286,1737.4,789.5714285714286,722.4776785714286,1837.7,812.5714285714286,700.4776785714286,1937.7,1035.5714285714287,549.4776785714286,2042.3,1049.5714285714287,541.4776785714286,2142.4,1049.5714285714287,541.4776785714286,2247.6,1049.5714285714287,541.4776785714286,2352.6,1049.5714285714287,541.4776785714286,2452.8,1060.5714285714287,541.4776785714286,2557.5,1098.5714285714287,530.4776785714286,2657.7,1122.5714285714287,518.4776785714286,2757.7,1122.5714285714287,518.4776785714286,2858,1122.5714285714287,518.4776785714286,2962.1,1135.5714285714287,518.4776785714286,3063.7,1135.5714285714287,518.4776785714286,3167,1135.5714285714287,518.4776785714286,3267.2,1135.5714285714287,518.4776785714286,3367.3,1135.5714285714287,518.4776785714286,3467.4,1135.5714285714287,518.4776785714286,3567.7,1135.5714285714287,518.4776785714286,3672.5,1135.5714285714287,518.4776785714286,3772.7,1135.5714285714287,518.4776785714286,3872.8,1135.5714285714287,518.4776785714286,3972.8,1135.5714285714287,518.4776785714286,4077.3,1135.5714285714287,518.4776785714286,4182.7,1135.5714285714287,518.4776785714286,4287.1,1135.5714285714287,518.4776785714286,4387.1,1135.5714285714287,518.4776785714286,4487.4,1135.5714285714287,518.4776785714286,4592.5,1135.5714285714287,518.4776785714286,4692.6,1135.5714285714287,518.4776785714286,4797.6,1135.5714285714287,518.4776785714286,4897.6,1135.5714285714287,518.4776785714286,4997.8]","[2090,2090.1,1000,0,1090.1,""smooth"",""down"",""down"",""good_move"",4780.5,2690.3,2277.9,2090.3,412.4,""smooth"",""right"",""right"",""good_move"",12393.7,7612.9,2482.7,9494.8,416.2,""oops"",""right"",""left"",""bad_move"",14744.7,2350.8,1928.8,12393.9,422,""smooth"",""down"",""down"",""good_move"",18210.4,3465.5,3066,14744.9,399.5,""smooth"",""right"",""right"",""good_move"",20803.4,2592.8,2376.6,18210.6,216.2,""oops"",""right"",""up"",""bad_move"",22921.7,2118.2,2363.6,20803.5,-245.4,""error"",""-"",""-"",""no_move""]"
"5282","","<div style=""width:500px;"">
  <p>What determined the result of this run?</p>
  </div>","18","html-slider-response","29","643905","0.0-7.0-1.3","221","1","2025-08-06 21:34:36","36c45c0696341be0efffe67d72a12abb","88.24.41.49","Mozilla/5.0 (Windows NT 10.0; Win64; x64) AppleWebKit/537.36 (KHTML, like Gecko) Chrome/139.0.0.0 Safari/537.36","WebKit","Chrome","139.0.0.0","Windows","10.0","https://app.prolific.com/","es-ES,es;q=0.8","67db387c909560bc7b65ea88","687a1a965b9f5b85a264363e","6893ca6882b3c33ec49b0673","1","67db387c909560bc7b65ea88","1","2025-08-06T21:45:23.326Z","","","","AttribQ","","","","","","","","","","","50","","","","","","","","","","","","","","","","","","","","","","","","","","",""
"2255","","<div style=""width:500px;"">
  <p>How much control did you have over the ball?</p>
  </div>","29","html-slider-response","30","646161","0.0-7.0-2.3","221","1","2025-08-06 21:34:36","36c45c0696341be0efffe67d72a12abb","88.24.41.49","Mozilla/5.0 (Windows NT 10.0; Win64; x64) AppleWebKit/537.36 (KHTML, like Gecko) Chrome/139.0.0.0 Safari/537.36","WebKit","Chrome","139.0.0.0","Windows","10.0","https://app.prolific.com/","es-ES,es;q=0.8","67db387c909560bc7b65ea88","687a1a965b9f5b85a264363e","6893ca6882b3c33ec49b0673","1","67db387c909560bc7b65ea88","1","2025-08-06T21:45:25.582Z","","","","ControlQ","","","","","","","","","","","50","","","","","","","","","","","","","","","","","","","","","","","","","","",""
"1851","","<div style=""width:500px;"">
  <p>How would you describe your current emotional state?</p>
  </div>","77","html-slider-response","31","648013","0.0-7.0-3.3","221","1","2025-08-06 21:34:36","36c45c0696341be0efffe67d72a12abb","88.24.41.49","Mozilla/5.0 (Windows NT 10.0; Win64; x64) AppleWebKit/537.36 (KHTML, like Gecko) Chrome/139.0.0.0 Safari/537.36","WebKit","Chrome","139.0.0.0","Windows","10.0","https://app.prolific.com/","es-ES,es;q=0.8","67db387c909560bc7b65ea88","687a1a965b9f5b85a264363e","6893ca6882b3c33ec49b0673","1","67db387c909560bc7b65ea88","1","2025-08-06T21:45:27.434Z","","","","StressQ","","","","","","","","","","","50","","","","","","","","","","","","","","","","","","","","","","","","","","",""
"3941","","<div style=""width:500px;"">
  <p>What best describes how you currently feel?</p>
  </div>","32","html-slider-response","32","651955","0.0-7.0-4.3","221","1","2025-08-06 21:34:36","36c45c0696341be0efffe67d72a12abb","88.24.41.49","Mozilla/5.0 (Windows NT 10.0; Win64; x64) AppleWebKit/537.36 (KHTML, like Gecko) Chrome/139.0.0.0 Safari/537.36","WebKit","Chrome","139.0.0.0","Windows","10.0","https://app.prolific.com/","es-ES,es;q=0.8","67db387c909560bc7b65ea88","687a1a965b9f5b85a264363e","6893ca6882b3c33ec49b0673","1","67db387c909560bc7b65ea88","1","2025-08-06T21:45:31.376Z","","","","MotivationQ","","","","","","","","","","","50","","","","","","","","","","","","","","","","","","","","","","","","","","",""
"","","","","ctl-task-cpt","33","671152","0.0-7.0-0.4","221","1","2025-08-06 21:34:36","36c45c0696341be0efffe67d72a12abb","88.24.41.49","Mozilla/5.0 (Windows NT 10.0; Win64; x64) AppleWebKit/537.36 (KHTML, like Gecko) Chrome/139.0.0.0 Safari/537.36","WebKit","Chrome","139.0.0.0","Windows","10.0","https://app.prolific.com/","es-ES,es;q=0.8","67db387c909560bc7b65ea88","687a1a965b9f5b85a264363e","6893ca6882b3c33ec49b0673","1","67db387c909560bc7b65ea88","1","2025-08-06T21:45:50.573Z","","","","","","","","","","","","","","","","win-only","0","g1:NW,g2:SE","0.6","5","0","653592.4","1057.2","6060.7","16180.3","1","4","8","6","1","1","1","1","0","0.007575757575757576","2661.7","3000","1285","[""left"",""up""]","{""num_key_presses"":4,""num_perfect"":3,""num_errors"":0,""num_randdir"":1,""num_randdir_good_moves"":1,""num_whilered"":0,""num_whileblue"":0,""num_blue"":0,""num_good_moves"":4}","[408.57142857142856,416.47767857142856,0.1,408.57142857142856,416.47767857142856,103,408.57142857142856,416.47767857142856,203.4,408.57142857142856,416.47767857142856,308.3,408.57142857142856,416.47767857142856,408.6,408.57142857142856,416.47767857142856,513.4,408.57142857142856,416.47767857142856,613.5,408.57142857142856,416.47767857142856,713.6,410.57142857142856,412.47767857142856,818,375.57142857142856,256.47767857142856,918.1,52.57142857142857,91.47767857142857,1018.2,42.57142857142857,88.47767857142857,1118.3,42.57142857142857,88.47767857142857,1223.3,42.57142857142857,88.47767857142857,1323.5,56.57142857142857,98.47767857142857,1428.3,56.57142857142857,98.47767857142857,1528.4,56.57142857142857,98.47767857142857,1633.2,102.57142857142857,137.47767857142856,1738.4,576.5714285714286,555.4776785714286,1838.4,665.5714285714286,648.4776785714286,1938.5,672.5714285714286,660.4776785714286,2038.6,714.5714285714286,695.4776785714286,2143.6,719.5714285714286,695.4776785714286,2248.2,290.57142857142856,305.47767857142856,2348.6,119.57142857142857,190.47767857142856,2453.5,131.57142857142856,163.47767857142856,2554.1,121.57142857142857,117.47767857142857,2658.2,121.57142857142857,117.47767857142857,2758.3,121.57142857142857,117.47767857142857,2863.5,152.57142857142856,126.47767857142857,2968.5,764.5714285714286,128.47767857142856,3068.5,874.5714285714286,120.47767857142857,3173.4,874.5714285714286,120.47767857142857,3273.6,874.5714285714286,120.47767857142857,3373.6,874.5714285714286,120.47767857142857,3478,956.5714285714286,129.47767857142856,3578,1020.5714285714286,133.47767857142856,3678.2,1020.5714285714286,133.47767857142856,3778.2,1020.5714285714286,133.47767857142856,3878.3,1020.5714285714286,133.47767857142856,3978.4,1020.5714285714286,133.47767857142856,4083.5,1020.5714285714286,133.47767857142856,4183.6,1020.5714285714286,133.47767857142856,4288.4,1020.5714285714286,133.47767857142856,4388.4,1020.5714285714286,133.47767857142856,4488.6,1020.5714285714286,133.47767857142856,4593,1020.5714285714286,133.47767857142856,4693.2,1020.5714285714286,133.47767857142856,4793.3,1020.5714285714286,133.47767857142856,4898.2,1020.5714285714286,133.47767857142856,4998.4]","[1441.9,1441.9,1000,0,441.9,""smooth"",""up"",""up"",""good_move"",4711.8,3269.7,2843.5,1442.1,426.2,""oops"",""up"",""left"",""good_move"",7755,3043.1,2621.5,4711.9,421.6,""smooth"",""up"",""up"",""good_move"",10030.7,2275.5,1830.3,7755.2,445.2,""smooth"",""left"",""left"",""good_move""]"
"2930","","<div style=""width:500px;"">
  <p>What determined the result of this run?</p>
  </div>","94","html-slider-response","34","674083","0.0-7.0-1.4","221","1","2025-08-06 21:34:36","36c45c0696341be0efffe67d72a12abb","88.24.41.49","Mozilla/5.0 (Windows NT 10.0; Win64; x64) AppleWebKit/537.36 (KHTML, like Gecko) Chrome/139.0.0.0 Safari/537.36","WebKit","Chrome","139.0.0.0","Windows","10.0","https://app.prolific.com/","es-ES,es;q=0.8","67db387c909560bc7b65ea88","687a1a965b9f5b85a264363e","6893ca6882b3c33ec49b0673","1","67db387c909560bc7b65ea88","1","2025-08-06T21:45:53.504Z","","","","AttribQ","","","","","","","","","","","50","","","","","","","","","","","","","","","","","","","","","","","","","","",""
"2315","","<div style=""width:500px;"">
  <p>How much control did you have over the ball?</p>
  </div>","89","html-slider-response","35","676399","0.0-7.0-2.4","221","1","2025-08-06 21:34:36","36c45c0696341be0efffe67d72a12abb","88.24.41.49","Mozilla/5.0 (Windows NT 10.0; Win64; x64) AppleWebKit/537.36 (KHTML, like Gecko) Chrome/139.0.0.0 Safari/537.36","WebKit","Chrome","139.0.0.0","Windows","10.0","https://app.prolific.com/","es-ES,es;q=0.8","67db387c909560bc7b65ea88","687a1a965b9f5b85a264363e","6893ca6882b3c33ec49b0673","1","67db387c909560bc7b65ea88","1","2025-08-06T21:45:55.820Z","","","","ControlQ","","","","","","","","","","","50","","","","","","","","","","","","","","","","","","","","","","","","","","",""
"3829","","<div style=""width:500px;"">
  <p>How would you describe your current emotional state?</p>
  </div>","5","html-slider-response","36","680228","0.0-7.0-3.4","221","1","2025-08-06 21:34:36","36c45c0696341be0efffe67d72a12abb","88.24.41.49","Mozilla/5.0 (Windows NT 10.0; Win64; x64) AppleWebKit/537.36 (KHTML, like Gecko) Chrome/139.0.0.0 Safari/537.36","WebKit","Chrome","139.0.0.0","Windows","10.0","https://app.prolific.com/","es-ES,es;q=0.8","67db387c909560bc7b65ea88","687a1a965b9f5b85a264363e","6893ca6882b3c33ec49b0673","1","67db387c909560bc7b65ea88","1","2025-08-06T21:45:59.650Z","","","","StressQ","","","","","","","","","","","50","","","","","","","","","","","","","","","","","","","","","","","","","","",""
"4937","","<div style=""width:500px;"">
  <p>What best describes how you currently feel?</p>
  </div>","95","html-slider-response","37","685167","0.0-7.0-4.4","221","1","2025-08-06 21:34:36","36c45c0696341be0efffe67d72a12abb","88.24.41.49","Mozilla/5.0 (Windows NT 10.0; Win64; x64) AppleWebKit/537.36 (KHTML, like Gecko) Chrome/139.0.0.0 Safari/537.36","WebKit","Chrome","139.0.0.0","Windows","10.0","https://app.prolific.com/","es-ES,es;q=0.8","67db387c909560bc7b65ea88","687a1a965b9f5b85a264363e","6893ca6882b3c33ec49b0673","1","67db387c909560bc7b65ea88","1","2025-08-06T21:46:04.588Z","","","","MotivationQ","","","","","","","","","","","50","","","","","","","","","","","","","","","","","","","","","","","","","","",""
"","","","","ctl-task-cpt","38","717010","0.0-7.0-0.5","221","1","2025-08-06 21:34:36","36c45c0696341be0efffe67d72a12abb","88.24.41.49","Mozilla/5.0 (Windows NT 10.0; Win64; x64) AppleWebKit/537.36 (KHTML, like Gecko) Chrome/139.0.0.0 Safari/537.36","WebKit","Chrome","139.0.0.0","Windows","10.0","https://app.prolific.com/","es-ES,es;q=0.8","67db387c909560bc7b65ea88","687a1a965b9f5b85a264363e","6893ca6882b3c33ec49b0673","1","67db387c909560bc7b65ea88","1","2025-08-06T21:46:36.432Z","","","","","","","","","","","","","","","","win-only","1","g1:NE,g2:SW","0.5","6","0","686804.1","1949","6950.8","28825.3","1","4","4","6","1","-1","-1","0","1","0","1368.4","3000","-3015","[""up"",""right""]","{""num_key_presses"":6,""num_perfect"":2,""num_errors"":0,""num_randdir"":4,""num_randdir_good_moves"":1,""num_whilered"":0,""num_whileblue"":0,""num_blue"":1,""num_good_moves"":3}","[413.57142857142856,418.47767857142856,0.2,413.57142857142856,418.47767857142856,101.3,413.57142857142856,418.47767857142856,206.2,413.57142857142856,418.47767857142856,306.3,413.57142857142856,418.47767857142856,406.4,413.57142857142856,418.47767857142856,506.4,456.57142857142856,371.47767857142856,606.6,656.5714285714286,208.47767857142856,706.6,727.5714285714286,147.47767857142856,806.7,737.5714285714286,134.47767857142856,911.9,739.5714285714286,132.47767857142856,1012,739.5714285714286,131.47767857142856,1117.1,745.5714285714286,124.47767857142857,1221.4,745.5714285714286,124.47767857142857,1326.2,745.5714285714286,124.47767857142857,1426.3,745.5714285714286,124.47767857142857,1526.4,745.5714285714286,124.47767857142857,1626.6,745.5714285714286,124.47767857142857,1726.6,745.5714285714286,124.47767857142857,1826.7,745.5714285714286,124.47767857142857,1931.7,745.5714285714286,124.47767857142857,2031.8,745.5714285714286,124.47767857142857,2136.4,745.5714285714286,124.47767857142857,2237,745.5714285714286,124.47767857142857,2342.2,745.5714285714286,124.47767857142857,2446.2,745.5714285714286,124.47767857142857,2546.3,745.5714285714286,124.47767857142857,2646.5,745.5714285714286,124.47767857142857,2746.5,745.5714285714286,124.47767857142857,2846.6,745.5714285714286,124.47767857142857,2946.7,745.5714285714286,124.47767857142857,3046.8,745.5714285714286,124.47767857142857,3146.8,745.5714285714286,124.47767857142857,3252,745.5714285714286,124.47767857142857,3352.1,745.5714285714286,124.47767857142857,3457.2,745.5714285714286,124.47767857142857,3561.2,745.5714285714286,124.47767857142857,3661.4,745.5714285714286,124.47767857142857,3761.5,745.5714285714286,124.47767857142857,3861.5,745.5714285714286,124.47767857142857,3961.6,745.5714285714286,124.47767857142857,4066.2,745.5714285714286,124.47767857142857,4166.3,745.5714285714286,124.47767857142857,4266.4,745.5714285714286,124.47767857142857,4366.5,745.5714285714286,124.47767857142857,4466.6,745.5714285714286,124.47767857142857,4566.7,745.5714285714286,124.47767857142857,4671.4,745.5714285714286,124.47767857142857,4771.5,745.5714285714286,124.47767857142857,4876.6,745.5714285714286,124.47767857142857,4976.7]","[1410.7,1410.7,1000,0,410.7,""oops"",""right"",""left"",""bad_move"",3686.9,2276,1762.6,1410.9,513.4,""smooth"",""up"",""up"",""good_move"",6961,3273.8,2498.5,3687.2,775.3,""smooth"",""up"",""up"",""good_move"",10188.5,3227.4,2838,6961.1,389.4,""oops"",""right"",""down"",""bad_move"",13376.6,3187.9,2806.6,10188.7,381.3,""oops"",""right"",""left"",""bad_move"",16604.4,3227.6,2782.9,13376.9,444.6,""oops"",""right"",""up"",""good_move""]"
"19635","","<div style=""width:500px;"">
  <p>What determined the result of this run?</p>
  </div>","0","html-slider-response","39","736646","0.0-7.0-1.5","221","1","2025-08-06 21:34:36","36c45c0696341be0efffe67d72a12abb","88.24.41.49","Mozilla/5.0 (Windows NT 10.0; Win64; x64) AppleWebKit/537.36 (KHTML, like Gecko) Chrome/139.0.0.0 Safari/537.36","WebKit","Chrome","139.0.0.0","Windows","10.0","https://app.prolific.com/","es-ES,es;q=0.8","67db387c909560bc7b65ea88","687a1a965b9f5b85a264363e","6893ca6882b3c33ec49b0673","1","67db387c909560bc7b65ea88","1","2025-08-06T21:46:56.067Z","","","","AttribQ","","","","","","","","","","","50","","","","","","","","","","","","","","","","","","","","","","","","","","",""
"2315","","<div style=""width:500px;"">
  <p>How much control did you have over the ball?</p>
  </div>","0","html-slider-response","40","738962","0.0-7.0-2.5","221","1","2025-08-06 21:34:36","36c45c0696341be0efffe67d72a12abb","88.24.41.49","Mozilla/5.0 (Windows NT 10.0; Win64; x64) AppleWebKit/537.36 (KHTML, like Gecko) Chrome/139.0.0.0 Safari/537.36","WebKit","Chrome","139.0.0.0","Windows","10.0","https://app.prolific.com/","es-ES,es;q=0.8","67db387c909560bc7b65ea88","687a1a965b9f5b85a264363e","6893ca6882b3c33ec49b0673","1","67db387c909560bc7b65ea88","1","2025-08-06T21:46:58.383Z","","","","ControlQ","","","","","","","","","","","50","","","","","","","","","","","","","","","","","","","","","","","","","","",""
"7943","","<div style=""width:500px;"">
  <p>How would you describe your current emotional state?</p>
  </div>","0","html-slider-response","41","746906","0.0-7.0-3.5","221","1","2025-08-06 21:34:36","36c45c0696341be0efffe67d72a12abb","88.24.41.49","Mozilla/5.0 (Windows NT 10.0; Win64; x64) AppleWebKit/537.36 (KHTML, like Gecko) Chrome/139.0.0.0 Safari/537.36","WebKit","Chrome","139.0.0.0","Windows","10.0","https://app.prolific.com/","es-ES,es;q=0.8","67db387c909560bc7b65ea88","687a1a965b9f5b85a264363e","6893ca6882b3c33ec49b0673","1","67db387c909560bc7b65ea88","1","2025-08-06T21:47:06.327Z","","","","StressQ","","","","","","","","","","","50","","","","","","","","","","","","","","","","","","","","","","","","","","",""
"6409","","<div style=""width:500px;"">
  <p>What best describes how you currently feel?</p>
  </div>","31","html-slider-response","42","753316","0.0-7.0-4.5","221","1","2025-08-06 21:34:36","36c45c0696341be0efffe67d72a12abb","88.24.41.49","Mozilla/5.0 (Windows NT 10.0; Win64; x64) AppleWebKit/537.36 (KHTML, like Gecko) Chrome/139.0.0.0 Safari/537.36","WebKit","Chrome","139.0.0.0","Windows","10.0","https://app.prolific.com/","es-ES,es;q=0.8","67db387c909560bc7b65ea88","687a1a965b9f5b85a264363e","6893ca6882b3c33ec49b0673","1","67db387c909560bc7b65ea88","1","2025-08-06T21:47:12.737Z","","","","MotivationQ","","","","","","","","","","","50","","","","","","","","","","","","","","","","","","","","","","","","","","",""
"","","","","ctl-task-cpt","43","792670","0.0-7.0-0.6","221","1","2025-08-06 21:34:36","36c45c0696341be0efffe67d72a12abb","88.24.41.49","Mozilla/5.0 (Windows NT 10.0; Win64; x64) AppleWebKit/537.36 (KHTML, like Gecko) Chrome/139.0.0.0 Safari/537.36","WebKit","Chrome","139.0.0.0","Windows","10.0","https://app.prolific.com/","es-ES,es;q=0.8","67db387c909560bc7b65ea88","687a1a965b9f5b85a264363e","6893ca6882b3c33ec49b0673","1","67db387c909560bc7b65ea88","1","2025-08-06T21:47:52.091Z","","","","","","","","","","","","","","","","win-only","0","g1:NW,g2:SE","0.4","7","0","754953.2","852.9","5855.4","36336","1","4","8","6","1","1","0","0","0","0","4526.5","3000","415","[""left"",""up""]","{""num_key_presses"":7,""num_perfect"":3,""num_errors"":1,""num_randdir"":3,""num_randdir_good_moves"":2,""num_whilered"":0,""num_whileblue"":0,""num_blue"":4,""num_good_moves"":5}","[422.57142857142856,420.47767857142856,0,422.57142857142856,420.47767857142856,103,422.57142857142856,420.47767857142856,203.1,422.57142857142856,420.47767857142856,303.2,422.57142857142856,420.47767857142856,407.3,422.57142857142856,420.47767857142856,507.3,422.57142857142856,420.47767857142856,607.4,422.57142857142856,420.47767857142856,707.5,436.57142857142856,412.47767857142856,812.6,647.5714285714286,332.47767857142856,912.7,768.5714285714286,285.47767857142856,1017.3,772.5714285714286,283.47767857142856,1122.2,772.5714285714286,283.47767857142856,1222.4,772.5714285714286,283.47767857142856,1323.5,772.5714285714286,283.47767857142856,1427.5,772.5714285714286,283.47767857142856,1532.3,772.5714285714286,283.47767857142856,1632.4,786.5714285714286,280.47767857142856,1737.4,786.5714285714286,280.47767857142856,1837.6,786.5714285714286,280.47767857142856,1942.3,786.5714285714286,280.47767857142856,2042.7,786.5714285714286,280.47767857142856,2142.7,786.5714285714286,280.47767857142856,2242.9,786.5714285714286,280.47767857142856,2347.4,786.5714285714286,280.47767857142856,2448.1,786.5714285714286,280.47767857142856,2552.2,786.5714285714286,280.47767857142856,2652.3,786.5714285714286,280.47767857142856,2752.4,786.5714285714286,280.47767857142856,2852.5,786.5714285714286,280.47767857142856,2957.2,786.5714285714286,280.47767857142856,3057.7,786.5714285714286,280.47767857142856,3162.7,786.5714285714286,280.47767857142856,3262.8,786.5714285714286,280.47767857142856,3362.9,786.5714285714286,280.47767857142856,3467.3,786.5714285714286,280.47767857142856,3567.7,786.5714285714286,280.47767857142856,3672.2,786.5714285714286,280.47767857142856,3772.3,786.5714285714286,280.47767857142856,3872.4,786.5714285714286,280.47767857142856,3977.5,786.5714285714286,280.47767857142856,4077.6,742.5714285714286,285.47767857142856,4182.2,302.57142857142856,115.47767857142857,4282.8,109.57142857142857,70.47767857142857,4382.8,72.57142857142857,77.47767857142857,4487.7,72.57142857142857,77.47767857142857,4588,72.57142857142857,77.47767857142857,4688.2,191.57142857142856,84.47767857142857,4792.2,757.5714285714286,63.47767857142857,4892.3,814.5714285714286,53.47767857142857,4992.4]","[4354.1,4354.1,2000.1,2004.9,349.1,""oops"",""left"",""left"",""good_move"",6851,2496.6,1995.6,4354.4,501,""oops"",""left"",""right"",""bad_move"",13131,6279.8,2333.3,10360.2,437.5,""smooth"",""up"",""up"",""good_move"",15944.9,2813.9,2392,13131.1,421.9,""smooth"",""left"",""left"",""good_move"",16951.9,1006.6,2536,15945.3,-1529.4,""error"",""-"",""-"",""no_move"",27729,10777,2771.2,24569.8,388,""oops"",""up"",""up"",""good_move"",30394.1,2665,2137.3,27729.1,527.7,""smooth"",""left"",""left"",""good_move""]"
"227321","","<div style=""width:500px;"">
  <p>What determined the result of this run?</p>
  </div>","23","html-slider-response","44","1019992","0.0-7.0-1.6","221","1","2025-08-06 21:34:36","36c45c0696341be0efffe67d72a12abb","88.24.41.49","Mozilla/5.0 (Windows NT 10.0; Win64; x64) AppleWebKit/537.36 (KHTML, like Gecko) Chrome/139.0.0.0 Safari/537.36","WebKit","Chrome","139.0.0.0","Windows","10.0","https://app.prolific.com/","es-ES,es;q=0.8","67db387c909560bc7b65ea88","687a1a965b9f5b85a264363e","6893ca6882b3c33ec49b0673","1","67db387c909560bc7b65ea88","1","2025-08-06T21:51:39.413Z","","","","AttribQ","","","","","","","","","","","50","","","","","","","","","","","","","","","","","","","","","","","","","","",""
"2429","","<div style=""width:500px;"">
  <p>How much control did you have over the ball?</p>
  </div>","22","html-slider-response","45","1022422","0.0-7.0-2.6","221","1","2025-08-06 21:34:36","36c45c0696341be0efffe67d72a12abb","88.24.41.49","Mozilla/5.0 (Windows NT 10.0; Win64; x64) AppleWebKit/537.36 (KHTML, like Gecko) Chrome/139.0.0.0 Safari/537.36","WebKit","Chrome","139.0.0.0","Windows","10.0","https://app.prolific.com/","es-ES,es;q=0.8","67db387c909560bc7b65ea88","687a1a965b9f5b85a264363e","6893ca6882b3c33ec49b0673","1","67db387c909560bc7b65ea88","1","2025-08-06T21:51:41.843Z","","","","ControlQ","","","","","","","","","","","50","","","","","","","","","","","","","","","","","","","","","","","","","","",""
"1662","","<div style=""width:500px;"">
  <p>How would you describe your current emotional state?</p>
  </div>","74","html-slider-response","46","1024084","0.0-7.0-3.6","221","1","2025-08-06 21:34:36","36c45c0696341be0efffe67d72a12abb","88.24.41.49","Mozilla/5.0 (Windows NT 10.0; Win64; x64) AppleWebKit/537.36 (KHTML, like Gecko) Chrome/139.0.0.0 Safari/537.36","WebKit","Chrome","139.0.0.0","Windows","10.0","https://app.prolific.com/","es-ES,es;q=0.8","67db387c909560bc7b65ea88","687a1a965b9f5b85a264363e","6893ca6882b3c33ec49b0673","1","67db387c909560bc7b65ea88","1","2025-08-06T21:51:43.505Z","","","","StressQ","","","","","","","","","","","50","","","","","","","","","","","","","","","","","","","","","","","","","","",""
"2429","","<div style=""width:500px;"">
  <p>What best describes how you currently feel?</p>
  </div>","40","html-slider-response","47","1026514","0.0-7.0-4.6","221","1","2025-08-06 21:34:36","36c45c0696341be0efffe67d72a12abb","88.24.41.49","Mozilla/5.0 (Windows NT 10.0; Win64; x64) AppleWebKit/537.36 (KHTML, like Gecko) Chrome/139.0.0.0 Safari/537.36","WebKit","Chrome","139.0.0.0","Windows","10.0","https://app.prolific.com/","es-ES,es;q=0.8","67db387c909560bc7b65ea88","687a1a965b9f5b85a264363e","6893ca6882b3c33ec49b0673","1","67db387c909560bc7b65ea88","1","2025-08-06T21:51:45.935Z","","","","MotivationQ","","","","","","","","","","","50","","","","","","","","","","","","","","","","","","","","","","","","","","",""
"","","","","ctl-task-cpt","48","1049937","0.0-7.0-0.7","221","1","2025-08-06 21:34:36","36c45c0696341be0efffe67d72a12abb","88.24.41.49","Mozilla/5.0 (Windows NT 10.0; Win64; x64) AppleWebKit/537.36 (KHTML, like Gecko) Chrome/139.0.0.0 Safari/537.36","WebKit","Chrome","139.0.0.0","Windows","10.0","https://app.prolific.com/","es-ES,es;q=0.8","67db387c909560bc7b65ea88","687a1a965b9f5b85a264363e","6893ca6882b3c33ec49b0673","1","67db387c909560bc7b65ea88","1","2025-08-06T21:52:09.358Z","","","","","","","","","","","","","","","","win-only","1","g1:NE,g2:SW","0.3","8","0","1028151.6","944.9","5946","20405.5","1","4","4","6","1","1","1","1","0","0.007575757575757576","2432.4","3000","525","[""up"",""right""]","{""num_key_presses"":4,""num_perfect"":2,""num_errors"":0,""num_randdir"":2,""num_randdir_good_moves"":2,""num_whilered"":0,""num_whileblue"":0,""num_blue"":1,""num_good_moves"":4}","[421.57142857142856,410.47767857142856,0.2,421.57142857142856,410.47767857142856,100.5,421.57142857142856,410.47767857142856,200.6,421.57142857142856,410.47767857142856,300.7,444.57142857142856,421.47767857142856,400.8,583.5714285714286,341.47767857142856,505.9,733.5714285714286,156.47767857142856,610.4,738.5714285714286,115.47767857142857,712.8,738.5714285714286,115.47767857142857,815.5,738.5714285714286,115.47767857142857,920.2,738.5714285714286,115.47767857142857,1020.4,704.5714285714286,162.47767857142856,1120.5,301.57142857142856,576.4776785714286,1220.5,135.57142857142856,674.4776785714286,1320.6,154.57142857142856,658.4776785714286,1420.7,150.57142857142856,695.4776785714286,1520.8,139.57142857142856,724.4776785714286,1621,115.57142857142857,742.4776785714286,1725.9,94.57142857142857,752.4776785714286,1826.2,111.57142857142857,739.4776785714286,1930.6,498.57142857142856,354.47767857142856,2035.3,630.5714285714286,194.47767857142856,2135.4,637.5714285714286,167.47767857142856,2235.5,663.5714285714286,148.47767857142856,2335.5,739.5714285714286,108.47767857142857,2436,739.5714285714286,108.47767857142857,2540.8,739.5714285714286,108.47767857142857,2640.8,739.5714285714286,108.47767857142857,2740.9,739.5714285714286,108.47767857142857,2845.5,837.5714285714286,108.47767857142857,2946.1,1020.5714285714286,112.47767857142857,3051.2,1025.5714285714287,112.47767857142857,3155.3,1025.5714285714287,112.47767857142857,3255.4,1025.5714285714287,112.47767857142857,3356.5,1030.5714285714287,99.47767857142857,3460.6,1030.5714285714287,99.47767857142857,3560.7,1095.5714285714287,94.47767857142857,3663.6,1372.5714285714287,85.47767857142857,3765.9,1372.5714285714287,85.47767857142857,3866,1372.5714285714287,85.47767857142857,3966,1372.5714285714287,85.47767857142857,4070.8,1372.5714285714287,85.47767857142857,4171.2,1372.5714285714287,85.47767857142857,4275.3,1372.5714285714287,85.47767857142857,4375.4,1372.5714285714287,85.47767857142857,4475.5,1372.5714285714287,85.47767857142857,4575.6,1372.5714285714287,85.47767857142857,4675.7,1372.5714285714287,85.47767857142857,4775.7,1372.5714285714287,85.47767857142857,4875.9,1372.5714285714287,85.47767857142857,4976]","[1569.7,1569.7,1000,0,569.7,""smooth"",""right"",""right"",""good_move"",4885.3,3315.5,2805.3,1569.8,510.2,""smooth"",""up"",""up"",""good_move"",11427.7,6542.1,2680.8,8307,439.9,""oops"",""up"",""right"",""good_move"",14372.1,2944.3,1967.3,11427.9,976.9,""oops"",""up"",""up"",""good_move""]"
"88177","","<div style=""width:500px;"">
  <p>What determined the result of this run?</p>
  </div>","83","html-slider-response","49","1138115","0.0-7.0-1.7","221","1","2025-08-06 21:34:36","36c45c0696341be0efffe67d72a12abb","88.24.41.49","Mozilla/5.0 (Windows NT 10.0; Win64; x64) AppleWebKit/537.36 (KHTML, like Gecko) Chrome/139.0.0.0 Safari/537.36","WebKit","Chrome","139.0.0.0","Windows","10.0","https://app.prolific.com/","es-ES,es;q=0.8","67db387c909560bc7b65ea88","687a1a965b9f5b85a264363e","6893ca6882b3c33ec49b0673","1","67db387c909560bc7b65ea88","1","2025-08-06T21:53:37.536Z","","","","AttribQ","","","","","","","","","","","50","","","","","","","","","","","","","","","","","","","","","","","","","","",""
"4227","","<div style=""width:500px;"">
  <p>How much control did you have over the ball?</p>
  </div>","83","html-slider-response","50","1142342","0.0-7.0-2.7","221","1","2025-08-06 21:34:36","36c45c0696341be0efffe67d72a12abb","88.24.41.49","Mozilla/5.0 (Windows NT 10.0; Win64; x64) AppleWebKit/537.36 (KHTML, like Gecko) Chrome/139.0.0.0 Safari/537.36","WebKit","Chrome","139.0.0.0","Windows","10.0","https://app.prolific.com/","es-ES,es;q=0.8","67db387c909560bc7b65ea88","687a1a965b9f5b85a264363e","6893ca6882b3c33ec49b0673","1","67db387c909560bc7b65ea88","1","2025-08-06T21:53:41.763Z","","","","ControlQ","","","","","","","","","","","50","","","","","","","","","","","","","","","","","","","","","","","","","","",""
"13469","","<div style=""width:500px;"">
  <p>How would you describe your current emotional state?</p>
  </div>","26","html-slider-response","51","1155812","0.0-7.0-3.7","221","1","2025-08-06 21:34:36","36c45c0696341be0efffe67d72a12abb","88.24.41.49","Mozilla/5.0 (Windows NT 10.0; Win64; x64) AppleWebKit/537.36 (KHTML, like Gecko) Chrome/139.0.0.0 Safari/537.36","WebKit","Chrome","139.0.0.0","Windows","10.0","https://app.prolific.com/","es-ES,es;q=0.8","67db387c909560bc7b65ea88","687a1a965b9f5b85a264363e","6893ca6882b3c33ec49b0673","1","67db387c909560bc7b65ea88","1","2025-08-06T21:53:55.234Z","","","","StressQ","","","","","","","","","","","50","","","","","","","","","","","","","","","","","","","","","","","","","","",""
"4279","","<div style=""width:500px;"">
  <p>What best describes how you currently feel?</p>
  </div>","77","html-slider-response","52","1160092","0.0-7.0-4.7","221","1","2025-08-06 21:34:36","36c45c0696341be0efffe67d72a12abb","88.24.41.49","Mozilla/5.0 (Windows NT 10.0; Win64; x64) AppleWebKit/537.36 (KHTML, like Gecko) Chrome/139.0.0.0 Safari/537.36","WebKit","Chrome","139.0.0.0","Windows","10.0","https://app.prolific.com/","es-ES,es;q=0.8","67db387c909560bc7b65ea88","687a1a965b9f5b85a264363e","6893ca6882b3c33ec49b0673","1","67db387c909560bc7b65ea88","1","2025-08-06T21:53:59.513Z","","","","MotivationQ","","","","","","","","","","","50","","","","","","","","","","","","","","","","","","","","","","","","","","",""
"","","","","ctl-task-cpt","53","1187477","0.0-7.0-0.8","221","1","2025-08-06 21:34:36","36c45c0696341be0efffe67d72a12abb","88.24.41.49","Mozilla/5.0 (Windows NT 10.0; Win64; x64) AppleWebKit/537.36 (KHTML, like Gecko) Chrome/139.0.0.0 Safari/537.36","WebKit","Chrome","139.0.0.0","Windows","10.0","https://app.prolific.com/","es-ES,es;q=0.8","67db387c909560bc7b65ea88","687a1a965b9f5b85a264363e","6893ca6882b3c33ec49b0673","1","67db387c909560bc7b65ea88","1","2025-08-06T21:54:26.898Z","","","","","","","","","","","","","","","","win-only","3","g1:SW,g2:NE","0.4","9","0","1161729.9","1235","6236.1","24366.5","1","4","8","6","1","-1","-2","0","1","0","1491.8","3000","-3010","[""down"",""left""]","{""num_key_presses"":5,""num_perfect"":3,""num_errors"":1,""num_randdir"":1,""num_randdir_good_moves"":0,""num_whilered"":0,""num_whileblue"":0,""num_blue"":1,""num_good_moves"":3}","[410.57142857142856,422.47767857142856,0.1,410.57142857142856,422.47767857142856,100.4,410.57142857142856,422.47767857142856,200.6,410.57142857142856,422.47767857142856,300.8,410.57142857142856,422.47767857142856,400.8,410.57142857142856,422.47767857142856,501,410.57142857142856,422.47767857142856,605.6,407.57142857142856,425.47767857142856,705.9,263.57142857142856,614.4776785714286,806.2,142.57142857142856,681.4776785714286,910.4,106.57142857142857,710.4776785714286,1010.9,92.57142857142857,732.4776785714286,1115.5,90.57142857142857,732.4776785714286,1215.5,90.57142857142857,732.4776785714286,1316,90.57142857142857,732.4776785714286,1420.8,90.57142857142857,732.4776785714286,1526.3,90.57142857142857,732.4776785714286,1630.5,92.57142857142857,727.4776785714286,1736.3,394.57142857142856,608.4776785714286,1836.4,898.5714285714286,313.47767857142856,1941.2,1126.5714285714287,145.47767857142856,2046.4,1131.5714285714287,139.47767857142856,2150.7,1131.5714285714287,139.47767857142856,2255.9,1131.5714285714287,139.47767857142856,2360.4,1131.5714285714287,139.47767857142856,2460.6,1131.5714285714287,139.47767857142856,2561,1131.5714285714287,139.47767857142856,2665.6,1152.5714285714287,144.47767857142856,2765.9,1185.5714285714287,152.47767857142856,2866.4,1233.5714285714287,157.47767857142856,2971.6,1233.5714285714287,157.47767857142856,3076.2,1233.5714285714287,157.47767857142856,3181.2,1233.5714285714287,157.47767857142856,3286.3,1238.5714285714287,157.47767857142856,3390.6,1239.5714285714287,157.47767857142856,3496,1239.5714285714287,157.47767857142856,3600.8,1244.5714285714287,157.47767857142856,3700.9,1244.5714285714287,157.47767857142856,3805.7,1244.5714285714287,157.47767857142856,3906,1244.5714285714287,157.47767857142856,4011.8,1244.5714285714287,157.47767857142856,4116.2,1244.5714285714287,157.47767857142856,4220.6,1244.5714285714287,157.47767857142856,4320.8,1244.5714285714287,157.47767857142856,4425.5,1244.5714285714287,157.47767857142856,4526.1,1244.5714285714287,157.47767857142856,4630.6,1244.5714285714287,157.47767857142856,4730.9,1244.5714285714287,157.47767857142856,4835.6,1244.5714285714287,157.47767857142856,4935.9]","[1478.4,1478.4,1000,0,478.4,""smooth"",""down"",""down"",""good_move"",4093.1,2614.7,2077.5,1478.5,537.2,""smooth"",""left"",""left"",""good_move"",7291,3197.5,2699.7,4093.5,497.8,""oops"",""left"",""up"",""bad_move"",10937.1,3645.9,2363.8,7291.2,1282.1,""smooth"",""down"",""down"",""good_move"",11106.3,168.9,2924.5,10937.4,-2755.6,""error"",""-"",""-"",""no_move""]"
"159590","","<div style=""width:500px;"">
  <p>What determined the result of this run?</p>
  </div>","79","html-slider-response","54","1347068","0.0-7.0-1.8","221","1","2025-08-06 21:34:36","36c45c0696341be0efffe67d72a12abb","88.24.41.49","Mozilla/5.0 (Windows NT 10.0; Win64; x64) AppleWebKit/537.36 (KHTML, like Gecko) Chrome/139.0.0.0 Safari/537.36","WebKit","Chrome","139.0.0.0","Windows","10.0","https://app.prolific.com/","es-ES,es;q=0.8","67db387c909560bc7b65ea88","687a1a965b9f5b85a264363e","6893ca6882b3c33ec49b0673","1","67db387c909560bc7b65ea88","1","2025-08-06T21:57:06.489Z","","","","AttribQ","","","","","","","","","","","50","","","","","","","","","","","","","","","","","","","","","","","","","","",""
"4237","","<div style=""width:500px;"">
  <p>How much control did you have over the ball?</p>
  </div>","20","html-slider-response","55","1351306","0.0-7.0-2.8","221","1","2025-08-06 21:34:36","36c45c0696341be0efffe67d72a12abb","88.24.41.49","Mozilla/5.0 (Windows NT 10.0; Win64; x64) AppleWebKit/537.36 (KHTML, like Gecko) Chrome/139.0.0.0 Safari/537.36","WebKit","Chrome","139.0.0.0","Windows","10.0","https://app.prolific.com/","es-ES,es;q=0.8","67db387c909560bc7b65ea88","687a1a965b9f5b85a264363e","6893ca6882b3c33ec49b0673","1","67db387c909560bc7b65ea88","1","2025-08-06T21:57:10.727Z","","","","ControlQ","","","","","","","","","","","50","","","","","","","","","","","","","","","","","","","","","","","","","","",""
"3071","","<div style=""width:500px;"">
  <p>How would you describe your current emotional state?</p>
  </div>","76","html-slider-response","56","1354377","0.0-7.0-3.8","221","1","2025-08-06 21:34:36","36c45c0696341be0efffe67d72a12abb","88.24.41.49","Mozilla/5.0 (Windows NT 10.0; Win64; x64) AppleWebKit/537.36 (KHTML, like Gecko) Chrome/139.0.0.0 Safari/537.36","WebKit","Chrome","139.0.0.0","Windows","10.0","https://app.prolific.com/","es-ES,es;q=0.8","67db387c909560bc7b65ea88","687a1a965b9f5b85a264363e","6893ca6882b3c33ec49b0673","1","67db387c909560bc7b65ea88","1","2025-08-06T21:57:13.799Z","","","","StressQ","","","","","","","","","","","50","","","","","","","","","","","","","","","","","","","","","","","","","","",""
"10039","","<div style=""width:500px;"">
  <p>What best describes how you currently feel?</p>
  </div>","62","html-slider-response","57","1364418","0.0-7.0-4.8","221","1","2025-08-06 21:34:36","36c45c0696341be0efffe67d72a12abb","88.24.41.49","Mozilla/5.0 (Windows NT 10.0; Win64; x64) AppleWebKit/537.36 (KHTML, like Gecko) Chrome/139.0.0.0 Safari/537.36","WebKit","Chrome","139.0.0.0","Windows","10.0","https://app.prolific.com/","es-ES,es;q=0.8","67db387c909560bc7b65ea88","687a1a965b9f5b85a264363e","6893ca6882b3c33ec49b0673","1","67db387c909560bc7b65ea88","1","2025-08-06T21:57:23.839Z","","","","MotivationQ","","","","","","","","","","","50","","","","","","","","","","","","","","","","","","","","","","","","","","",""
"","","","","ctl-task-cpt","58","1398637","0.0-7.0-0.9","221","1","2025-08-06 21:34:36","36c45c0696341be0efffe67d72a12abb","88.24.41.49","Mozilla/5.0 (Windows NT 10.0; Win64; x64) AppleWebKit/537.36 (KHTML, like Gecko) Chrome/139.0.0.0 Safari/537.36","WebKit","Chrome","139.0.0.0","Windows","10.0","https://app.prolific.com/","es-ES,es;q=0.8","67db387c909560bc7b65ea88","687a1a965b9f5b85a264363e","6893ca6882b3c33ec49b0673","1","67db387c909560bc7b65ea88","1","2025-08-06T21:57:58.058Z","","","","","","","","","","","","","","","","win-only","1","g1:NE,g2:SW","0.5","10","0","1366055.3","1177.3","6180.8","31201.2","1","4","4","6","1","-1","-1","0","0","0","1595.8","3000","-2975","[""up"",""right""]","{""num_key_presses"":5,""num_perfect"":3,""num_errors"":0,""num_randdir"":2,""num_randdir_good_moves"":1,""num_whilered"":0,""num_whileblue"":0,""num_blue"":2,""num_good_moves"":4}","[411.57142857142856,413.47767857142856,0.2,411.57142857142856,413.47767857142856,103.3,411.57142857142856,413.47767857142856,203.8,411.57142857142856,413.47767857142856,308.3,411.57142857142856,413.47767857142856,408.9,411.57142857142856,413.47767857142856,514.5,415.57142857142856,413.47767857142856,618.8,654.5714285714286,402.47767857142856,724,832.5714285714286,264.47767857142856,824.2,850.5714285714286,152.47767857142856,928.4,847.5714285714286,95.47767857142857,1028.5,846.5714285714286,94.47767857142857,1128.6,838.5714285714286,94.47767857142857,1229.3,811.5714285714286,92.47767857142857,1333.7,790.5714285714286,84.47767857142857,1433.7,784.5714285714286,81.47767857142857,1534.1,783.5714285714286,81.47767857142857,1639.2,783.5714285714286,81.47767857142857,1739.2,783.5714285714286,81.47767857142857,1843.5,783.5714285714286,81.47767857142857,1944.2,792.5714285714286,90.47767857142857,2048.5,794.5714285714286,92.47767857142857,2153.4,794.5714285714286,92.47767857142857,2254,794.5714285714286,92.47767857142857,2358.4,794.5714285714286,92.47767857142857,2458.8,794.5714285714286,92.47767857142857,2563.6,794.5714285714286,92.47767857142857,2664.1,794.5714285714286,92.47767857142857,2768.9,794.5714285714286,92.47767857142857,2869.1,794.5714285714286,92.47767857142857,2969.5,794.5714285714286,92.47767857142857,3073.9,794.5714285714286,92.47767857142857,3178.3,794.5714285714286,92.47767857142857,3279,794.5714285714286,92.47767857142857,3383.6,794.5714285714286,92.47767857142857,3484.5,794.5714285714286,92.47767857142857,3588.8,794.5714285714286,92.47767857142857,3689.5,794.5714285714286,92.47767857142857,3794,794.5714285714286,92.47767857142857,3894.1,794.5714285714286,92.47767857142857,3999.8,794.5714285714286,92.47767857142857,4104.1,794.5714285714286,92.47767857142857,4208.4,794.5714285714286,92.47767857142857,4308.9,794.5714285714286,92.47767857142857,4413.8,794.5714285714286,92.47767857142857,4514.1,794.5714285714286,92.47767857142857,4619.4,794.5714285714286,92.47767857142857,4723.6,794.5714285714286,92.47767857142857,4824.3,794.5714285714286,92.47767857142857,4928.5]","[4317,4317,1895,2006,416,""smooth"",""right"",""right"",""good_move"",7647.3,3330,2770.6,4317.3,559.4,""oops"",""up"",""right"",""good_move"",14560.9,6913.5,2315.7,11784.8,460.4,""smooth"",""up"",""up"",""good_move"",18532.2,3971.1,2879.9,14561.1,1091.2,""oops"",""up"",""down"",""bad_move"",22107.2,3574.9,3198.5,18532.3,376.4,""smooth"",""up"",""up"",""good_move""]"
"290414","","<div style=""width:500px;"">
  <p>What determined the result of this run?</p>
  </div>","74","html-slider-response","59","1687298","0.0-7.0-1.9","221","1","2025-08-06 21:34:36","36c45c0696341be0efffe67d72a12abb","88.24.41.49","Mozilla/5.0 (Windows NT 10.0; Win64; x64) AppleWebKit/537.36 (KHTML, like Gecko) Chrome/139.0.0.0 Safari/537.36","WebKit","Chrome","139.0.0.0","Windows","10.0","https://app.prolific.com/","es-ES,es;q=0.8","67db387c909560bc7b65ea88","687a1a965b9f5b85a264363e","6893ca6882b3c33ec49b0673","1","67db387c909560bc7b65ea88","1","2025-08-06T22:02:46.719Z","","","","AttribQ","","","","","","","","","","","50","","","","","","","","","","","","","","","","","","","","","","","","","","",""
"3825","","<div style=""width:500px;"">
  <p>How much control did you have over the ball?</p>
  </div>","34","html-slider-response","60","1691124","0.0-7.0-2.9","221","1","2025-08-06 21:34:36","36c45c0696341be0efffe67d72a12abb","88.24.41.49","Mozilla/5.0 (Windows NT 10.0; Win64; x64) AppleWebKit/537.36 (KHTML, like Gecko) Chrome/139.0.0.0 Safari/537.36","WebKit","Chrome","139.0.0.0","Windows","10.0","https://app.prolific.com/","es-ES,es;q=0.8","67db387c909560bc7b65ea88","687a1a965b9f5b85a264363e","6893ca6882b3c33ec49b0673","1","67db387c909560bc7b65ea88","1","2025-08-06T22:02:50.545Z","","","","ControlQ","","","","","","","","","","","50","","","","","","","","","","","","","","","","","","","","","","","","","","",""
"2563","","<div style=""width:500px;"">
  <p>How would you describe your current emotional state?</p>
  </div>","65","html-slider-response","61","1693688","0.0-7.0-3.9","221","1","2025-08-06 21:34:36","36c45c0696341be0efffe67d72a12abb","88.24.41.49","Mozilla/5.0 (Windows NT 10.0; Win64; x64) AppleWebKit/537.36 (KHTML, like Gecko) Chrome/139.0.0.0 Safari/537.36","WebKit","Chrome","139.0.0.0","Windows","10.0","https://app.prolific.com/","es-ES,es;q=0.8","67db387c909560bc7b65ea88","687a1a965b9f5b85a264363e","6893ca6882b3c33ec49b0673","1","67db387c909560bc7b65ea88","1","2025-08-06T22:02:53.109Z","","","","StressQ","","","","","","","","","","","50","","","","","","","","","","","","","","","","","","","","","","","","","","",""
"1854","","<div style=""width:500px;"">
  <p>What best describes how you currently feel?</p>
  </div>","41","html-slider-response","62","1695542","0.0-7.0-4.9","221","1","2025-08-06 21:34:36","36c45c0696341be0efffe67d72a12abb","88.24.41.49","Mozilla/5.0 (Windows NT 10.0; Win64; x64) AppleWebKit/537.36 (KHTML, like Gecko) Chrome/139.0.0.0 Safari/537.36","WebKit","Chrome","139.0.0.0","Windows","10.0","https://app.prolific.com/","es-ES,es;q=0.8","67db387c909560bc7b65ea88","687a1a965b9f5b85a264363e","6893ca6882b3c33ec49b0673","1","67db387c909560bc7b65ea88","1","2025-08-06T22:02:54.963Z","","","","MotivationQ","","","","","","","","","","","50","","","","","","","","","","","","","","","","","","","","","","","","","","",""
"","","","","ctl-task-cpt","63","1724921","0.0-7.0-0.10","221","1","2025-08-06 21:34:36","36c45c0696341be0efffe67d72a12abb","88.24.41.49","Mozilla/5.0 (Windows NT 10.0; Win64; x64) AppleWebKit/537.36 (KHTML, like Gecko) Chrome/139.0.0.0 Safari/537.36","WebKit","Chrome","139.0.0.0","Windows","10.0","https://app.prolific.com/","es-ES,es;q=0.8","67db387c909560bc7b65ea88","687a1a965b9f5b85a264363e","6893ca6882b3c33ec49b0673","1","67db387c909560bc7b65ea88","1","2025-08-06T22:03:24.342Z","","","","","","","","","","","","","","","","win-only","3","g1:SW,g2:NE","0.6","11","0","1698932.7","958.2","5961.7","26360.5","1","4","4","6","2","-4","-4","0","0","0","5003.5","3000","-2990","[""up"",""right""]","{""num_key_presses"":5,""num_perfect"":4,""num_errors"":0,""num_randdir"":1,""num_randdir_good_moves"":0,""num_whilered"":0,""num_whileblue"":0,""num_blue"":1,""num_good_moves"":4}","[414.57142857142856,415.47767857142856,0.2,414.57142857142856,415.47767857142856,103.6,414.57142857142856,415.47767857142856,207.6,414.57142857142856,415.47767857142856,313.3,414.57142857142856,415.47767857142856,417.8,418.57142857142856,415.47767857142856,522.8,432.57142857142856,415.47767857142856,628.1,554.5714285714286,370.47767857142856,733.5,853.5714285714286,305.47767857142856,838.3,925.5714285714286,295.47767857142856,942.9,925.5714285714286,295.47767857142856,1043,925.5714285714286,295.47767857142856,1143.2,925.5714285714286,295.47767857142856,1248.1,925.5714285714286,295.47767857142856,1352.3,925.5714285714286,295.47767857142856,1456.9,925.5714285714286,295.47767857142856,1557.1,925.5714285714286,295.47767857142856,1657.7,925.5714285714286,295.47767857142856,1758.1,925.5714285714286,295.47767857142856,1862.9,925.5714285714286,295.47767857142856,1967,925.5714285714286,295.47767857142856,2067.3,925.5714285714286,295.47767857142856,2168.3,925.5714285714286,295.47767857142856,2268.3,925.5714285714286,295.47767857142856,2372.2,925.5714285714286,295.47767857142856,2473,925.5714285714286,295.47767857142856,2577.4,925.5714285714286,295.47767857142856,2682.1,925.5714285714286,295.47767857142856,2787.3,925.5714285714286,295.47767857142856,2887.5,925.5714285714286,295.47767857142856,2992.7,925.5714285714286,295.47767857142856,3097.1,925.5714285714286,295.47767857142856,3197.5,925.5714285714286,295.47767857142856,3297.7,925.5714285714286,295.47767857142856,3402.1,925.5714285714286,295.47767857142856,3502.4,937.5714285714286,291.47767857142856,3603.1,939.5714285714286,290.47767857142856,3707.8,939.5714285714286,290.47767857142856,3812.4,939.5714285714286,290.47767857142856,3917.3,952.5714285714286,295.47767857142856,4023.1,955.5714285714286,296.47767857142856,4128.1,955.5714285714286,296.47767857142856,4232.2,955.5714285714286,297.47767857142856,4333.5,959.5714285714286,298.47767857142856,4437.3,959.5714285714286,298.47767857142856,4537.8,959.5714285714286,298.47767857142856,4637.9,959.5714285714286,298.47767857142856,4742.3,959.5714285714286,298.47767857142856,4842.3,959.5714285714286,298.47767857142856,4947.2]","[2292.1,2292.1,1000,0,1292.1,""smooth"",""up"",""up"",""good_move"",5435.7,3143.5,2687.7,2292.2,455.8,""smooth"",""right"",""right"",""good_move"",9363.8,3927.9,3513,5435.9,414.9,""smooth"",""right"",""right"",""good_move"",11965,2600.9,2102.2,9364.1,498.7,""smooth"",""up"",""up"",""good_move"",17912.1,5946.8,2424.7,15089.5,397.9,""oops"",""right"",""left"",""bad_move""]"
"22342","","<div style=""width:500px;"">
  <p>What determined the result of this run?</p>
  </div>","64","html-slider-response","64","1747264","0.0-7.0-1.10","221","1","2025-08-06 21:34:36","36c45c0696341be0efffe67d72a12abb","88.24.41.49","Mozilla/5.0 (Windows NT 10.0; Win64; x64) AppleWebKit/537.36 (KHTML, like Gecko) Chrome/139.0.0.0 Safari/537.36","WebKit","Chrome","139.0.0.0","Windows","10.0","https://app.prolific.com/","es-ES,es;q=0.8","67db387c909560bc7b65ea88","687a1a965b9f5b85a264363e","6893ca6882b3c33ec49b0673","1","67db387c909560bc7b65ea88","1","2025-08-06T22:03:46.685Z","","","","AttribQ","","","","","","","","","","","50","","","","","","","","","","","","","","","","","","","","","","","","","","",""
"2662","","<div style=""width:500px;"">
  <p>How much control did you have over the ball?</p>
  </div>","64","html-slider-response","65","1749927","0.0-7.0-2.10","221","1","2025-08-06 21:34:36","36c45c0696341be0efffe67d72a12abb","88.24.41.49","Mozilla/5.0 (Windows NT 10.0; Win64; x64) AppleWebKit/537.36 (KHTML, like Gecko) Chrome/139.0.0.0 Safari/537.36","WebKit","Chrome","139.0.0.0","Windows","10.0","https://app.prolific.com/","es-ES,es;q=0.8","67db387c909560bc7b65ea88","687a1a965b9f5b85a264363e","6893ca6882b3c33ec49b0673","1","67db387c909560bc7b65ea88","1","2025-08-06T22:03:49.348Z","","","","ControlQ","","","","","","","","","","","50","","","","","","","","","","","","","","","","","","","","","","","","","","",""
"3530","","<div style=""width:500px;"">
  <p>How would you describe your current emotional state?</p>
  </div>","64","html-slider-response","66","1753457","0.0-7.0-3.10","221","1","2025-08-06 21:34:36","36c45c0696341be0efffe67d72a12abb","88.24.41.49","Mozilla/5.0 (Windows NT 10.0; Win64; x64) AppleWebKit/537.36 (KHTML, like Gecko) Chrome/139.0.0.0 Safari/537.36","WebKit","Chrome","139.0.0.0","Windows","10.0","https://app.prolific.com/","es-ES,es;q=0.8","67db387c909560bc7b65ea88","687a1a965b9f5b85a264363e","6893ca6882b3c33ec49b0673","1","67db387c909560bc7b65ea88","1","2025-08-06T22:03:52.878Z","","","","StressQ","","","","","","","","","","","50","","","","","","","","","","","","","","","","","","","","","","","","","","",""
"2635","","<div style=""width:500px;"">
  <p>What best describes how you currently feel?</p>
  </div>","43","html-slider-response","67","1756093","0.0-7.0-4.10","221","1","2025-08-06 21:34:36","36c45c0696341be0efffe67d72a12abb","88.24.41.49","Mozilla/5.0 (Windows NT 10.0; Win64; x64) AppleWebKit/537.36 (KHTML, like Gecko) Chrome/139.0.0.0 Safari/537.36","WebKit","Chrome","139.0.0.0","Windows","10.0","https://app.prolific.com/","es-ES,es;q=0.8","67db387c909560bc7b65ea88","687a1a965b9f5b85a264363e","6893ca6882b3c33ec49b0673","1","67db387c909560bc7b65ea88","1","2025-08-06T22:03:55.514Z","","","","MotivationQ","","","","","","","","","","","50","","","","","","","","","","","","","","","","","","","","","","","","","","",""
"","","","","ctl-task-cpt","68","1812877","0.0-7.0-0.11","221","1","2025-08-06 21:34:36","36c45c0696341be0efffe67d72a12abb","88.24.41.49","Mozilla/5.0 (Windows NT 10.0; Win64; x64) AppleWebKit/537.36 (KHTML, like Gecko) Chrome/139.0.0.0 Safari/537.36","WebKit","Chrome","139.0.0.0","Windows","10.0","https://app.prolific.com/","es-ES,es;q=0.8","67db387c909560bc7b65ea88","687a1a965b9f5b85a264363e","6893ca6882b3c33ec49b0673","1","67db387c909560bc7b65ea88","1","2025-08-06T22:04:52.298Z","","","","","","","","","","","","","","","","win-only","1","g1:NE,g2:SW","0.7","12","0","1759483.7","23935.6","28936.1","53770.7","1","4","8","6","1","-1","-1","0","0","0","1439.6","3000","-2950","[""up"",""right""]","{""num_key_presses"":7,""num_perfect"":4,""num_errors"":0,""num_randdir"":3,""num_randdir_good_moves"":0,""num_whilered"":0,""num_whileblue"":0,""num_blue"":1,""num_good_moves"":4}","[421.57142857142856,415.47767857142856,0.2,421.57142857142856,415.47767857142856,104.9,421.57142857142856,415.47767857142856,205,421.57142857142856,415.47767857142856,306.2,421.57142857142856,415.47767857142856,409.6,448.57142857142856,399.47767857142856,510.2,722.5714285714286,127.47767857142857,615.1,786.5714285714286,83.47767857142857,715.1,786.5714285714286,83.47767857142857,818.9,786.5714285714286,83.47767857142857,919.9,786.5714285714286,83.47767857142857,1020.5,786.5714285714286,83.47767857142857,1120.6,786.5714285714286,83.47767857142857,1225,786.5714285714286,83.47767857142857,1329.6,786.5714285714286,83.47767857142857,1432.4,786.5714285714286,83.47767857142857,1534.9,786.5714285714286,83.47767857142857,1635,786.5714285714286,83.47767857142857,1739.5,786.5714285714286,83.47767857142857,1840,837.5714285714286,107.47767857142857,1941.5,998.5714285714286,279.47767857142856,2044.9,1098.5714285714287,318.47767857142856,2145,1125.5714285714287,318.47767857142856,2250,1125.5714285714287,318.47767857142856,2351,1125.5714285714287,318.47767857142856,2454.9,1125.5714285714287,318.47767857142856,2560.2,1137.5714285714287,305.47767857142856,2664.9,1140.5714285714287,303.47767857142856,2769.9,1140.5714285714287,303.47767857142856,2870.4,1140.5714285714287,303.47767857142856,2976.4,1151.5714285714287,304.47767857142856,3079.7,1168.5714285714287,308.47767857142856,3179.8,1190.5714285714287,312.47767857142856,3280.2,1190.5714285714287,312.47767857142856,3385,1190.5714285714287,312.47767857142856,3492.3,1190.5714285714287,312.47767857142856,3594.7,1190.5714285714287,312.47767857142856,3695,1190.5714285714287,312.47767857142856,3800.6,1192.5714285714287,313.47767857142856,3905.1,1192.5714285714287,313.47767857142856,4010.6,1192.5714285714287,313.47767857142856,4115.1,1204.5714285714287,315.47767857142856,4221.6,1277.5714285714287,322.47767857142856,4325.4,1286.5714285714287,322.47767857142856,4429.8,1286.5714285714287,322.47767857142856,4530,1286.5714285714287,322.47767857142856,4635.4,1286.5714285714287,322.47767857142856,4738.9,1286.5714285714287,322.47767857142856,4839.7,1286.5714285714287,322.47767857142856,4945.4]","[1352.8,1352.8,1000,0,352.9,""smooth"",""right"",""right"",""good_move"",4510.5,3157.5,2784.4,1353.1,373.1,""smooth"",""right"",""right"",""good_move"",7249.6,2738.9,2330.9,4510.7,408,""oops"",""up"",""down"",""bad_move"",9687.3,2437.5,1976.1,7249.8,461.4,""smooth"",""up"",""up"",""good_move"",12699.5,3012,2643.7,9687.5,368.3,""oops"",""left"",""left"",""bad_move"",15233.5,2533.7,2133.9,12699.8,399.8,""smooth"",""up"",""up"",""good_move"",18510.7,3277.1,2857.5,15233.6,419.6,""oops"",""right"",""left"",""bad_move""]"
"7804","","<div style=""width:500px;"">
  <p>What determined the result of this run?</p>
  </div>","22","html-slider-response","69","1820682","0.0-7.0-1.11","221","1","2025-08-06 21:34:36","36c45c0696341be0efffe67d72a12abb","88.24.41.49","Mozilla/5.0 (Windows NT 10.0; Win64; x64) AppleWebKit/537.36 (KHTML, like Gecko) Chrome/139.0.0.0 Safari/537.36","WebKit","Chrome","139.0.0.0","Windows","10.0","https://app.prolific.com/","es-ES,es;q=0.8","67db387c909560bc7b65ea88","687a1a965b9f5b85a264363e","6893ca6882b3c33ec49b0673","1","67db387c909560bc7b65ea88","1","2025-08-06T22:05:00.103Z","","","","AttribQ","","","","","","","","","","","50","","","","","","","","","","","","","","","","","","","","","","","","","","",""
"1991","","<div style=""width:500px;"">
  <p>How much control did you have over the ball?</p>
  </div>","30","html-slider-response","70","1822674","0.0-7.0-2.11","221","1","2025-08-06 21:34:36","36c45c0696341be0efffe67d72a12abb","88.24.41.49","Mozilla/5.0 (Windows NT 10.0; Win64; x64) AppleWebKit/537.36 (KHTML, like Gecko) Chrome/139.0.0.0 Safari/537.36","WebKit","Chrome","139.0.0.0","Windows","10.0","https://app.prolific.com/","es-ES,es;q=0.8","67db387c909560bc7b65ea88","687a1a965b9f5b85a264363e","6893ca6882b3c33ec49b0673","1","67db387c909560bc7b65ea88","1","2025-08-06T22:05:02.095Z","","","","ControlQ","","","","","","","","","","","50","","","","","","","","","","","","","","","","","","","","","","","","","","",""
"1867","","<div style=""width:500px;"">
  <p>How would you describe your current emotional state?</p>
  </div>","63","html-slider-response","71","1824542","0.0-7.0-3.11","221","1","2025-08-06 21:34:36","36c45c0696341be0efffe67d72a12abb","88.24.41.49","Mozilla/5.0 (Windows NT 10.0; Win64; x64) AppleWebKit/537.36 (KHTML, like Gecko) Chrome/139.0.0.0 Safari/537.36","WebKit","Chrome","139.0.0.0","Windows","10.0","https://app.prolific.com/","es-ES,es;q=0.8","67db387c909560bc7b65ea88","687a1a965b9f5b85a264363e","6893ca6882b3c33ec49b0673","1","67db387c909560bc7b65ea88","1","2025-08-06T22:05:03.963Z","","","","StressQ","","","","","","","","","","","50","","","","","","","","","","","","","","","","","","","","","","","","","","",""
"7371","","<div style=""width:500px;"">
  <p>What best describes how you currently feel?</p>
  </div>","71","html-slider-response","72","1831914","0.0-7.0-4.11","221","1","2025-08-06 21:34:36","36c45c0696341be0efffe67d72a12abb","88.24.41.49","Mozilla/5.0 (Windows NT 10.0; Win64; x64) AppleWebKit/537.36 (KHTML, like Gecko) Chrome/139.0.0.0 Safari/537.36","WebKit","Chrome","139.0.0.0","Windows","10.0","https://app.prolific.com/","es-ES,es;q=0.8","67db387c909560bc7b65ea88","687a1a965b9f5b85a264363e","6893ca6882b3c33ec49b0673","1","67db387c909560bc7b65ea88","1","2025-08-06T22:05:11.335Z","","","","MotivationQ","","","","","","","","","","","50","","","","","","","","","","","","","","","","","","","","","","","","","","",""
"","","","","ctl-task-cpt","73","1858924","0.0-7.0-0.12","221","1","2025-08-06 21:34:36","36c45c0696341be0efffe67d72a12abb","88.24.41.49","Mozilla/5.0 (Windows NT 10.0; Win64; x64) AppleWebKit/537.36 (KHTML, like Gecko) Chrome/139.0.0.0 Safari/537.36","WebKit","Chrome","139.0.0.0","Windows","10.0","https://app.prolific.com/","es-ES,es;q=0.8","67db387c909560bc7b65ea88","687a1a965b9f5b85a264363e","6893ca6882b3c33ec49b0673","1","67db387c909560bc7b65ea88","1","2025-08-06T22:05:38.345Z","","","","","","","","","","","","","","","","win-only","0","g1:NW,g2:SE","0.8","13","0","1835305.2","3159.1","8159.4","23991.1","1","4","8","6","1","1","1","1","0","0.007575757575757576","1327.6","3000","1250","[""left"",""up""]","{""num_key_presses"":4,""num_perfect"":4,""num_errors"":0,""num_randdir"":0,""num_randdir_good_moves"":0,""num_whilered"":0,""num_whileblue"":0,""num_blue"":1,""num_good_moves"":4}","[417.57142857142856,418.47767857142856,0.3,417.57142857142856,418.47767857142856,101.7,417.57142857142856,418.47767857142856,203.5,417.57142857142856,418.47767857142856,307.6,417.57142857142856,418.47767857142856,407.9,417.57142857142856,418.47767857142856,510.5,417.57142857142856,418.47767857142856,615.4,417.57142857142856,418.47767857142856,721.8,296.57142857142856,293.47767857142856,826,196.57142857142856,244.47767857142856,927.1,125.57142857142857,196.47767857142856,1027.1,109.57142857142857,152.47767857142856,1131.1,104.57142857142857,141.47767857142856,1234.6,104.57142857142857,117.47767857142857,1338.7,104.57142857142857,117.47767857142857,1438.7,104.57142857142857,117.47767857142857,1542.9,104.57142857142857,117.47767857142857,1647.6,109.57142857142857,123.47767857142857,1749.5,152.57142857142856,187.47767857142856,1854,173.57142857142856,249.47767857142856,1958.7,173.57142857142856,249.47767857142856,2065.5,173.57142857142856,249.47767857142856,2170.2,173.57142857142856,249.47767857142856,2274.1,302.57142857142856,270.47767857142856,2379,792.5714285714286,349.47767857142856,2484.4,873.5714285714286,330.47767857142856,2588.7,870.5714285714286,321.47767857142856,2693.1,1041.5714285714287,294.47767857142856,2793.8,1373.5714285714287,227.47767857142856,2898.8,1373.5714285714287,227.47767857142856,3000.3,1373.5714285714287,227.47767857142856,3103.4,1373.5714285714287,227.47767857142856,3203.4,1373.5714285714287,227.47767857142856,3305.7,1373.5714285714287,227.47767857142856,3409.7,1373.5714285714287,227.47767857142856,3513.3,1373.5714285714287,227.47767857142856,3614.7,1373.5714285714287,227.47767857142856,3715.5,1373.5714285714287,227.47767857142856,3819.4,1373.5714285714287,227.47767857142856,3924.8,1373.5714285714287,227.47767857142856,4026.8,1373.5714285714287,227.47767857142856,4129.9,1373.5714285714287,227.47767857142856,4233.9,1373.5714285714287,227.47767857142856,4338.6,1373.5714285714287,227.47767857142856,4441.9,1373.5714285714287,227.47767857142856,4542.2,1373.5714285714287,227.47767857142856,4642.8,1373.5714285714287,227.47767857142856,4744.3,1373.5714285714287,227.47767857142856,4848.2,1373.5714285714287,227.47767857142856,4949.2]","[1584.2,1584.2,1000,0,584.2,""smooth"",""left"",""left"",""good_move"",8819.8,7235.3,2892.9,5523.8,403.1,""smooth"",""left"",""left"",""good_move"",12339.6,3519.7,3054.1,8819.9,465.6,""smooth"",""up"",""up"",""good_move"",15744.8,3405,2987.8,12339.8,417.2,""smooth"",""up"",""up"",""good_move""]"
"48128","","<div style=""width:500px;"">
  <p>What determined the result of this run?</p>
  </div>","22","html-slider-response","74","1907053","0.0-7.0-1.12","221","1","2025-08-06 21:34:36","36c45c0696341be0efffe67d72a12abb","88.24.41.49","Mozilla/5.0 (Windows NT 10.0; Win64; x64) AppleWebKit/537.36 (KHTML, like Gecko) Chrome/139.0.0.0 Safari/537.36","WebKit","Chrome","139.0.0.0","Windows","10.0","https://app.prolific.com/","es-ES,es;q=0.8","67db387c909560bc7b65ea88","687a1a965b9f5b85a264363e","6893ca6882b3c33ec49b0673","1","67db387c909560bc7b65ea88","1","2025-08-06T22:06:26.474Z","","","","AttribQ","","","","","","","","","","","50","","","","","","","","","","","","","","","","","","","","","","","","","","",""
"1805","","<div style=""width:500px;"">
  <p>How much control did you have over the ball?</p>
  </div>","14","html-slider-response","75","1908859","0.0-7.0-2.12","221","1","2025-08-06 21:34:36","36c45c0696341be0efffe67d72a12abb","88.24.41.49","Mozilla/5.0 (Windows NT 10.0; Win64; x64) AppleWebKit/537.36 (KHTML, like Gecko) Chrome/139.0.0.0 Safari/537.36","WebKit","Chrome","139.0.0.0","Windows","10.0","https://app.prolific.com/","es-ES,es;q=0.8","67db387c909560bc7b65ea88","687a1a965b9f5b85a264363e","6893ca6882b3c33ec49b0673","1","67db387c909560bc7b65ea88","1","2025-08-06T22:06:28.280Z","","","","ControlQ","","","","","","","","","","","50","","","","","","","","","","","","","","","","","","","","","","","","","","",""
"1801","","<div style=""width:500px;"">
  <p>How would you describe your current emotional state?</p>
  </div>","83","html-slider-response","76","1910661","0.0-7.0-3.12","221","1","2025-08-06 21:34:36","36c45c0696341be0efffe67d72a12abb","88.24.41.49","Mozilla/5.0 (Windows NT 10.0; Win64; x64) AppleWebKit/537.36 (KHTML, like Gecko) Chrome/139.0.0.0 Safari/537.36","WebKit","Chrome","139.0.0.0","Windows","10.0","https://app.prolific.com/","es-ES,es;q=0.8","67db387c909560bc7b65ea88","687a1a965b9f5b85a264363e","6893ca6882b3c33ec49b0673","1","67db387c909560bc7b65ea88","1","2025-08-06T22:06:30.082Z","","","","StressQ","","","","","","","","","","","50","","","","","","","","","","","","","","","","","","","","","","","","","","",""
"1689","","<div style=""width:500px;"">
  <p>What best describes how you currently feel?</p>
  </div>","28","html-slider-response","77","1912351","0.0-7.0-4.12","221","1","2025-08-06 21:34:36","36c45c0696341be0efffe67d72a12abb","88.24.41.49","Mozilla/5.0 (Windows NT 10.0; Win64; x64) AppleWebKit/537.36 (KHTML, like Gecko) Chrome/139.0.0.0 Safari/537.36","WebKit","Chrome","139.0.0.0","Windows","10.0","https://app.prolific.com/","es-ES,es;q=0.8","67db387c909560bc7b65ea88","687a1a965b9f5b85a264363e","6893ca6882b3c33ec49b0673","1","67db387c909560bc7b65ea88","1","2025-08-06T22:06:31.772Z","","","","MotivationQ","","","","","","","","","","","50","","","","","","","","","","","","","","","","","","","","","","","","","","",""
