"rt","response_timestamp","stimulus","response","trial_type","trial_index","time_elapsed","internal_node_id","run_id","condition","recorded_at","source_code_version","ip","user_agent","device","browser","browser_version","platform","platform_version","referer","accept_language","PROLIFIC_PID","STUDY_ID","SESSION_ID","BATCH","prolific_id","batch","realtime","success","question_order","question_id","eventType","responses","item_order","radio_event_ids","radio_event_times","key_event_times","mouse_event_times","straightlining","zigzagging","honeypot","view_history","slider_start","which_type","canvas_config","goals_layout","control_level","trial_number","tutorial_trial_number","trial_start_time","phase1_start_time","phase2_start_time","phase3_start_time","goal_1_value","goal_1_distance","goal_2_value","goal_2_distance","goal_selected","outcome","outcome_total","participant_final_score","participant_initial_score","participant_final_score_prop","goal_choice_rt","allocated_time","allocated_time_remaining","goal_direction","counts","mouse_movements","key_presses"
"29437","1753865151641","<p style='font-size:40px;line-height:1.25'><strong>Welcome to the experiment!</strong></p><p style='font-size:1.1em;line-height:1.25'>Thank you for participanting in our experiment again! You will be asked to play the Dysfunctional Ball Game again. We will briefly recap the rules before we start.</p><p style='font-size:1.1em;line-height:1.25'>Press <strong>Next</strong> to continue.</p>","0","custom-html-button-response","0","29440","0.0-0.0","47","1","2025-07-30 08:45:13","36c45c0696341be0efffe67d72a12abb","41.122.11.152","Mozilla/5.0 (Windows NT 10.0; Win64; x64) AppleWebKit/537.36 (KHTML, like Gecko) Chrome/138.0.0.0 Safari/537.36","WebKit","Chrome","138.0.0.0","Windows","10.0","https://app.prolific.com/","en-US,en;q=0.9","67dc19c31078d1581e39e75a","687a360dabe5252b5ada7185","6889da71e4e2eece9e52cfab","0","67dc19c31078d1581e39e75a","0","2025-07-30T08:45:51.643Z","","","","","","","","","","","","","","","","","","","","","","","","","","","","","","","","","","","","","","","","","",""
"163059","","","","fullscreen","1","193512","0.0-1.0","47","1","2025-07-30 08:45:13","36c45c0696341be0efffe67d72a12abb","41.122.11.152","Mozilla/5.0 (Windows NT 10.0; Win64; x64) AppleWebKit/537.36 (KHTML, like Gecko) Chrome/138.0.0.0 Safari/537.36","WebKit","Chrome","138.0.0.0","Windows","10.0","https://app.prolific.com/","en-US,en;q=0.9","67dc19c31078d1581e39e75a","687a360dabe5252b5ada7185","6889da71e4e2eece9e52cfab","0","67dc19c31078d1581e39e75a","0","","true","","","","","","","","","","","","","","","","","","","","","","","","","","","","","","","","","","","","","","","","",""
"38452","1753865354168"," <p style='font-size:1.1em;line-height:1.25'>Thank you for closing all other tabs.</p><p style='font-size:1.1em;line-height:1.25'>We will now invite you to fill in some questionnaires, before starting the game.<br>This will take about 5 minutes.<br></p><p style='font-size:1.1em;line-height:1.25'>Press the <strong>Next</strong> button to continue.</p>","0","custom-html-button-response","2","231967","0.0-2.0","47","1","2025-07-30 08:45:13","36c45c0696341be0efffe67d72a12abb","41.122.11.152","Mozilla/5.0 (Windows NT 10.0; Win64; x64) AppleWebKit/537.36 (KHTML, like Gecko) Chrome/138.0.0.0 Safari/537.36","WebKit","Chrome","138.0.0.0","Windows","10.0","https://app.prolific.com/","en-US,en;q=0.9","67dc19c31078d1581e39e75a","687a360dabe5252b5ada7185","6889da71e4e2eece9e52cfab","0","67dc19c31078d1581e39e75a","0","2025-07-30T08:49:14.169Z","","","","","","","","","","","","","","","","","","","","","","","","","","","","","","","","","","","","","","","","","",""
"3565","","","{""assigned_sex"":""female""}","survey-multi-choice","3","235535","0.0-3.0-0.0","47","1","2025-07-30 08:45:13","36c45c0696341be0efffe67d72a12abb","41.122.11.152","Mozilla/5.0 (Windows NT 10.0; Win64; x64) AppleWebKit/537.36 (KHTML, like Gecko) Chrome/138.0.0.0 Safari/537.36","WebKit","Chrome","138.0.0.0","Windows","10.0","https://app.prolific.com/","en-US,en;q=0.9","67dc19c31078d1581e39e75a","687a360dabe5252b5ada7185","6889da71e4e2eece9e52cfab","0","67dc19c31078d1581e39e75a","0","","","[0]","0","demographics","","","","","","","","","","","","","","","","","","","","","","","","","","","","","","","","","","","","","",""
"5328","1753865363066","<p style='font-size:1.1em;line-height:1.25'>In the following, we will perform a baseline assessment. This means that we will ask you a few questions relating to your experiences over the past month.<br></p><p style='font-size:1.1em;line-height:1.25'>Press the <strong>Next</strong> button to continue.</p>","0","custom-html-button-response","4","240865","0.0-4.0-0.0","47","1","2025-07-30 08:45:13","36c45c0696341be0efffe67d72a12abb","41.122.11.152","Mozilla/5.0 (Windows NT 10.0; Win64; x64) AppleWebKit/537.36 (KHTML, like Gecko) Chrome/138.0.0.0 Safari/537.36","WebKit","Chrome","138.0.0.0","Windows","10.0","https://app.prolific.com/","en-US,en;q=0.9","67dc19c31078d1581e39e75a","687a360dabe5252b5ada7185","6889da71e4e2eece9e52cfab","0","67dc19c31078d1581e39e75a","0","2025-07-30T08:49:23.067Z","","","","","","","","","","","","","","","","","","","","","","","","","","","","","","","","","","","","","","","","","",""
"51236.79999999702","","","","survey-template","5","292107","0.0-4.0-1.0","47","1","2025-07-30 08:45:13","36c45c0696341be0efffe67d72a12abb","41.122.11.152","Mozilla/5.0 (Windows NT 10.0; Win64; x64) AppleWebKit/537.36 (KHTML, like Gecko) Chrome/138.0.0.0 Safari/537.36","WebKit","Chrome","138.0.0.0","Windows","10.0","https://app.prolific.com/","en-US,en;q=0.9","67dc19c31078d1581e39e75a","687a360dabe5252b5ada7185","6889da71e4e2eece9e52cfab","0","67dc19c31078d1581e39e75a","0","2025-07-30T08:50:14.309Z","","","","pss","{""Q01"":""1"",""Q02"":""1"",""Q03"":""1"",""Q04"":""3"",""Q05"":""2"",""Q06"":""1"",""Q07"":""3"",""Q08"":""3"",""Q09"":""1"",""Q10"":""1""}","[0,1,2,3,4,5,6,7,8,9]","[""Q01"",""Q02"",""Q03"",""Q04"",""Q05"",""Q06"",""Q08"",""Q07"",""Q09"",""Q10"",""Q09"",""Q09""]","[15282.20000000298,19824,21914.29999999702,26138.20000000298,27688,29364.20000000298,32485.89999999106,33680.29999999702,35034.59999999404,37248.09999999404,46878.39999999106,49017]","[]","[0.09999999403953552,15282.20000000298,16718.29999999702,19824,21914.29999999702,23304,26138.20000000298,27688,29364.20000000298,30768.20000000298,32485.89999999106,33680.29999999702,35034.59999999404,36444,37248.09999999404,40144,40308.59999999404,40558.5,46878.39999999106,49017,51232.29999999702]","0.9","0.2222222222222222","0","","","","","","","","","","","","","","","","","","","","","","","","","","","","",""
"2391","1753865416701","<p style='font-size:1.1em;line-height:1.25'>Thank you for your answers! Now we will ask you a few more questions relating to your feelings in the last 24 hours.<br></p><p style='font-size:1.1em;line-height:1.25'>Press the <strong>Next</strong> button to continue.</p>","0","custom-html-button-response","6","294500","0.0-4.0-2.0","47","1","2025-07-30 08:45:13","36c45c0696341be0efffe67d72a12abb","41.122.11.152","Mozilla/5.0 (Windows NT 10.0; Win64; x64) AppleWebKit/537.36 (KHTML, like Gecko) Chrome/138.0.0.0 Safari/537.36","WebKit","Chrome","138.0.0.0","Windows","10.0","https://app.prolific.com/","en-US,en;q=0.9","67dc19c31078d1581e39e75a","687a360dabe5252b5ada7185","6889da71e4e2eece9e52cfab","0","67dc19c31078d1581e39e75a","0","2025-07-30T08:50:16.702Z","","","","","","","","","","","","","","","","","","","","","","","","","","","","","","","","","","","","","","","","","",""
"67608.10000000894","","","","survey-template","7","362117","0.0-4.0-3.0","47","1","2025-07-30 08:45:13","36c45c0696341be0efffe67d72a12abb","41.122.11.152","Mozilla/5.0 (Windows NT 10.0; Win64; x64) AppleWebKit/537.36 (KHTML, like Gecko) Chrome/138.0.0.0 Safari/537.36","WebKit","Chrome","138.0.0.0","Windows","10.0","https://app.prolific.com/","en-US,en;q=0.9","67dc19c31078d1581e39e75a","687a360dabe5252b5ada7185","6889da71e4e2eece9e52cfab","0","67dc19c31078d1581e39e75a","0","2025-07-30T08:51:24.319Z","","","","drsp","{""Q01"":""1"",""Q02"":""0"",""Q03"":""0"",""Q04"":""0"",""Q05"":""0"",""Q06"":""1"",""Q07"":""0"",""Q08"":""0"",""Q09"":""0"",""Q10"":""1"",""Q11"":""1"",""Q12"":""0"",""Q13"":""5"",""Q14"":""4"",""Q15"":""1"",""Q16"":""1"",""Q17"":""1"",""Q18"":""0"",""Q19"":""0"",""Q20"":""0"",""Q21"":""0"",""Q22"":""0""}","[0,1,2,3,4,5,6,7,8,9,10,11,12,13,14,15,16,17,18,19,20,21]","[""Q01"",""Q02"",""Q03"",""Q04"",""Q05"",""Q06"",""Q07"",""Q08"",""Q09"",""Q10"",""Q11"",""Q12"",""Q13"",""Q14"",""Q14"",""Q15"",""Q16"",""Q17"",""Q18"",""Q19"",""Q20"",""Q21"",""Q22""]","[3847.5,6447.4000000059605,8094.29999999702,10559.40000000596,11599.29999999702,13313.40000000596,14844.40000000596,17983.29999999702,19032.60000000894,20208,21353.60000000894,23163.40000000596,48103.70000000298,51686.29999999702,52899.40000000596,54613.70000000298,55913.5,58793,61421.40000000596,62692.10000000894,63799.40000000596,64974.10000000894,66235.40000000596]","[]","[0.10000000894069672,3847.5,4906.9000000059605,6447.4000000059605,8094.29999999702,9230.29999999702,10559.40000000596,11599.29999999702,13313.40000000596,14844.40000000596,16549.79999999702,17983.29999999702,19032.60000000894,20208,21353.60000000894,23163.40000000596,48103.70000000298,51686.29999999702,52899.40000000596,54613.70000000298,55913.5,57675.5,58793,60063.60000000894,61421.40000000596,62692.10000000894,63799.40000000596,64974.10000000894,66235.40000000596,67602.70000000298]","0.5909090909090909","0.38095238095238093","0","","","","","","","","","","","","","","","","","","","","","","","","","","","","",""
"7018","","","","survey-template","8","369139","0.0-4.0-4.0","47","1","2025-07-30 08:45:13","36c45c0696341be0efffe67d72a12abb","41.122.11.152","Mozilla/5.0 (Windows NT 10.0; Win64; x64) AppleWebKit/537.36 (KHTML, like Gecko) Chrome/138.0.0.0 Safari/537.36","WebKit","Chrome","138.0.0.0","Windows","10.0","https://app.prolific.com/","en-US,en;q=0.9","67dc19c31078d1581e39e75a","687a360dabe5252b5ada7185","6889da71e4e2eece9e52cfab","0","67dc19c31078d1581e39e75a","0","2025-07-30T08:51:31.341Z","","","","stress","{""Q01"":""0"",""Q02"":""5"",""Q03"":""0""}","[0,1,2]","[""Q01"",""Q02"",""Q03""]","[3387.2000000029802,4427.0999999940395,5784.5999999940395]","[]","[3387.2000000029802,4427.0999999940395,5784.5999999940395,7016.5999999940395]","1","0","0","","","","","","","","","","","","","","","","","","","","","","","","","","","","",""
"79867","","","","instructions","9","449007","0.0-5.0-0.0","47","1","2025-07-30 08:45:13","36c45c0696341be0efffe67d72a12abb","41.122.11.152","Mozilla/5.0 (Windows NT 10.0; Win64; x64) AppleWebKit/537.36 (KHTML, like Gecko) Chrome/138.0.0.0 Safari/537.36","WebKit","Chrome","138.0.0.0","Windows","10.0","https://app.prolific.com/","en-US,en;q=0.9","67dc19c31078d1581e39e75a","687a360dabe5252b5ada7185","6889da71e4e2eece9e52cfab","0","67dc19c31078d1581e39e75a","0","","","","","","","","","","","","","","","[{""page_index"":0,""viewing_time"":79867}]","","","","","","","","","","","","","","","","","","","","","","","","","","","",""
"6835","","<p>Before you start with this game please answer the following three questions yourself. </p>
  <p>Through this game, we measure several aspects of your cognitive performance, such as reaction times, multi-tasking capabilities </p>
  <p>and the ability to assess the situation you are in.</p>
  <p></p>
  <p><b>How good do you usually are in such tasks?</b></p>","86","html-slider-response","10","455845","0.0-6.0-0.0","47","1","2025-07-30 08:45:13","36c45c0696341be0efffe67d72a12abb","41.122.11.152","Mozilla/5.0 (Windows NT 10.0; Win64; x64) AppleWebKit/537.36 (KHTML, like Gecko) Chrome/138.0.0.0 Safari/537.36","WebKit","Chrome","138.0.0.0","Windows","10.0","https://app.prolific.com/","en-US,en;q=0.9","67dc19c31078d1581e39e75a","687a360dabe5252b5ada7185","6889da71e4e2eece9e52cfab","0","67dc19c31078d1581e39e75a","0","2025-07-30T08:52:58.047Z","","","","PreSkillQ","","","","","","","","","","","50","","","","","","","","","","","","","","","","","","","","","","","","","","",""
"5324","","<div style=""width:500px;"">
  <p>How well do you think you will perform in this task compared to other participants?</p>
  </div>","87","html-slider-response","11","461170","0.0-6.0-1.0","47","1","2025-07-30 08:45:13","36c45c0696341be0efffe67d72a12abb","41.122.11.152","Mozilla/5.0 (Windows NT 10.0; Win64; x64) AppleWebKit/537.36 (KHTML, like Gecko) Chrome/138.0.0.0 Safari/537.36","WebKit","Chrome","138.0.0.0","Windows","10.0","https://app.prolific.com/","en-US,en;q=0.9","67dc19c31078d1581e39e75a","687a360dabe5252b5ada7185","6889da71e4e2eece9e52cfab","0","67dc19c31078d1581e39e75a","0","2025-07-30T08:53:03.372Z","","","","PrePerfQ","","","","","","","","","","","50","","","","","","","","","","","","","","","","","","","","","","","","","","",""
"3696","","<div style=""width:500px;"">
  <p>What best describes how you currently feel?</p>
  </div>","85","html-slider-response","12","464868","0.0-6.0-2.0","47","1","2025-07-30 08:45:13","36c45c0696341be0efffe67d72a12abb","41.122.11.152","Mozilla/5.0 (Windows NT 10.0; Win64; x64) AppleWebKit/537.36 (KHTML, like Gecko) Chrome/138.0.0.0 Safari/537.36","WebKit","Chrome","138.0.0.0","Windows","10.0","https://app.prolific.com/","en-US,en;q=0.9","67dc19c31078d1581e39e75a","687a360dabe5252b5ada7185","6889da71e4e2eece9e52cfab","0","67dc19c31078d1581e39e75a","0","2025-07-30T08:53:07.070Z","","","","PreMotivationQ","","","","","","","","","","","50","","","","","","","","","","","","","","","","","","","","","","","","","","",""
"","","","","ctl-task-cpt","13","483236","0.0-7.0-0.0","47","1","2025-07-30 08:45:13","36c45c0696341be0efffe67d72a12abb","41.122.11.152","Mozilla/5.0 (Windows NT 10.0; Win64; x64) AppleWebKit/537.36 (KHTML, like Gecko) Chrome/138.0.0.0 Safari/537.36","WebKit","Chrome","138.0.0.0","Windows","10.0","https://app.prolific.com/","en-US,en;q=0.9","67dc19c31078d1581e39e75a","687a360dabe5252b5ada7185","6889da71e4e2eece9e52cfab","0","67dc19c31078d1581e39e75a","0","2025-07-30T08:53:25.438Z","","","","","","","","","","","","","","","","win-only","3","g1:SW,g2:NE","1","1","0","474350.6","5368.9","10370.9","15358.7","1","4","4","6","2","-4","-4","0","0","0","5002","3000","-2940","[""up"",""right""]","{""num_key_presses"":0,""num_perfect"":0,""num_errors"":0,""num_randdir"":0,""num_randdir_good_moves"":0,""num_whilered"":0,""num_whileblue"":0,""num_blue"":0,""num_good_moves"":0}","[409.57142857142856,410.47767857142856,0.3,409.57142857142856,410.47767857142856,102,409.57142857142856,410.47767857142856,214.1,409.57142857142856,410.47767857142856,317.8,409.57142857142856,410.47767857142856,421.7,409.57142857142856,410.47767857142856,532.5,409.57142857142856,410.47767857142856,636.8,409.57142857142856,410.47767857142856,738,393.57142857142856,418.47767857142856,842,360.57142857142856,473.47767857142856,943.3,344.57142857142856,526.4776785714286,1051.2,344.57142857142856,526.4776785714286,1153,344.57142857142856,526.4776785714286,1254.1,344.57142857142856,526.4776785714286,1354.7,344.57142857142856,526.4776785714286,1457.8,344.57142857142856,526.4776785714286,1562.6,344.57142857142856,526.4776785714286,1668.1,344.57142857142856,526.4776785714286,1772.3,344.57142857142856,526.4776785714286,1872.3,344.57142857142856,526.4776785714286,1973.2,344.57142857142856,526.4776785714286,2084.2,344.57142857142856,526.4776785714286,2184.7,344.57142857142856,526.4776785714286,2287.9,344.57142857142856,526.4776785714286,2387.9,344.57142857142856,526.4776785714286,2495.9,344.57142857142856,526.4776785714286,2601.6,344.57142857142856,526.4776785714286,2701.6,344.57142857142856,526.4776785714286,2801.6,344.57142857142856,526.4776785714286,2901.9,344.57142857142856,526.4776785714286,3006.9,344.57142857142856,526.4776785714286,3108.6,344.57142857142856,526.4776785714286,3211.7,344.57142857142856,526.4776785714286,3319.6,344.57142857142856,526.4776785714286,3422.7,344.57142857142856,526.4776785714286,3522.7,344.57142857142856,526.4776785714286,3634.7,344.57142857142856,526.4776785714286,3737.6,344.57142857142856,526.4776785714286,3849.7,344.57142857142856,526.4776785714286,3952.5,344.57142857142856,526.4776785714286,4053.3,344.57142857142856,526.4776785714286,4153.5,344.57142857142856,526.4776785714286,4263.9,344.57142857142856,526.4776785714286,4369.2,344.57142857142856,526.4776785714286,4473.1,344.57142857142856,526.4776785714286,4573.1,344.57142857142856,526.4776785714286,4680.4,344.57142857142856,526.4776785714286,4781.9,344.57142857142856,526.4776785714286,4886.6,344.57142857142856,526.4776785714286,4986.9]","[]"
"4993","","<div style=""width:500px;"">
  <p>What determined the result of this run?</p>
  </div>","35","html-slider-response","14","488231","0.0-7.0-1.0","47","1","2025-07-30 08:45:13","36c45c0696341be0efffe67d72a12abb","41.122.11.152","Mozilla/5.0 (Windows NT 10.0; Win64; x64) AppleWebKit/537.36 (KHTML, like Gecko) Chrome/138.0.0.0 Safari/537.36","WebKit","Chrome","138.0.0.0","Windows","10.0","https://app.prolific.com/","en-US,en;q=0.9","67dc19c31078d1581e39e75a","687a360dabe5252b5ada7185","6889da71e4e2eece9e52cfab","0","67dc19c31078d1581e39e75a","0","2025-07-30T08:53:30.434Z","","","","AttribQ","","","","","","","","","","","50","","","","","","","","","","","","","","","","","","","","","","","","","","",""
"6194","","<div style=""width:500px;"">
  <p>How much control did you have over the ball?</p>
  </div>","32","html-slider-response","15","494427","0.0-7.0-2.0","47","1","2025-07-30 08:45:13","36c45c0696341be0efffe67d72a12abb","41.122.11.152","Mozilla/5.0 (Windows NT 10.0; Win64; x64) AppleWebKit/537.36 (KHTML, like Gecko) Chrome/138.0.0.0 Safari/537.36","WebKit","Chrome","138.0.0.0","Windows","10.0","https://app.prolific.com/","en-US,en;q=0.9","67dc19c31078d1581e39e75a","687a360dabe5252b5ada7185","6889da71e4e2eece9e52cfab","0","67dc19c31078d1581e39e75a","0","2025-07-30T08:53:36.629Z","","","","ControlQ","","","","","","","","","","","50","","","","","","","","","","","","","","","","","","","","","","","","","","",""
"2470","","<div style=""width:500px;"">
  <p>How would you describe your current emotional state?</p>
  </div>","64","html-slider-response","16","496900","0.0-7.0-3.0","47","1","2025-07-30 08:45:13","36c45c0696341be0efffe67d72a12abb","41.122.11.152","Mozilla/5.0 (Windows NT 10.0; Win64; x64) AppleWebKit/537.36 (KHTML, like Gecko) Chrome/138.0.0.0 Safari/537.36","WebKit","Chrome","138.0.0.0","Windows","10.0","https://app.prolific.com/","en-US,en;q=0.9","67dc19c31078d1581e39e75a","687a360dabe5252b5ada7185","6889da71e4e2eece9e52cfab","0","67dc19c31078d1581e39e75a","0","2025-07-30T08:53:39.102Z","","","","StressQ","","","","","","","","","","","50","","","","","","","","","","","","","","","","","","","","","","","","","","",""
"3038","","<div style=""width:500px;"">
  <p>What best describes how you currently feel?</p>
  </div>","36","html-slider-response","17","499939","0.0-7.0-4.0","47","1","2025-07-30 08:45:13","36c45c0696341be0efffe67d72a12abb","41.122.11.152","Mozilla/5.0 (Windows NT 10.0; Win64; x64) AppleWebKit/537.36 (KHTML, like Gecko) Chrome/138.0.0.0 Safari/537.36","WebKit","Chrome","138.0.0.0","Windows","10.0","https://app.prolific.com/","en-US,en;q=0.9","67dc19c31078d1581e39e75a","687a360dabe5252b5ada7185","6889da71e4e2eece9e52cfab","0","67dc19c31078d1581e39e75a","0","2025-07-30T08:53:42.142Z","","","","MotivationQ","","","","","","","","","","","50","","","","","","","","","","","","","","","","","","","","","","","","","","",""
"","","","","ctl-task-cpt","18","530584","0.0-7.0-0.1","47","1","2025-07-30 08:45:13","36c45c0696341be0efffe67d72a12abb","41.122.11.152","Mozilla/5.0 (Windows NT 10.0; Win64; x64) AppleWebKit/537.36 (KHTML, like Gecko) Chrome/138.0.0.0 Safari/537.36","WebKit","Chrome","138.0.0.0","Windows","10.0","https://app.prolific.com/","en-US,en;q=0.9","67dc19c31078d1581e39e75a","687a360dabe5252b5ada7185","6889da71e4e2eece9e52cfab","0","67dc19c31078d1581e39e75a","0","2025-07-30T08:54:12.787Z","","","","","","","","","","","","","","","","win-only","1","g1:NE,g2:SW","0.9","2","0","509420.8","4002.4","9006.6","27637.7","1","4","8","6","1","-1","-2","0","0","0","5003.8","3000","-2295","[""up"",""right""]","{""num_key_presses"":4,""num_perfect"":2,""num_errors"":1,""num_randdir"":1,""num_randdir_good_moves"":1,""num_whilered"":0,""num_whileblue"":0,""num_blue"":1,""num_good_moves"":3}","[427.57142857142856,414.47767857142856,1.8,427.57142857142856,414.47767857142856,100.9,427.57142857142856,414.47767857142856,201.6,427.57142857142856,414.47767857142856,302.3,359.57142857142856,424.47767857142856,403.6,326.57142857142856,427.47767857142856,523.4,321.57142857142856,428.47767857142856,635.4,321.57142857142856,428.47767857142856,738.3,321.57142857142856,428.47767857142856,849.1,321.57142857142856,428.47767857142856,949.3,321.57142857142856,428.47767857142856,1051.7,321.57142857142856,428.47767857142856,1153.7,321.57142857142856,428.47767857142856,1264.6,321.57142857142856,428.47767857142856,1369.7,321.57142857142856,428.47767857142856,1475.7,321.57142857142856,428.47767857142856,1578.8,321.57142857142856,428.47767857142856,1685,321.57142857142856,428.47767857142856,1788.7,321.57142857142856,428.47767857142856,1891.2,321.57142857142856,428.47767857142856,1999.8,321.57142857142856,428.47767857142856,2102.8,321.57142857142856,428.47767857142856,2213.7,321.57142857142856,428.47767857142856,2319.9,321.57142857142856,428.47767857142856,2420.2,321.57142857142856,428.47767857142856,2524.3,321.57142857142856,428.47767857142856,2638,321.57142857142856,428.47767857142856,2738.9,321.57142857142856,428.47767857142856,2840.7,321.57142857142856,428.47767857142856,2948.9,321.57142857142856,428.47767857142856,3049,321.57142857142856,428.47767857142856,3157.3,321.57142857142856,428.47767857142856,3259.9,321.57142857142856,428.47767857142856,3368.2,321.57142857142856,428.47767857142856,3470.1,321.57142857142856,428.47767857142856,3570.1,321.57142857142856,428.47767857142856,3670.1,321.57142857142856,428.47767857142856,3771.3,321.57142857142856,428.47767857142856,3887.3,321.57142857142856,428.47767857142856,3987.4,321.57142857142856,428.47767857142856,4090.1,321.57142857142856,428.47767857142856,4194.1,321.57142857142856,428.47767857142856,4294.2,321.57142857142856,428.47767857142856,4396.3,321.57142857142856,428.47767857142856,4497.3,321.57142857142856,428.47767857142856,4601.8,321.57142857142856,428.47767857142856,4702.6,321.57142857142856,428.47767857142856,4804.3,321.57142857142856,428.47767857142856,4916.6]","[622.3,622.3,1000,0,-377.7,""error"",""-"",""-"",""no_move"",8063.2,7440.2,2779.2,4798.7,485.3,""smooth"",""right"",""right"",""good_move"",10544.7,2480.6,2099,8064.1,381.6,""oops"",""right"",""up"",""good_move"",12780.2,2233.8,1786.9,10546.4,446.9,""smooth"",""right"",""right"",""good_move""]"
"5511","","<div style=""width:500px;"">
  <p>What determined the result of this run?</p>
  </div>","34","html-slider-response","19","536106","0.0-7.0-1.1","47","1","2025-07-30 08:45:13","36c45c0696341be0efffe67d72a12abb","41.122.11.152","Mozilla/5.0 (Windows NT 10.0; Win64; x64) AppleWebKit/537.36 (KHTML, like Gecko) Chrome/138.0.0.0 Safari/537.36","WebKit","Chrome","138.0.0.0","Windows","10.0","https://app.prolific.com/","en-US,en;q=0.9","67dc19c31078d1581e39e75a","687a360dabe5252b5ada7185","6889da71e4e2eece9e52cfab","0","67dc19c31078d1581e39e75a","0","2025-07-30T08:54:18.310Z","","","","AttribQ","","","","","","","","","","","50","","","","","","","","","","","","","","","","","","","","","","","","","","",""
"3540","","<div style=""width:500px;"">
  <p>How much control did you have over the ball?</p>
  </div>","20","html-slider-response","20","539660","0.0-7.0-2.1","47","1","2025-07-30 08:45:13","36c45c0696341be0efffe67d72a12abb","41.122.11.152","Mozilla/5.0 (Windows NT 10.0; Win64; x64) AppleWebKit/537.36 (KHTML, like Gecko) Chrome/138.0.0.0 Safari/537.36","WebKit","Chrome","138.0.0.0","Windows","10.0","https://app.prolific.com/","en-US,en;q=0.9","67dc19c31078d1581e39e75a","687a360dabe5252b5ada7185","6889da71e4e2eece9e52cfab","0","67dc19c31078d1581e39e75a","0","2025-07-30T08:54:21.862Z","","","","ControlQ","","","","","","","","","","","50","","","","","","","","","","","","","","","","","","","","","","","","","","",""
"3392","","<div style=""width:500px;"">
  <p>How would you describe your current emotional state?</p>
  </div>","37","html-slider-response","21","543053","0.0-7.0-3.1","47","1","2025-07-30 08:45:13","36c45c0696341be0efffe67d72a12abb","41.122.11.152","Mozilla/5.0 (Windows NT 10.0; Win64; x64) AppleWebKit/537.36 (KHTML, like Gecko) Chrome/138.0.0.0 Safari/537.36","WebKit","Chrome","138.0.0.0","Windows","10.0","https://app.prolific.com/","en-US,en;q=0.9","67dc19c31078d1581e39e75a","687a360dabe5252b5ada7185","6889da71e4e2eece9e52cfab","0","67dc19c31078d1581e39e75a","0","2025-07-30T08:54:25.256Z","","","","StressQ","","","","","","","","","","","50","","","","","","","","","","","","","","","","","","","","","","","","","","",""
"46817","","<div style=""width:500px;"">
  <p>What best describes how you currently feel?</p>
  </div>","70","html-slider-response","22","589878","0.0-7.0-4.1","47","1","2025-07-30 08:45:13","36c45c0696341be0efffe67d72a12abb","41.122.11.152","Mozilla/5.0 (Windows NT 10.0; Win64; x64) AppleWebKit/537.36 (KHTML, like Gecko) Chrome/138.0.0.0 Safari/537.36","WebKit","Chrome","138.0.0.0","Windows","10.0","https://app.prolific.com/","en-US,en;q=0.9","67dc19c31078d1581e39e75a","687a360dabe5252b5ada7185","6889da71e4e2eece9e52cfab","0","67dc19c31078d1581e39e75a","0","2025-07-30T08:55:12.082Z","","","","MotivationQ","","","","","","","","","","","50","","","","","","","","","","","","","","","","","","","","","","","","","","",""
"","","","","ctl-task-cpt","23","622682","0.0-7.0-0.2","47","1","2025-07-30 08:45:13","36c45c0696341be0efffe67d72a12abb","41.122.11.152","Mozilla/5.0 (Windows NT 10.0; Win64; x64) AppleWebKit/537.36 (KHTML, like Gecko) Chrome/138.0.0.0 Safari/537.36","WebKit","Chrome","138.0.0.0","Windows","10.0","https://app.prolific.com/","en-US,en;q=0.9","67dc19c31078d1581e39e75a","687a360dabe5252b5ada7185","6889da71e4e2eece9e52cfab","0","67dc19c31078d1581e39e75a","0","2025-07-30T08:55:44.884Z","","","","","","","","","","","","","","","","win-only","0","g1:NW,g2:SE","0.8","3","0","599395.3","4930.5","9940.6","29748.2","1","4","4","6","2","4","4","4","0","0.030303030303030304","5010","3000","1365","[""down"",""right""]","{""num_key_presses"":6,""num_perfect"":5,""num_errors"":0,""num_randdir"":1,""num_randdir_good_moves"":1,""num_whilered"":0,""num_whileblue"":0,""num_blue"":1,""num_good_moves"":6}","[424.57142857142856,415.47767857142856,0.3,424.57142857142856,415.47767857142856,100,424.57142857142856,415.47767857142856,207.2,424.57142857142856,415.47767857142856,331.2,424.57142857142856,415.47767857142856,442.8,424.57142857142856,415.47767857142856,551.7,424.57142857142856,415.47767857142856,652.3,424.57142857142856,415.47767857142856,756.7,424.57142857142856,415.47767857142856,860,424.57142857142856,415.47767857142856,962.5,424.57142857142856,415.47767857142856,1065.4,424.57142857142856,415.47767857142856,1169.3,424.57142857142856,415.47767857142856,1273.2,424.57142857142856,415.47767857142856,1399.9,424.57142857142856,415.47767857142856,1515.1,424.57142857142856,415.47767857142856,1622.5,424.57142857142856,415.47767857142856,1722.6,424.57142857142856,415.47767857142856,1827,424.57142857142856,415.47767857142856,1931.4,424.57142857142856,415.47767857142856,2035.6,424.57142857142856,415.47767857142856,2136.1,365.57142857142856,415.47767857142856,2237.6,368.57142857142856,411.47767857142856,2340.8,-312.42857142857144,382.47767857142856,2544.7,-375.42857142857144,366.47767857142856,2646.6,-367.42857142857144,366.47767857142856,2756.3,-367.42857142857144,366.47767857142856,2858.2,-367.42857142857144,366.47767857142856,2960.3,-367.42857142857144,366.47767857142856,3060.9,-367.42857142857144,366.47767857142856,3161.4,-367.42857142857144,366.47767857142856,3264.2,-367.42857142857144,366.47767857142856,3368.4,-367.42857142857144,366.47767857142856,3472,-367.42857142857144,366.47767857142856,3585.4,-367.42857142857144,366.47767857142856,3694.6,-367.42857142857144,366.47767857142856,3805.9,-367.42857142857144,366.47767857142856,3908,-367.42857142857144,366.47767857142856,4010.7,-367.42857142857144,366.47767857142856,4110.7,-367.42857142857144,366.47767857142856,4214.2,-367.42857142857144,366.47767857142856,4316.4,-367.42857142857144,366.47767857142856,4416.6,-367.42857142857144,366.47767857142856,4523.3,-367.42857142857144,366.47767857142856,4628,-367.42857142857144,366.47767857142856,4731.5,-367.42857142857144,366.47767857142856,4832.6,-367.42857142857144,366.47767857142856,4934.5]","[1821,1821,1000,0,821,""smooth"",""right"",""right"",""good_move"",4534.9,2712.9,2318.7,1822.1,394.1,""smooth"",""right"",""right"",""good_move"",7309.4,2769.5,2413.7,4540,355.7,""oops"",""right"",""right"",""good_move"",9970,2659.2,2302.9,7310.9,356.2,""smooth"",""down"",""down"",""good_move"",16175.2,6204.7,2429.5,13305.6,440.1,""smooth"",""down"",""down"",""good_move"",19657.2,3481.7,3040.4,16175.6,441.2,""smooth"",""down"",""down"",""good_move""]"
"4726","","<div style=""width:500px;"">
  <p>What determined the result of this run?</p>
  </div>","78","html-slider-response","24","627415","0.0-7.0-1.2","47","1","2025-07-30 08:45:13","36c45c0696341be0efffe67d72a12abb","41.122.11.152","Mozilla/5.0 (Windows NT 10.0; Win64; x64) AppleWebKit/537.36 (KHTML, like Gecko) Chrome/138.0.0.0 Safari/537.36","WebKit","Chrome","138.0.0.0","Windows","10.0","https://app.prolific.com/","en-US,en;q=0.9","67dc19c31078d1581e39e75a","687a360dabe5252b5ada7185","6889da71e4e2eece9e52cfab","0","67dc19c31078d1581e39e75a","0","2025-07-30T08:55:49.617Z","","","","AttribQ","","","","","","","","","","","50","","","","","","","","","","","","","","","","","","","","","","","","","","",""
"5279","","<div style=""width:500px;"">
  <p>How much control did you have over the ball?</p>
  </div>","93","html-slider-response","25","632699","0.0-7.0-2.2","47","1","2025-07-30 08:45:13","36c45c0696341be0efffe67d72a12abb","41.122.11.152","Mozilla/5.0 (Windows NT 10.0; Win64; x64) AppleWebKit/537.36 (KHTML, like Gecko) Chrome/138.0.0.0 Safari/537.36","WebKit","Chrome","138.0.0.0","Windows","10.0","https://app.prolific.com/","en-US,en;q=0.9","67dc19c31078d1581e39e75a","687a360dabe5252b5ada7185","6889da71e4e2eece9e52cfab","0","67dc19c31078d1581e39e75a","0","2025-07-30T08:55:54.901Z","","","","ControlQ","","","","","","","","","","","50","","","","","","","","","","","","","","","","","","","","","","","","","","",""
"4221","","<div style=""width:500px;"">
  <p>How would you describe your current emotional state?</p>
  </div>","0","html-slider-response","26","636927","0.0-7.0-3.2","47","1","2025-07-30 08:45:13","36c45c0696341be0efffe67d72a12abb","41.122.11.152","Mozilla/5.0 (Windows NT 10.0; Win64; x64) AppleWebKit/537.36 (KHTML, like Gecko) Chrome/138.0.0.0 Safari/537.36","WebKit","Chrome","138.0.0.0","Windows","10.0","https://app.prolific.com/","en-US,en;q=0.9","67dc19c31078d1581e39e75a","687a360dabe5252b5ada7185","6889da71e4e2eece9e52cfab","0","67dc19c31078d1581e39e75a","0","2025-07-30T08:55:59.129Z","","","","StressQ","","","","","","","","","","","50","","","","","","","","","","","","","","","","","","","","","","","","","","",""
"4193","","<div style=""width:500px;"">
  <p>What best describes how you currently feel?</p>
  </div>","91","html-slider-response","27","641129","0.0-7.0-4.2","47","1","2025-07-30 08:45:13","36c45c0696341be0efffe67d72a12abb","41.122.11.152","Mozilla/5.0 (Windows NT 10.0; Win64; x64) AppleWebKit/537.36 (KHTML, like Gecko) Chrome/138.0.0.0 Safari/537.36","WebKit","Chrome","138.0.0.0","Windows","10.0","https://app.prolific.com/","en-US,en;q=0.9","67dc19c31078d1581e39e75a","687a360dabe5252b5ada7185","6889da71e4e2eece9e52cfab","0","67dc19c31078d1581e39e75a","0","2025-07-30T08:56:03.334Z","","","","MotivationQ","","","","","","","","","","","50","","","","","","","","","","","","","","","","","","","","","","","","","","",""
"","","","","ctl-task-cpt","28","684277","0.0-7.0-0.3","47","1","2025-07-30 08:45:13","36c45c0696341be0efffe67d72a12abb","41.122.11.152","Mozilla/5.0 (Windows NT 10.0; Win64; x64) AppleWebKit/537.36 (KHTML, like Gecko) Chrome/138.0.0.0 Safari/537.36","WebKit","Chrome","138.0.0.0","Windows","10.0","https://app.prolific.com/","en-US,en;q=0.9","67dc19c31078d1581e39e75a","687a360dabe5252b5ada7185","6889da71e4e2eece9e52cfab","0","67dc19c31078d1581e39e75a","0","2025-07-30T08:56:46.480Z","","","","","","","","","","","","","","","","win-only","3","g1:SW,g2:NE","0.7","4","0","650620.1","1340.9","6352.1","40128.8","1","4","8","6","1","1","1","5","4","0.03787878787878788","5011","3000","1270","[""down"",""left""]","{""num_key_presses"":8,""num_perfect"":6,""num_errors"":0,""num_randdir"":2,""num_randdir_good_moves"":0,""num_whilered"":0,""num_whileblue"":0,""num_blue"":3,""num_good_moves"":6}","[419.57142857142856,418.47767857142856,0.3,419.57142857142856,418.47767857142856,103.4,419.57142857142856,418.47767857142856,223.9,419.57142857142856,418.47767857142856,326.4,419.57142857142856,418.47767857142856,433.9,419.57142857142856,418.47767857142856,555.2,419.57142857142856,418.47767857142856,664.7,419.57142857142856,418.47767857142856,772.1,419.57142857142856,418.47767857142856,873.3,419.57142857142856,418.47767857142856,977.3,419.57142857142856,418.47767857142856,1078.2,419.57142857142856,418.47767857142856,1180.3,419.57142857142856,418.47767857142856,1284,419.57142857142856,418.47767857142856,1393.5,419.57142857142856,418.47767857142856,1500.7,419.57142857142856,418.47767857142856,1605.7,419.57142857142856,418.47767857142856,1705.8,419.57142857142856,418.47767857142856,1811.5,419.57142857142856,418.47767857142856,1911.8,419.57142857142856,418.47767857142856,2013.5,419.57142857142856,418.47767857142856,2121,419.57142857142856,418.47767857142856,2230.2,419.57142857142856,418.47767857142856,2331.8,419.57142857142856,418.47767857142856,2500,419.57142857142856,418.47767857142856,2607.3,362.57142857142856,404.47767857142856,2713.2,-100.42857142857143,428.47767857142856,2823,-392.42857142857144,421.47767857142856,2924.4,-377.42857142857144,405.47767857142856,3027.8,-334.42857142857144,366.47767857142856,3147,-334.42857142857144,366.47767857142856,3258.7,-334.42857142857144,366.47767857142856,3372.1,-334.42857142857144,366.47767857142856,3474.9,-334.42857142857144,366.47767857142856,3593.8,-334.42857142857144,366.47767857142856,3694.1,-334.42857142857144,366.47767857142856,3795.2,-334.42857142857144,366.47767857142856,3908.3,-334.42857142857144,366.47767857142856,4012.7,-334.42857142857144,366.47767857142856,4117.2,-334.42857142857144,366.47767857142856,4224.2,-334.42857142857144,366.47767857142856,4329.7,-334.42857142857144,366.47767857142856,4448,-334.42857142857144,366.47767857142856,4548.3,-334.42857142857144,366.47767857142856,4666.8,-334.42857142857144,366.47767857142856,4780.8,-334.42857142857144,366.47767857142856,4897.5]","[1483.9,1483.9,1000,0,483.9,""smooth"",""down"",""down"",""good_move"",4700.8,3213.1,2782.9,1487.7,430.2,""oops"",""down"",""right"",""bad_move"",8070.2,3368.2,2911.9,4702.1,456.3,""smooth"",""left"",""left"",""good_move"",11036.5,2965.4,2584.4,8071.1,381,""smooth"",""left"",""left"",""good_move"",13939.9,2900.3,2449.7,11039.8,450.5,""oops"",""left"",""right"",""bad_move"",16734.9,2793.9,2385.3,13941,408.6,""smooth"",""left"",""left"",""good_move"",30867.3,14131.6,2196.5,28218.4,452.4,""smooth"",""down"",""down"",""good_move"",33583.9,2716.3,2202.5,30867.6,513.8,""smooth"",""left"",""left"",""good_move""]"
"150530","","<div style=""width:500px;"">
  <p>What determined the result of this run?</p>
  </div>","90","html-slider-response","29","834811","0.0-7.0-1.3","47","1","2025-07-30 08:45:13","36c45c0696341be0efffe67d72a12abb","41.122.11.152","Mozilla/5.0 (Windows NT 10.0; Win64; x64) AppleWebKit/537.36 (KHTML, like Gecko) Chrome/138.0.0.0 Safari/537.36","WebKit","Chrome","138.0.0.0","Windows","10.0","https://app.prolific.com/","en-US,en;q=0.9","67dc19c31078d1581e39e75a","687a360dabe5252b5ada7185","6889da71e4e2eece9e52cfab","0","67dc19c31078d1581e39e75a","0","2025-07-30T08:59:17.013Z","","","","AttribQ","","","","","","","","","","","50","","","","","","","","","","","","","","","","","","","","","","","","","","",""
"14477","","<div style=""width:500px;"">
  <p>How much control did you have over the ball?</p>
  </div>","94","html-slider-response","30","849295","0.0-7.0-2.3","47","1","2025-07-30 08:45:13","36c45c0696341be0efffe67d72a12abb","41.122.11.152","Mozilla/5.0 (Windows NT 10.0; Win64; x64) AppleWebKit/537.36 (KHTML, like Gecko) Chrome/138.0.0.0 Safari/537.36","WebKit","Chrome","138.0.0.0","Windows","10.0","https://app.prolific.com/","en-US,en;q=0.9","67dc19c31078d1581e39e75a","687a360dabe5252b5ada7185","6889da71e4e2eece9e52cfab","0","67dc19c31078d1581e39e75a","0","2025-07-30T08:59:31.501Z","","","","ControlQ","","","","","","","","","","","50","","","","","","","","","","","","","","","","","","","","","","","","","","",""
"9294","","<div style=""width:500px;"">
  <p>How would you describe your current emotional state?</p>
  </div>","96","html-slider-response","31","858616","0.0-7.0-3.3","47","1","2025-07-30 08:45:13","36c45c0696341be0efffe67d72a12abb","41.122.11.152","Mozilla/5.0 (Windows NT 10.0; Win64; x64) AppleWebKit/537.36 (KHTML, like Gecko) Chrome/138.0.0.0 Safari/537.36","WebKit","Chrome","138.0.0.0","Windows","10.0","https://app.prolific.com/","en-US,en;q=0.9","67dc19c31078d1581e39e75a","687a360dabe5252b5ada7185","6889da71e4e2eece9e52cfab","0","67dc19c31078d1581e39e75a","0","2025-07-30T08:59:40.818Z","","","","StressQ","","","","","","","","","","","50","","","","","","","","","","","","","","","","","","","","","","","","","","",""
"48332","","<div style=""width:500px;"">
  <p>What best describes how you currently feel?</p>
  </div>","100","html-slider-response","32","906983","0.0-7.0-4.3","47","1","2025-07-30 08:45:13","36c45c0696341be0efffe67d72a12abb","41.122.11.152","Mozilla/5.0 (Windows NT 10.0; Win64; x64) AppleWebKit/537.36 (KHTML, like Gecko) Chrome/138.0.0.0 Safari/537.36","WebKit","Chrome","138.0.0.0","Windows","10.0","https://app.prolific.com/","en-US,en;q=0.9","67dc19c31078d1581e39e75a","687a360dabe5252b5ada7185","6889da71e4e2eece9e52cfab","0","67dc19c31078d1581e39e75a","0","2025-07-30T09:00:29.186Z","","","","MotivationQ","","","","","","","","","","","50","","","","","","","","","","","","","","","","","","","","","","","","","","",""
"","","","","ctl-task-cpt","33","988566","0.0-7.0-0.4","47","1","2025-07-30 08:45:13","36c45c0696341be0efffe67d72a12abb","41.122.11.152","Mozilla/5.0 (Windows NT 10.0; Win64; x64) AppleWebKit/537.36 (KHTML, like Gecko) Chrome/138.0.0.0 Safari/537.36","WebKit","Chrome","138.0.0.0","Windows","10.0","https://app.prolific.com/","en-US,en;q=0.9","67dc19c31078d1581e39e75a","687a360dabe5252b5ada7185","6889da71e4e2eece9e52cfab","0","67dc19c31078d1581e39e75a","0","2025-07-30T09:01:50.769Z","","","","","","","","","","","","","","","","win-only","1","g1:NE,g2:SW","0.6","5","0","916541.3","27968.2","32980.5","78498.8","1","4","4","6","2","4","2","7","5","0.05303030303030303","5012.3","3000","850","[""down"",""left""]","{""num_key_presses"":9,""num_perfect"":5,""num_errors"":2,""num_randdir"":2,""num_randdir_good_moves"":1,""num_whilered"":0,""num_whileblue"":1,""num_blue"":6,""num_good_moves"":7}","[422.57142857142856,405.47767857142856,0.5,422.57142857142856,405.47767857142856,105.9,422.57142857142856,405.47767857142856,216.2,422.57142857142856,405.47767857142856,332.5,422.57142857142856,405.47767857142856,433.3,422.57142857142856,405.47767857142856,554,422.57142857142856,405.47767857142856,665.2,422.57142857142856,405.47767857142856,765.9,422.57142857142856,405.47767857142856,866.1,422.57142857142856,405.47767857142856,972.6,422.57142857142856,405.47767857142856,1073.7,422.57142857142856,405.47767857142856,1176.2,422.57142857142856,405.47767857142856,1283.8,422.57142857142856,405.47767857142856,1396.6,51.57142857142857,326.47767857142856,1499,51.57142857142857,326.47767857142856,1606.4,51.57142857142857,326.47767857142856,1710.9,51.57142857142857,326.47767857142856,1819.7,51.57142857142857,326.47767857142856,1925.9,51.57142857142857,326.47767857142856,2048.2,51.57142857142857,326.47767857142856,2162.7,51.57142857142857,326.47767857142856,2277.5,51.57142857142857,326.47767857142856,2397.4,51.57142857142857,326.47767857142856,2502.2,51.57142857142857,326.47767857142856,2607.1,51.57142857142857,326.47767857142856,2715.8,51.57142857142857,326.47767857142856,2833.8,51.57142857142857,326.47767857142856,2941,51.57142857142857,326.47767857142856,3061.5,51.57142857142857,326.47767857142856,3170.6,51.57142857142857,326.47767857142856,3277.5,51.57142857142857,326.47767857142856,3379.5,51.57142857142857,326.47767857142856,3485.9,51.57142857142857,326.47767857142856,3595.1,51.57142857142857,326.47767857142856,3716.2,51.57142857142857,326.47767857142856,3825.1,51.57142857142857,326.47767857142856,3936.4,51.57142857142857,326.47767857142856,4038.6,51.57142857142857,326.47767857142856,4150.9,51.57142857142857,326.47767857142856,4264.1,51.57142857142857,326.47767857142856,4372.6,51.57142857142857,326.47767857142856,4481.9,51.57142857142857,326.47767857142856,4584.2,51.57142857142857,326.47767857142856,4704,51.57142857142857,326.47767857142856,4806.4,51.57142857142857,326.47767857142856,4927.2]","[5043.9,5043.9,2589.9,2007.1,447,""smooth"",""down"",""down"",""good_move"",8323.3,3270.1,2857.9,5053.3,412.1,""oops"",""down"",""down"",""good_move"",11650,3326.4,2848.3,8323.6,478.1,""while_blue"",""down"",""down"",""good_move"",18093.3,6442.6,2421.4,14865.8,806.2,""smooth"",""left"",""left"",""good_move"",18420.9,325.6,2712.6,18095.3,-2387,""error"",""-"",""-"",""no_move"",22132.6,3708.4,1879.6,19430.8,822.2,""oops"",""left"",""right"",""bad_move"",26623.9,4486.2,2871.7,22137.7,1614.5,""smooth"",""left"",""left"",""good_move"",37943.6,11309.6,2684.9,33910.9,1347.9,""smooth"",""left"",""left"",""good_move"",45236.8,7288.6,2747.5,41871.8,617.5,""smooth"",""left"",""left"",""good_move""]"
"47173","","<div style=""width:500px;"">
  <p>What determined the result of this run?</p>
  </div>","89","html-slider-response","34","1035761","0.0-7.0-1.4","47","1","2025-07-30 08:45:13","36c45c0696341be0efffe67d72a12abb","41.122.11.152","Mozilla/5.0 (Windows NT 10.0; Win64; x64) AppleWebKit/537.36 (KHTML, like Gecko) Chrome/138.0.0.0 Safari/537.36","WebKit","Chrome","138.0.0.0","Windows","10.0","https://app.prolific.com/","en-US,en;q=0.9","67dc19c31078d1581e39e75a","687a360dabe5252b5ada7185","6889da71e4e2eece9e52cfab","0","67dc19c31078d1581e39e75a","0","2025-07-30T09:02:37.963Z","","","","AttribQ","","","","","","","","","","","50","","","","","","","","","","","","","","","","","","","","","","","","","","",""
"64876","","<div style=""width:500px;"">
  <p>How much control did you have over the ball?</p>
  </div>","86","html-slider-response","35","1100661","0.0-7.0-2.4","47","1","2025-07-30 08:45:13","36c45c0696341be0efffe67d72a12abb","41.122.11.152","Mozilla/5.0 (Windows NT 10.0; Win64; x64) AppleWebKit/537.36 (KHTML, like Gecko) Chrome/138.0.0.0 Safari/537.36","WebKit","Chrome","138.0.0.0","Windows","10.0","https://app.prolific.com/","en-US,en;q=0.9","67dc19c31078d1581e39e75a","687a360dabe5252b5ada7185","6889da71e4e2eece9e52cfab","0","67dc19c31078d1581e39e75a","0","2025-07-30T09:03:42.867Z","","","","ControlQ","","","","","","","","","","","50","","","","","","","","","","","","","","","","","","","","","","","","","","",""
"48296","","<div style=""width:500px;"">
  <p>How would you describe your current emotional state?</p>
  </div>","4","html-slider-response","36","1148979","0.0-7.0-3.4","47","1","2025-07-30 08:45:13","36c45c0696341be0efffe67d72a12abb","41.122.11.152","Mozilla/5.0 (Windows NT 10.0; Win64; x64) AppleWebKit/537.36 (KHTML, like Gecko) Chrome/138.0.0.0 Safari/537.36","WebKit","Chrome","138.0.0.0","Windows","10.0","https://app.prolific.com/","en-US,en;q=0.9","67dc19c31078d1581e39e75a","687a360dabe5252b5ada7185","6889da71e4e2eece9e52cfab","0","67dc19c31078d1581e39e75a","0","2025-07-30T09:04:31.182Z","","","","StressQ","","","","","","","","","","","50","","","","","","","","","","","","","","","","","","","","","","","","","","",""
"31259","","<div style=""width:500px;"">
  <p>What best describes how you currently feel?</p>
  </div>","94","html-slider-response","37","1180257","0.0-7.0-4.4","47","1","2025-07-30 08:45:13","36c45c0696341be0efffe67d72a12abb","41.122.11.152","Mozilla/5.0 (Windows NT 10.0; Win64; x64) AppleWebKit/537.36 (KHTML, like Gecko) Chrome/138.0.0.0 Safari/537.36","WebKit","Chrome","138.0.0.0","Windows","10.0","https://app.prolific.com/","en-US,en;q=0.9","67dc19c31078d1581e39e75a","687a360dabe5252b5ada7185","6889da71e4e2eece9e52cfab","0","67dc19c31078d1581e39e75a","0","2025-07-30T09:05:02.460Z","","","","MotivationQ","","","","","","","","","","","50","","","","","","","","","","","","","","","","","","","","","","","","","","",""
"","","","","ctl-task-cpt","38","1240304","0.0-7.0-0.5","47","1","2025-07-30 08:45:13","36c45c0696341be0efffe67d72a12abb","41.122.11.152","Mozilla/5.0 (Windows NT 10.0; Win64; x64) AppleWebKit/537.36 (KHTML, like Gecko) Chrome/138.0.0.0 Safari/537.36","WebKit","Chrome","138.0.0.0","Windows","10.0","https://app.prolific.com/","en-US,en;q=0.9","67dc19c31078d1581e39e75a","687a360dabe5252b5ada7185","6889da71e4e2eece9e52cfab","0","67dc19c31078d1581e39e75a","0","2025-07-30T09:06:02.506Z","","","","","","","","","","","","","","","","win-only","0","g1:NW,g2:SE","0.5","6","0","1189755.8","18384.1","23394.8","56997.7","1","4","8","6","2","8","8","15","7","0.11363636363636363","5010.7","3000","1590","[""down"",""right""]","{""num_key_presses"":8,""num_perfect"":4,""num_errors"":0,""num_randdir"":4,""num_randdir_good_moves"":3,""num_whilered"":0,""num_whileblue"":0,""num_blue"":3,""num_good_moves"":7}","[408.57142857142856,423.47767857142856,1.2,408.57142857142856,423.47767857142856,112.1,408.57142857142856,423.47767857142856,226.7,408.57142857142856,423.47767857142856,342.7,408.57142857142856,423.47767857142856,446.3,385.57142857142856,417.47767857142856,563.5,351.57142857142856,402.47767857142856,671.7,351.57142857142856,402.47767857142856,785,-247.42857142857144,367.47767857142856,903,-247.42857142857144,367.47767857142856,1012.5,-247.42857142857144,367.47767857142856,1135.5,-247.42857142857144,367.47767857142856,1243,-247.42857142857144,367.47767857142856,1344.3,-247.42857142857144,367.47767857142856,1455.9,-247.42857142857144,367.47767857142856,1564.8,-247.42857142857144,367.47767857142856,1676.3,-247.42857142857144,367.47767857142856,1785.7,-247.42857142857144,367.47767857142856,1893.8,-247.42857142857144,367.47767857142856,2021.8,-247.42857142857144,367.47767857142856,2125.5,-247.42857142857144,367.47767857142856,2418.3,-247.42857142857144,367.47767857142856,2529.5,-247.42857142857144,367.47767857142856,2643.1,-247.42857142857144,367.47767857142856,2754.8,-247.42857142857144,367.47767857142856,2861.3,-247.42857142857144,367.47767857142856,2976.1,-247.42857142857144,367.47767857142856,3087.8,-247.42857142857144,367.47767857142856,3197.7,-247.42857142857144,367.47767857142856,3301.7,-247.42857142857144,367.47767857142856,3410.7,-247.42857142857144,367.47767857142856,3511.3,-247.42857142857144,367.47767857142856,3611.7,-247.42857142857144,367.47767857142856,3712.8,-247.42857142857144,367.47767857142856,3819.2,-247.42857142857144,367.47767857142856,3920.9,-247.42857142857144,367.47767857142856,4039.3,-247.42857142857144,367.47767857142856,4151.7,-247.42857142857144,367.47767857142856,4263.4,-247.42857142857144,367.47767857142856,4376.8,-247.42857142857144,367.47767857142856,4482.1,-247.42857142857144,367.47767857142856,4582.1,-247.42857142857144,367.47767857142856,4697.4,-247.42857142857144,367.47767857142856,4803.4,-247.42857142857144,367.47767857142856,4905.3]","[2053.5,2053.5,1000,0,1053.5,""smooth"",""right"",""right"",""good_move"",5577.2,3519,3003.3,2058.3,515.7,""oops"",""right"",""up"",""bad_move"",8689.5,3111,2678.4,5578.5,432.7,""smooth"",""right"",""right"",""good_move"",14062.8,5373.2,2142.6,11464.3,457,""oops"",""right"",""right"",""good_move"",17259.6,3194.1,2727.2,14065.5,466.9,""smooth"",""down"",""down"",""good_move"",26803.4,9542.1,1694.7,24645.4,463.4,""oops"",""down"",""down"",""good_move"",30103.2,3292,2719.7,26811.3,572.2,""smooth"",""down"",""down"",""good_move"",33308.9,3203.1,2726.6,30105.8,476.5,""oops"",""down"",""down"",""good_move""]"
"11195","","<div style=""width:500px;"">
  <p>What determined the result of this run?</p>
  </div>","96","html-slider-response","39","1251522","0.0-7.0-1.5","47","1","2025-07-30 08:45:13","36c45c0696341be0efffe67d72a12abb","41.122.11.152","Mozilla/5.0 (Windows NT 10.0; Win64; x64) AppleWebKit/537.36 (KHTML, like Gecko) Chrome/138.0.0.0 Safari/537.36","WebKit","Chrome","138.0.0.0","Windows","10.0","https://app.prolific.com/","en-US,en;q=0.9","67dc19c31078d1581e39e75a","687a360dabe5252b5ada7185","6889da71e4e2eece9e52cfab","0","67dc19c31078d1581e39e75a","0","2025-07-30T09:06:13.725Z","","","","AttribQ","","","","","","","","","","","50","","","","","","","","","","","","","","","","","","","","","","","","","","",""
"5349","","<div style=""width:500px;"">
  <p>How much control did you have over the ball?</p>
  </div>","96","html-slider-response","40","1256898","0.0-7.0-2.5","47","1","2025-07-30 08:45:13","36c45c0696341be0efffe67d72a12abb","41.122.11.152","Mozilla/5.0 (Windows NT 10.0; Win64; x64) AppleWebKit/537.36 (KHTML, like Gecko) Chrome/138.0.0.0 Safari/537.36","WebKit","Chrome","138.0.0.0","Windows","10.0","https://app.prolific.com/","en-US,en;q=0.9","67dc19c31078d1581e39e75a","687a360dabe5252b5ada7185","6889da71e4e2eece9e52cfab","0","67dc19c31078d1581e39e75a","0","2025-07-30T09:06:19.102Z","","","","ControlQ","","","","","","","","","","","50","","","","","","","","","","","","","","","","","","","","","","","","","","",""
"3894","","<div style=""width:500px;"">
  <p>How would you describe your current emotional state?</p>
  </div>","2","html-slider-response","41","1260823","0.0-7.0-3.5","47","1","2025-07-30 08:45:13","36c45c0696341be0efffe67d72a12abb","41.122.11.152","Mozilla/5.0 (Windows NT 10.0; Win64; x64) AppleWebKit/537.36 (KHTML, like Gecko) Chrome/138.0.0.0 Safari/537.36","WebKit","Chrome","138.0.0.0","Windows","10.0","https://app.prolific.com/","en-US,en;q=0.9","67dc19c31078d1581e39e75a","687a360dabe5252b5ada7185","6889da71e4e2eece9e52cfab","0","67dc19c31078d1581e39e75a","0","2025-07-30T09:06:23.026Z","","","","StressQ","","","","","","","","","","","50","","","","","","","","","","","","","","","","","","","","","","","","","","",""
"6868","","<div style=""width:500px;"">
  <p>What best describes how you currently feel?</p>
  </div>","90","html-slider-response","42","1267717","0.0-7.0-4.5","47","1","2025-07-30 08:45:13","36c45c0696341be0efffe67d72a12abb","41.122.11.152","Mozilla/5.0 (Windows NT 10.0; Win64; x64) AppleWebKit/537.36 (KHTML, like Gecko) Chrome/138.0.0.0 Safari/537.36","WebKit","Chrome","138.0.0.0","Windows","10.0","https://app.prolific.com/","en-US,en;q=0.9","67dc19c31078d1581e39e75a","687a360dabe5252b5ada7185","6889da71e4e2eece9e52cfab","0","67dc19c31078d1581e39e75a","0","2025-07-30T09:06:29.919Z","","","","MotivationQ","","","","","","","","","","","50","","","","","","","","","","","","","","","","","","","","","","","","","","",""
"","","","","ctl-task-cpt","43","1329120","0.0-7.0-0.6","47","1","2025-07-30 08:45:13","36c45c0696341be0efffe67d72a12abb","41.122.11.152","Mozilla/5.0 (Windows NT 10.0; Win64; x64) AppleWebKit/537.36 (KHTML, like Gecko) Chrome/138.0.0.0 Safari/537.36","WebKit","Chrome","138.0.0.0","Windows","10.0","https://app.prolific.com/","en-US,en;q=0.9","67dc19c31078d1581e39e75a","687a360dabe5252b5ada7185","6889da71e4e2eece9e52cfab","0","67dc19c31078d1581e39e75a","0","2025-07-30T09:07:31.323Z","","","","","","","","","","","","","","","","win-only","0","g1:NW,g2:SE","0.4","7","0","1277242.2","2958.5","7969","58341.9","1","4","4","6","1","-1","-1","14","15","0.10606060606060606","5010.5","3000","-855","[""left"",""up""]","{""num_key_presses"":9,""num_perfect"":3,""num_errors"":0,""num_randdir"":6,""num_randdir_good_moves"":2,""num_whilered"":0,""num_whileblue"":0,""num_blue"":3,""num_good_moves"":5}","[411.57142857142856,416.47767857142856,0.8,411.57142857142856,416.47767857142856,105.3,411.57142857142856,416.47767857142856,238.5,411.57142857142856,416.47767857142856,343.3,405.57142857142856,415.47767857142856,470.8,379.57142857142856,410.47767857142856,575.2,363.57142857142856,406.47767857142856,688.2,12.57142857142857,416.47767857142856,792.5,5.571428571428569,417.47767857142856,904.5,5.571428571428569,417.47767857142856,1005,5.571428571428569,417.47767857142856,1110.4,5.571428571428569,417.47767857142856,1212.8,-128.42857142857144,371.47767857142856,1317.5,-128.42857142857144,371.47767857142856,1429.2,-128.42857142857144,371.47767857142856,1542,-128.42857142857144,371.47767857142856,1649.4,-128.42857142857144,371.47767857142856,1772,-128.42857142857144,371.47767857142856,1874.7,-128.42857142857144,371.47767857142856,1982.3,-128.42857142857144,371.47767857142856,2086.4,-128.42857142857144,371.47767857142856,2187.9,-128.42857142857144,371.47767857142856,2295.2,-128.42857142857144,371.47767857142856,2402.5,-128.42857142857144,371.47767857142856,2516,-128.42857142857144,371.47767857142856,2623.6,-128.42857142857144,371.47767857142856,2725.7,-128.42857142857144,371.47767857142856,2826.7,-128.42857142857144,371.47767857142856,2943.5,-128.42857142857144,371.47767857142856,3051.8,-128.42857142857144,371.47767857142856,3261.8,-128.42857142857144,371.47767857142856,3361.9,-128.42857142857144,371.47767857142856,3486.2,-128.42857142857144,371.47767857142856,3591,-128.42857142857144,371.47767857142856,3700.9,-128.42857142857144,371.47767857142856,3813.4,-128.42857142857144,371.47767857142856,3933,-128.42857142857144,371.47767857142856,4058.9,-128.42857142857144,371.47767857142856,4175.6,-128.42857142857144,371.47767857142856,4290,-128.42857142857144,371.47767857142856,4392.8,-128.42857142857144,371.47767857142856,4502.7,-128.42857142857144,371.47767857142856,4604.6,-128.42857142857144,371.47767857142856,4711.9,-128.42857142857144,371.47767857142856,4828.8,-128.42857142857144,371.47767857142856,4940.6]","[10673.1,10678,3259.3,2018.3,5400.4,""oops"",""left"",""right"",""bad_move"",13584.7,2903.8,2261.9,10680.9,641.9,""oops"",""left"",""down"",""bad_move"",16972.7,3384.3,2841,13588.4,543.3,""oops"",""left"",""right"",""bad_move"",20105.8,3130.5,2586.4,16975.3,544.1,""smooth"",""left"",""left"",""good_move"",24017.2,3909.6,2492.7,20107.6,1416.9,""oops"",""left"",""up"",""good_move"",32759.1,8740.5,3606.9,28482.9,669.3,""smooth"",""left"",""left"",""good_move"",36161.3,3401.6,2556,32759.7,845.6,""oops"",""left"",""down"",""bad_move"",38933.3,2771.7,2184.1,36161.6,587.6,""oops"",""left"",""left"",""good_move"",46650,7716.3,3216.4,42838.2,595.4,""smooth"",""left"",""left"",""good_move""]"
"6799","","<div style=""width:500px;"">
  <p>What determined the result of this run?</p>
  </div>","20","html-slider-response","44","1335935","0.0-7.0-1.6","47","1","2025-07-30 08:45:13","36c45c0696341be0efffe67d72a12abb","41.122.11.152","Mozilla/5.0 (Windows NT 10.0; Win64; x64) AppleWebKit/537.36 (KHTML, like Gecko) Chrome/138.0.0.0 Safari/537.36","WebKit","Chrome","138.0.0.0","Windows","10.0","https://app.prolific.com/","en-US,en;q=0.9","67dc19c31078d1581e39e75a","687a360dabe5252b5ada7185","6889da71e4e2eece9e52cfab","0","67dc19c31078d1581e39e75a","0","2025-07-30T09:07:38.138Z","","","","AttribQ","","","","","","","","","","","50","","","","","","","","","","","","","","","","","","","","","","","","","","",""
"10054","","<div style=""width:500px;"">
  <p>How much control did you have over the ball?</p>
  </div>","2","html-slider-response","45","1346002","0.0-7.0-2.6","47","1","2025-07-30 08:45:13","36c45c0696341be0efffe67d72a12abb","41.122.11.152","Mozilla/5.0 (Windows NT 10.0; Win64; x64) AppleWebKit/537.36 (KHTML, like Gecko) Chrome/138.0.0.0 Safari/537.36","WebKit","Chrome","138.0.0.0","Windows","10.0","https://app.prolific.com/","en-US,en;q=0.9","67dc19c31078d1581e39e75a","687a360dabe5252b5ada7185","6889da71e4e2eece9e52cfab","0","67dc19c31078d1581e39e75a","0","2025-07-30T09:07:48.209Z","","","","ControlQ","","","","","","","","","","","50","","","","","","","","","","","","","","","","","","","","","","","","","","",""
"5101","","<div style=""width:500px;"">
  <p>How would you describe your current emotional state?</p>
  </div>","30","html-slider-response","46","1351163","0.0-7.0-3.6","47","1","2025-07-30 08:45:13","36c45c0696341be0efffe67d72a12abb","41.122.11.152","Mozilla/5.0 (Windows NT 10.0; Win64; x64) AppleWebKit/537.36 (KHTML, like Gecko) Chrome/138.0.0.0 Safari/537.36","WebKit","Chrome","138.0.0.0","Windows","10.0","https://app.prolific.com/","en-US,en;q=0.9","67dc19c31078d1581e39e75a","687a360dabe5252b5ada7185","6889da71e4e2eece9e52cfab","0","67dc19c31078d1581e39e75a","0","2025-07-30T09:07:53.366Z","","","","StressQ","","","","","","","","","","","50","","","","","","","","","","","","","","","","","","","","","","","","","","",""
"7855","","<div style=""width:500px;"">
  <p>What best describes how you currently feel?</p>
  </div>","88","html-slider-response","47","1359049","0.0-7.0-4.6","47","1","2025-07-30 08:45:13","36c45c0696341be0efffe67d72a12abb","41.122.11.152","Mozilla/5.0 (Windows NT 10.0; Win64; x64) AppleWebKit/537.36 (KHTML, like Gecko) Chrome/138.0.0.0 Safari/537.36","WebKit","Chrome","138.0.0.0","Windows","10.0","https://app.prolific.com/","en-US,en;q=0.9","67dc19c31078d1581e39e75a","687a360dabe5252b5ada7185","6889da71e4e2eece9e52cfab","0","67dc19c31078d1581e39e75a","0","2025-07-30T09:08:01.254Z","","","","MotivationQ","","","","","","","","","","","50","","","","","","","","","","","","","","","","","","","","","","","","","","",""
"","","","","ctl-task-cpt","48","1433412","0.0-7.0-0.7","47","1","2025-07-30 08:45:13","36c45c0696341be0efffe67d72a12abb","41.122.11.152","Mozilla/5.0 (Windows NT 10.0; Win64; x64) AppleWebKit/537.36 (KHTML, like Gecko) Chrome/138.0.0.0 Safari/537.36","WebKit","Chrome","138.0.0.0","Windows","10.0","https://app.prolific.com/","en-US,en;q=0.9","67dc19c31078d1581e39e75a","687a360dabe5252b5ada7185","6889da71e4e2eece9e52cfab","0","67dc19c31078d1581e39e75a","0","2025-07-30T09:09:15.614Z","","","","","","","","","","","","","","","","win-only","0","g1:NW,g2:SE","0.3","8","0","1368554.5","2920.6","7937.6","71307.4","1","4","8","6","1","-1","-4","10","14","0.07575757575757576","5017","3000","-860","[""left"",""up""]","{""num_key_presses"":17,""num_perfect"":5,""num_errors"":3,""num_randdir"":9,""num_randdir_good_moves"":3,""num_whilered"":0,""num_whileblue"":2,""num_blue"":3,""num_good_moves"":8}","[411.57142857142856,418.47767857142856,0.6,411.57142857142856,418.47767857142856,107,411.57142857142856,418.47767857142856,211.1,411.57142857142856,418.47767857142856,323.7,411.57142857142856,418.47767857142856,425.7,389.57142857142856,403.47767857142856,538,354.57142857142856,383.47767857142856,644.5,354.57142857142856,383.47767857142856,763.8,354.57142857142856,383.47767857142856,870,354.57142857142856,383.47767857142856,982,354.57142857142856,383.47767857142856,1082.4,354.57142857142856,383.47767857142856,1185.4,354.57142857142856,383.47767857142856,1285.6,354.57142857142856,383.47767857142856,1391.9,354.57142857142856,383.47767857142856,1520.7,354.57142857142856,383.47767857142856,1639.2,354.57142857142856,383.47767857142856,1759.9,354.57142857142856,383.47767857142856,1867.6,354.57142857142856,383.47767857142856,1971.9,354.57142857142856,383.47767857142856,2076.1,354.57142857142856,383.47767857142856,2196.2,354.57142857142856,383.47767857142856,2297.5,354.57142857142856,383.47767857142856,2404,354.57142857142856,383.47767857142856,2505,354.57142857142856,383.47767857142856,2609.3,354.57142857142856,383.47767857142856,2721.3,354.57142857142856,383.47767857142856,2904.9,354.57142857142856,383.47767857142856,3010.6,354.57142857142856,383.47767857142856,3111.8,354.57142857142856,383.47767857142856,3219.9,354.57142857142856,383.47767857142856,3334.3,354.57142857142856,383.47767857142856,3444.4,354.57142857142856,383.47767857142856,3546.1,354.57142857142856,383.47767857142856,3668.8,354.57142857142856,383.47767857142856,3775,354.57142857142856,383.47767857142856,3877.4,354.57142857142856,383.47767857142856,3986.3,354.57142857142856,383.47767857142856,4088.9,354.57142857142856,383.47767857142856,4194.9,354.57142857142856,383.47767857142856,4295.5,354.57142857142856,383.47767857142856,4397,354.57142857142856,383.47767857142856,4498.3,354.57142857142856,383.47767857142856,4607.3,354.57142857142856,383.47767857142856,4710.1,354.57142857142856,383.47767857142856,4815.1,354.57142857142856,383.47767857142856,4933.2]","[3898.3,3898.3,1000,0,2898.4,""oops"",""left"",""right"",""bad_move"",6978.1,3075.2,2471.9,3903,603.3,""smooth"",""left"",""left"",""good_move"",10740.6,3761.7,1946.2,6978.9,1815.5,""smooth"",""left"",""left"",""good_move"",14598.9,3857.5,1907.7,10742.1,1949.7,""smooth"",""left"",""left"",""good_move"",18725.7,4124.5,2919.5,14601.4,1204.8,""oops"",""up"",""down"",""bad_move"",21368,2641.1,1911.6,18726.9,729.5,""oops"",""up"",""down"",""bad_move"",24807.5,3437.9,2808.1,21369.7,629.8,""oops"",""up"",""down"",""bad_move"",28161.8,3352.9,2759.2,24808.9,593.7,""oops"",""up"",""left"",""good_move"",32194,4029.8,2487.6,28164.5,1542,""oops"",""right"",""up"",""good_move"",35682.2,3485.2,2054.8,32197.1,1430.3,""oops"",""right"",""down"",""bad_move"",39048.1,3362.8,2813.1,35685.3,549.7,""oops"",""right"",""right"",""bad_move"",41531.1,2476.9,1877.4,39054.3,599.4,""while_blue"",""up"",""right"",""bad_move"",47916.6,6379.8,2209.5,45053.2,654,""smooth"",""up"",""up"",""good_move"",52151.2,4232.4,3534.8,47918.8,697.6,""while_blue"",""up"",""down"",""bad_move"",54883.7,2729.3,2054.1,52154.5,675.1,""smooth"",""up"",""up"",""good_move"",59371,4486.3,2674.6,54884.7,1811.7,""oops"",""up"",""up"",""good_move"",59665.4,287.6,2614.9,59377.8,-2327.3,""error"",""-"",""-"",""no_move""]"
"5495","","<div style=""width:500px;"">
  <p>What determined the result of this run?</p>
  </div>","2","html-slider-response","49","1438925","0.0-7.0-1.7","47","1","2025-07-30 08:45:13","36c45c0696341be0efffe67d72a12abb","41.122.11.152","Mozilla/5.0 (Windows NT 10.0; Win64; x64) AppleWebKit/537.36 (KHTML, like Gecko) Chrome/138.0.0.0 Safari/537.36","WebKit","Chrome","138.0.0.0","Windows","10.0","https://app.prolific.com/","en-US,en;q=0.9","67dc19c31078d1581e39e75a","687a360dabe5252b5ada7185","6889da71e4e2eece9e52cfab","0","67dc19c31078d1581e39e75a","0","2025-07-30T09:09:21.128Z","","","","AttribQ","","","","","","","","","","","50","","","","","","","","","","","","","","","","","","","","","","","","","","",""
"4649","","<div style=""width:500px;"">
  <p>How much control did you have over the ball?</p>
  </div>","2","html-slider-response","50","1443592","0.0-7.0-2.7","47","1","2025-07-30 08:45:13","36c45c0696341be0efffe67d72a12abb","41.122.11.152","Mozilla/5.0 (Windows NT 10.0; Win64; x64) AppleWebKit/537.36 (KHTML, like Gecko) Chrome/138.0.0.0 Safari/537.36","WebKit","Chrome","138.0.0.0","Windows","10.0","https://app.prolific.com/","en-US,en;q=0.9","67dc19c31078d1581e39e75a","687a360dabe5252b5ada7185","6889da71e4e2eece9e52cfab","0","67dc19c31078d1581e39e75a","0","2025-07-30T09:09:25.796Z","","","","ControlQ","","","","","","","","","","","50","","","","","","","","","","","","","","","","","","","","","","","","","","",""
"13389","","<div style=""width:500px;"">
  <p>How would you describe your current emotional state?</p>
  </div>","64","html-slider-response","51","1457015","0.0-7.0-3.7","47","1","2025-07-30 08:45:13","36c45c0696341be0efffe67d72a12abb","41.122.11.152","Mozilla/5.0 (Windows NT 10.0; Win64; x64) AppleWebKit/537.36 (KHTML, like Gecko) Chrome/138.0.0.0 Safari/537.36","WebKit","Chrome","138.0.0.0","Windows","10.0","https://app.prolific.com/","en-US,en;q=0.9","67dc19c31078d1581e39e75a","687a360dabe5252b5ada7185","6889da71e4e2eece9e52cfab","0","67dc19c31078d1581e39e75a","0","2025-07-30T09:09:39.218Z","","","","StressQ","","","","","","","","","","","50","","","","","","","","","","","","","","","","","","","","","","","","","","",""
"23846","","<div style=""width:500px;"">
  <p>What best describes how you currently feel?</p>
  </div>","87","html-slider-response","52","1480900","0.0-7.0-4.7","47","1","2025-07-30 08:45:13","36c45c0696341be0efffe67d72a12abb","41.122.11.152","Mozilla/5.0 (Windows NT 10.0; Win64; x64) AppleWebKit/537.36 (KHTML, like Gecko) Chrome/138.0.0.0 Safari/537.36","WebKit","Chrome","138.0.0.0","Windows","10.0","https://app.prolific.com/","en-US,en;q=0.9","67dc19c31078d1581e39e75a","687a360dabe5252b5ada7185","6889da71e4e2eece9e52cfab","0","67dc19c31078d1581e39e75a","0","2025-07-30T09:10:03.103Z","","","","MotivationQ","","","","","","","","","","","50","","","","","","","","","","","","","","","","","","","","","","","","","","",""
"","","","","ctl-task-cpt","53","1544034","0.0-7.0-0.8","47","1","2025-07-30 08:45:13","36c45c0696341be0efffe67d72a12abb","41.122.11.152","Mozilla/5.0 (Windows NT 10.0; Win64; x64) AppleWebKit/537.36 (KHTML, like Gecko) Chrome/138.0.0.0 Safari/537.36","WebKit","Chrome","138.0.0.0","Windows","10.0","https://app.prolific.com/","en-US,en;q=0.9","67dc19c31078d1581e39e75a","687a360dabe5252b5ada7185","6889da71e4e2eece9e52cfab","0","67dc19c31078d1581e39e75a","0","2025-07-30T09:11:06.236Z","","","","","","","","","","","","","","","","win-only","3","g1:SW,g2:NE","0.4","9","0","1490405.4","15556.3","20579.9","60083.2","1","4","8","6","1","1","1","11","10","0.08333333333333333","5023.5","3000","1065","[""down"",""left""]","{""num_key_presses"":8,""num_perfect"":3,""num_errors"":0,""num_randdir"":5,""num_randdir_good_moves"":3,""num_whilered"":0,""num_whileblue"":0,""num_blue"":2,""num_good_moves"":6}","[419.57142857142856,417.47767857142856,0.4,419.57142857142856,417.47767857142856,105.1,419.57142857142856,417.47767857142856,229,419.57142857142856,417.47767857142856,347.1,419.57142857142856,417.47767857142856,447.9,419.57142857142856,417.47767857142856,576.4,320.57142857142856,421.47767857142856,682.3,-3.4285714285714306,487.47767857142856,797.3,-11.42857142857143,482.47767857142856,906.1,-11.42857142857143,482.47767857142856,1026.8,-12.42857142857143,480.47767857142856,1133.7,-51.42857142857143,437.47767857142856,1245.7,-63.42857142857143,427.47767857142856,1365.3,-63.42857142857143,427.47767857142856,1477.7,-63.42857142857143,427.47767857142856,1591.4,-63.42857142857143,427.47767857142856,1696.8,-63.42857142857143,427.47767857142856,1806.9,-63.42857142857143,427.47767857142856,1916.3,-63.42857142857143,427.47767857142856,2032.5,-63.42857142857143,427.47767857142856,2141.9,-63.42857142857143,427.47767857142856,2257.4,-63.42857142857143,427.47767857142856,2378.3,-63.42857142857143,427.47767857142856,2488.9,-63.42857142857143,427.47767857142856,2593.2,-63.42857142857143,427.47767857142856,2715.7,-63.42857142857143,427.47767857142856,2834.4,-63.42857142857143,427.47767857142856,2934.7,-63.42857142857143,427.47767857142856,3057.2,-63.42857142857143,427.47767857142856,3160.4,-63.42857142857143,427.47767857142856,3276.1,-63.42857142857143,427.47767857142856,3395.6,-63.42857142857143,427.47767857142856,3511,-63.42857142857143,427.47767857142856,3616.3,-63.42857142857143,427.47767857142856,3733.9,-63.42857142857143,427.47767857142856,3857.8,-63.42857142857143,427.47767857142856,3960.6,-63.42857142857143,427.47767857142856,4075.2,-63.42857142857143,427.47767857142856,4193.5,-63.42857142857143,427.47767857142856,4316.3,-63.42857142857143,427.47767857142856,4443.1,-63.42857142857143,427.47767857142856,4554.8,-63.42857142857143,427.47767857142856,4659.2,-63.42857142857143,427.47767857142856,4790.6,-63.42857142857143,427.47767857142856,4896.9]","[2020.3,2020.3,1000,0,1020.3,""oops"",""down"",""up"",""bad_move"",6361,4339,2620.2,2022,1718.8,""smooth"",""down"",""down"",""good_move"",9354.7,2990.2,2348.5,6364.5,641.7,""oops"",""down"",""down"",""good_move"",12521.5,3166.5,2633.7,9355,532.9,""smooth"",""down"",""down"",""good_move"",18144.1,5621.7,2414.8,12522.4,3206.9,""oops"",""left"",""up"",""bad_move"",30757,12608.4,3228,26585.5,943.5,""smooth"",""left"",""left"",""good_move"",35225.4,4467.1,3145.2,30758.3,1321.9,""oops"",""left"",""left"",""good_move"",39159.1,3932.6,3053.4,35226.5,879.3,""oops"",""down"",""down"",""good_move""]"
"369232","","<div style=""width:500px;"">
  <p>What determined the result of this run?</p>
  </div>","87","html-slider-response","54","1913269","0.0-7.0-1.8","47","1","2025-07-30 08:45:13","36c45c0696341be0efffe67d72a12abb","41.122.11.152","Mozilla/5.0 (Windows NT 10.0; Win64; x64) AppleWebKit/537.36 (KHTML, like Gecko) Chrome/138.0.0.0 Safari/537.36","WebKit","Chrome","138.0.0.0","Windows","10.0","https://app.prolific.com/","en-US,en;q=0.9","67dc19c31078d1581e39e75a","687a360dabe5252b5ada7185","6889da71e4e2eece9e52cfab","0","67dc19c31078d1581e39e75a","0","2025-07-30T09:17:15.472Z","","","","AttribQ","","","","","","","","","","","50","","","","","","","","","","","","","","","","","","","","","","","","","","",""
"50452","","<div style=""width:500px;"">
  <p>How much control did you have over the ball?</p>
  </div>","90","html-slider-response","55","1963727","0.0-7.0-2.8","47","1","2025-07-30 08:45:13","36c45c0696341be0efffe67d72a12abb","41.122.11.152","Mozilla/5.0 (Windows NT 10.0; Win64; x64) AppleWebKit/537.36 (KHTML, like Gecko) Chrome/138.0.0.0 Safari/537.36","WebKit","Chrome","138.0.0.0","Windows","10.0","https://app.prolific.com/","en-US,en;q=0.9","67dc19c31078d1581e39e75a","687a360dabe5252b5ada7185","6889da71e4e2eece9e52cfab","0","67dc19c31078d1581e39e75a","0","2025-07-30T09:18:05.929Z","","","","ControlQ","","","","","","","","","","","50","","","","","","","","","","","","","","","","","","","","","","","","","","",""
"41014","","<div style=""width:500px;"">
  <p>How would you describe your current emotional state?</p>
  </div>","83","html-slider-response","56","2004751","0.0-7.0-3.8","47","1","2025-07-30 08:45:13","36c45c0696341be0efffe67d72a12abb","41.122.11.152","Mozilla/5.0 (Windows NT 10.0; Win64; x64) AppleWebKit/537.36 (KHTML, like Gecko) Chrome/138.0.0.0 Safari/537.36","WebKit","Chrome","138.0.0.0","Windows","10.0","https://app.prolific.com/","en-US,en;q=0.9","67dc19c31078d1581e39e75a","687a360dabe5252b5ada7185","6889da71e4e2eece9e52cfab","0","67dc19c31078d1581e39e75a","0","2025-07-30T09:18:46.954Z","","","","StressQ","","","","","","","","","","","50","","","","","","","","","","","","","","","","","","","","","","","","","","",""
"1584905","","<div style=""width:500px;"">
  <p>What best describes how you currently feel?</p>
  </div>","94","html-slider-response","57","3589986","0.0-7.0-4.8","47","1","2025-07-30 08:45:13","36c45c0696341be0efffe67d72a12abb","41.122.11.152","Mozilla/5.0 (Windows NT 10.0; Win64; x64) AppleWebKit/537.36 (KHTML, like Gecko) Chrome/138.0.0.0 Safari/537.36","WebKit","Chrome","138.0.0.0","Windows","10.0","https://app.prolific.com/","en-US,en;q=0.9","67dc19c31078d1581e39e75a","687a360dabe5252b5ada7185","6889da71e4e2eece9e52cfab","0","67dc19c31078d1581e39e75a","0","2025-07-30T09:45:12.189Z","","","","MotivationQ","","","","","","","","","","","50","","","","","","","","","","","","","","","","","","","","","","","","","","",""
"","","","","ctl-task-cpt","58","3769460","0.0-7.0-0.9","47","1","2025-07-30 08:45:13","36c45c0696341be0efffe67d72a12abb","41.122.11.152","Mozilla/5.0 (Windows NT 10.0; Win64; x64) AppleWebKit/537.36 (KHTML, like Gecko) Chrome/138.0.0.0 Safari/537.36","WebKit","Chrome","138.0.0.0","Windows","10.0","https://app.prolific.com/","en-US,en;q=0.9","67dc19c31078d1581e39e75a","687a360dabe5252b5ada7185","6889da71e4e2eece9e52cfab","0","67dc19c31078d1581e39e75a","0","2025-07-30T09:48:11.662Z","","","","","","","","","","","","","","","","win-only","1","g1:NE,g2:SW","0.5","10","0","3600166.1","55445.6","60461.8","175716","1","4","4","6","2","-4","-6","5","11","0.03787878787878788","5016.2","3000","-725","[""down"",""left""]","{""num_key_presses"":26,""num_perfect"":13,""num_errors"":2,""num_randdir"":11,""num_randdir_good_moves"":2,""num_whilered"":0,""num_whileblue"":2,""num_blue"":5,""num_good_moves"":15}","[373.57946428571427,363.98571428571427,0.8,373.57946428571427,363.98571428571427,108.4,373.57946428571427,363.98571428571427,213.4,373.57946428571427,363.98571428571427,320.8,373.57946428571427,363.98571428571427,433,182.57946428571427,321.98571428571427,540.9,-288.42053571428573,316.98571428571427,663.6,-281.42053571428573,318.98571428571427,780.2,-281.42053571428573,312.98571428571427,886.1,-286.42053571428573,298.98571428571427,994.6,-286.42053571428573,298.98571428571427,1095.2,-286.42053571428573,298.98571428571427,1199,-286.42053571428573,298.98571428571427,1305,-286.42053571428573,298.98571428571427,1406.2,-286.42053571428573,298.98571428571427,1581.6,-286.42053571428573,298.98571428571427,1702.3,-286.42053571428573,298.98571428571427,1827.3,-286.42053571428573,298.98571428571427,1932.4,-286.42053571428573,298.98571428571427,2052.7,-286.42053571428573,298.98571428571427,2164.2,-286.42053571428573,298.98571428571427,2267.1,-286.42053571428573,298.98571428571427,2369.2,-286.42053571428573,298.98571428571427,2488.1,-286.42053571428573,298.98571428571427,2596.6,-286.42053571428573,298.98571428571427,2712,-286.42053571428573,298.98571428571427,2827.9,-286.42053571428573,298.98571428571427,2951.1,-286.42053571428573,298.98571428571427,3065.8,-286.42053571428573,298.98571428571427,3183.6,-286.42053571428573,298.98571428571427,3298.9,-286.42053571428573,298.98571428571427,3409.8,-286.42053571428573,298.98571428571427,3529.5,-286.42053571428573,298.98571428571427,3633.9,-286.42053571428573,298.98571428571427,3780,-286.42053571428573,298.98571428571427,3896.3,-286.42053571428573,298.98571428571427,4012.5,-286.42053571428573,298.98571428571427,4122.2,-286.42053571428573,298.98571428571427,4236.5,-286.42053571428573,298.98571428571427,4339.2,-286.42053571428573,298.98571428571427,4453.9,-286.42053571428573,298.98571428571427,4559.6,-286.42053571428573,298.98571428571427,4679.6,-286.42053571428573,298.98571428571427,4799.8,-286.42053571428573,298.98571428571427,4924.7]","[2088.6,2088.7,1000,0,1088.7,""oops"",""down"",""up"",""bad_move"",7389.3,5277.8,2339.8,2111.6,2937.9,""oops"",""down"",""right"",""bad_move"",11544.6,4152.4,3719.1,7392.2,433.3,""smooth"",""down"",""down"",""good_move"",14311,2764.7,2295.1,11546.3,469.6,""oops"",""down"",""right"",""bad_move"",17159.7,2846.8,2332.8,14312.9,514,""smooth"",""down"",""down"",""good_move"",20118.2,2956.6,2564.6,17161.7,392,""smooth"",""down"",""down"",""good_move"",23349.2,3218.5,2865.3,20130.7,353.2,""smooth"",""down"",""down"",""good_move"",26475.6,3124.7,2333.9,23351.1,790.8,""smooth"",""left"",""left"",""good_move"",31201.8,4722.9,2917.1,26479,1805.7,""oops"",""left"",""right"",""bad_move"",34620.2,3416.6,2622.2,31203.6,794.4,""oops"",""left"",""left"",""good_move"",42464.2,7842.2,1567.3,40150.2,746.7,""smooth"",""left"",""left"",""good_move"",47142.5,4675.7,2992.6,42466.9,1683,""oops"",""left"",""right"",""bad_move"",50477.4,3332.1,2534,47145.3,798.1,""smooth"",""left"",""left"",""good_move"",55067.1,4588.6,2017.8,50478.6,2570.7,""oops"",""left"",""right"",""bad_move"",58103.4,3033.2,2309.5,55070.2,723.8,""while_blue"",""left"",""right"",""bad_move"",63764,5652.9,2272.9,60905.4,585.7,""oops"",""left"",""up"",""bad_move"",68928.1,5163,3066.7,63765.1,2096.3,""oops"",""left"",""up"",""bad_move"",73793.7,4864.5,4370.2,68929.3,494.2,""while_blue"",""left"",""up"",""bad_move"",78362.3,4567.8,1876.4,73794.5,2691.4,""smooth"",""left"",""left"",""good_move"",82972.2,4608.7,2013.9,78363.5,2594.9,""oops"",""left"",""left"",""good_move"",87688.1,4710.2,2486.7,82977.9,2223.5,""smooth"",""left"",""left"",""good_move"",92339.3,4646.9,2661.7,87692.4,1985.2,""smooth"",""left"",""left"",""good_move"",97376.4,5033.1,2559.5,92343.3,2473.6,""smooth"",""left"",""left"",""good_move"",102330.5,4951.8,2644.5,97378.7,2307.3,""smooth"",""down"",""down"",""good_move"",105299.1,2968.1,2511.9,102331,456.2,""oops"",""down"",""up"",""bad_move"",109599.2,4298.5,2291.8,105300.7,2006.7,""smooth"",""down"",""down"",""good_move""]"
"98226","","<div style=""width:500px;"">
  <p>What determined the result of this run?</p>
  </div>","27","html-slider-response","59","3867707","0.0-7.0-1.9","47","1","2025-07-30 08:45:13","36c45c0696341be0efffe67d72a12abb","41.122.11.152","Mozilla/5.0 (Windows NT 10.0; Win64; x64) AppleWebKit/537.36 (KHTML, like Gecko) Chrome/138.0.0.0 Safari/537.36","WebKit","Chrome","138.0.0.0","Windows","10.0","https://app.prolific.com/","en-US,en;q=0.9","67dc19c31078d1581e39e75a","687a360dabe5252b5ada7185","6889da71e4e2eece9e52cfab","0","67dc19c31078d1581e39e75a","0","2025-07-30T09:49:49.911Z","","","","AttribQ","","","","","","","","","","","50","","","","","","","","","","","","","","","","","","","","","","","","","","",""
"6438","","<div style=""width:500px;"">
  <p>How much control did you have over the ball?</p>
  </div>","1","html-slider-response","60","3874193","0.0-7.0-2.9","47","1","2025-07-30 08:45:13","36c45c0696341be0efffe67d72a12abb","41.122.11.152","Mozilla/5.0 (Windows NT 10.0; Win64; x64) AppleWebKit/537.36 (KHTML, like Gecko) Chrome/138.0.0.0 Safari/537.36","WebKit","Chrome","138.0.0.0","Windows","10.0","https://app.prolific.com/","en-US,en;q=0.9","67dc19c31078d1581e39e75a","687a360dabe5252b5ada7185","6889da71e4e2eece9e52cfab","0","67dc19c31078d1581e39e75a","0","2025-07-30T09:49:56.396Z","","","","ControlQ","","","","","","","","","","","50","","","","","","","","","","","","","","","","","","","","","","","","","","",""
"23673","","<div style=""width:500px;"">
  <p>How would you describe your current emotional state?</p>
  </div>","38","html-slider-response","61","3897889","0.0-7.0-3.9","47","1","2025-07-30 08:45:13","36c45c0696341be0efffe67d72a12abb","41.122.11.152","Mozilla/5.0 (Windows NT 10.0; Win64; x64) AppleWebKit/537.36 (KHTML, like Gecko) Chrome/138.0.0.0 Safari/537.36","WebKit","Chrome","138.0.0.0","Windows","10.0","https://app.prolific.com/","en-US,en;q=0.9","67dc19c31078d1581e39e75a","687a360dabe5252b5ada7185","6889da71e4e2eece9e52cfab","0","67dc19c31078d1581e39e75a","0","2025-07-30T09:50:20.091Z","","","","StressQ","","","","","","","","","","","50","","","","","","","","","","","","","","","","","","","","","","","","","","",""
"336231","","<div style=""width:500px;"">
  <p>What best describes how you currently feel?</p>
  </div>","90","html-slider-response","62","4234134","0.0-7.0-4.9","47","1","2025-07-30 08:45:13","36c45c0696341be0efffe67d72a12abb","41.122.11.152","Mozilla/5.0 (Windows NT 10.0; Win64; x64) AppleWebKit/537.36 (KHTML, like Gecko) Chrome/138.0.0.0 Safari/537.36","WebKit","Chrome","138.0.0.0","Windows","10.0","https://app.prolific.com/","en-US,en;q=0.9","67dc19c31078d1581e39e75a","687a360dabe5252b5ada7185","6889da71e4e2eece9e52cfab","0","67dc19c31078d1581e39e75a","0","2025-07-30T09:55:56.337Z","","","","MotivationQ","","","","","","","","","","","50","","","","","","","","","","","","","","","","","","","","","","","","","","",""
"","","","","ctl-task-cpt","63","4283140","0.0-7.0-0.10","47","1","2025-07-30 08:45:13","36c45c0696341be0efffe67d72a12abb","41.122.11.152","Mozilla/5.0 (Windows NT 10.0; Win64; x64) AppleWebKit/537.36 (KHTML, like Gecko) Chrome/138.0.0.0 Safari/537.36","WebKit","Chrome","138.0.0.0","Windows","10.0","https://app.prolific.com/","en-US,en;q=0.9","67dc19c31078d1581e39e75a","687a360dabe5252b5ada7185","6889da71e4e2eece9e52cfab","0","67dc19c31078d1581e39e75a","0","2025-07-30T09:56:45.342Z","","","","","","","","","","","","","","","","win-only","1","g1:NE,g2:SW","0.6","11","0","4243667.2","18415.2","23442.9","45899.5","1","4","4","6","2","4","4","9","5","0.06818181818181818","5027.7","3000","2310","[""down"",""left""]","{""num_key_presses"":6,""num_perfect"":6,""num_errors"":0,""num_randdir"":0,""num_randdir_good_moves"":0,""num_whilered"":0,""num_whileblue"":0,""num_blue"":0,""num_good_moves"":6}","[363.57946428571427,362.98571428571427,0.6,363.57946428571427,362.98571428571427,102,363.57946428571427,362.98571428571427,213.5,363.57946428571427,362.98571428571427,316.2,363.57946428571427,362.98571428571427,456.2,363.57946428571427,362.98571428571427,580.4,358.57946428571427,362.98571428571427,703.5,134.57946428571427,358.98571428571427,831.9,106.57946428571428,376.98571428571427,958.3,106.57946428571428,376.98571428571427,1073.3,106.57946428571428,376.98571428571427,1178.6,106.57946428571428,376.98571428571427,1282.7,-97.42053571428572,377.98571428571427,1392.7,-231.42053571428573,406.98571428571427,1494.3,-231.42053571428573,406.98571428571427,1597.4,-231.42053571428573,406.98571428571427,1712,-231.42053571428573,406.98571428571427,1826.8,-231.42053571428573,406.98571428571427,1943.9,-231.42053571428573,406.98571428571427,2053.8,-231.42053571428573,406.98571428571427,2168.8,-231.42053571428573,406.98571428571427,2279.6,-231.42053571428573,406.98571428571427,2388.8,-231.42053571428573,406.98571428571427,2497.6,-231.42053571428573,406.98571428571427,2616.4,-231.42053571428573,406.98571428571427,2740,-231.42053571428573,406.98571428571427,2843.9,-231.42053571428573,406.98571428571427,2967.8,-231.42053571428573,406.98571428571427,3092.1,-231.42053571428573,406.98571428571427,3216.2,-231.42053571428573,406.98571428571427,3334.9,-231.42053571428573,406.98571428571427,3459.5,-231.42053571428573,406.98571428571427,3591.3,-231.42053571428573,406.98571428571427,3697.6,-231.42053571428573,406.98571428571427,3827.4,-231.42053571428573,406.98571428571427,3946.3,-231.42053571428573,406.98571428571427,4088.5,-231.42053571428573,406.98571428571427,4193.7,-231.42053571428573,406.98571428571427,4315,-231.42053571428573,406.98571428571427,4434,-231.42053571428573,406.98571428571427,4548.3,-231.42053571428573,406.98571428571427,4651.2,-231.42053571428573,406.98571428571427,4751.8,-295.42053571428573,309.98571428571427,4873.9,-295.42053571428573,309.98571428571427,4978.4]","[1716.7,1716.7,1000,0,716.7,""smooth"",""left"",""left"",""good_move"",6681.6,4962.3,2536.2,1719.4,2426,""smooth"",""left"",""left"",""good_move"",11277,4594.7,1869.7,6682.3,2725,""smooth"",""left"",""left"",""good_move"",15896.9,4617.9,2161.1,11279,2456.8,""smooth"",""down"",""down"",""good_move"",19002.1,3098.9,2602.9,15903.2,496,""smooth"",""down"",""down"",""good_move"",21905.8,2902.1,2350.4,19003.8,551.6,""smooth"",""down"",""down"",""good_move""]"
"10716","","<div style=""width:500px;"">
  <p>What determined the result of this run?</p>
  </div>","84","html-slider-response","64","4293860","0.0-7.0-1.10","47","1","2025-07-30 08:45:13","36c45c0696341be0efffe67d72a12abb","41.122.11.152","Mozilla/5.0 (Windows NT 10.0; Win64; x64) AppleWebKit/537.36 (KHTML, like Gecko) Chrome/138.0.0.0 Safari/537.36","WebKit","Chrome","138.0.0.0","Windows","10.0","https://app.prolific.com/","en-US,en;q=0.9","67dc19c31078d1581e39e75a","687a360dabe5252b5ada7185","6889da71e4e2eece9e52cfab","0","67dc19c31078d1581e39e75a","0","2025-07-30T09:56:56.063Z","","","","AttribQ","","","","","","","","","","","50","","","","","","","","","","","","","","","","","","","","","","","","","","",""
"4087","","<div style=""width:500px;"">
  <p>How much control did you have over the ball?</p>
  </div>","88","html-slider-response","65","4297962","0.0-7.0-2.10","47","1","2025-07-30 08:45:13","36c45c0696341be0efffe67d72a12abb","41.122.11.152","Mozilla/5.0 (Windows NT 10.0; Win64; x64) AppleWebKit/537.36 (KHTML, like Gecko) Chrome/138.0.0.0 Safari/537.36","WebKit","Chrome","138.0.0.0","Windows","10.0","https://app.prolific.com/","en-US,en;q=0.9","67dc19c31078d1581e39e75a","687a360dabe5252b5ada7185","6889da71e4e2eece9e52cfab","0","67dc19c31078d1581e39e75a","0","2025-07-30T09:57:00.164Z","","","","ControlQ","","","","","","","","","","","50","","","","","","","","","","","","","","","","","","","","","","","","","","",""
"4895","","<div style=""width:500px;"">
  <p>How would you describe your current emotional state?</p>
  </div>","14","html-slider-response","66","4302887","0.0-7.0-3.10","47","1","2025-07-30 08:45:13","36c45c0696341be0efffe67d72a12abb","41.122.11.152","Mozilla/5.0 (Windows NT 10.0; Win64; x64) AppleWebKit/537.36 (KHTML, like Gecko) Chrome/138.0.0.0 Safari/537.36","WebKit","Chrome","138.0.0.0","Windows","10.0","https://app.prolific.com/","en-US,en;q=0.9","67dc19c31078d1581e39e75a","687a360dabe5252b5ada7185","6889da71e4e2eece9e52cfab","0","67dc19c31078d1581e39e75a","0","2025-07-30T09:57:05.090Z","","","","StressQ","","","","","","","","","","","50","","","","","","","","","","","","","","","","","","","","","","","","","","",""
"3663","","<div style=""width:500px;"">
  <p>What best describes how you currently feel?</p>
  </div>","89","html-slider-response","67","4306589","0.0-7.0-4.10","47","1","2025-07-30 08:45:13","36c45c0696341be0efffe67d72a12abb","41.122.11.152","Mozilla/5.0 (Windows NT 10.0; Win64; x64) AppleWebKit/537.36 (KHTML, like Gecko) Chrome/138.0.0.0 Safari/537.36","WebKit","Chrome","138.0.0.0","Windows","10.0","https://app.prolific.com/","en-US,en;q=0.9","67dc19c31078d1581e39e75a","687a360dabe5252b5ada7185","6889da71e4e2eece9e52cfab","0","67dc19c31078d1581e39e75a","0","2025-07-30T09:57:08.793Z","","","","MotivationQ","","","","","","","","","","","50","","","","","","","","","","","","","","","","","","","","","","","","","","",""
"","","","","ctl-task-cpt","68","4409811","0.0-7.0-0.11","47","1","2025-07-30 08:45:13","36c45c0696341be0efffe67d72a12abb","41.122.11.152","Mozilla/5.0 (Windows NT 10.0; Win64; x64) AppleWebKit/537.36 (KHTML, like Gecko) Chrome/138.0.0.0 Safari/537.36","WebKit","Chrome","138.0.0.0","Windows","10.0","https://app.prolific.com/","en-US,en;q=0.9","67dc19c31078d1581e39e75a","687a360dabe5252b5ada7185","6889da71e4e2eece9e52cfab","0","67dc19c31078d1581e39e75a","0","2025-07-30T09:58:52.013Z","","","","","","","","","","","","","","","","win-only","0","g1:NW,g2:SE","0.7","12","0","4316095.9","3337.7","8352","100147.7","1","4","8","6","1","1","0","9","9","0.06818181818181818","5014.2","3000","570","[""left"",""up""]","{""num_key_presses"":16,""num_perfect"":11,""num_errors"":1,""num_randdir"":4,""num_randdir_good_moves"":1,""num_whilered"":0,""num_whileblue"":1,""num_blue"":6,""num_good_moves"":10}","[362.57946428571427,371.98571428571427,0.8,362.57946428571427,371.98571428571427,104,362.57946428571427,371.98571428571427,211.3,362.57946428571427,371.98571428571427,312.9,362.57946428571427,371.98571428571427,440,362.57946428571427,371.98571428571427,545,362.57946428571427,371.98571428571427,693.5,362.57946428571427,371.98571428571427,837.5,362.57946428571427,371.98571428571427,944.6,362.57946428571427,371.98571428571427,1070.8,362.57946428571427,371.98571428571427,1182,362.57946428571427,371.98571428571427,1283.4,362.57946428571427,371.98571428571427,1392.9,362.57946428571427,371.98571428571427,1522.3,362.57946428571427,371.98571428571427,1624.5,362.57946428571427,371.98571428571427,1728.3,362.57946428571427,371.98571428571427,1831.4,362.57946428571427,371.98571428571427,1931.9,362.57946428571427,371.98571428571427,2056.5,362.57946428571427,371.98571428571427,2164.4,362.57946428571427,371.98571428571427,2265.2,362.57946428571427,371.98571428571427,2384.2,362.57946428571427,371.98571428571427,2514.2,362.57946428571427,371.98571428571427,2614.2,362.57946428571427,371.98571428571427,2732.4,362.57946428571427,371.98571428571427,2843.9,362.57946428571427,371.98571428571427,2956.4,362.57946428571427,371.98571428571427,3087.3,362.57946428571427,371.98571428571427,3192.4,362.57946428571427,371.98571428571427,3301.4,362.57946428571427,371.98571428571427,3420.6,362.57946428571427,371.98571428571427,3526.6,362.57946428571427,371.98571428571427,3627.5,362.57946428571427,371.98571428571427,3734.4,362.57946428571427,371.98571428571427,3845.1,362.57946428571427,371.98571428571427,3965,210.57946428571427,343.98571428571427,4065.4,158.57946428571427,349.98571428571427,4182,124.57946428571428,349.98571428571427,4287.5,88.57946428571428,330.98571428571427,4400.4,63.57946428571428,319.98571428571427,4523.8,63.57946428571428,319.98571428571427,4632.4,63.57946428571428,319.98571428571427,4734.2,60.57946428571428,319.98571428571427,4853.9,-70.42053571428572,293.98571428571427,4966]","[1613.4,1613.5,1000,0,613.5,""smooth"",""left"",""left"",""good_move"",6830.6,5213.6,2587.2,1617,2626.4,""oops"",""left"",""left"",""good_move"",24516.7,17684.9,1595.5,20413.6,2507.7,""smooth"",""right"",""right"",""bad_move"",29141.5,4616.3,2943.5,24525.2,1672.8,""smooth"",""down"",""down"",""bad_move"",36057.3,6914.3,3066.7,32364.3,626.4,""oops"",""up"",""right"",""bad_move"",42745.6,6686.1,2587.4,39473.4,684.8,""smooth"",""up"",""up"",""good_move"",48757.5,6010.2,2696.8,42747.3,3313.4,""smooth"",""up"",""up"",""good_move"",53759.8,4997,2547.3,48762.8,2449.7,""smooth"",""up"",""up"",""good_move"",58953.2,5191.8,1586.7,53761.4,3605.1,""smooth"",""left"",""left"",""good_move"",63826.8,4872.9,2344.5,58953.9,2528.4,""oops"",""left"",""right"",""bad_move"",66820.5,2992,2193.9,63828.5,798.1,""oops"",""left"",""right"",""bad_move"",70357.3,3531.2,2693,66826.2,838.1,""smooth"",""left"",""left"",""good_move"",76329.1,5970.5,2303.4,70358.7,3667.1,""smooth"",""left"",""left"",""good_move"",81832.6,5502.5,4729.6,76330.1,772.9,""while_blue"",""left"",""right"",""bad_move"",86280.2,4447.2,2894.2,81833,1553,""smooth"",""left"",""left"",""good_move"",91264,4982.2,2370.1,86281.8,2612.1,""smooth"",""left"",""left"",""good_move""]"
"8158","","<div style=""width:500px;"">
  <p>What determined the result of this run?</p>
  </div>","85","html-slider-response","69","4417996","0.0-7.0-1.11","47","1","2025-07-30 08:45:13","36c45c0696341be0efffe67d72a12abb","41.122.11.152","Mozilla/5.0 (Windows NT 10.0; Win64; x64) AppleWebKit/537.36 (KHTML, like Gecko) Chrome/138.0.0.0 Safari/537.36","WebKit","Chrome","138.0.0.0","Windows","10.0","https://app.prolific.com/","en-US,en;q=0.9","67dc19c31078d1581e39e75a","687a360dabe5252b5ada7185","6889da71e4e2eece9e52cfab","0","67dc19c31078d1581e39e75a","0","2025-07-30T09:59:00.204Z","","","","AttribQ","","","","","","","","","","","50","","","","","","","","","","","","","","","","","","","","","","","","","","",""
"6559","","<div style=""width:500px;"">
  <p>How much control did you have over the ball?</p>
  </div>","29","html-slider-response","70","4424593","0.0-7.0-2.11","47","1","2025-07-30 08:45:13","36c45c0696341be0efffe67d72a12abb","41.122.11.152","Mozilla/5.0 (Windows NT 10.0; Win64; x64) AppleWebKit/537.36 (KHTML, like Gecko) Chrome/138.0.0.0 Safari/537.36","WebKit","Chrome","138.0.0.0","Windows","10.0","https://app.prolific.com/","en-US,en;q=0.9","67dc19c31078d1581e39e75a","687a360dabe5252b5ada7185","6889da71e4e2eece9e52cfab","0","67dc19c31078d1581e39e75a","0","2025-07-30T09:59:06.795Z","","","","ControlQ","","","","","","","","","","","50","","","","","","","","","","","","","","","","","","","","","","","","","","",""
"3036","","<div style=""width:500px;"">
  <p>How would you describe your current emotional state?</p>
  </div>","12","html-slider-response","71","4427644","0.0-7.0-3.11","47","1","2025-07-30 08:45:13","36c45c0696341be0efffe67d72a12abb","41.122.11.152","Mozilla/5.0 (Windows NT 10.0; Win64; x64) AppleWebKit/537.36 (KHTML, like Gecko) Chrome/138.0.0.0 Safari/537.36","WebKit","Chrome","138.0.0.0","Windows","10.0","https://app.prolific.com/","en-US,en;q=0.9","67dc19c31078d1581e39e75a","687a360dabe5252b5ada7185","6889da71e4e2eece9e52cfab","0","67dc19c31078d1581e39e75a","0","2025-07-30T09:59:09.846Z","","","","StressQ","","","","","","","","","","","50","","","","","","","","","","","","","","","","","","","","","","","","","","",""
"3110","","<div style=""width:500px;"">
  <p>What best describes how you currently feel?</p>
  </div>","77","html-slider-response","72","4430767","0.0-7.0-4.11","47","1","2025-07-30 08:45:13","36c45c0696341be0efffe67d72a12abb","41.122.11.152","Mozilla/5.0 (Windows NT 10.0; Win64; x64) AppleWebKit/537.36 (KHTML, like Gecko) Chrome/138.0.0.0 Safari/537.36","WebKit","Chrome","138.0.0.0","Windows","10.0","https://app.prolific.com/","en-US,en;q=0.9","67dc19c31078d1581e39e75a","687a360dabe5252b5ada7185","6889da71e4e2eece9e52cfab","0","67dc19c31078d1581e39e75a","0","2025-07-30T09:59:12.970Z","","","","MotivationQ","","","","","","","","","","","50","","","","","","","","","","","","","","","","","","","","","","","","","","",""
"","","","","ctl-task-cpt","73","4518259","0.0-7.0-0.12","47","1","2025-07-30 08:45:13","36c45c0696341be0efffe67d72a12abb","41.122.11.152","Mozilla/5.0 (Windows NT 10.0; Win64; x64) AppleWebKit/537.36 (KHTML, like Gecko) Chrome/138.0.0.0 Safari/537.36","WebKit","Chrome","138.0.0.0","Windows","10.0","https://app.prolific.com/","en-US,en;q=0.9","67dc19c31078d1581e39e75a","687a360dabe5252b5ada7185","6889da71e4e2eece9e52cfab","0","67dc19c31078d1581e39e75a","0","2025-07-30T10:00:40.461Z","","","","","","","","","","","","","","","","win-only","1","g1:NE,g2:SW","0.8","13","0","4440266.3","3955","8977","84381.8","1","4","4","6","1","1","1","10","9","0.07575757575757576","5021.9","3000","1555","[""up"",""right""]","{""num_key_presses"":10,""num_perfect"":8,""num_errors"":0,""num_randdir"":2,""num_randdir_good_moves"":0,""num_whilered"":0,""num_whileblue"":0,""num_blue"":3,""num_good_moves"":7}","[369.57946428571427,368.98571428571427,1.5,369.57946428571427,368.98571428571427,165.4,369.57946428571427,368.98571428571427,290.4,369.57946428571427,368.98571428571427,390.7,369.57946428571427,368.98571428571427,505.2,369.57946428571427,368.98571428571427,605.2,369.57946428571427,368.98571428571427,737.2,369.57946428571427,368.98571428571427,856.8,369.57946428571427,368.98571428571427,986.8,369.57946428571427,368.98571428571427,1116.6,369.57946428571427,368.98571428571427,1250,369.57946428571427,368.98571428571427,1402.1,369.57946428571427,368.98571428571427,1542,369.57946428571427,368.98571428571427,1679.7,369.57946428571427,368.98571428571427,1808.9,369.57946428571427,368.98571428571427,1948.5,369.57946428571427,368.98571428571427,2078.2,369.57946428571427,368.98571428571427,2204.9,369.57946428571427,368.98571428571427,2336.6,369.57946428571427,368.98571428571427,2462.1,369.57946428571427,368.98571428571427,2581.8,369.57946428571427,368.98571428571427,2702.9,369.57946428571427,368.98571428571427,2821.8,369.57946428571427,368.98571428571427,2944.2,369.57946428571427,368.98571428571427,3070.7,369.57946428571427,368.98571428571427,3195.6,369.57946428571427,368.98571428571427,3329.7,369.57946428571427,368.98571428571427,3449.5,364.57946428571427,350.98571428571427,3586.2,3.5794642857142804,229.98571428571427,3690.9,3.5794642857142804,229.98571428571427,3828.5,3.5794642857142804,229.98571428571427,3958,3.5794642857142804,229.98571428571427,4079.4,3.5794642857142804,229.98571428571427,4202.9,3.5794642857142804,229.98571428571427,4330.1,3.5794642857142804,229.98571428571427,4468.4,3.5794642857142804,229.98571428571427,4600.2,3.5794642857142804,229.98571428571427,4724.9,3.5794642857142804,229.98571428571427,4844.2,3.5794642857142804,229.98571428571427,4980.1]","[1591.8,1591.8,1000,0,591.8,""smooth"",""right"",""right"",""good_move"",11382.5,9788.8,1541.5,9197.4,643.7,""smooth"",""right"",""right"",""good_move"",17855.4,6472.5,2560.4,11383.2,3911.8,""smooth"",""down"",""down"",""bad_move"",24900.9,7044.9,2876.7,17856,4168.2,""smooth"",""up"",""up"",""good_move"",34165.8,9264.2,3026.7,24901.6,6237.5,""smooth"",""up"",""up"",""good_move"",48356.2,14189.9,3099.1,44596.1,661,""oops"",""up"",""down"",""bad_move"",52445.5,4087.8,3278.3,48357.7,809.5,""oops"",""up"",""down"",""bad_move"",55644.9,3198.8,2275.6,52446.1,923.2,""smooth"",""up"",""up"",""good_move"",66531.7,10885.1,2695,55646.6,8190.1,""smooth"",""up"",""up"",""good_move"",74795.7,8262.6,3234.5,66533.1,5028.1,""smooth"",""up"",""up"",""good_move""]"
"4342","","<div style=""width:500px;"">
  <p>What determined the result of this run?</p>
  </div>","85","html-slider-response","74","4522605","0.0-7.0-1.12","47","1","2025-07-30 08:45:13","36c45c0696341be0efffe67d72a12abb","41.122.11.152","Mozilla/5.0 (Windows NT 10.0; Win64; x64) AppleWebKit/537.36 (KHTML, like Gecko) Chrome/138.0.0.0 Safari/537.36","WebKit","Chrome","138.0.0.0","Windows","10.0","https://app.prolific.com/","en-US,en;q=0.9","67dc19c31078d1581e39e75a","687a360dabe5252b5ada7185","6889da71e4e2eece9e52cfab","0","67dc19c31078d1581e39e75a","0","2025-07-30T10:00:44.808Z","","","","AttribQ","","","","","","","","","","","50","","","","","","","","","","","","","","","","","","","","","","","","","","",""
"2361","","<div style=""width:500px;"">
  <p>How much control did you have over the ball?</p>
  </div>","87","html-slider-response","75","4524975","0.0-7.0-2.12","47","1","2025-07-30 08:45:13","36c45c0696341be0efffe67d72a12abb","41.122.11.152","Mozilla/5.0 (Windows NT 10.0; Win64; x64) AppleWebKit/537.36 (KHTML, like Gecko) Chrome/138.0.0.0 Safari/537.36","WebKit","Chrome","138.0.0.0","Windows","10.0","https://app.prolific.com/","en-US,en;q=0.9","67dc19c31078d1581e39e75a","687a360dabe5252b5ada7185","6889da71e4e2eece9e52cfab","0","67dc19c31078d1581e39e75a","0","2025-07-30T10:00:47.178Z","","","","ControlQ","","","","","","","","","","","50","","","","","","","","","","","","","","","","","","","","","","","","","","",""
"6005","","<div style=""width:500px;"">
  <p>How would you describe your current emotional state?</p>
  </div>","16","html-slider-response","76","4530989","0.0-7.0-3.12","47","1","2025-07-30 08:45:13","36c45c0696341be0efffe67d72a12abb","41.122.11.152","Mozilla/5.0 (Windows NT 10.0; Win64; x64) AppleWebKit/537.36 (KHTML, like Gecko) Chrome/138.0.0.0 Safari/537.36","WebKit","Chrome","138.0.0.0","Windows","10.0","https://app.prolific.com/","en-US,en;q=0.9","67dc19c31078d1581e39e75a","687a360dabe5252b5ada7185","6889da71e4e2eece9e52cfab","0","67dc19c31078d1581e39e75a","0","2025-07-30T10:00:53.191Z","","","","StressQ","","","","","","","","","","","50","","","","","","","","","","","","","","","","","","","","","","","","","","",""
"2854","","<div style=""width:500px;"">
  <p>What best describes how you currently feel?</p>
  </div>","73","html-slider-response","77","4533849","0.0-7.0-4.12","47","1","2025-07-30 08:45:13","36c45c0696341be0efffe67d72a12abb","41.122.11.152","Mozilla/5.0 (Windows NT 10.0; Win64; x64) AppleWebKit/537.36 (KHTML, like Gecko) Chrome/138.0.0.0 Safari/537.36","WebKit","Chrome","138.0.0.0","Windows","10.0","https://app.prolific.com/","en-US,en;q=0.9","67dc19c31078d1581e39e75a","687a360dabe5252b5ada7185","6889da71e4e2eece9e52cfab","0","67dc19c31078d1581e39e75a","0","2025-07-30T10:00:56.051Z","","","","MotivationQ","","","","","","","","","","","50","","","","","","","","","","","","","","","","","","","","","","","","","","",""
