"rt","response_timestamp","stimulus","response","trial_type","trial_index","time_elapsed","internal_node_id","run_id","condition","recorded_at","source_code_version","ip","user_agent","device","browser","browser_version","platform","platform_version","referer","accept_language","PROLIFIC_PID","STUDY_ID","SESSION_ID","BATCH","prolific_id","batch","realtime","success","question_order","question_id","eventType","responses","item_order","radio_event_ids","radio_event_times","key_event_times","mouse_event_times","straightlining","zigzagging","honeypot","view_history","slider_start","which_type","canvas_config","goals_layout","control_level","trial_number","tutorial_trial_number","trial_start_time","phase1_start_time","phase2_start_time","phase3_start_time","goal_1_value","goal_1_distance","goal_2_value","goal_2_distance","goal_selected","outcome","outcome_total","participant_final_score","participant_initial_score","participant_final_score_prop","goal_choice_rt","allocated_time","allocated_time_remaining","goal_direction","counts","mouse_movements","key_presses"
"22866","1754575893189","<p style='font-size:40px;line-height:1.25'><strong>Welcome to the experiment!</strong></p><p style='font-size:1.1em;line-height:1.25'>Thank you for participanting in our experiment again! You will be asked to play the Dysfunctional Ball Game again. We will briefly recap the rules before we start.</p><p style='font-size:1.1em;line-height:1.25'>Press <strong>Next</strong> to continue.</p>","0","custom-html-button-response","0","22913","0.0-0.0","231","1","2025-08-07 14:10:46","36c45c0696341be0efffe67d72a12abb","197.185.179.85","Mozilla/5.0 (Windows NT 10.0; Win64; x64) AppleWebKit/537.36 (KHTML, like Gecko) Chrome/138.0.0.0 Safari/537.36","WebKit","Chrome","138.0.0.0","Windows","10.0","https://app.prolific.com/","en-US,en;q=0.9","67e1a47dae2e2e04aa7d8417","687a1a965b9f5b85a264363e","6894ac1ab73c35374c710fa2","1","67e1a47dae2e2e04aa7d8417","1","2025-08-07T14:11:33.195Z","","","","","","","","","","","","","","","","","","","","","","","","","","","","","","","","","","","","","","","","","",""
"15722","","","","fullscreen","1","40015","0.0-1.0","231","1","2025-08-07 14:10:46","36c45c0696341be0efffe67d72a12abb","197.185.179.85","Mozilla/5.0 (Windows NT 10.0; Win64; x64) AppleWebKit/537.36 (KHTML, like Gecko) Chrome/138.0.0.0 Safari/537.36","WebKit","Chrome","138.0.0.0","Windows","10.0","https://app.prolific.com/","en-US,en;q=0.9","67e1a47dae2e2e04aa7d8417","687a1a965b9f5b85a264363e","6894ac1ab73c35374c710fa2","1","67e1a47dae2e2e04aa7d8417","1","","true","","","","","","","","","","","","","","","","","","","","","","","","","","","","","","","","","","","","","","","","",""
"8836","1754575919195"," <p style='font-size:1.1em;line-height:1.25'>Thank you for closing all other tabs.</p><p style='font-size:1.1em;line-height:1.25'>We will now invite you to fill in some questionnaires, before starting the game.<br>This will take about 5 minutes.<br></p><p style='font-size:1.1em;line-height:1.25'>Press the <strong>Next</strong> button to continue.</p>","0","custom-html-button-response","2","48915","0.0-2.0","231","1","2025-08-07 14:10:46","36c45c0696341be0efffe67d72a12abb","197.185.179.85","Mozilla/5.0 (Windows NT 10.0; Win64; x64) AppleWebKit/537.36 (KHTML, like Gecko) Chrome/138.0.0.0 Safari/537.36","WebKit","Chrome","138.0.0.0","Windows","10.0","https://app.prolific.com/","en-US,en;q=0.9","67e1a47dae2e2e04aa7d8417","687a1a965b9f5b85a264363e","6894ac1ab73c35374c710fa2","1","67e1a47dae2e2e04aa7d8417","1","2025-08-07T14:11:59.196Z","","","","","","","","","","","","","","","","","","","","","","","","","","","","","","","","","","","","","","","","","",""
"41941","","","{""assigned_sex"":""female""}","survey-multi-choice","3","91061","0.0-3.0-0.0","231","1","2025-08-07 14:10:46","36c45c0696341be0efffe67d72a12abb","197.185.179.85","Mozilla/5.0 (Windows NT 10.0; Win64; x64) AppleWebKit/537.36 (KHTML, like Gecko) Chrome/138.0.0.0 Safari/537.36","WebKit","Chrome","138.0.0.0","Windows","10.0","https://app.prolific.com/","en-US,en;q=0.9","67e1a47dae2e2e04aa7d8417","687a1a965b9f5b85a264363e","6894ac1ab73c35374c710fa2","1","67e1a47dae2e2e04aa7d8417","1","","","[0]","0","demographics","","","","","","","","","","","","","","","","","","","","","","","","","","","","","","","","","","","","","",""
"26113","1754575987457","<p style='font-size:1.1em;line-height:1.25'>In the following, we will perform a baseline assessment. This means that we will ask you a few questions relating to your experiences over the past month.<br></p><p style='font-size:1.1em;line-height:1.25'>Press the <strong>Next</strong> button to continue.</p>","0","custom-html-button-response","4","117177","0.0-4.0-0.0","231","1","2025-08-07 14:10:46","36c45c0696341be0efffe67d72a12abb","197.185.179.85","Mozilla/5.0 (Windows NT 10.0; Win64; x64) AppleWebKit/537.36 (KHTML, like Gecko) Chrome/138.0.0.0 Safari/537.36","WebKit","Chrome","138.0.0.0","Windows","10.0","https://app.prolific.com/","en-US,en;q=0.9","67e1a47dae2e2e04aa7d8417","687a1a965b9f5b85a264363e","6894ac1ab73c35374c710fa2","1","67e1a47dae2e2e04aa7d8417","1","2025-08-07T14:13:07.458Z","","","","","","","","","","","","","","","","","","","","","","","","","","","","","","","","","","","","","","","","","",""
"281400.60000038147","","","","survey-template","5","400674","0.0-4.0-1.0","231","1","2025-08-07 14:10:46","36c45c0696341be0efffe67d72a12abb","197.185.179.85","Mozilla/5.0 (Windows NT 10.0; Win64; x64) AppleWebKit/537.36 (KHTML, like Gecko) Chrome/138.0.0.0 Safari/537.36","WebKit","Chrome","138.0.0.0","Windows","10.0","https://app.prolific.com/","en-US,en;q=0.9","67e1a47dae2e2e04aa7d8417","687a1a965b9f5b85a264363e","6894ac1ab73c35374c710fa2","1","67e1a47dae2e2e04aa7d8417","1","2025-08-07T14:17:51.041Z","","","","pss","{""Q01"":""2"",""Q02"":""2"",""Q03"":""1"",""Q04"":""1"",""Q05"":""0"",""Q06"":""3"",""Q07"":""1"",""Q08"":""0"",""Q09"":""2"",""Q10"":""3""}","[0,1,2,3,4,5,6,7,8,9]","[""Q01"",""Q01"",""Q02"",""Q03"",""Q04"",""Q06"",""Q05"",""Q07"",""Q08"",""Q09"",""Q10""]","[184850.60000038147,186951,190958.80000019073,199068.60000038147,203066.7000002861,209823.90000009537,211471.7000002861,214384.5,225579,227127.90000009537,278054.80000019073]","[]","[0.20000028610229492,184850.60000038147,186951,190958.80000019073,196654.30000019073,199068.60000038147,203066.7000002861,206627.5,209823.90000009537,211471.7000002861,214384.5,216544.10000038147,219035.30000019073,223033,225579,227127.90000009537,278054.80000019073,280132.30000019073,280664.2000002861]","0.4","0.5555555555555556","0","","","","","","","","","","","","","","","","","","","","","","","","","","","","",""
"2845","1754576274998","<p style='font-size:1.1em;line-height:1.25'>Thank you for your answers! Now we will ask you a few more questions relating to your feelings in the last 24 hours.<br></p><p style='font-size:1.1em;line-height:1.25'>Press the <strong>Next</strong> button to continue.</p>","0","custom-html-button-response","6","404718","0.0-4.0-2.0","231","1","2025-08-07 14:10:46","36c45c0696341be0efffe67d72a12abb","197.185.179.85","Mozilla/5.0 (Windows NT 10.0; Win64; x64) AppleWebKit/537.36 (KHTML, like Gecko) Chrome/138.0.0.0 Safari/537.36","WebKit","Chrome","138.0.0.0","Windows","10.0","https://app.prolific.com/","en-US,en;q=0.9","67e1a47dae2e2e04aa7d8417","687a1a965b9f5b85a264363e","6894ac1ab73c35374c710fa2","1","67e1a47dae2e2e04aa7d8417","1","2025-08-07T14:17:55.000Z","","","","","","","","","","","","","","","","","","","","","","","","","","","","","","","","","","","","","","","","","",""
"97948.90000009537","","","","survey-template","7","504804","0.0-4.0-3.0","231","1","2025-08-07 14:10:46","36c45c0696341be0efffe67d72a12abb","197.185.179.85","Mozilla/5.0 (Windows NT 10.0; Win64; x64) AppleWebKit/537.36 (KHTML, like Gecko) Chrome/138.0.0.0 Safari/537.36","WebKit","Chrome","138.0.0.0","Windows","10.0","https://app.prolific.com/","en-US,en;q=0.9","67e1a47dae2e2e04aa7d8417","687a1a965b9f5b85a264363e","6894ac1ab73c35374c710fa2","1","67e1a47dae2e2e04aa7d8417","1","2025-08-07T14:19:35.200Z","","","","drsp","{""Q01"":""0"",""Q02"":""0"",""Q03"":""0"",""Q04"":""1"",""Q05"":""2"",""Q06"":""1"",""Q07"":""0"",""Q08"":""0"",""Q09"":""1"",""Q10"":""0"",""Q11"":""1"",""Q12"":""2"",""Q13"":""5"",""Q14"":""2"",""Q15"":""1"",""Q16"":""1"",""Q17"":""1"",""Q18"":""2"",""Q19"":""1"",""Q20"":""1"",""Q21"":""2"",""Q22"":""1""}","[0,1,2,3,4,5,6,7,8,9,10,11,12,13,14,15,16,17,18,19,20,21]","[""Q01"",""Q03"",""Q02"",""Q04"",""Q04"",""Q05"",""Q06"",""Q07"",""Q08"",""Q09"",""Q10"",""Q11"",""Q12"",""Q13"",""Q14"",""Q16"",""Q17"",""Q18"",""Q19"",""Q20"",""Q21"",""Q22"",""Q15""]","[9531,12111.5,14738.599999904633,16214.699999809265,17855.799999713898,22433.299999713898,25148.199999809265,26906.799999713898,34397.5,35648,36958.7999997139,38269,39709.40000009537,42636.09999990463,51483.40000009537,55701.5,58856.40000009537,61907.59999990463,64297.7999997139,69332.7999997139,72418.19999980927,73697.90000009537,96416.7999997139]","[]","[0,6253.400000095367,9531,10441.699999809265,12111.5,13093.199999809265,14738.599999904633,16214.699999809265,17855.799999713898,18920.5,20709.599999904633,22433.299999713898,23781.699999809265,25148.199999809265,26906.799999713898,28472.599999904633,32649,34397.5,35648,36958.7999997139,38269,39709.40000009537,42636.09999990463,43594.199999809265,51483.40000009537,55701.5,57597.699999809265,58856.40000009537,60091.09999990463,61907.59999990463,63222.2999997139,64297.7999997139,65566.09999990463,69332.7999997139,71321.09999990463,72418.19999980927,73697.90000009537,75407.40000009537,96416.7999997139,97924.59999990463]","0.45454545454545453","0.6190476190476191","0","","","","","","","","","","","","","","","","","","","","","","","","","","","","",""
"24173.900000095367","","","","survey-template","8","529166","0.0-4.0-4.0","231","1","2025-08-07 14:10:46","36c45c0696341be0efffe67d72a12abb","197.185.179.85","Mozilla/5.0 (Windows NT 10.0; Win64; x64) AppleWebKit/537.36 (KHTML, like Gecko) Chrome/138.0.0.0 Safari/537.36","WebKit","Chrome","138.0.0.0","Windows","10.0","https://app.prolific.com/","en-US,en;q=0.9","67e1a47dae2e2e04aa7d8417","687a1a965b9f5b85a264363e","6894ac1ab73c35374c710fa2","1","67e1a47dae2e2e04aa7d8417","1","2025-08-07T14:19:59.447Z","","","","stress","{""Q01"":""1"",""Q02"":""1"",""Q03"":""1""}","[0,1,2]","[""Q01"",""Q02"",""Q02"",""Q03""]","[12994.400000095367,16886.900000095367,19813.400000095367,22618.900000095367]","[]","[12994.400000095367,16886.900000095367,19813.400000095367,22618.900000095367,24169]","0.6666666666666666","0","0","","","","","","","","","","","","","","","","","","","","","","","","","","","","",""
"6672","","","","instructions","9","535867","0.0-5.0-0.0","231","1","2025-08-07 14:10:46","36c45c0696341be0efffe67d72a12abb","197.185.179.85","Mozilla/5.0 (Windows NT 10.0; Win64; x64) AppleWebKit/537.36 (KHTML, like Gecko) Chrome/138.0.0.0 Safari/537.36","WebKit","Chrome","138.0.0.0","Windows","10.0","https://app.prolific.com/","en-US,en;q=0.9","67e1a47dae2e2e04aa7d8417","687a1a965b9f5b85a264363e","6894ac1ab73c35374c710fa2","1","67e1a47dae2e2e04aa7d8417","1","","","","","","","","","","","","","","","[{""page_index"":0,""viewing_time"":6671}]","","","","","","","","","","","","","","","","","","","","","","","","","","","",""
"7549","","<p>Before you start with this game please answer the following three questions yourself. </p>
  <p>Through this game, we measure several aspects of your cognitive performance, such as reaction times, multi-tasking capabilities </p>
  <p>and the ability to assess the situation you are in.</p>
  <p></p>
  <p><b>How good do you usually are in such tasks?</b></p>","93","html-slider-response","10","544308","0.0-6.0-0.0","231","1","2025-08-07 14:10:46","36c45c0696341be0efffe67d72a12abb","197.185.179.85","Mozilla/5.0 (Windows NT 10.0; Win64; x64) AppleWebKit/537.36 (KHTML, like Gecko) Chrome/138.0.0.0 Safari/537.36","WebKit","Chrome","138.0.0.0","Windows","10.0","https://app.prolific.com/","en-US,en;q=0.9","67e1a47dae2e2e04aa7d8417","687a1a965b9f5b85a264363e","6894ac1ab73c35374c710fa2","1","67e1a47dae2e2e04aa7d8417","1","2025-08-07T14:20:14.590Z","","","","PreSkillQ","","","","","","","","","","","50","","","","","","","","","","","","","","","","","","","","","","","","","","",""
"3265","","<div style=""width:500px;"">
  <p>How well do you think you will perform in this task compared to other participants?</p>
  </div>","90","html-slider-response","11","547576","0.0-6.0-1.0","231","1","2025-08-07 14:10:46","36c45c0696341be0efffe67d72a12abb","197.185.179.85","Mozilla/5.0 (Windows NT 10.0; Win64; x64) AppleWebKit/537.36 (KHTML, like Gecko) Chrome/138.0.0.0 Safari/537.36","WebKit","Chrome","138.0.0.0","Windows","10.0","https://app.prolific.com/","en-US,en;q=0.9","67e1a47dae2e2e04aa7d8417","687a1a965b9f5b85a264363e","6894ac1ab73c35374c710fa2","1","67e1a47dae2e2e04aa7d8417","1","2025-08-07T14:20:17.857Z","","","","PrePerfQ","","","","","","","","","","","50","","","","","","","","","","","","","","","","","","","","","","","","","","",""
"19323","","<div style=""width:500px;"">
  <p>What best describes how you currently feel?</p>
  </div>","95","html-slider-response","12","566902","0.0-6.0-2.0","231","1","2025-08-07 14:10:46","36c45c0696341be0efffe67d72a12abb","197.185.179.85","Mozilla/5.0 (Windows NT 10.0; Win64; x64) AppleWebKit/537.36 (KHTML, like Gecko) Chrome/138.0.0.0 Safari/537.36","WebKit","Chrome","138.0.0.0","Windows","10.0","https://app.prolific.com/","en-US,en;q=0.9","67e1a47dae2e2e04aa7d8417","687a1a965b9f5b85a264363e","6894ac1ab73c35374c710fa2","1","67e1a47dae2e2e04aa7d8417","1","2025-08-07T14:20:37.183Z","","","","PreMotivationQ","","","","","","","","","","","50","","","","","","","","","","","","","","","","","","","","","","","","","","",""
"","","","","ctl-task-cpt","13","625633","0.0-7.0-0.0","231","1","2025-08-07 14:10:46","36c45c0696341be0efffe67d72a12abb","197.185.179.85","Mozilla/5.0 (Windows NT 10.0; Win64; x64) AppleWebKit/537.36 (KHTML, like Gecko) Chrome/138.0.0.0 Safari/537.36","WebKit","Chrome","138.0.0.0","Windows","10.0","https://app.prolific.com/","en-US,en;q=0.9","67e1a47dae2e2e04aa7d8417","687a1a965b9f5b85a264363e","6894ac1ab73c35374c710fa2","1","67e1a47dae2e2e04aa7d8417","1","2025-08-07T14:21:35.915Z","","","","","","","","","","","","","","","","win-only","3","g1:SW,g2:NE","1","1","0","593140.5","24229.5","29244.5","45739.7","1","4","8","6","2","8","8","8","0","0.06060606060606061","3833.4","3000","1480","[""up"",""right""]","{""num_key_presses"":6,""num_perfect"":6,""num_errors"":0,""num_randdir"":0,""num_randdir_good_moves"":0,""num_whilered"":0,""num_whileblue"":0,""num_blue"":0,""num_good_moves"":6}","[298.22232142857143,295.12857142857143,393.6,298.22232142857143,295.12857142857143,884.4,298.22232142857143,295.12857142857143,1131.6,298.22232142857143,295.12857142857143,1460.1,298.22232142857143,295.12857142857143,1573,298.22232142857143,295.12857142857143,1676.5,298.22232142857143,295.12857142857143,1790.1,298.22232142857143,295.12857142857143,1897.2,298.22232142857143,295.12857142857143,1998.5,298.22232142857143,295.12857142857143,2106,298.22232142857143,295.12857142857143,2214.4,298.22232142857143,295.12857142857143,2355.7,298.22232142857143,295.12857142857143,2456.6,298.22232142857143,295.12857142857143,2566.2,264.22232142857143,332.12857142857143,2678.3,262.22232142857143,342.12857142857143,2783.8,264.22232142857143,361.12857142857143,2893.2,364.22232142857143,278.12857142857143,3018.2,580.2223214285714,113.12857142857143,3125.3,580.2223214285714,113.12857142857143,3243.1,568.2223214285714,100.12857142857143,3357.3,551.2223214285714,55.128571428571426,3459.7,551.2223214285714,54.128571428571426,3594.6,551.2223214285714,54.128571428571426,3696.9,551.2223214285714,54.128571428571426,3798.5,551.2223214285714,54.128571428571426,3905.8,551.2223214285714,54.128571428571426,4006.8,551.2223214285714,54.128571428571426,4113.8,551.2223214285714,54.128571428571426,4226.4,551.2223214285714,54.128571428571426,4338.4,551.2223214285714,54.128571428571426,4442.6,551.2223214285714,54.128571428571426,4544.8,551.2223214285714,54.128571428571426,4645.8,551.2223214285714,54.128571428571426,4745.9,551.2223214285714,54.128571428571426,4857.8,551.2223214285714,54.128571428571426,4961.4]","[2213.7,2213.7,1000,0,1213.7,""smooth"",""up"",""up"",""good_move"",4937.9,2611.5,2198,2326.6,413.3,""smooth"",""up"",""up"",""good_move"",8175.2,3236.8,2741,4938.4,495.8,""smooth"",""up"",""up"",""good_move"",10831.6,2656.3,2256.7,8175.3,399.6,""smooth"",""right"",""right"",""good_move"",13562.2,2435.9,1975.8,11126.3,460.2,""smooth"",""right"",""right"",""good_move"",16223.3,2659.3,2079.2,13564.1,580.2,""smooth"",""right"",""right"",""good_move""]"
"9250","","<div style=""width:500px;"">
  <p>What determined the result of this run?</p>
  </div>","90","html-slider-response","14","635079","0.0-7.0-1.0","231","1","2025-08-07 14:10:46","36c45c0696341be0efffe67d72a12abb","197.185.179.85","Mozilla/5.0 (Windows NT 10.0; Win64; x64) AppleWebKit/537.36 (KHTML, like Gecko) Chrome/138.0.0.0 Safari/537.36","WebKit","Chrome","138.0.0.0","Windows","10.0","https://app.prolific.com/","en-US,en;q=0.9","67e1a47dae2e2e04aa7d8417","687a1a965b9f5b85a264363e","6894ac1ab73c35374c710fa2","1","67e1a47dae2e2e04aa7d8417","1","2025-08-07T14:21:45.361Z","","","","AttribQ","","","","","","","","","","","50","","","","","","","","","","","","","","","","","","","","","","","","","","",""
"5449","","<div style=""width:500px;"">
  <p>How much control did you have over the ball?</p>
  </div>","91","html-slider-response","15","640533","0.0-7.0-2.0","231","1","2025-08-07 14:10:46","36c45c0696341be0efffe67d72a12abb","197.185.179.85","Mozilla/5.0 (Windows NT 10.0; Win64; x64) AppleWebKit/537.36 (KHTML, like Gecko) Chrome/138.0.0.0 Safari/537.36","WebKit","Chrome","138.0.0.0","Windows","10.0","https://app.prolific.com/","en-US,en;q=0.9","67e1a47dae2e2e04aa7d8417","687a1a965b9f5b85a264363e","6894ac1ab73c35374c710fa2","1","67e1a47dae2e2e04aa7d8417","1","2025-08-07T14:21:50.814Z","","","","ControlQ","","","","","","","","","","","50","","","","","","","","","","","","","","","","","","","","","","","","","","",""
"7328","","<div style=""width:500px;"">
  <p>How would you describe your current emotional state?</p>
  </div>","10","html-slider-response","16","647866","0.0-7.0-3.0","231","1","2025-08-07 14:10:46","36c45c0696341be0efffe67d72a12abb","197.185.179.85","Mozilla/5.0 (Windows NT 10.0; Win64; x64) AppleWebKit/537.36 (KHTML, like Gecko) Chrome/138.0.0.0 Safari/537.36","WebKit","Chrome","138.0.0.0","Windows","10.0","https://app.prolific.com/","en-US,en;q=0.9","67e1a47dae2e2e04aa7d8417","687a1a965b9f5b85a264363e","6894ac1ab73c35374c710fa2","1","67e1a47dae2e2e04aa7d8417","1","2025-08-07T14:21:58.175Z","","","","StressQ","","","","","","","","","","","50","","","","","","","","","","","","","","","","","","","","","","","","","","",""
"4429","","<div style=""width:500px;"">
  <p>What best describes how you currently feel?</p>
  </div>","91","html-slider-response","17","652328","0.0-7.0-4.0","231","1","2025-08-07 14:10:46","36c45c0696341be0efffe67d72a12abb","197.185.179.85","Mozilla/5.0 (Windows NT 10.0; Win64; x64) AppleWebKit/537.36 (KHTML, like Gecko) Chrome/138.0.0.0 Safari/537.36","WebKit","Chrome","138.0.0.0","Windows","10.0","https://app.prolific.com/","en-US,en;q=0.9","67e1a47dae2e2e04aa7d8417","687a1a965b9f5b85a264363e","6894ac1ab73c35374c710fa2","1","67e1a47dae2e2e04aa7d8417","1","2025-08-07T14:22:02.610Z","","","","MotivationQ","","","","","","","","","","","50","","","","","","","","","","","","","","","","","","","","","","","","","","",""
"","","","","ctl-task-cpt","18","701300","0.0-7.0-0.1","231","1","2025-08-07 14:10:46","36c45c0696341be0efffe67d72a12abb","197.185.179.85","Mozilla/5.0 (Windows NT 10.0; Win64; x64) AppleWebKit/537.36 (KHTML, like Gecko) Chrome/138.0.0.0 Safari/537.36","WebKit","Chrome","138.0.0.0","Windows","10.0","https://app.prolific.com/","en-US,en;q=0.9","67e1a47dae2e2e04aa7d8417","687a1a965b9f5b85a264363e","6894ac1ab73c35374c710fa2","1","67e1a47dae2e2e04aa7d8417","1","2025-08-07T14:22:51.582Z","","","","","","","","","","","","","","","","win-only","3","g1:SW,g2:NE","0.9","2","0","668703.1","4398.5","9436.2","45837.6","1","4","4","6","2","4","4","12","8","0.09090909090909091","2074.1","3000","940","[""up"",""right""]","{""num_key_presses"":8,""num_perfect"":7,""num_errors"":0,""num_randdir"":1,""num_randdir_good_moves"":0,""num_whilered"":0,""num_whileblue"":0,""num_blue"":2,""num_good_moves"":7}","[297.22232142857143,297.12857142857143,1.3,297.22232142857143,297.12857142857143,108,297.22232142857143,297.12857142857143,211.8,297.22232142857143,297.12857142857143,313.2,297.22232142857143,297.12857142857143,598.3,297.22232142857143,297.12857142857143,699.1,405.22232142857143,166.12857142857143,830.2,511.22232142857143,143.12857142857143,938.8,522.2223214285714,146.12857142857143,1046.2,548.2223214285714,112.12857142857143,1164.4,548.2223214285714,112.12857142857143,1267.6,548.2223214285714,112.12857142857143,1380.7,548.2223214285714,112.12857142857143,1528.7,548.2223214285714,106.12857142857143,1645.9,548.2223214285714,94.12857142857143,1772.3,548.2223214285714,91.12857142857143,1885.8,548.2223214285714,91.12857142857143,2007.6,548.2223214285714,91.12857142857143,2115.6,548.2223214285714,91.12857142857143,2252.1,548.2223214285714,91.12857142857143,2371.5,548.2223214285714,91.12857142857143,2495.8,554.2223214285714,115.12857142857143,2637,615.2223214285714,141.12857142857143,2740.7,642.2223214285714,133.12857142857143,2863.7,642.2223214285714,133.12857142857143,2985.9,642.2223214285714,133.12857142857143,3088.4,642.2223214285714,133.12857142857143,3209,642.2223214285714,133.12857142857143,3331.3,642.2223214285714,133.12857142857143,3493.5,642.2223214285714,133.12857142857143,3601.2,642.2223214285714,133.12857142857143,3737.2,642.2223214285714,133.12857142857143,3837.6,642.2223214285714,133.12857142857143,3947.1,642.2223214285714,133.12857142857143,4072.8,642.2223214285714,133.12857142857143,4186.3,642.2223214285714,133.12857142857143,4323.3,642.2223214285714,133.12857142857143,4439.7,642.2223214285714,133.12857142857143,4565.8,642.2223214285714,133.12857142857143,4701.4,642.2223214285714,133.12857142857143,4802.5,642.2223214285714,133.12857142857143,4905.3]","[1637.3,1637.3,1000,0,637.3,""smooth"",""up"",""up"",""good_move"",6881,5216.1,1861.5,1665,3354.5,""smooth"",""up"",""up"",""good_move"",10804.1,3917.6,2729.5,6886.6,1188.1,""smooth"",""up"",""up"",""good_move"",16446.3,5642.1,2805.8,10804.2,2836.3,""smooth"",""right"",""right"",""good_move"",19632.7,3186.2,2465.7,16446.5,720.5,""oops"",""right"",""down"",""bad_move"",22758.8,3122.3,2291.9,19636.5,830.4,""smooth"",""up"",""up"",""good_move"",33191.6,10431.7,3505.7,29265.6,420.3,""smooth"",""right"",""right"",""good_move"",36205.2,3011.3,2209.9,33194,801.4,""smooth"",""right"",""right"",""good_move""]"
"4439","","<div style=""width:500px;"">
  <p>What determined the result of this run?</p>
  </div>","98","html-slider-response","19","705745","0.0-7.0-1.1","231","1","2025-08-07 14:10:46","36c45c0696341be0efffe67d72a12abb","197.185.179.85","Mozilla/5.0 (Windows NT 10.0; Win64; x64) AppleWebKit/537.36 (KHTML, like Gecko) Chrome/138.0.0.0 Safari/537.36","WebKit","Chrome","138.0.0.0","Windows","10.0","https://app.prolific.com/","en-US,en;q=0.9","67e1a47dae2e2e04aa7d8417","687a1a965b9f5b85a264363e","6894ac1ab73c35374c710fa2","1","67e1a47dae2e2e04aa7d8417","1","2025-08-07T14:22:56.026Z","","","","AttribQ","","","","","","","","","","","50","","","","","","","","","","","","","","","","","","","","","","","","","","",""
"3282","","<div style=""width:500px;"">
  <p>How much control did you have over the ball?</p>
  </div>","86","html-slider-response","20","709031","0.0-7.0-2.1","231","1","2025-08-07 14:10:46","36c45c0696341be0efffe67d72a12abb","197.185.179.85","Mozilla/5.0 (Windows NT 10.0; Win64; x64) AppleWebKit/537.36 (KHTML, like Gecko) Chrome/138.0.0.0 Safari/537.36","WebKit","Chrome","138.0.0.0","Windows","10.0","https://app.prolific.com/","en-US,en;q=0.9","67e1a47dae2e2e04aa7d8417","687a1a965b9f5b85a264363e","6894ac1ab73c35374c710fa2","1","67e1a47dae2e2e04aa7d8417","1","2025-08-07T14:22:59.312Z","","","","ControlQ","","","","","","","","","","","50","","","","","","","","","","","","","","","","","","","","","","","","","","",""
"3676","","<div style=""width:500px;"">
  <p>How would you describe your current emotional state?</p>
  </div>","4","html-slider-response","21","712713","0.0-7.0-3.1","231","1","2025-08-07 14:10:46","36c45c0696341be0efffe67d72a12abb","197.185.179.85","Mozilla/5.0 (Windows NT 10.0; Win64; x64) AppleWebKit/537.36 (KHTML, like Gecko) Chrome/138.0.0.0 Safari/537.36","WebKit","Chrome","138.0.0.0","Windows","10.0","https://app.prolific.com/","en-US,en;q=0.9","67e1a47dae2e2e04aa7d8417","687a1a965b9f5b85a264363e","6894ac1ab73c35374c710fa2","1","67e1a47dae2e2e04aa7d8417","1","2025-08-07T14:23:02.994Z","","","","StressQ","","","","","","","","","","","50","","","","","","","","","","","","","","","","","","","","","","","","","","",""
"4685","","<div style=""width:500px;"">
  <p>What best describes how you currently feel?</p>
  </div>","97","html-slider-response","22","717402","0.0-7.0-4.1","231","1","2025-08-07 14:10:46","36c45c0696341be0efffe67d72a12abb","197.185.179.85","Mozilla/5.0 (Windows NT 10.0; Win64; x64) AppleWebKit/537.36 (KHTML, like Gecko) Chrome/138.0.0.0 Safari/537.36","WebKit","Chrome","138.0.0.0","Windows","10.0","https://app.prolific.com/","en-US,en;q=0.9","67e1a47dae2e2e04aa7d8417","687a1a965b9f5b85a264363e","6894ac1ab73c35374c710fa2","1","67e1a47dae2e2e04aa7d8417","1","2025-08-07T14:23:07.683Z","","","","MotivationQ","","","","","","","","","","","50","","","","","","","","","","","","","","","","","","","","","","","","","","",""
"","","","","ctl-task-cpt","23","755056","0.0-7.0-0.2","231","1","2025-08-07 14:10:46","36c45c0696341be0efffe67d72a12abb","197.185.179.85","Mozilla/5.0 (Windows NT 10.0; Win64; x64) AppleWebKit/537.36 (KHTML, like Gecko) Chrome/138.0.0.0 Safari/537.36","WebKit","Chrome","138.0.0.0","Windows","10.0","https://app.prolific.com/","en-US,en;q=0.9","67e1a47dae2e2e04aa7d8417","687a1a965b9f5b85a264363e","6894ac1ab73c35374c710fa2","1","67e1a47dae2e2e04aa7d8417","1","2025-08-07T14:23:45.337Z","","","","","","","","","","","","","","","","win-only","2","g1:SE,g2:NW","0.8","3","0","733675.1","1487.2","6509.9","34634.4","1","4","8","6","2","-8","-8","4","12","0.030303030303030304","1900.3","3000","-1250","[""left"",""up""]","{""num_key_presses"":6,""num_perfect"":5,""num_errors"":0,""num_randdir"":1,""num_randdir_good_moves"":0,""num_whilered"":0,""num_whileblue"":0,""num_blue"":1,""num_good_moves"":5}","[293.22232142857143,298.12857142857143,6.9,293.22232142857143,298.12857142857143,105.3,293.22232142857143,298.12857142857143,219,293.22232142857143,298.12857142857143,332.1,293.22232142857143,298.12857142857143,434.5,293.22232142857143,298.12857142857143,535.3,293.22232142857143,298.12857142857143,652.8,293.22232142857143,298.12857142857143,758.8,220.22232142857143,235.12857142857143,861.6,172.22232142857143,148.12857142857143,978.4,139.22232142857143,134.12857142857143,1087.6,139.22232142857143,134.12857142857143,1202.4,139.22232142857143,134.12857142857143,1314.8,65.22232142857143,100.12857142857143,1423.7,34.222321428571426,74.12857142857143,1524.7,34.222321428571426,74.12857142857143,1636.7,34.222321428571426,73.12857142857143,1746.6,34.222321428571426,73.12857142857143,1850.6,34.222321428571426,73.12857142857143,1951.5,34.222321428571426,73.12857142857143,2070,34.222321428571426,73.12857142857143,2175.6,34.222321428571426,73.12857142857143,2275.7,34.222321428571426,73.12857142857143,2388.1,62.222321428571426,77.12857142857143,2494.2,117.22232142857143,123.12857142857143,2617.5,103.22232142857143,127.12857142857143,2734.2,101.22232142857143,129.12857142857143,2839.8,101.22232142857143,129.12857142857143,2956.3,101.22232142857143,129.12857142857143,3059.9,101.22232142857143,129.12857142857143,3164.6,101.22232142857143,129.12857142857143,3283.5,101.22232142857143,129.12857142857143,3394.2,101.22232142857143,129.12857142857143,3505,101.22232142857143,129.12857142857143,3621.8,101.22232142857143,129.12857142857143,3730.9,101.22232142857143,129.12857142857143,3840.1,101.22232142857143,129.12857142857143,3952.2,101.22232142857143,129.12857142857143,4063.7,101.22232142857143,129.12857142857143,4324.6,101.22232142857143,129.12857142857143,4428.6,101.22232142857143,129.12857142857143,4542.5,101.22232142857143,129.12857142857143,4645.6,101.22232142857143,129.12857142857143,4751,101.22232142857143,129.12857142857143,4864.2,101.22232142857143,129.12857142857143,4972.6]","[2796.6,2796.6,1000,0,1796.6,""smooth"",""up"",""up"",""good_move"",9667.7,6850.4,2827.8,6314,525.9,""smooth"",""up"",""up"",""good_move"",12595.6,2926.5,2082.5,9669.1,844,""smooth"",""up"",""up"",""good_move"",15948.4,3351.2,2717.1,12597.2,634.1,""smooth"",""left"",""left"",""good_move"",19786,3835,3174.4,15951,660.6,""oops"",""left"",""right"",""bad_move"",24327,4539.7,2716.7,19787.4,1823,""smooth"",""left"",""left"",""good_move""]"
"5300","","<div style=""width:500px;"">
  <p>What determined the result of this run?</p>
  </div>","99","html-slider-response","24","760360","0.0-7.0-1.2","231","1","2025-08-07 14:10:46","36c45c0696341be0efffe67d72a12abb","197.185.179.85","Mozilla/5.0 (Windows NT 10.0; Win64; x64) AppleWebKit/537.36 (KHTML, like Gecko) Chrome/138.0.0.0 Safari/537.36","WebKit","Chrome","138.0.0.0","Windows","10.0","https://app.prolific.com/","en-US,en;q=0.9","67e1a47dae2e2e04aa7d8417","687a1a965b9f5b85a264363e","6894ac1ab73c35374c710fa2","1","67e1a47dae2e2e04aa7d8417","1","2025-08-07T14:23:50.642Z","","","","AttribQ","","","","","","","","","","","50","","","","","","","","","","","","","","","","","","","","","","","","","","",""
"5198","","<div style=""width:500px;"">
  <p>How much control did you have over the ball?</p>
  </div>","97","html-slider-response","25","765562","0.0-7.0-2.2","231","1","2025-08-07 14:10:46","36c45c0696341be0efffe67d72a12abb","197.185.179.85","Mozilla/5.0 (Windows NT 10.0; Win64; x64) AppleWebKit/537.36 (KHTML, like Gecko) Chrome/138.0.0.0 Safari/537.36","WebKit","Chrome","138.0.0.0","Windows","10.0","https://app.prolific.com/","en-US,en;q=0.9","67e1a47dae2e2e04aa7d8417","687a1a965b9f5b85a264363e","6894ac1ab73c35374c710fa2","1","67e1a47dae2e2e04aa7d8417","1","2025-08-07T14:23:55.843Z","","","","ControlQ","","","","","","","","","","","50","","","","","","","","","","","","","","","","","","","","","","","","","","",""
"3628","","<div style=""width:500px;"">
  <p>How would you describe your current emotional state?</p>
  </div>","4","html-slider-response","26","769195","0.0-7.0-3.2","231","1","2025-08-07 14:10:46","36c45c0696341be0efffe67d72a12abb","197.185.179.85","Mozilla/5.0 (Windows NT 10.0; Win64; x64) AppleWebKit/537.36 (KHTML, like Gecko) Chrome/138.0.0.0 Safari/537.36","WebKit","Chrome","138.0.0.0","Windows","10.0","https://app.prolific.com/","en-US,en;q=0.9","67e1a47dae2e2e04aa7d8417","687a1a965b9f5b85a264363e","6894ac1ab73c35374c710fa2","1","67e1a47dae2e2e04aa7d8417","1","2025-08-07T14:23:59.476Z","","","","StressQ","","","","","","","","","","","50","","","","","","","","","","","","","","","","","","","","","","","","","","",""
"7066","","<div style=""width:500px;"">
  <p>What best describes how you currently feel?</p>
  </div>","95","html-slider-response","27","776266","0.0-7.0-4.2","231","1","2025-08-07 14:10:46","36c45c0696341be0efffe67d72a12abb","197.185.179.85","Mozilla/5.0 (Windows NT 10.0; Win64; x64) AppleWebKit/537.36 (KHTML, like Gecko) Chrome/138.0.0.0 Safari/537.36","WebKit","Chrome","138.0.0.0","Windows","10.0","https://app.prolific.com/","en-US,en;q=0.9","67e1a47dae2e2e04aa7d8417","687a1a965b9f5b85a264363e","6894ac1ab73c35374c710fa2","1","67e1a47dae2e2e04aa7d8417","1","2025-08-07T14:24:06.547Z","","","","MotivationQ","","","","","","","","","","","50","","","","","","","","","","","","","","","","","","","","","","","","","","",""
"","","","","ctl-task-cpt","28","820178","0.0-7.0-0.3","231","1","2025-08-07 14:10:46","36c45c0696341be0efffe67d72a12abb","197.185.179.85","Mozilla/5.0 (Windows NT 10.0; Win64; x64) AppleWebKit/537.36 (KHTML, like Gecko) Chrome/138.0.0.0 Safari/537.36","WebKit","Chrome","138.0.0.0","Windows","10.0","https://app.prolific.com/","en-US,en;q=0.9","67e1a47dae2e2e04aa7d8417","687a1a965b9f5b85a264363e","6894ac1ab73c35374c710fa2","1","67e1a47dae2e2e04aa7d8417","1","2025-08-07T14:24:50.461Z","","","","","","","","","","","","","","","","win-only","3","g1:SW,g2:NE","0.7","4","0","792545.8","1491.4","6511.1","40876.4","1","4","4","6","1","1","1","5","4","0.03787878787878788","2309.3","3000","1615","[""down"",""left""]","{""num_key_presses"":6,""num_perfect"":4,""num_errors"":0,""num_randdir"":2,""num_randdir_good_moves"":1,""num_whilered"":0,""num_whileblue"":0,""num_blue"":5,""num_good_moves"":5}","[299.22232142857143,292.12857142857143,2.1,299.22232142857143,292.12857142857143,115.1,299.22232142857143,292.12857142857143,220.4,299.22232142857143,292.12857142857143,324.9,299.22232142857143,292.12857142857143,432.5,299.22232142857143,292.12857142857143,546.7,299.22232142857143,292.12857142857143,652.4,311.22232142857143,273.12857142857143,757.7,470.22232142857143,172.12857142857143,863.2,511.22232142857143,167.12857142857143,966.1,517.2223214285714,155.12857142857143,1066.9,532.2223214285714,132.12857142857143,1199.7,532.2223214285714,132.12857142857143,1325.8,359.22232142857143,298.12857142857143,1428,68.22232142857143,628.1285714285714,1541.8,11.222321428571426,662.1285714285714,1646.6,-14.777678571428574,673.1285714285714,1757.7,5.222321428571426,591.1285714285714,1886.5,25.222321428571426,559.1285714285714,2000.5,26.222321428571426,558.1285714285714,2114.5,26.222321428571426,558.1285714285714,2242.2,26.222321428571426,558.1285714285714,2356.3,26.222321428571426,558.1285714285714,2458.2,26.222321428571426,558.1285714285714,2566.2,26.222321428571426,558.1285714285714,2667.1,26.222321428571426,558.1285714285714,2790.5,82.22232142857143,588.1285714285714,2897.5,128.22232142857143,683.1285714285714,3010.1,115.22232142857143,678.1285714285714,3116.5,115.22232142857143,678.1285714285714,3240.3,115.22232142857143,678.1285714285714,3347,115.22232142857143,678.1285714285714,3456.5,115.22232142857143,678.1285714285714,3588.9,115.22232142857143,678.1285714285714,3693.2,115.22232142857143,678.1285714285714,3807.5,115.22232142857143,678.1285714285714,3926.1,115.22232142857143,678.1285714285714,4039.2,115.22232142857143,678.1285714285714,4149.3,115.22232142857143,678.1285714285714,4249.8,115.22232142857143,678.1285714285714,4360.7,115.22232142857143,678.1285714285714,4474.1,115.22232142857143,678.1285714285714,4574.3,115.22232142857143,678.1285714285714,4696,115.22232142857143,678.1285714285714,4797.5,115.22232142857143,678.1285714285714,4901.1]","[4952.6,4952.6,2456.7,2005.3,490.6,""oops"",""down"",""left"",""good_move"",11515.9,6560.2,2057.5,9006.6,451.8,""smooth"",""down"",""down"",""good_move"",20175.5,8653.4,2005.6,17683.5,486.5,""smooth"",""down"",""down"",""good_move"",26316.7,6138.9,1887.2,23712.9,716.6,""oops"",""left"",""right"",""bad_move"",30064,3731.6,2202.9,26332.4,1528.7,""smooth"",""left"",""left"",""good_move"",34044.8,3978.5,3023.1,30066.3,955.4,""smooth"",""left"",""left"",""good_move""]"
"5904","","<div style=""width:500px;"">
  <p>What determined the result of this run?</p>
  </div>","94","html-slider-response","29","826087","0.0-7.0-1.3","231","1","2025-08-07 14:10:46","36c45c0696341be0efffe67d72a12abb","197.185.179.85","Mozilla/5.0 (Windows NT 10.0; Win64; x64) AppleWebKit/537.36 (KHTML, like Gecko) Chrome/138.0.0.0 Safari/537.36","WebKit","Chrome","138.0.0.0","Windows","10.0","https://app.prolific.com/","en-US,en;q=0.9","67e1a47dae2e2e04aa7d8417","687a1a965b9f5b85a264363e","6894ac1ab73c35374c710fa2","1","67e1a47dae2e2e04aa7d8417","1","2025-08-07T14:24:56.368Z","","","","AttribQ","","","","","","","","","","","50","","","","","","","","","","","","","","","","","","","","","","","","","","",""
"5966","","<div style=""width:500px;"">
  <p>How much control did you have over the ball?</p>
  </div>","95","html-slider-response","30","832056","0.0-7.0-2.3","231","1","2025-08-07 14:10:46","36c45c0696341be0efffe67d72a12abb","197.185.179.85","Mozilla/5.0 (Windows NT 10.0; Win64; x64) AppleWebKit/537.36 (KHTML, like Gecko) Chrome/138.0.0.0 Safari/537.36","WebKit","Chrome","138.0.0.0","Windows","10.0","https://app.prolific.com/","en-US,en;q=0.9","67e1a47dae2e2e04aa7d8417","687a1a965b9f5b85a264363e","6894ac1ab73c35374c710fa2","1","67e1a47dae2e2e04aa7d8417","1","2025-08-07T14:25:02.338Z","","","","ControlQ","","","","","","","","","","","50","","","","","","","","","","","","","","","","","","","","","","","","","","",""
"4198","","<div style=""width:500px;"">
  <p>How would you describe your current emotional state?</p>
  </div>","3","html-slider-response","31","836260","0.0-7.0-3.3","231","1","2025-08-07 14:10:46","36c45c0696341be0efffe67d72a12abb","197.185.179.85","Mozilla/5.0 (Windows NT 10.0; Win64; x64) AppleWebKit/537.36 (KHTML, like Gecko) Chrome/138.0.0.0 Safari/537.36","WebKit","Chrome","138.0.0.0","Windows","10.0","https://app.prolific.com/","en-US,en;q=0.9","67e1a47dae2e2e04aa7d8417","687a1a965b9f5b85a264363e","6894ac1ab73c35374c710fa2","1","67e1a47dae2e2e04aa7d8417","1","2025-08-07T14:25:06.542Z","","","","StressQ","","","","","","","","","","","50","","","","","","","","","","","","","","","","","","","","","","","","","","",""
"3572","","<div style=""width:500px;"">
  <p>What best describes how you currently feel?</p>
  </div>","96","html-slider-response","32","839835","0.0-7.0-4.3","231","1","2025-08-07 14:10:46","36c45c0696341be0efffe67d72a12abb","197.185.179.85","Mozilla/5.0 (Windows NT 10.0; Win64; x64) AppleWebKit/537.36 (KHTML, like Gecko) Chrome/138.0.0.0 Safari/537.36","WebKit","Chrome","138.0.0.0","Windows","10.0","https://app.prolific.com/","en-US,en;q=0.9","67e1a47dae2e2e04aa7d8417","687a1a965b9f5b85a264363e","6894ac1ab73c35374c710fa2","1","67e1a47dae2e2e04aa7d8417","1","2025-08-07T14:25:10.117Z","","","","MotivationQ","","","","","","","","","","","50","","","","","","","","","","","","","","","","","","","","","","","","","","",""
"","","","","ctl-task-cpt","33","871644","0.0-7.0-0.4","231","1","2025-08-07 14:10:46","36c45c0696341be0efffe67d72a12abb","197.185.179.85","Mozilla/5.0 (Windows NT 10.0; Win64; x64) AppleWebKit/537.36 (KHTML, like Gecko) Chrome/138.0.0.0 Safari/537.36","WebKit","Chrome","138.0.0.0","Windows","10.0","https://app.prolific.com/","en-US,en;q=0.9","67e1a47dae2e2e04aa7d8417","687a1a965b9f5b85a264363e","6894ac1ab73c35374c710fa2","1","67e1a47dae2e2e04aa7d8417","1","2025-08-07T14:25:41.925Z","","","","","","","","","","","","","","","","win-only","3","g1:SW,g2:NE","0.6","5","0","856112.3","1675.7","6681.3","28779","1","4","8","6","1","1","1","6","5","0.045454545454545456","2016.3","3000","2225","[""down"",""left""]","{""num_key_presses"":4,""num_perfect"":3,""num_errors"":0,""num_randdir"":1,""num_randdir_good_moves"":1,""num_whilered"":0,""num_whileblue"":0,""num_blue"":3,""num_good_moves"":4}","[299.22232142857143,298.12857142857143,0.2,299.22232142857143,298.12857142857143,104.6,299.22232142857143,298.12857142857143,218.6,299.22232142857143,298.12857142857143,328.5,299.22232142857143,298.12857142857143,457.5,299.22232142857143,298.12857142857143,571,299.22232142857143,298.12857142857143,674.5,299.22232142857143,293.12857142857143,779.2,351.22232142857143,248.12857142857143,887.2,435.22232142857143,223.12857142857143,993.1,387.22232142857143,297.12857142857143,1093.2,25.222321428571426,615.1285714285714,1210,25.222321428571426,615.1285714285714,1321.9,25.222321428571426,615.1285714285714,1447.8,13.222321428571426,606.1285714285714,1574.2,39.222321428571426,568.1285714285714,1687.7,44.222321428571426,560.1285714285714,1788,44.222321428571426,560.1285714285714,1888.5,44.222321428571426,560.1285714285714,2011.4,44.222321428571426,560.1285714285714,2126.3,44.222321428571426,560.1285714285714,2240,44.222321428571426,560.1285714285714,2358.6,44.222321428571426,560.1285714285714,2470.2,44.222321428571426,560.1285714285714,2575.5,44.222321428571426,560.1285714285714,2687.2,44.222321428571426,560.1285714285714,2803.3,44.222321428571426,560.1285714285714,2918.9,44.222321428571426,560.1285714285714,3041.4,44.222321428571426,560.1285714285714,3146.9,44.222321428571426,560.1285714285714,3257.1,44.222321428571426,560.1285714285714,3360.3,44.222321428571426,560.1285714285714,3467.4,44.222321428571426,560.1285714285714,3574.9,44.222321428571426,560.1285714285714,3688.2,44.222321428571426,560.1285714285714,3790.1,44.222321428571426,560.1285714285714,3895.6,44.222321428571426,560.1285714285714,4006.6,44.222321428571426,560.1285714285714,4119,44.222321428571426,560.1285714285714,4229.4,44.222321428571426,560.1285714285714,4339.1,44.222321428571426,560.1285714285714,4446.1,44.222321428571426,560.1285714285714,4547.6,44.222321428571426,560.1285714285714,4665.2,44.222321428571426,560.1285714285714,4794.6,44.222321428571426,560.1285714285714,4902.4]","[1585.9,1585.9,1000,0,585.9,""smooth"",""down"",""down"",""good_move"",5014.9,3427.4,2781.1,1587.7,646.2,""smooth"",""down"",""down"",""good_move"",14379.5,9364.5,2345.8,11334.1,699.7,""smooth"",""left"",""left"",""good_move"",21735.1,7346.4,1925.5,18958.3,851.3,""oops"",""left"",""left"",""good_move""]"
"4993","","<div style=""width:500px;"">
  <p>What determined the result of this run?</p>
  </div>","97","html-slider-response","34","876650","0.0-7.0-1.4","231","1","2025-08-07 14:10:46","36c45c0696341be0efffe67d72a12abb","197.185.179.85","Mozilla/5.0 (Windows NT 10.0; Win64; x64) AppleWebKit/537.36 (KHTML, like Gecko) Chrome/138.0.0.0 Safari/537.36","WebKit","Chrome","138.0.0.0","Windows","10.0","https://app.prolific.com/","en-US,en;q=0.9","67e1a47dae2e2e04aa7d8417","687a1a965b9f5b85a264363e","6894ac1ab73c35374c710fa2","1","67e1a47dae2e2e04aa7d8417","1","2025-08-07T14:25:46.931Z","","","","AttribQ","","","","","","","","","","","50","","","","","","","","","","","","","","","","","","","","","","","","","","",""
"5274","","<div style=""width:500px;"">
  <p>How much control did you have over the ball?</p>
  </div>","97","html-slider-response","35","881930","0.0-7.0-2.4","231","1","2025-08-07 14:10:46","36c45c0696341be0efffe67d72a12abb","197.185.179.85","Mozilla/5.0 (Windows NT 10.0; Win64; x64) AppleWebKit/537.36 (KHTML, like Gecko) Chrome/138.0.0.0 Safari/537.36","WebKit","Chrome","138.0.0.0","Windows","10.0","https://app.prolific.com/","en-US,en;q=0.9","67e1a47dae2e2e04aa7d8417","687a1a965b9f5b85a264363e","6894ac1ab73c35374c710fa2","1","67e1a47dae2e2e04aa7d8417","1","2025-08-07T14:25:52.213Z","","","","ControlQ","","","","","","","","","","","50","","","","","","","","","","","","","","","","","","","","","","","","","","",""
"3324","","<div style=""width:500px;"">
  <p>How would you describe your current emotional state?</p>
  </div>","1","html-slider-response","36","885274","0.0-7.0-3.4","231","1","2025-08-07 14:10:46","36c45c0696341be0efffe67d72a12abb","197.185.179.85","Mozilla/5.0 (Windows NT 10.0; Win64; x64) AppleWebKit/537.36 (KHTML, like Gecko) Chrome/138.0.0.0 Safari/537.36","WebKit","Chrome","138.0.0.0","Windows","10.0","https://app.prolific.com/","en-US,en;q=0.9","67e1a47dae2e2e04aa7d8417","687a1a965b9f5b85a264363e","6894ac1ab73c35374c710fa2","1","67e1a47dae2e2e04aa7d8417","1","2025-08-07T14:25:55.555Z","","","","StressQ","","","","","","","","","","","50","","","","","","","","","","","","","","","","","","","","","","","","","","",""
"3398","","<div style=""width:500px;"">
  <p>What best describes how you currently feel?</p>
  </div>","93","html-slider-response","37","888676","0.0-7.0-4.4","231","1","2025-08-07 14:10:46","36c45c0696341be0efffe67d72a12abb","197.185.179.85","Mozilla/5.0 (Windows NT 10.0; Win64; x64) AppleWebKit/537.36 (KHTML, like Gecko) Chrome/138.0.0.0 Safari/537.36","WebKit","Chrome","138.0.0.0","Windows","10.0","https://app.prolific.com/","en-US,en;q=0.9","67e1a47dae2e2e04aa7d8417","687a1a965b9f5b85a264363e","6894ac1ab73c35374c710fa2","1","67e1a47dae2e2e04aa7d8417","1","2025-08-07T14:25:58.957Z","","","","MotivationQ","","","","","","","","","","","50","","","","","","","","","","","","","","","","","","","","","","","","","","",""
"","","","","ctl-task-cpt","38","970316","0.0-7.0-0.5","231","1","2025-08-07 14:10:46","36c45c0696341be0efffe67d72a12abb","197.185.179.85","Mozilla/5.0 (Windows NT 10.0; Win64; x64) AppleWebKit/537.36 (KHTML, like Gecko) Chrome/138.0.0.0 Safari/537.36","WebKit","Chrome","138.0.0.0","Windows","10.0","https://app.prolific.com/","en-US,en;q=0.9","67e1a47dae2e2e04aa7d8417","687a1a965b9f5b85a264363e","6894ac1ab73c35374c710fa2","1","67e1a47dae2e2e04aa7d8417","1","2025-08-07T14:27:20.598Z","","","","","","","","","","","","","","","","win-only","1","g1:NE,g2:SW","0.5","6","0","904951.6","3188.9","8212.2","78601","1","4","4","6","2","4","4","10","6","0.07575757575757576","2703.8","3000","575","[""down"",""left""]","{""num_key_presses"":14,""num_perfect"":7,""num_errors"":0,""num_randdir"":7,""num_randdir_good_moves"":3,""num_whilered"":0,""num_whileblue"":0,""num_blue"":4,""num_good_moves"":10}","[294.22232142857143,296.12857142857143,0.9,294.22232142857143,296.12857142857143,115.7,294.22232142857143,296.12857142857143,226.9,294.22232142857143,296.12857142857143,336.2,294.22232142857143,296.12857142857143,452.8,294.22232142857143,296.12857142857143,565.8,294.22232142857143,296.12857142857143,682.7,294.22232142857143,296.12857142857143,794.4,294.22232142857143,296.12857142857143,908.2,294.22232142857143,296.12857142857143,1011.4,294.22232142857143,296.12857142857143,1112.5,294.22232142857143,296.12857142857143,1212.9,365.22232142857143,209.12857142857143,1323.3,475.22232142857143,102.12857142857143,1451.1,486.22232142857143,99.12857142857143,1556.2,160.22232142857143,455.12857142857143,1676.9,5.222321428571426,581.1285714285714,1788.2,-0.7776785714285737,581.1285714285714,1896.5,-0.7776785714285737,581.1285714285714,1997.8,-0.7776785714285737,581.1285714285714,2105.9,14.222321428571426,566.1285714285714,2206.9,42.222321428571426,560.1285714285714,2312.8,42.222321428571426,560.1285714285714,2434.6,42.222321428571426,560.1285714285714,2544.8,42.222321428571426,560.1285714285714,2652,42.222321428571426,560.1285714285714,2754.6,42.222321428571426,560.1285714285714,2867.5,42.222321428571426,560.1285714285714,2975.3,42.222321428571426,560.1285714285714,3079.5,42.222321428571426,560.1285714285714,3180.6,42.222321428571426,560.1285714285714,3287.6,42.222321428571426,560.1285714285714,3399,55.222321428571426,678.1285714285714,3504.1,55.222321428571426,683.1285714285714,3627.6,55.222321428571426,683.1285714285714,3751.7,55.222321428571426,683.1285714285714,3868,55.222321428571426,683.1285714285714,3968.1,55.222321428571426,683.1285714285714,4070.7,55.222321428571426,683.1285714285714,4188,55.222321428571426,683.1285714285714,4289.7,55.222321428571426,683.1285714285714,4415.9,55.222321428571426,683.1285714285714,4522.7,55.222321428571426,683.1285714285714,4643,55.222321428571426,683.1285714285714,4744.9,55.222321428571426,683.1285714285714,4860.6,55.222321428571426,683.1285714285714,4975.5]","[1647.3,1647.3,1000,0,647.3,""oops"",""down"",""right"",""bad_move"",5240.2,3590.2,2857.7,1650,732.5,""oops"",""down"",""down"",""good_move"",7741.3,2498.4,1880.5,5242.9,617.9,""smooth"",""down"",""down"",""good_move"",11495.6,3751.9,3183.4,7743.7,568.5,""smooth"",""down"",""down"",""good_move"",18627.4,7129.2,3282.6,14694.2,650.6,""smooth"",""left"",""left"",""good_move"",26928.9,8298.9,2331,23612.6,985.3,""smooth"",""left"",""left"",""good_move"",35428.3,8490.9,2950,31873.2,605.1,""oops"",""left"",""right"",""bad_move"",39217.8,3782.3,2961.4,35435.6,820.8,""oops"",""left"",""right"",""bad_move"",42926,3701.6,1596.4,39224.5,2105.1,""oops"",""left"",""right"",""bad_move"",50738.3,7802.7,2824.2,47294.4,619.8,""smooth"",""left"",""left"",""good_move"",56168.3,5427.7,2968.8,50740.7,2458.9,""smooth"",""left"",""left"",""good_move"",60397.2,4227.8,2177.7,56169.4,2050.1,""oops"",""left"",""left"",""good_move"",65100.2,4694.1,2218.4,60406.1,2475.7,""oops"",""left"",""left"",""good_move"",69878.9,4768.2,2103,65110.7,2665.2,""smooth"",""left"",""left"",""good_move""]"
"4026","","<div style=""width:500px;"">
  <p>What determined the result of this run?</p>
  </div>","98","html-slider-response","39","974350","0.0-7.0-1.5","231","1","2025-08-07 14:10:46","36c45c0696341be0efffe67d72a12abb","197.185.179.85","Mozilla/5.0 (Windows NT 10.0; Win64; x64) AppleWebKit/537.36 (KHTML, like Gecko) Chrome/138.0.0.0 Safari/537.36","WebKit","Chrome","138.0.0.0","Windows","10.0","https://app.prolific.com/","en-US,en;q=0.9","67e1a47dae2e2e04aa7d8417","687a1a965b9f5b85a264363e","6894ac1ab73c35374c710fa2","1","67e1a47dae2e2e04aa7d8417","1","2025-08-07T14:27:24.631Z","","","","AttribQ","","","","","","","","","","","50","","","","","","","","","","","","","","","","","","","","","","","","","","",""
"3684","","<div style=""width:500px;"">
  <p>How much control did you have over the ball?</p>
  </div>","96","html-slider-response","40","978043","0.0-7.0-2.5","231","1","2025-08-07 14:10:46","36c45c0696341be0efffe67d72a12abb","197.185.179.85","Mozilla/5.0 (Windows NT 10.0; Win64; x64) AppleWebKit/537.36 (KHTML, like Gecko) Chrome/138.0.0.0 Safari/537.36","WebKit","Chrome","138.0.0.0","Windows","10.0","https://app.prolific.com/","en-US,en;q=0.9","67e1a47dae2e2e04aa7d8417","687a1a965b9f5b85a264363e","6894ac1ab73c35374c710fa2","1","67e1a47dae2e2e04aa7d8417","1","2025-08-07T14:27:28.324Z","","","","ControlQ","","","","","","","","","","","50","","","","","","","","","","","","","","","","","","","","","","","","","","",""
"7700","","<div style=""width:500px;"">
  <p>How would you describe your current emotional state?</p>
  </div>","4","html-slider-response","41","985749","0.0-7.0-3.5","231","1","2025-08-07 14:10:46","36c45c0696341be0efffe67d72a12abb","197.185.179.85","Mozilla/5.0 (Windows NT 10.0; Win64; x64) AppleWebKit/537.36 (KHTML, like Gecko) Chrome/138.0.0.0 Safari/537.36","WebKit","Chrome","138.0.0.0","Windows","10.0","https://app.prolific.com/","en-US,en;q=0.9","67e1a47dae2e2e04aa7d8417","687a1a965b9f5b85a264363e","6894ac1ab73c35374c710fa2","1","67e1a47dae2e2e04aa7d8417","1","2025-08-07T14:27:36.030Z","","","","StressQ","","","","","","","","","","","50","","","","","","","","","","","","","","","","","","","","","","","","","","",""
"8108","","<div style=""width:500px;"">
  <p>What best describes how you currently feel?</p>
  </div>","89","html-slider-response","42","993867","0.0-7.0-4.5","231","1","2025-08-07 14:10:46","36c45c0696341be0efffe67d72a12abb","197.185.179.85","Mozilla/5.0 (Windows NT 10.0; Win64; x64) AppleWebKit/537.36 (KHTML, like Gecko) Chrome/138.0.0.0 Safari/537.36","WebKit","Chrome","138.0.0.0","Windows","10.0","https://app.prolific.com/","en-US,en;q=0.9","67e1a47dae2e2e04aa7d8417","687a1a965b9f5b85a264363e","6894ac1ab73c35374c710fa2","1","67e1a47dae2e2e04aa7d8417","1","2025-08-07T14:27:44.148Z","","","","MotivationQ","","","","","","","","","","","50","","","","","","","","","","","","","","","","","","","","","","","","","","",""
"","","","","ctl-task-cpt","43","1052625","0.0-7.0-0.6","231","1","2025-08-07 14:10:46","36c45c0696341be0efffe67d72a12abb","197.185.179.85","Mozilla/5.0 (Windows NT 10.0; Win64; x64) AppleWebKit/537.36 (KHTML, like Gecko) Chrome/138.0.0.0 Safari/537.36","WebKit","Chrome","138.0.0.0","Windows","10.0","https://app.prolific.com/","en-US,en;q=0.9","67e1a47dae2e2e04aa7d8417","687a1a965b9f5b85a264363e","6894ac1ab73c35374c710fa2","1","67e1a47dae2e2e04aa7d8417","1","2025-08-07T14:28:42.906Z","","","","","","","","","","","","","","","","win-only","1","g1:NE,g2:SW","0.4","7","0","1010145.1","2480.3","7499.3","55682.3","1","4","8","6","2","8","7","17","10","0.12878787878787878","2490.4","3000","1430","[""down"",""left""]","{""num_key_presses"":11,""num_perfect"":4,""num_errors"":1,""num_randdir"":6,""num_randdir_good_moves"":4,""num_whilered"":0,""num_whileblue"":0,""num_blue"":2,""num_good_moves"":8}","[297.22232142857143,302.12857142857143,1.4,297.22232142857143,302.12857142857143,109.9,297.22232142857143,302.12857142857143,211.8,297.22232142857143,302.12857142857143,323.8,297.22232142857143,302.12857142857143,447.5,297.22232142857143,302.12857142857143,576.2,297.22232142857143,302.12857142857143,695.1,297.22232142857143,302.12857142857143,800.2,297.22232142857143,302.12857142857143,956.2,297.22232142857143,302.12857142857143,1082.5,297.22232142857143,302.12857142857143,1205.8,297.22232142857143,302.12857142857143,1312.1,297.22232142857143,302.12857142857143,1423.2,297.22232142857143,302.12857142857143,1534.8,297.22232142857143,302.12857142857143,1635,297.22232142857143,302.12857142857143,1736.9,-9.777678571428574,522.1285714285714,1858.2,-15.777678571428574,520.1285714285714,1967.5,7.222321428571426,507.12857142857143,2088.2,34.222321428571426,526.1285714285714,2219.6,36.222321428571426,527.1285714285714,2321.2,36.222321428571426,527.1285714285714,2453.5,36.222321428571426,527.1285714285714,2583.2,36.222321428571426,527.1285714285714,2715.2,36.222321428571426,527.1285714285714,2826.3,36.222321428571426,527.1285714285714,2935.2,36.222321428571426,527.1285714285714,3054.8,36.222321428571426,527.1285714285714,3158.1,49.222321428571426,527.1285714285714,3262.5,197.22232142857143,559.1285714285714,3378.5,212.22232142857143,559.1285714285714,3491.8,212.22232142857143,559.1285714285714,3612.8,212.22232142857143,559.1285714285714,3722.1,212.22232142857143,559.1285714285714,3851,212.22232142857143,559.1285714285714,3972.3,212.22232142857143,559.1285714285714,4085.2,212.22232142857143,559.1285714285714,4217.9,212.22232142857143,559.1285714285714,4325.2,212.22232142857143,559.1285714285714,4435.1,212.22232142857143,559.1285714285714,4558,212.22232142857143,559.1285714285714,4706.7,212.22232142857143,559.1285714285714,4822.4,212.22232142857143,559.1285714285714,4927.4]","[1486.1,1486.1,1000,0,486.1,""smooth"",""down"",""down"",""good_move"",4150.8,2651.7,2175.3,1499.1,476.4,""smooth"",""down"",""down"",""good_move"",8305.4,4153,1694.4,7645.2,-1034.2,""error"",""-"",""-"",""no_move"",12628.9,4319,2729.2,9333.1,566.7,""oops"",""down"",""left"",""good_move"",17638.7,5008.3,2718,12630.5,2290.3,""smooth"",""down"",""down"",""good_move"",20472,2830.8,2222.1,17641.6,608.4,""oops"",""left"",""left"",""good_move"",25874.9,5395.6,2918.8,20479.3,2476.8,""oops"",""left"",""right"",""bad_move"",31847.7,5971,1717.3,29606.9,523.5,""oops"",""left"",""up"",""bad_move"",36401.8,4551.4,1967.7,31850.4,2583.7,""smooth"",""left"",""left"",""good_move"",41378.6,4969.8,2029.5,36408.8,2940.3,""oops"",""left"",""left"",""good_move"",47717.5,6337.5,2843.1,41380,3494.5,""oops"",""down"",""down"",""good_move""]"
"4274","","<div style=""width:500px;"">
  <p>What determined the result of this run?</p>
  </div>","96","html-slider-response","44","1056902","0.0-7.0-1.6","231","1","2025-08-07 14:10:46","36c45c0696341be0efffe67d72a12abb","197.185.179.85","Mozilla/5.0 (Windows NT 10.0; Win64; x64) AppleWebKit/537.36 (KHTML, like Gecko) Chrome/138.0.0.0 Safari/537.36","WebKit","Chrome","138.0.0.0","Windows","10.0","https://app.prolific.com/","en-US,en;q=0.9","67e1a47dae2e2e04aa7d8417","687a1a965b9f5b85a264363e","6894ac1ab73c35374c710fa2","1","67e1a47dae2e2e04aa7d8417","1","2025-08-07T14:28:47.186Z","","","","AttribQ","","","","","","","","","","","50","","","","","","","","","","","","","","","","","","","","","","","","","","",""
"3266","","<div style=""width:500px;"">
  <p>How much control did you have over the ball?</p>
  </div>","92","html-slider-response","45","1060180","0.0-7.0-2.6","231","1","2025-08-07 14:10:46","36c45c0696341be0efffe67d72a12abb","197.185.179.85","Mozilla/5.0 (Windows NT 10.0; Win64; x64) AppleWebKit/537.36 (KHTML, like Gecko) Chrome/138.0.0.0 Safari/537.36","WebKit","Chrome","138.0.0.0","Windows","10.0","https://app.prolific.com/","en-US,en;q=0.9","67e1a47dae2e2e04aa7d8417","687a1a965b9f5b85a264363e","6894ac1ab73c35374c710fa2","1","67e1a47dae2e2e04aa7d8417","1","2025-08-07T14:28:50.461Z","","","","ControlQ","","","","","","","","","","","50","","","","","","","","","","","","","","","","","","","","","","","","","","",""
"4348","","<div style=""width:500px;"">
  <p>How would you describe your current emotional state?</p>
  </div>","6","html-slider-response","46","1064532","0.0-7.0-3.6","231","1","2025-08-07 14:10:46","36c45c0696341be0efffe67d72a12abb","197.185.179.85","Mozilla/5.0 (Windows NT 10.0; Win64; x64) AppleWebKit/537.36 (KHTML, like Gecko) Chrome/138.0.0.0 Safari/537.36","WebKit","Chrome","138.0.0.0","Windows","10.0","https://app.prolific.com/","en-US,en;q=0.9","67e1a47dae2e2e04aa7d8417","687a1a965b9f5b85a264363e","6894ac1ab73c35374c710fa2","1","67e1a47dae2e2e04aa7d8417","1","2025-08-07T14:28:54.814Z","","","","StressQ","","","","","","","","","","","50","","","","","","","","","","","","","","","","","","","","","","","","","","",""
"2787","","<div style=""width:500px;"">
  <p>What best describes how you currently feel?</p>
  </div>","91","html-slider-response","47","1067328","0.0-7.0-4.6","231","1","2025-08-07 14:10:46","36c45c0696341be0efffe67d72a12abb","197.185.179.85","Mozilla/5.0 (Windows NT 10.0; Win64; x64) AppleWebKit/537.36 (KHTML, like Gecko) Chrome/138.0.0.0 Safari/537.36","WebKit","Chrome","138.0.0.0","Windows","10.0","https://app.prolific.com/","en-US,en;q=0.9","67e1a47dae2e2e04aa7d8417","687a1a965b9f5b85a264363e","6894ac1ab73c35374c710fa2","1","67e1a47dae2e2e04aa7d8417","1","2025-08-07T14:28:57.609Z","","","","MotivationQ","","","","","","","","","","","50","","","","","","","","","","","","","","","","","","","","","","","","","","",""
"","","","","ctl-task-cpt","48","1134434","0.0-7.0-0.7","231","1","2025-08-07 14:10:46","36c45c0696341be0efffe67d72a12abb","197.185.179.85","Mozilla/5.0 (Windows NT 10.0; Win64; x64) AppleWebKit/537.36 (KHTML, like Gecko) Chrome/138.0.0.0 Safari/537.36","WebKit","Chrome","138.0.0.0","Windows","10.0","https://app.prolific.com/","en-US,en;q=0.9","67e1a47dae2e2e04aa7d8417","687a1a965b9f5b85a264363e","6894ac1ab73c35374c710fa2","1","67e1a47dae2e2e04aa7d8417","1","2025-08-07T14:30:04.715Z","","","","","","","","","","","","","","","","win-only","2","g1:SE,g2:NW","0.3","8","0","1083601.3","1599.4","6608.4","64072","1","4","4","6","1","1","1","18","17","0.13636363636363635","1759.9","3000","295","[""down"",""right""]","{""num_key_presses"":12,""num_perfect"":4,""num_errors"":0,""num_randdir"":8,""num_randdir_good_moves"":4,""num_whilered"":0,""num_whileblue"":0,""num_blue"":2,""num_good_moves"":8}","[302.22232142857143,293.12857142857143,0.1,302.22232142857143,293.12857142857143,105.8,302.22232142857143,293.12857142857143,210.4,302.22232142857143,293.12857142857143,318.1,302.22232142857143,293.12857142857143,427.6,302.22232142857143,293.12857142857143,541.8,302.22232142857143,293.12857142857143,648.6,302.22232142857143,293.12857142857143,769.2,302.22232142857143,293.12857142857143,876.9,366.22232142857143,297.12857142857143,977.4,526.2223214285714,462.12857142857143,1094.6,531.2223214285714,495.12857142857143,1215.2,530.2223214285714,497.12857142857143,1336.6,530.2223214285714,512.1285714285714,1456.8,530.2223214285714,515.1285714285714,1566.1,528.2223214285714,515.1285714285714,1705.2,529.2223214285714,515.1285714285714,1807.4,529.2223214285714,515.1285714285714,1926.8,529.2223214285714,515.1285714285714,2029,529.2223214285714,515.1285714285714,2140.7,529.2223214285714,515.1285714285714,2259.4,529.2223214285714,515.1285714285714,2385.8,529.2223214285714,515.1285714285714,2491.6,529.2223214285714,515.1285714285714,2611.9,529.2223214285714,515.1285714285714,2717.7,529.2223214285714,515.1285714285714,2820.2,529.2223214285714,515.1285714285714,2932.3,529.2223214285714,515.1285714285714,3067.1,529.2223214285714,515.1285714285714,3184.7,529.2223214285714,515.1285714285714,3312.1,529.2223214285714,515.1285714285714,3423.4,529.2223214285714,515.1285714285714,3536.7,529.2223214285714,515.1285714285714,3637.6,529.2223214285714,515.1285714285714,3823.9,529.2223214285714,515.1285714285714,3944,529.2223214285714,515.1285714285714,4059.4,529.2223214285714,515.1285714285714,4168.7,529.2223214285714,515.1285714285714,4376.6,529.2223214285714,515.1285714285714,4494.9,529.2223214285714,515.1285714285714,4607.8,529.2223214285714,515.1285714285714,4734.1,529.2223214285714,515.1285714285714,4875.7,529.2223214285714,515.1285714285714,4980]","[2250.5,2250.5,1000,0,1250.5,""oops"",""right"",""right"",""good_move"",6974.7,4721.2,2418.6,2253.6,2302.5,""oops"",""right"",""down"",""good_move"",13967.6,6992.2,2909.8,9993.9,1064,""oops"",""right"",""up"",""bad_move"",19856.6,5888.7,2712.7,13968,3176,""oops"",""down"",""up"",""bad_move"",25221.2,5364.5,1743.8,19856.7,3620.7,""smooth"",""down"",""down"",""good_move"",29240.5,4019.1,2027.5,25221.4,1991.6,""oops"",""down"",""left"",""bad_move"",34234.7,4993.6,2748,29241.1,2245.6,""smooth"",""down"",""down"",""good_move"",37282,3047.2,2115.5,34234.8,931.7,""oops"",""down"",""up"",""bad_move"",46352.2,9070.1,2428,43258.4,665.9,""smooth"",""down"",""down"",""good_move"",50347.4,3991.8,2468.5,46355.6,1523.3,""oops"",""down"",""down"",""good_move"",53543.9,3196.6,2559.5,50347.4,637.1,""oops"",""right"",""right"",""good_move"",56794,3249.5,1781.2,53544.5,1468.3,""smooth"",""right"",""right"",""good_move""]"
"14547","","<div style=""width:500px;"">
  <p>What determined the result of this run?</p>
  </div>","96","html-slider-response","49","1148983","0.0-7.0-1.7","231","1","2025-08-07 14:10:46","36c45c0696341be0efffe67d72a12abb","197.185.179.85","Mozilla/5.0 (Windows NT 10.0; Win64; x64) AppleWebKit/537.36 (KHTML, like Gecko) Chrome/138.0.0.0 Safari/537.36","WebKit","Chrome","138.0.0.0","Windows","10.0","https://app.prolific.com/","en-US,en;q=0.9","67e1a47dae2e2e04aa7d8417","687a1a965b9f5b85a264363e","6894ac1ab73c35374c710fa2","1","67e1a47dae2e2e04aa7d8417","1","2025-08-07T14:30:19.265Z","","","","AttribQ","","","","","","","","","","","50","","","","","","","","","","","","","","","","","","","","","","","","","","",""
"3962","","<div style=""width:500px;"">
  <p>How much control did you have over the ball?</p>
  </div>","98","html-slider-response","50","1152951","0.0-7.0-2.7","231","1","2025-08-07 14:10:46","36c45c0696341be0efffe67d72a12abb","197.185.179.85","Mozilla/5.0 (Windows NT 10.0; Win64; x64) AppleWebKit/537.36 (KHTML, like Gecko) Chrome/138.0.0.0 Safari/537.36","WebKit","Chrome","138.0.0.0","Windows","10.0","https://app.prolific.com/","en-US,en;q=0.9","67e1a47dae2e2e04aa7d8417","687a1a965b9f5b85a264363e","6894ac1ab73c35374c710fa2","1","67e1a47dae2e2e04aa7d8417","1","2025-08-07T14:30:23.233Z","","","","ControlQ","","","","","","","","","","","50","","","","","","","","","","","","","","","","","","","","","","","","","","",""
"3553","","<div style=""width:500px;"">
  <p>How would you describe your current emotional state?</p>
  </div>","4","html-slider-response","51","1156512","0.0-7.0-3.7","231","1","2025-08-07 14:10:46","36c45c0696341be0efffe67d72a12abb","197.185.179.85","Mozilla/5.0 (Windows NT 10.0; Win64; x64) AppleWebKit/537.36 (KHTML, like Gecko) Chrome/138.0.0.0 Safari/537.36","WebKit","Chrome","138.0.0.0","Windows","10.0","https://app.prolific.com/","en-US,en;q=0.9","67e1a47dae2e2e04aa7d8417","687a1a965b9f5b85a264363e","6894ac1ab73c35374c710fa2","1","67e1a47dae2e2e04aa7d8417","1","2025-08-07T14:30:26.797Z","","","","StressQ","","","","","","","","","","","50","","","","","","","","","","","","","","","","","","","","","","","","","","",""
"4138","","<div style=""width:500px;"">
  <p>What best describes how you currently feel?</p>
  </div>","90","html-slider-response","52","1160657","0.0-7.0-4.7","231","1","2025-08-07 14:10:46","36c45c0696341be0efffe67d72a12abb","197.185.179.85","Mozilla/5.0 (Windows NT 10.0; Win64; x64) AppleWebKit/537.36 (KHTML, like Gecko) Chrome/138.0.0.0 Safari/537.36","WebKit","Chrome","138.0.0.0","Windows","10.0","https://app.prolific.com/","en-US,en;q=0.9","67e1a47dae2e2e04aa7d8417","687a1a965b9f5b85a264363e","6894ac1ab73c35374c710fa2","1","67e1a47dae2e2e04aa7d8417","1","2025-08-07T14:30:30.938Z","","","","MotivationQ","","","","","","","","","","","50","","","","","","","","","","","","","","","","","","","","","","","","","","",""
"","","","","ctl-task-cpt","53","1231790","0.0-7.0-0.8","231","1","2025-08-07 14:10:46","36c45c0696341be0efffe67d72a12abb","197.185.179.85","Mozilla/5.0 (Windows NT 10.0; Win64; x64) AppleWebKit/537.36 (KHTML, like Gecko) Chrome/138.0.0.0 Safari/537.36","WebKit","Chrome","138.0.0.0","Windows","10.0","https://app.prolific.com/","en-US,en;q=0.9","67e1a47dae2e2e04aa7d8417","687a1a965b9f5b85a264363e","6894ac1ab73c35374c710fa2","1","67e1a47dae2e2e04aa7d8417","1","2025-08-07T14:31:42.084Z","","","","","","","","","","","","","","","","win-only","2","g1:SE,g2:NW","0.4","9","0","1176939.8","1676","6689.6","68099.3","1","4","8","6","1","1","1","19","18","0.14393939393939395","2346.4","3000","625","[""down"",""right""]","{""num_key_presses"":12,""num_perfect"":5,""num_errors"":0,""num_randdir"":7,""num_randdir_good_moves"":3,""num_whilered"":0,""num_whileblue"":0,""num_blue"":2,""num_good_moves"":8}","[298.22232142857143,293.12857142857143,0.4,298.22232142857143,293.12857142857143,106.7,298.22232142857143,293.12857142857143,233.1,298.22232142857143,293.12857142857143,335.4,298.22232142857143,293.12857142857143,450.6,298.22232142857143,293.12857142857143,556.6,298.22232142857143,293.12857142857143,658.2,298.22232142857143,293.12857142857143,766.2,298.22232142857143,293.12857142857143,881.7,298.22232142857143,293.12857142857143,990.7,298.22232142857143,293.12857142857143,1101.5,298.22232142857143,293.12857142857143,1209.7,298.22232142857143,293.12857142857143,1328.5,301.22232142857143,292.12857142857143,1445.8,404.22232142857143,342.12857142857143,1564.5,491.22232142857143,469.12857142857143,1686.9,497.22232142857143,489.12857142857143,1787.2,507.22232142857143,496.12857142857143,1889.6,517.2223214285714,502.12857142857143,1993.3,517.2223214285714,509.12857142857143,2111.9,517.2223214285714,509.12857142857143,2226.2,517.2223214285714,509.12857142857143,2366.8,517.2223214285714,509.12857142857143,2469.5,517.2223214285714,509.12857142857143,2584.4,517.2223214285714,509.12857142857143,2685.8,517.2223214285714,509.12857142857143,2800.7,517.2223214285714,509.12857142857143,2906.9,527.2223214285714,514.1285714285714,3021.2,627.2223214285714,639.1285714285714,3142.5,627.2223214285714,641.1285714285714,3275.3,627.2223214285714,641.1285714285714,3403.8,627.2223214285714,641.1285714285714,3520.5,627.2223214285714,641.1285714285714,3637.1,627.2223214285714,641.1285714285714,3742,627.2223214285714,641.1285714285714,3866.5,627.2223214285714,641.1285714285714,3971,627.2223214285714,641.1285714285714,4139.2,627.2223214285714,641.1285714285714,4241.9,627.2223214285714,641.1285714285714,4359.4,627.2223214285714,641.1285714285714,4485.5,627.2223214285714,641.1285714285714,4640.1,627.2223214285714,641.1285714285714,4742.1,627.2223214285714,641.1285714285714,4850,627.2223214285714,641.1285714285714,4951.9]","[1912.7,1912.7,1000,0,912.7,""smooth"",""down"",""down"",""good_move"",5628.9,3712.5,3187.3,1916.4,525.2,""smooth"",""down"",""down"",""good_move"",8989.2,3360.1,2162.4,5629.1,1197.7,""oops"",""right"",""up"",""bad_move"",20263.3,11273.8,2865.3,16670.8,727.2,""oops"",""down"",""left"",""bad_move"",25923.3,5659.4,2150.7,20263.9,3508.7,""oops"",""down"",""left"",""bad_move"",31449.8,5526.4,2378.1,25923.4,3148.3,""smooth"",""down"",""down"",""good_move"",34721.6,3270.4,2496.2,31451.2,774.2,""smooth"",""right"",""right"",""good_move"",39670.5,4945.1,2684.1,34725.4,2261,""oops"",""right"",""right"",""good_move"",44148.6,4476.6,2330.1,39672,2146.5,""oops"",""right"",""up"",""bad_move"",49822.3,5672.3,2242.6,44150.2,3429.7,""oops"",""right"",""down"",""good_move"",52792.5,2969,2093.8,49823.5,875.3,""oops"",""right"",""right"",""good_move"",60772,7974.5,2852.6,56453.5,1465.9,""smooth"",""right"",""right"",""good_move""]"
"5697","","<div style=""width:500px;"">
  <p>What determined the result of this run?</p>
  </div>","95","html-slider-response","54","1237504","0.0-7.0-1.8","231","1","2025-08-07 14:10:46","36c45c0696341be0efffe67d72a12abb","197.185.179.85","Mozilla/5.0 (Windows NT 10.0; Win64; x64) AppleWebKit/537.36 (KHTML, like Gecko) Chrome/138.0.0.0 Safari/537.36","WebKit","Chrome","138.0.0.0","Windows","10.0","https://app.prolific.com/","en-US,en;q=0.9","67e1a47dae2e2e04aa7d8417","687a1a965b9f5b85a264363e","6894ac1ab73c35374c710fa2","1","67e1a47dae2e2e04aa7d8417","1","2025-08-07T14:31:47.786Z","","","","AttribQ","","","","","","","","","","","50","","","","","","","","","","","","","","","","","","","","","","","","","","",""
"3350","","<div style=""width:500px;"">
  <p>How much control did you have over the ball?</p>
  </div>","93","html-slider-response","55","1240859","0.0-7.0-2.8","231","1","2025-08-07 14:10:46","36c45c0696341be0efffe67d72a12abb","197.185.179.85","Mozilla/5.0 (Windows NT 10.0; Win64; x64) AppleWebKit/537.36 (KHTML, like Gecko) Chrome/138.0.0.0 Safari/537.36","WebKit","Chrome","138.0.0.0","Windows","10.0","https://app.prolific.com/","en-US,en;q=0.9","67e1a47dae2e2e04aa7d8417","687a1a965b9f5b85a264363e","6894ac1ab73c35374c710fa2","1","67e1a47dae2e2e04aa7d8417","1","2025-08-07T14:31:51.141Z","","","","ControlQ","","","","","","","","","","","50","","","","","","","","","","","","","","","","","","","","","","","","","","",""
"3585","","<div style=""width:500px;"">
  <p>How would you describe your current emotional state?</p>
  </div>","2","html-slider-response","56","1244453","0.0-7.0-3.8","231","1","2025-08-07 14:10:46","36c45c0696341be0efffe67d72a12abb","197.185.179.85","Mozilla/5.0 (Windows NT 10.0; Win64; x64) AppleWebKit/537.36 (KHTML, like Gecko) Chrome/138.0.0.0 Safari/537.36","WebKit","Chrome","138.0.0.0","Windows","10.0","https://app.prolific.com/","en-US,en;q=0.9","67e1a47dae2e2e04aa7d8417","687a1a965b9f5b85a264363e","6894ac1ab73c35374c710fa2","1","67e1a47dae2e2e04aa7d8417","1","2025-08-07T14:31:54.735Z","","","","StressQ","","","","","","","","","","","50","","","","","","","","","","","","","","","","","","","","","","","","","","",""
"3900","","<div style=""width:500px;"">
  <p>What best describes how you currently feel?</p>
  </div>","96","html-slider-response","57","1248358","0.0-7.0-4.8","231","1","2025-08-07 14:10:46","36c45c0696341be0efffe67d72a12abb","197.185.179.85","Mozilla/5.0 (Windows NT 10.0; Win64; x64) AppleWebKit/537.36 (KHTML, like Gecko) Chrome/138.0.0.0 Safari/537.36","WebKit","Chrome","138.0.0.0","Windows","10.0","https://app.prolific.com/","en-US,en;q=0.9","67e1a47dae2e2e04aa7d8417","687a1a965b9f5b85a264363e","6894ac1ab73c35374c710fa2","1","67e1a47dae2e2e04aa7d8417","1","2025-08-07T14:31:58.639Z","","","","MotivationQ","","","","","","","","","","","50","","","","","","","","","","","","","","","","","","","","","","","","","","",""
"","","","","ctl-task-cpt","58","1282602","0.0-7.0-0.9","231","1","2025-08-07 14:10:46","36c45c0696341be0efffe67d72a12abb","197.185.179.85","Mozilla/5.0 (Windows NT 10.0; Win64; x64) AppleWebKit/537.36 (KHTML, like Gecko) Chrome/138.0.0.0 Safari/537.36","WebKit","Chrome","138.0.0.0","Windows","10.0","https://app.prolific.com/","en-US,en;q=0.9","67e1a47dae2e2e04aa7d8417","687a1a965b9f5b85a264363e","6894ac1ab73c35374c710fa2","1","67e1a47dae2e2e04aa7d8417","1","2025-08-07T14:32:32.883Z","","","","","","","","","","","","","","","","win-only","3","g1:SW,g2:NE","0.5","10","0","1264645","3246.2","8268.6","31198.9","1","4","4","6","1","1","1","20","19","0.15151515151515152","1766.1","3000","2035","[""down"",""left""]","{""num_key_presses"":4,""num_perfect"":2,""num_errors"":0,""num_randdir"":2,""num_randdir_good_moves"":2,""num_whilered"":0,""num_whileblue"":0,""num_blue"":1,""num_good_moves"":4}","[291.22232142857143,298.12857142857143,29.5,291.22232142857143,298.12857142857143,102.8,291.22232142857143,298.12857142857143,219.2,291.22232142857143,298.12857142857143,347.4,291.22232142857143,298.12857142857143,457.9,291.22232142857143,298.12857142857143,576,291.22232142857143,298.12857142857143,682.3,291.22232142857143,298.12857142857143,793.2,291.22232142857143,298.12857142857143,898.3,137.22232142857143,411.12857142857143,1021.1,105.22232142857143,474.12857142857143,1129.3,74.22232142857143,498.12857142857143,1256.7,68.22232142857143,490.12857142857143,1385.8,44.222321428571426,514.1285714285714,1491.8,44.222321428571426,514.1285714285714,1595.9,44.222321428571426,514.1285714285714,1704.5,44.222321428571426,514.1285714285714,1842.5,44.222321428571426,514.1285714285714,1966.3,44.222321428571426,514.1285714285714,2071.1,44.222321428571426,514.1285714285714,2173.8,44.222321428571426,514.1285714285714,2277.7,44.222321428571426,514.1285714285714,2400.8,44.222321428571426,514.1285714285714,2501.2,44.222321428571426,514.1285714285714,2624,44.222321428571426,514.1285714285714,2777,44.222321428571426,514.1285714285714,2894.8,44.222321428571426,514.1285714285714,3010.5,44.222321428571426,514.1285714285714,3144.3,44.222321428571426,514.1285714285714,3245.8,44.222321428571426,514.1285714285714,3373,44.222321428571426,514.1285714285714,3479.3,44.222321428571426,514.1285714285714,3597.4,44.222321428571426,514.1285714285714,3701.5,44.222321428571426,514.1285714285714,3817.2,44.222321428571426,514.1285714285714,3922.2,44.222321428571426,514.1285714285714,4033,44.222321428571426,514.1285714285714,4141.7,44.222321428571426,514.1285714285714,4254,44.222321428571426,514.1285714285714,4359,44.222321428571426,514.1285714285714,4469.8,44.222321428571426,514.1285714285714,4586,44.222321428571426,514.1285714285714,4689.1,44.222321428571426,514.1285714285714,4801.8,44.222321428571426,514.1285714285714,4920.4]","[1955.8,1955.9,1000,0,955.9,""smooth"",""down"",""down"",""good_move"",5996.2,4037.9,2199.3,1958.4,1838.6,""oops"",""down"",""left"",""good_move"",16415.7,10400.2,2326.1,13330.5,759.1,""smooth"",""down"",""down"",""good_move"",22398.8,5945.4,3299.6,16453.4,2645.8,""oops"",""left"",""left"",""good_move""]"
"9073","","<div style=""width:500px;"">
  <p>What determined the result of this run?</p>
  </div>","93","html-slider-response","59","1291679","0.0-7.0-1.9","231","1","2025-08-07 14:10:46","36c45c0696341be0efffe67d72a12abb","197.185.179.85","Mozilla/5.0 (Windows NT 10.0; Win64; x64) AppleWebKit/537.36 (KHTML, like Gecko) Chrome/138.0.0.0 Safari/537.36","WebKit","Chrome","138.0.0.0","Windows","10.0","https://app.prolific.com/","en-US,en;q=0.9","67e1a47dae2e2e04aa7d8417","687a1a965b9f5b85a264363e","6894ac1ab73c35374c710fa2","1","67e1a47dae2e2e04aa7d8417","1","2025-08-07T14:32:41.960Z","","","","AttribQ","","","","","","","","","","","50","","","","","","","","","","","","","","","","","","","","","","","","","","",""
"7765","","<div style=""width:500px;"">
  <p>How much control did you have over the ball?</p>
  </div>","92","html-slider-response","60","1299447","0.0-7.0-2.9","231","1","2025-08-07 14:10:46","36c45c0696341be0efffe67d72a12abb","197.185.179.85","Mozilla/5.0 (Windows NT 10.0; Win64; x64) AppleWebKit/537.36 (KHTML, like Gecko) Chrome/138.0.0.0 Safari/537.36","WebKit","Chrome","138.0.0.0","Windows","10.0","https://app.prolific.com/","en-US,en;q=0.9","67e1a47dae2e2e04aa7d8417","687a1a965b9f5b85a264363e","6894ac1ab73c35374c710fa2","1","67e1a47dae2e2e04aa7d8417","1","2025-08-07T14:32:49.728Z","","","","ControlQ","","","","","","","","","","","50","","","","","","","","","","","","","","","","","","","","","","","","","","",""
"5150","","<div style=""width:500px;"">
  <p>How would you describe your current emotional state?</p>
  </div>","5","html-slider-response","61","1304605","0.0-7.0-3.9","231","1","2025-08-07 14:10:46","36c45c0696341be0efffe67d72a12abb","197.185.179.85","Mozilla/5.0 (Windows NT 10.0; Win64; x64) AppleWebKit/537.36 (KHTML, like Gecko) Chrome/138.0.0.0 Safari/537.36","WebKit","Chrome","138.0.0.0","Windows","10.0","https://app.prolific.com/","en-US,en;q=0.9","67e1a47dae2e2e04aa7d8417","687a1a965b9f5b85a264363e","6894ac1ab73c35374c710fa2","1","67e1a47dae2e2e04aa7d8417","1","2025-08-07T14:32:54.887Z","","","","StressQ","","","","","","","","","","","50","","","","","","","","","","","","","","","","","","","","","","","","","","",""
"12232","","<div style=""width:500px;"">
  <p>What best describes how you currently feel?</p>
  </div>","99","html-slider-response","62","1316845","0.0-7.0-4.9","231","1","2025-08-07 14:10:46","36c45c0696341be0efffe67d72a12abb","197.185.179.85","Mozilla/5.0 (Windows NT 10.0; Win64; x64) AppleWebKit/537.36 (KHTML, like Gecko) Chrome/138.0.0.0 Safari/537.36","WebKit","Chrome","138.0.0.0","Windows","10.0","https://app.prolific.com/","en-US,en;q=0.9","67e1a47dae2e2e04aa7d8417","687a1a965b9f5b85a264363e","6894ac1ab73c35374c710fa2","1","67e1a47dae2e2e04aa7d8417","1","2025-08-07T14:33:07.126Z","","","","MotivationQ","","","","","","","","","","","50","","","","","","","","","","","","","","","","","","","","","","","","","","",""
"","","","","ctl-task-cpt","63","1367452","0.0-7.0-0.10","231","1","2025-08-07 14:10:46","36c45c0696341be0efffe67d72a12abb","197.185.179.85","Mozilla/5.0 (Windows NT 10.0; Win64; x64) AppleWebKit/537.36 (KHTML, like Gecko) Chrome/138.0.0.0 Safari/537.36","WebKit","Chrome","138.0.0.0","Windows","10.0","https://app.prolific.com/","en-US,en;q=0.9","67e1a47dae2e2e04aa7d8417","687a1a965b9f5b85a264363e","6894ac1ab73c35374c710fa2","1","67e1a47dae2e2e04aa7d8417","1","2025-08-07T14:33:57.734Z","","","","","","","","","","","","","","","","win-only","0","g1:NW,g2:SE","0.6","11","0","1333120.1","2720.5","7753.4","47517.1","1","4","8","6","2","8","8","28","20","0.21212121212121213","2310.4","3000","1075","[""down"",""right""]","{""num_key_presses"":8,""num_perfect"":4,""num_errors"":0,""num_randdir"":4,""num_randdir_good_moves"":3,""num_whilered"":0,""num_whileblue"":0,""num_blue"":1,""num_good_moves"":7}","[292.22232142857143,295.12857142857143,1.1,292.22232142857143,295.12857142857143,107.2,292.22232142857143,295.12857142857143,213.7,292.22232142857143,295.12857142857143,337,292.22232142857143,295.12857142857143,467.3,292.22232142857143,295.12857142857143,589.8,292.22232142857143,295.12857142857143,710.5,292.22232142857143,295.12857142857143,850.4,292.22232142857143,295.12857142857143,972,292.22232142857143,295.12857142857143,1082.2,292.22232142857143,295.12857142857143,1217.3,310.22232142857143,298.12857142857143,1319.1,511.22232142857143,552.1285714285714,1433.6,532.2223214285714,589.1285714285714,1561.3,536.2223214285714,589.1285714285714,1667.9,541.2223214285714,585.1285714285714,1796.3,541.2223214285714,572.1285714285714,1911.1,540.2223214285714,571.1285714285714,2018.8,540.2223214285714,571.1285714285714,2130.2,540.2223214285714,571.1285714285714,2234.6,540.2223214285714,571.1285714285714,2379.8,540.2223214285714,571.1285714285714,2482.8,540.2223214285714,571.1285714285714,2607.7,540.2223214285714,571.1285714285714,2737.3,540.2223214285714,571.1285714285714,2868.5,540.2223214285714,571.1285714285714,2984.9,540.2223214285714,571.1285714285714,3090.9,540.2223214285714,571.1285714285714,3213.2,540.2223214285714,571.1285714285714,3326.4,540.2223214285714,571.1285714285714,3451.5,540.2223214285714,571.1285714285714,3579.4,540.2223214285714,571.1285714285714,3694.3,540.2223214285714,571.1285714285714,3810.8,540.2223214285714,571.1285714285714,3931.8,540.2223214285714,571.1285714285714,4050.7,540.2223214285714,571.1285714285714,4163.3,540.2223214285714,571.1285714285714,4303.9,540.2223214285714,571.1285714285714,4434.4,540.2223214285714,571.1285714285714,4545.5,540.2223214285714,571.1285714285714,4658.2,540.2223214285714,571.1285714285714,4766.6,540.2223214285714,571.1285714285714,4871.2,540.2223214285714,571.1285714285714,4993.1]","[2149.9,2149.9,1000,0,1149.9,""smooth"",""down"",""down"",""good_move"",8234.3,6069.2,2036.8,5679.5,518.2,""oops"",""down"",""down"",""good_move"",13958.7,5722,2335.4,8236.7,3386.6,""oops"",""down"",""left"",""bad_move"",21514.4,7548.8,2422.9,13965.6,5125.9,""smooth"",""down"",""down"",""good_move"",25872.5,4357.2,2623,21515.3,1734.2,""oops"",""right"",""right"",""good_move"",30691.8,4816,2473.4,25875.8,2342.6,""smooth"",""right"",""right"",""good_move"",35162.9,4438.1,2670.6,30725.1,1767.2,""oops"",""right"",""right"",""good_move"",39005.9,3834.4,2695.7,35171.5,1138.7,""smooth"",""right"",""right"",""good_move""]"
"4585","","<div style=""width:500px;"">
  <p>What determined the result of this run?</p>
  </div>","98","html-slider-response","64","1372040","0.0-7.0-1.10","231","1","2025-08-07 14:10:46","36c45c0696341be0efffe67d72a12abb","197.185.179.85","Mozilla/5.0 (Windows NT 10.0; Win64; x64) AppleWebKit/537.36 (KHTML, like Gecko) Chrome/138.0.0.0 Safari/537.36","WebKit","Chrome","138.0.0.0","Windows","10.0","https://app.prolific.com/","en-US,en;q=0.9","67e1a47dae2e2e04aa7d8417","687a1a965b9f5b85a264363e","6894ac1ab73c35374c710fa2","1","67e1a47dae2e2e04aa7d8417","1","2025-08-07T14:34:02.322Z","","","","AttribQ","","","","","","","","","","","50","","","","","","","","","","","","","","","","","","","","","","","","","","",""
"4272","","<div style=""width:500px;"">
  <p>How much control did you have over the ball?</p>
  </div>","96","html-slider-response","65","1376324","0.0-7.0-2.10","231","1","2025-08-07 14:10:46","36c45c0696341be0efffe67d72a12abb","197.185.179.85","Mozilla/5.0 (Windows NT 10.0; Win64; x64) AppleWebKit/537.36 (KHTML, like Gecko) Chrome/138.0.0.0 Safari/537.36","WebKit","Chrome","138.0.0.0","Windows","10.0","https://app.prolific.com/","en-US,en;q=0.9","67e1a47dae2e2e04aa7d8417","687a1a965b9f5b85a264363e","6894ac1ab73c35374c710fa2","1","67e1a47dae2e2e04aa7d8417","1","2025-08-07T14:34:06.605Z","","","","ControlQ","","","","","","","","","","","50","","","","","","","","","","","","","","","","","","","","","","","","","","",""
"3867","","<div style=""width:500px;"">
  <p>How would you describe your current emotional state?</p>
  </div>","0","html-slider-response","66","1380201","0.0-7.0-3.10","231","1","2025-08-07 14:10:46","36c45c0696341be0efffe67d72a12abb","197.185.179.85","Mozilla/5.0 (Windows NT 10.0; Win64; x64) AppleWebKit/537.36 (KHTML, like Gecko) Chrome/138.0.0.0 Safari/537.36","WebKit","Chrome","138.0.0.0","Windows","10.0","https://app.prolific.com/","en-US,en;q=0.9","67e1a47dae2e2e04aa7d8417","687a1a965b9f5b85a264363e","6894ac1ab73c35374c710fa2","1","67e1a47dae2e2e04aa7d8417","1","2025-08-07T14:34:10.482Z","","","","StressQ","","","","","","","","","","","50","","","","","","","","","","","","","","","","","","","","","","","","","","",""
"10985","","<div style=""width:500px;"">
  <p>What best describes how you currently feel?</p>
  </div>","96","html-slider-response","67","1391191","0.0-7.0-4.10","231","1","2025-08-07 14:10:46","36c45c0696341be0efffe67d72a12abb","197.185.179.85","Mozilla/5.0 (Windows NT 10.0; Win64; x64) AppleWebKit/537.36 (KHTML, like Gecko) Chrome/138.0.0.0 Safari/537.36","WebKit","Chrome","138.0.0.0","Windows","10.0","https://app.prolific.com/","en-US,en;q=0.9","67e1a47dae2e2e04aa7d8417","687a1a965b9f5b85a264363e","6894ac1ab73c35374c710fa2","1","67e1a47dae2e2e04aa7d8417","1","2025-08-07T14:34:21.474Z","","","","MotivationQ","","","","","","","","","","","50","","","","","","","","","","","","","","","","","","","","","","","","","","",""
"","","","","ctl-task-cpt","68","1456943","0.0-7.0-0.11","231","1","2025-08-07 14:10:46","36c45c0696341be0efffe67d72a12abb","197.185.179.85","Mozilla/5.0 (Windows NT 10.0; Win64; x64) AppleWebKit/537.36 (KHTML, like Gecko) Chrome/138.0.0.0 Safari/537.36","WebKit","Chrome","138.0.0.0","Windows","10.0","https://app.prolific.com/","en-US,en;q=0.9","67e1a47dae2e2e04aa7d8417","687a1a965b9f5b85a264363e","6894ac1ab73c35374c710fa2","1","67e1a47dae2e2e04aa7d8417","1","2025-08-07T14:35:27.230Z","","","","","","","","","","","","","","","","win-only","0","g1:NW,g2:SE","0.7","12","0","1407468.6","2271.3","7280.7","62693.6","1","4","4","6","2","-4","-4","24","28","0.18181818181818182","3697.4","3000","-435","[""down"",""right""]","{""num_key_presses"":9,""num_perfect"":6,""num_errors"":0,""num_randdir"":3,""num_randdir_good_moves"":1,""num_whilered"":0,""num_whileblue"":0,""num_blue"":0,""num_good_moves"":7}","[296.22232142857143,289.12857142857143,2.2,296.22232142857143,289.12857142857143,114.1,296.22232142857143,289.12857142857143,219.2,296.22232142857143,289.12857142857143,326.4,296.22232142857143,289.12857142857143,433.7,296.22232142857143,289.12857142857143,544.6,296.22232142857143,289.12857142857143,648,296.22232142857143,289.12857142857143,763.9,296.22232142857143,289.12857142857143,881.9,296.22232142857143,289.12857142857143,1004.7,296.22232142857143,289.12857142857143,1113.4,296.22232142857143,289.12857142857143,1220.9,296.22232142857143,289.12857142857143,1327.7,296.22232142857143,289.12857142857143,1462.5,296.22232142857143,289.12857142857143,1574.1,296.22232142857143,289.12857142857143,1681.9,296.22232142857143,289.12857142857143,1793.4,296.22232142857143,289.12857142857143,1930.5,296.22232142857143,289.12857142857143,2066.4,296.22232142857143,289.12857142857143,2188,296.22232142857143,289.12857142857143,2325.3,302.22232142857143,289.12857142857143,2443.3,434.22232142857143,425.12857142857143,2576.5,498.22232142857143,504.12857142857143,2730.7,498.22232142857143,504.12857142857143,2880.8,498.22232142857143,504.12857142857143,2993.6,515.2223214285714,512.1285714285714,3101,542.2223214285714,544.1285714285714,3206.6,543.2223214285714,560.1285714285714,3331.6,546.2223214285714,563.1285714285714,3439.6,546.2223214285714,564.1285714285714,3559.3,546.2223214285714,564.1285714285714,3668.3,546.2223214285714,564.1285714285714,3769.8,546.2223214285714,564.1285714285714,3898.5,546.2223214285714,564.1285714285714,4031.7,546.2223214285714,564.1285714285714,4141.1,546.2223214285714,564.1285714285714,4253.9,546.2223214285714,564.1285714285714,4383.6,546.2223214285714,564.1285714285714,4498.4,546.2223214285714,564.1285714285714,4623.7,546.2223214285714,564.1285714285714,4759.7,546.2223214285714,564.1285714285714,4866.5]","[1572.5,1572.6,1000,0,572.6,""smooth"",""down"",""down"",""good_move"",4876.5,3301.8,2712.8,1574.7,589,""oops"",""down"",""up"",""bad_move"",14204.6,9328,2741.4,4876.6,6586.6,""smooth"",""down"",""down"",""good_move"",19857,5650.6,3665.2,14206.4,1985.4,""oops"",""down"",""up"",""bad_move"",29034.5,9177.4,2655.6,19857.1,6521.8,""smooth"",""down"",""down"",""good_move"",32987.8,3957.8,2648,29035.8,1309.8,""smooth"",""down"",""down"",""good_move"",38934.8,5938.8,3203.8,32996,2735,""smooth"",""down"",""down"",""good_move"",43927.1,4990.5,2327.1,38937,2663.1,""smooth"",""right"",""right"",""good_move"",49607.5,5674,2339.4,43933.6,3334.6,""oops"",""right"",""right"",""good_move""]"
"4886","","<div style=""width:500px;"">
  <p>What determined the result of this run?</p>
  </div>","100","html-slider-response","69","1461837","0.0-7.0-1.11","231","1","2025-08-07 14:10:46","36c45c0696341be0efffe67d72a12abb","197.185.179.85","Mozilla/5.0 (Windows NT 10.0; Win64; x64) AppleWebKit/537.36 (KHTML, like Gecko) Chrome/138.0.0.0 Safari/537.36","WebKit","Chrome","138.0.0.0","Windows","10.0","https://app.prolific.com/","en-US,en;q=0.9","67e1a47dae2e2e04aa7d8417","687a1a965b9f5b85a264363e","6894ac1ab73c35374c710fa2","1","67e1a47dae2e2e04aa7d8417","1","2025-08-07T14:35:32.119Z","","","","AttribQ","","","","","","","","","","","50","","","","","","","","","","","","","","","","","","","","","","","","","","",""
"4206","","<div style=""width:500px;"">
  <p>How much control did you have over the ball?</p>
  </div>","93","html-slider-response","70","1466051","0.0-7.0-2.11","231","1","2025-08-07 14:10:46","36c45c0696341be0efffe67d72a12abb","197.185.179.85","Mozilla/5.0 (Windows NT 10.0; Win64; x64) AppleWebKit/537.36 (KHTML, like Gecko) Chrome/138.0.0.0 Safari/537.36","WebKit","Chrome","138.0.0.0","Windows","10.0","https://app.prolific.com/","en-US,en;q=0.9","67e1a47dae2e2e04aa7d8417","687a1a965b9f5b85a264363e","6894ac1ab73c35374c710fa2","1","67e1a47dae2e2e04aa7d8417","1","2025-08-07T14:35:36.332Z","","","","ControlQ","","","","","","","","","","","50","","","","","","","","","","","","","","","","","","","","","","","","","","",""
"5775","","<div style=""width:500px;"">
  <p>How would you describe your current emotional state?</p>
  </div>","1","html-slider-response","71","1471831","0.0-7.0-3.11","231","1","2025-08-07 14:10:46","36c45c0696341be0efffe67d72a12abb","197.185.179.85","Mozilla/5.0 (Windows NT 10.0; Win64; x64) AppleWebKit/537.36 (KHTML, like Gecko) Chrome/138.0.0.0 Safari/537.36","WebKit","Chrome","138.0.0.0","Windows","10.0","https://app.prolific.com/","en-US,en;q=0.9","67e1a47dae2e2e04aa7d8417","687a1a965b9f5b85a264363e","6894ac1ab73c35374c710fa2","1","67e1a47dae2e2e04aa7d8417","1","2025-08-07T14:35:42.112Z","","","","StressQ","","","","","","","","","","","50","","","","","","","","","","","","","","","","","","","","","","","","","","",""
"6919","","<div style=""width:500px;"">
  <p>What best describes how you currently feel?</p>
  </div>","99","html-slider-response","72","1478758","0.0-7.0-4.11","231","1","2025-08-07 14:10:46","36c45c0696341be0efffe67d72a12abb","197.185.179.85","Mozilla/5.0 (Windows NT 10.0; Win64; x64) AppleWebKit/537.36 (KHTML, like Gecko) Chrome/138.0.0.0 Safari/537.36","WebKit","Chrome","138.0.0.0","Windows","10.0","https://app.prolific.com/","en-US,en;q=0.9","67e1a47dae2e2e04aa7d8417","687a1a965b9f5b85a264363e","6894ac1ab73c35374c710fa2","1","67e1a47dae2e2e04aa7d8417","1","2025-08-07T14:35:49.041Z","","","","MotivationQ","","","","","","","","","","","50","","","","","","","","","","","","","","","","","","","","","","","","","","",""
"","","","","ctl-task-cpt","73","1524633","0.0-7.0-0.12","231","1","2025-08-07 14:10:46","36c45c0696341be0efffe67d72a12abb","197.185.179.85","Mozilla/5.0 (Windows NT 10.0; Win64; x64) AppleWebKit/537.36 (KHTML, like Gecko) Chrome/138.0.0.0 Safari/537.36","WebKit","Chrome","138.0.0.0","Windows","10.0","https://app.prolific.com/","en-US,en;q=0.9","67e1a47dae2e2e04aa7d8417","687a1a965b9f5b85a264363e","6894ac1ab73c35374c710fa2","1","67e1a47dae2e2e04aa7d8417","1","2025-08-07T14:36:34.915Z","","","","","","","","","","","","","","","","win-only","1","g1:NE,g2:SW","0.8","13","0","1495036.3","1642.8","6664.3","42804.3","1","4","4","6","2","4","4","28","24","0.21212121212121213","2405.2","3000","1605","[""down"",""left""]","{""num_key_presses"":6,""num_perfect"":5,""num_errors"":0,""num_randdir"":1,""num_randdir_good_moves"":1,""num_whilered"":0,""num_whileblue"":0,""num_blue"":1,""num_good_moves"":6}","[294.22232142857143,296.12857142857143,2.3,294.22232142857143,296.12857142857143,149.5,294.22232142857143,296.12857142857143,296.4,294.22232142857143,296.12857142857143,399.7,294.22232142857143,296.12857142857143,563.6,294.22232142857143,296.12857142857143,702.3,294.22232142857143,296.12857142857143,815,294.22232142857143,296.12857142857143,919,294.22232142857143,296.12857142857143,1028,294.22232142857143,296.12857142857143,1158.9,294.22232142857143,296.12857142857143,1284.7,294.22232142857143,296.12857142857143,1423.9,294.22232142857143,296.12857142857143,1525,113.22232142857143,389.12857142857143,1645.5,61.222321428571426,450.12857142857143,1780.7,77.22232142857143,464.12857142857143,1892.9,75.22232142857143,504.12857142857143,1998,61.222321428571426,529.1285714285714,2458,61.222321428571426,529.1285714285714,2576.6,61.222321428571426,529.1285714285714,2684.7,61.222321428571426,529.1285714285714,2816.7,61.222321428571426,529.1285714285714,2947.7,61.222321428571426,529.1285714285714,3063,100.22232142857143,537.1285714285714,3177.6,182.22232142857143,607.1285714285714,3292.9,182.22232142857143,607.1285714285714,3415,182.22232142857143,607.1285714285714,3560.6,182.22232142857143,607.1285714285714,3692.6,182.22232142857143,607.1285714285714,3827.4,182.22232142857143,607.1285714285714,3943,182.22232142857143,607.1285714285714,4058.1,182.22232142857143,607.1285714285714,4190.4,182.22232142857143,607.1285714285714,4301.5,182.22232142857143,607.1285714285714,4401.7,182.22232142857143,607.1285714285714,4511.6,182.22232142857143,607.1285714285714,4624.1,182.22232142857143,607.1285714285714,4751.1,182.22232142857143,607.1285714285714,4876.7]","[2775.7,2775.7,1000,0,1775.7,""smooth"",""down"",""down"",""good_move"",8175.5,5396.3,2654.3,2779.2,2742,""smooth"",""down"",""down"",""good_move"",13638.3,5462.7,2462.5,8175.7,3000.1,""oops"",""down"",""down"",""good_move"",17794.3,4155.9,2946.5,13638.4,1209.4,""smooth"",""left"",""left"",""good_move"",27892.1,10097.2,2239.1,24965.3,687.7,""smooth"",""left"",""left"",""good_move"",35388,7494.4,2328.5,27893.6,5165.9,""smooth"",""left"",""left"",""good_move""]"
"15722","","<div style=""width:500px;"">
  <p>What determined the result of this run?</p>
  </div>","97","html-slider-response","74","1540359","0.0-7.0-1.12","231","1","2025-08-07 14:10:46","36c45c0696341be0efffe67d72a12abb","197.185.179.85","Mozilla/5.0 (Windows NT 10.0; Win64; x64) AppleWebKit/537.36 (KHTML, like Gecko) Chrome/138.0.0.0 Safari/537.36","WebKit","Chrome","138.0.0.0","Windows","10.0","https://app.prolific.com/","en-US,en;q=0.9","67e1a47dae2e2e04aa7d8417","687a1a965b9f5b85a264363e","6894ac1ab73c35374c710fa2","1","67e1a47dae2e2e04aa7d8417","1","2025-08-07T14:36:50.641Z","","","","AttribQ","","","","","","","","","","","50","","","","","","","","","","","","","","","","","","","","","","","","","","",""
"3965","","<div style=""width:500px;"">
  <p>How much control did you have over the ball?</p>
  </div>","100","html-slider-response","75","1544329","0.0-7.0-2.12","231","1","2025-08-07 14:10:46","36c45c0696341be0efffe67d72a12abb","197.185.179.85","Mozilla/5.0 (Windows NT 10.0; Win64; x64) AppleWebKit/537.36 (KHTML, like Gecko) Chrome/138.0.0.0 Safari/537.36","WebKit","Chrome","138.0.0.0","Windows","10.0","https://app.prolific.com/","en-US,en;q=0.9","67e1a47dae2e2e04aa7d8417","687a1a965b9f5b85a264363e","6894ac1ab73c35374c710fa2","1","67e1a47dae2e2e04aa7d8417","1","2025-08-07T14:36:54.611Z","","","","ControlQ","","","","","","","","","","","50","","","","","","","","","","","","","","","","","","","","","","","","","","",""
"7778","","<div style=""width:500px;"">
  <p>How would you describe your current emotional state?</p>
  </div>","1","html-slider-response","76","1552116","0.0-7.0-3.12","231","1","2025-08-07 14:10:46","36c45c0696341be0efffe67d72a12abb","197.185.179.85","Mozilla/5.0 (Windows NT 10.0; Win64; x64) AppleWebKit/537.36 (KHTML, like Gecko) Chrome/138.0.0.0 Safari/537.36","WebKit","Chrome","138.0.0.0","Windows","10.0","https://app.prolific.com/","en-US,en;q=0.9","67e1a47dae2e2e04aa7d8417","687a1a965b9f5b85a264363e","6894ac1ab73c35374c710fa2","1","67e1a47dae2e2e04aa7d8417","1","2025-08-07T14:37:02.397Z","","","","StressQ","","","","","","","","","","","50","","","","","","","","","","","","","","","","","","","","","","","","","","",""
"10671","","<div style=""width:500px;"">
  <p>What best describes how you currently feel?</p>
  </div>","99","html-slider-response","77","1562863","0.0-7.0-4.12","231","1","2025-08-07 14:10:46","36c45c0696341be0efffe67d72a12abb","197.185.179.85","Mozilla/5.0 (Windows NT 10.0; Win64; x64) AppleWebKit/537.36 (KHTML, like Gecko) Chrome/138.0.0.0 Safari/537.36","WebKit","Chrome","138.0.0.0","Windows","10.0","https://app.prolific.com/","en-US,en;q=0.9","67e1a47dae2e2e04aa7d8417","687a1a965b9f5b85a264363e","6894ac1ab73c35374c710fa2","1","67e1a47dae2e2e04aa7d8417","1","2025-08-07T14:37:13.144Z","","","","MotivationQ","","","","","","","","","","","50","","","","","","","","","","","","","","","","","","","","","","","","","","",""
"","","","","ctl-task-cpt","78","1616979","0.0-7.0-0.13","231","1","2025-08-07 14:10:46","36c45c0696341be0efffe67d72a12abb","197.185.179.85","Mozilla/5.0 (Windows NT 10.0; Win64; x64) AppleWebKit/537.36 (KHTML, like Gecko) Chrome/138.0.0.0 Safari/537.36","WebKit","Chrome","138.0.0.0","Windows","10.0","https://app.prolific.com/","en-US,en;q=0.9","67e1a47dae2e2e04aa7d8417","687a1a965b9f5b85a264363e","6894ac1ab73c35374c710fa2","1","67e1a47dae2e2e04aa7d8417","1","2025-08-07T14:38:07.262Z","","","","","","","","","","","","","","","","win-only","1","g1:NE,g2:SW","0.9","14","0","1579139","2934.7","8001.4","51061.6","1","4","8","6","2","8","8","36","28","0.2727272727272727","5066.7","3000","2015","[""down"",""left""]","{""num_key_presses"":6,""num_perfect"":6,""num_errors"":0,""num_randdir"":0,""num_randdir_good_moves"":0,""num_whilered"":0,""num_whileblue"":0,""num_blue"":2,""num_good_moves"":6}","[298.22232142857143,294.12857142857143,1.6,298.22232142857143,294.12857142857143,459.7,298.22232142857143,294.12857142857143,588.1,298.22232142857143,294.12857142857143,699,298.22232142857143,294.12857142857143,814.4,298.22232142857143,294.12857142857143,921.5,298.22232142857143,294.12857142857143,1026.3,298.22232142857143,294.12857142857143,1133.2,298.22232142857143,294.12857142857143,1261.2,298.22232142857143,294.12857142857143,1391.1,298.22232142857143,294.12857142857143,1497.1,298.22232142857143,294.12857142857143,1618.3,298.22232142857143,294.12857142857143,1742.9,298.22232142857143,294.12857142857143,1885.3,298.22232142857143,294.12857142857143,1986.5,298.22232142857143,294.12857142857143,2088.8,298.22232142857143,294.12857142857143,2190.6,298.22232142857143,294.12857142857143,2312.3,298.22232142857143,294.12857142857143,2427.4,298.22232142857143,294.12857142857143,2573.3,298.22232142857143,294.12857142857143,2690.7,298.22232142857143,294.12857142857143,2806.7,298.22232142857143,294.12857142857143,2916,298.22232142857143,294.12857142857143,3056.1,298.22232142857143,294.12857142857143,3172.4,298.22232142857143,294.12857142857143,3330.7,298.22232142857143,294.12857142857143,3459.7,298.22232142857143,294.12857142857143,3606,298.22232142857143,294.12857142857143,3729.7,298.22232142857143,294.12857142857143,3871.9,298.22232142857143,294.12857142857143,3995.8,298.22232142857143,294.12857142857143,4105.4,298.22232142857143,294.12857142857143,4213.4,298.22232142857143,294.12857142857143,4354.3,298.22232142857143,294.12857142857143,4459,298.22232142857143,294.12857142857143,4571.3,298.22232142857143,294.12857142857143,4673.5,293.22232142857143,295.12857142857143,4806.8,163.22232142857143,420.12857142857143,4944.5]","[4162.3,4162.3,1000,0,3162.3,""smooth"",""down"",""down"",""good_move"",8112,3944.3,3183.4,4167.8,760.8,""smooth"",""down"",""down"",""good_move"",17157.7,9039.9,3739.1,12803.7,614.9,""smooth"",""down"",""down"",""good_move"",21473.3,4313.9,2640.3,17159.4,1673.6,""smooth"",""left"",""left"",""good_move"",30048.3,8568.6,2416.7,21479.7,6151.9,""smooth"",""left"",""left"",""good_move"",42354.5,12304.9,2507.6,38433,1414,""smooth"",""left"",""left"",""good_move""]"
"5424","","<div style=""width:500px;"">
  <p>What determined the result of this run?</p>
  </div>","100","html-slider-response","79","1622415","0.0-7.0-1.13","231","1","2025-08-07 14:10:46","36c45c0696341be0efffe67d72a12abb","197.185.179.85","Mozilla/5.0 (Windows NT 10.0; Win64; x64) AppleWebKit/537.36 (KHTML, like Gecko) Chrome/138.0.0.0 Safari/537.36","WebKit","Chrome","138.0.0.0","Windows","10.0","https://app.prolific.com/","en-US,en;q=0.9","67e1a47dae2e2e04aa7d8417","687a1a965b9f5b85a264363e","6894ac1ab73c35374c710fa2","1","67e1a47dae2e2e04aa7d8417","1","2025-08-07T14:38:12.696Z","","","","AttribQ","","","","","","","","","","","50","","","","","","","","","","","","","","","","","","","","","","","","","","",""
"5572","","<div style=""width:500px;"">
  <p>How much control did you have over the ball?</p>
