"rt","response_timestamp","stimulus","response","trial_type","trial_index","time_elapsed","internal_node_id","run_id","condition","recorded_at","source_code_version","ip","user_agent","device","browser","browser_version","platform","platform_version","referer","accept_language","PROLIFIC_PID","STUDY_ID","SESSION_ID","BATCH","prolific_id","batch","realtime","success","question_order","question_id","eventType","responses","item_order","radio_event_ids","radio_event_times","key_event_times","mouse_event_times","straightlining","zigzagging","honeypot","view_history","slider_start","which_type","canvas_config","goals_layout","control_level","trial_number","tutorial_trial_number","trial_start_time","phase1_start_time","phase2_start_time","phase3_start_time","goal_1_value","goal_1_distance","goal_2_value","goal_2_distance","goal_selected","outcome","outcome_total","participant_final_score","participant_initial_score","participant_final_score_prop","goal_choice_rt","allocated_time","allocated_time_remaining","goal_direction","counts","mouse_movements","key_presses"
"3491","1753867304281","<p style='font-size:40px;line-height:1.25'><strong>Welcome to the experiment!</strong></p><p style='font-size:1.1em;line-height:1.25'>Thank you for participanting in our experiment again! You will be asked to play the Dysfunctional Ball Game again. We will briefly recap the rules before we start.</p><p style='font-size:1.1em;line-height:1.25'>Press <strong>Next</strong> to continue.</p>","0","custom-html-button-response","0","3496","0.0-0.0","80","1","2025-07-30 09:21:38","36c45c0696341be0efffe67d72a12abb","102.209.191.18","Mozilla/5.0 (Windows NT 10.0; Win64; x64) AppleWebKit/537.36 (KHTML, like Gecko) Chrome/138.0.0.0 Safari/537.36","WebKit","Chrome","138.0.0.0","Windows","10.0","https://app.prolific.com/","en-US,en;q=0.9","67e161beb708693951a94cbd","687a360dabe5252b5ada7185","6889da8ab1198f1cce08b2f0","0","67e161beb708693951a94cbd","0","2025-07-30T09:21:44.283Z","","","","","","","","","","","","","","","","","","","","","","","","","","","","","","","","","","","","","","","","","",""
"22951","","","","fullscreen","1","27458","0.0-1.0","80","1","2025-07-30 09:21:38","36c45c0696341be0efffe67d72a12abb","102.209.191.18","Mozilla/5.0 (Windows NT 10.0; Win64; x64) AppleWebKit/537.36 (KHTML, like Gecko) Chrome/138.0.0.0 Safari/537.36","WebKit","Chrome","138.0.0.0","Windows","10.0","https://app.prolific.com/","en-US,en;q=0.9","67e161beb708693951a94cbd","687a360dabe5252b5ada7185","6889da8ab1198f1cce08b2f0","0","67e161beb708693951a94cbd","0","","true","","","","","","","","","","","","","","","","","","","","","","","","","","","","","","","","","","","","","","","","",""
"10626","1753867338874"," <p style='font-size:1.1em;line-height:1.25'>Thank you for closing all other tabs.</p><p style='font-size:1.1em;line-height:1.25'>We will now invite you to fill in some questionnaires, before starting the game.<br>This will take about 5 minutes.<br></p><p style='font-size:1.1em;line-height:1.25'>Press the <strong>Next</strong> button to continue.</p>","0","custom-html-button-response","2","38088","0.0-2.0","80","1","2025-07-30 09:21:38","36c45c0696341be0efffe67d72a12abb","102.209.191.18","Mozilla/5.0 (Windows NT 10.0; Win64; x64) AppleWebKit/537.36 (KHTML, like Gecko) Chrome/138.0.0.0 Safari/537.36","WebKit","Chrome","138.0.0.0","Windows","10.0","https://app.prolific.com/","en-US,en;q=0.9","67e161beb708693951a94cbd","687a360dabe5252b5ada7185","6889da8ab1198f1cce08b2f0","0","67e161beb708693951a94cbd","0","2025-07-30T09:22:18.874Z","","","","","","","","","","","","","","","","","","","","","","","","","","","","","","","","","","","","","","","","","",""
"4122","","","{""assigned_sex"":""female""}","survey-multi-choice","3","42214","0.0-3.0-0.0","80","1","2025-07-30 09:21:38","36c45c0696341be0efffe67d72a12abb","102.209.191.18","Mozilla/5.0 (Windows NT 10.0; Win64; x64) AppleWebKit/537.36 (KHTML, like Gecko) Chrome/138.0.0.0 Safari/537.36","WebKit","Chrome","138.0.0.0","Windows","10.0","https://app.prolific.com/","en-US,en;q=0.9","67e161beb708693951a94cbd","687a360dabe5252b5ada7185","6889da8ab1198f1cce08b2f0","0","67e161beb708693951a94cbd","0","","","[0]","0","demographics","","","","","","","","","","","","","","","","","","","","","","","","","","","","","","","","","","","","","",""
"5776","1753867348777","<p style='font-size:1.1em;line-height:1.25'>In the following, we will perform a baseline assessment. This means that we will ask you a few questions relating to your experiences over the past month.<br></p><p style='font-size:1.1em;line-height:1.25'>Press the <strong>Next</strong> button to continue.</p>","0","custom-html-button-response","4","47992","0.0-4.0-0.0","80","1","2025-07-30 09:21:38","36c45c0696341be0efffe67d72a12abb","102.209.191.18","Mozilla/5.0 (Windows NT 10.0; Win64; x64) AppleWebKit/537.36 (KHTML, like Gecko) Chrome/138.0.0.0 Safari/537.36","WebKit","Chrome","138.0.0.0","Windows","10.0","https://app.prolific.com/","en-US,en;q=0.9","67e161beb708693951a94cbd","687a360dabe5252b5ada7185","6889da8ab1198f1cce08b2f0","0","67e161beb708693951a94cbd","0","2025-07-30T09:22:28.778Z","","","","","","","","","","","","","","","","","","","","","","","","","","","","","","","","","","","","","","","","","",""
"44172.90000000596","","","","survey-template","5","92171","0.0-4.0-1.0","80","1","2025-07-30 09:21:38","36c45c0696341be0efffe67d72a12abb","102.209.191.18","Mozilla/5.0 (Windows NT 10.0; Win64; x64) AppleWebKit/537.36 (KHTML, like Gecko) Chrome/138.0.0.0 Safari/537.36","WebKit","Chrome","138.0.0.0","Windows","10.0","https://app.prolific.com/","en-US,en;q=0.9","67e161beb708693951a94cbd","687a360dabe5252b5ada7185","6889da8ab1198f1cce08b2f0","0","67e161beb708693951a94cbd","0","2025-07-30T09:23:12.957Z","","","","pss","{""Q01"":""2"",""Q02"":""3"",""Q03"":""1"",""Q04"":""1"",""Q05"":""1"",""Q06"":""2"",""Q07"":""2"",""Q08"":""1"",""Q09"":""1"",""Q10"":""2""}","[0,1,2,3,4,5,6,7,8,9]","[""Q01"",""Q02"",""Q03"",""Q04"",""Q05"",""Q05"",""Q06"",""Q07"",""Q08"",""Q09"",""Q10""]","[4823.799999982119,12377.799999982119,15123.5,18236.40000000596,22222.5,22489.40000000596,26216.79999998212,29310.79999998212,35684.09999999404,39451.19999998808,42969.59999999404]","[]","[0.19999998807907104,4823.799999982119,12377.799999982119,15123.5,18236.40000000596,22222.5,22489.40000000596,26216.79999998212,29310.79999998212,30469.79999998212,35684.09999999404,39451.19999998808,42969.59999999404,44170]","0.4","0.4444444444444444","0","","","","","","","","","","","","","","","","","","","","","","","","","","","","",""
"4781","1753867397739","<p style='font-size:1.1em;line-height:1.25'>Thank you for your answers! Now we will ask you a few more questions relating to your feelings in the last 24 hours.<br></p><p style='font-size:1.1em;line-height:1.25'>Press the <strong>Next</strong> button to continue.</p>","0","custom-html-button-response","6","96954","0.0-4.0-2.0","80","1","2025-07-30 09:21:38","36c45c0696341be0efffe67d72a12abb","102.209.191.18","Mozilla/5.0 (Windows NT 10.0; Win64; x64) AppleWebKit/537.36 (KHTML, like Gecko) Chrome/138.0.0.0 Safari/537.36","WebKit","Chrome","138.0.0.0","Windows","10.0","https://app.prolific.com/","en-US,en;q=0.9","67e161beb708693951a94cbd","687a360dabe5252b5ada7185","6889da8ab1198f1cce08b2f0","0","67e161beb708693951a94cbd","0","2025-07-30T09:23:17.740Z","","","","","","","","","","","","","","","","","","","","","","","","","","","","","","","","","","","","","","","","","",""
"69357.29999998212","","","","survey-template","7","166318","0.0-4.0-3.0","80","1","2025-07-30 09:21:38","36c45c0696341be0efffe67d72a12abb","102.209.191.18","Mozilla/5.0 (Windows NT 10.0; Win64; x64) AppleWebKit/537.36 (KHTML, like Gecko) Chrome/138.0.0.0 Safari/537.36","WebKit","Chrome","138.0.0.0","Windows","10.0","https://app.prolific.com/","en-US,en;q=0.9","67e161beb708693951a94cbd","687a360dabe5252b5ada7185","6889da8ab1198f1cce08b2f0","0","67e161beb708693951a94cbd","0","2025-07-30T09:24:27.104Z","","","","drsp","{""Q01"":""2"",""Q02"":""1"",""Q03"":""0"",""Q04"":""2"",""Q05"":""1"",""Q06"":""2"",""Q07"":""2"",""Q08"":""3"",""Q09"":""1"",""Q10"":""1"",""Q11"":""2"",""Q12"":""1"",""Q13"":""5"",""Q14"":""3"",""Q15"":""2"",""Q16"":""4"",""Q17"":""1"",""Q18"":""0"",""Q19"":""4"",""Q20"":""3"",""Q21"":""2"",""Q22"":""3""}","[0,1,2,3,4,5,6,7,8,9,10,11,12,13,14,15,16,17,18,19,20,21]","[""Q01"",""Q02"",""Q03"",""Q04"",""Q05"",""Q06"",""Q07"",""Q08"",""Q09"",""Q10"",""Q11"",""Q12"",""Q13"",""Q14"",""Q15"",""Q16"",""Q17"",""Q18"",""Q19"",""Q19"",""Q20"",""Q21"",""Q22""]","[3157.399999976158,4743.5999999940395,7222.0999999940395,9204.399999976158,11018.59999999404,12555.5,14647.299999982119,17344.29999998212,23846.69999998808,25403.5,27049.09999999404,28724.399999976158,32848.5,35049.19999998808,37696.39999997616,42821.59999999404,44755,50594.19999998808,58693.79999998212,60785.39999997616,62402,64880.19999998808,67161.59999999404]","[]","[0.19999998807907104,3157.399999976158,4743.5999999940395,7222.0999999940395,9204.399999976158,11018.59999999404,12555.5,14647.299999982119,17344.29999998212,18503.69999998808,23846.69999998808,25403.5,27049.09999999404,28724.399999976158,32848.5,35049.19999998808,36407.5,37696.39999997616,42821.59999999404,44755,45914.89999997616,50594.19999998808,52983.69999998808,58693.79999998212,60785.39999997616,62402,64880.19999998808,67161.59999999404,69351.59999999404]","0.3181818181818182","0.5714285714285714","0","","","","","","","","","","","","","","","","","","","","","","","","","","","","",""
"13216.59999999404","","","","survey-template","8","179537","0.0-4.0-4.0","80","1","2025-07-30 09:21:38","36c45c0696341be0efffe67d72a12abb","102.209.191.18","Mozilla/5.0 (Windows NT 10.0; Win64; x64) AppleWebKit/537.36 (KHTML, like Gecko) Chrome/138.0.0.0 Safari/537.36","WebKit","Chrome","138.0.0.0","Windows","10.0","https://app.prolific.com/","en-US,en;q=0.9","67e161beb708693951a94cbd","687a360dabe5252b5ada7185","6889da8ab1198f1cce08b2f0","0","67e161beb708693951a94cbd","0","2025-07-30T09:24:40.323Z","","","","stress","{""Q01"":""5"",""Q02"":""2"",""Q03"":""3""}","[0,1,2]","[""Q01"",""Q02"",""Q03""]","[6404.399999976158,9705.799999982119,11867]","[]","[6404.399999976158,9705.799999982119,11867,13215.299999982119]","0.6666666666666666","0","0","","","","","","","","","","","","","","","","","","","","","","","","","","","","",""
"2366","","","","instructions","9","181904","0.0-5.0-0.0","80","1","2025-07-30 09:21:38","36c45c0696341be0efffe67d72a12abb","102.209.191.18","Mozilla/5.0 (Windows NT 10.0; Win64; x64) AppleWebKit/537.36 (KHTML, like Gecko) Chrome/138.0.0.0 Safari/537.36","WebKit","Chrome","138.0.0.0","Windows","10.0","https://app.prolific.com/","en-US,en;q=0.9","67e161beb708693951a94cbd","687a360dabe5252b5ada7185","6889da8ab1198f1cce08b2f0","0","67e161beb708693951a94cbd","0","","","","","","","","","","","","","","","[{""page_index"":0,""viewing_time"":2365}]","","","","","","","","","","","","","","","","","","","","","","","","","","","",""
"5005","","<p>Before you start with this game please answer the following three questions yourself. </p>
  <p>Through this game, we measure several aspects of your cognitive performance, such as reaction times, multi-tasking capabilities </p>
  <p>and the ability to assess the situation you are in.</p>
  <p></p>
  <p><b>How good do you usually are in such tasks?</b></p>","99","html-slider-response","10","186911","0.0-6.0-0.0","80","1","2025-07-30 09:21:38","36c45c0696341be0efffe67d72a12abb","102.209.191.18","Mozilla/5.0 (Windows NT 10.0; Win64; x64) AppleWebKit/537.36 (KHTML, like Gecko) Chrome/138.0.0.0 Safari/537.36","WebKit","Chrome","138.0.0.0","Windows","10.0","https://app.prolific.com/","en-US,en;q=0.9","67e161beb708693951a94cbd","687a360dabe5252b5ada7185","6889da8ab1198f1cce08b2f0","0","67e161beb708693951a94cbd","0","2025-07-30T09:24:47.697Z","","","","PreSkillQ","","","","","","","","","","","50","","","","","","","","","","","","","","","","","","","","","","","","","","",""
"3240","","<div style=""width:500px;"">
  <p>How well do you think you will perform in this task compared to other participants?</p>
  </div>","90","html-slider-response","11","190153","0.0-6.0-1.0","80","1","2025-07-30 09:21:38","36c45c0696341be0efffe67d72a12abb","102.209.191.18","Mozilla/5.0 (Windows NT 10.0; Win64; x64) AppleWebKit/537.36 (KHTML, like Gecko) Chrome/138.0.0.0 Safari/537.36","WebKit","Chrome","138.0.0.0","Windows","10.0","https://app.prolific.com/","en-US,en;q=0.9","67e161beb708693951a94cbd","687a360dabe5252b5ada7185","6889da8ab1198f1cce08b2f0","0","67e161beb708693951a94cbd","0","2025-07-30T09:24:50.939Z","","","","PrePerfQ","","","","","","","","","","","50","","","","","","","","","","","","","","","","","","","","","","","","","","",""
"2963","","<div style=""width:500px;"">
  <p>What best describes how you currently feel?</p>
  </div>","84","html-slider-response","12","193117","0.0-6.0-2.0","80","1","2025-07-30 09:21:38","36c45c0696341be0efffe67d72a12abb","102.209.191.18","Mozilla/5.0 (Windows NT 10.0; Win64; x64) AppleWebKit/537.36 (KHTML, like Gecko) Chrome/138.0.0.0 Safari/537.36","WebKit","Chrome","138.0.0.0","Windows","10.0","https://app.prolific.com/","en-US,en;q=0.9","67e161beb708693951a94cbd","687a360dabe5252b5ada7185","6889da8ab1198f1cce08b2f0","0","67e161beb708693951a94cbd","0","2025-07-30T09:24:53.903Z","","","","PreMotivationQ","","","","","","","","","","","50","","","","","","","","","","","","","","","","","","","","","","","","","","",""
"","","","","ctl-task-cpt","13","213198","0.0-7.0-0.0","80","1","2025-07-30 09:21:38","36c45c0696341be0efffe67d72a12abb","102.209.191.18","Mozilla/5.0 (Windows NT 10.0; Win64; x64) AppleWebKit/537.36 (KHTML, like Gecko) Chrome/138.0.0.0 Safari/537.36","WebKit","Chrome","138.0.0.0","Windows","10.0","https://app.prolific.com/","en-US,en;q=0.9","67e161beb708693951a94cbd","687a360dabe5252b5ada7185","6889da8ab1198f1cce08b2f0","0","67e161beb708693951a94cbd","0","2025-07-30T09:25:13.984Z","","","","","","","","","","","","","","","","win-only","3","g1:SW,g2:NE","1","1","0","196674.8","1574.6","6578.1","17070.9","1","4","4","6","1","1","1","1","0","0.007575757575757576","3066.4","3000","1475","[""down"",""left""]","{""num_key_presses"":4,""num_perfect"":4,""num_errors"":0,""num_randdir"":0,""num_randdir_good_moves"":0,""num_whilered"":0,""num_whileblue"":0,""num_blue"":0,""num_good_moves"":4}","[297.22232142857143,292.12857142857143,0.2,297.22232142857143,292.12857142857143,100.8,297.22232142857143,292.12857142857143,201.1,297.22232142857143,292.12857142857143,306.8,297.22232142857143,292.12857142857143,406.8,259.22232142857143,330.12857142857143,511,228.22232142857143,364.12857142857143,616,228.22232142857143,364.12857142857143,716,228.22232142857143,357.12857142857143,816.3,401.22232142857143,150.12857142857143,916.8,428.22232142857143,136.12857142857143,1016.9,428.22232142857143,136.12857142857143,1122,455.22232142857143,100.12857142857143,1222.4,548.2223214285714,10.128571428571426,1334.9,549.2223214285714,10.128571428571426,1436.5,549.2223214285714,12.128571428571426,1536.5,547.2223214285714,20.128571428571426,1641.6,543.2223214285714,41.128571428571426,1751.9,481.22232142857143,122.12857142857143,1856.2,456.22232142857143,143.12857142857143,1956.4,456.22232142857143,143.12857142857143,2056.7,310.22232142857143,272.12857142857143,2167.5,245.22232142857143,366.12857142857143,2271.9,245.22232142857143,368.12857142857143,2383.8,226.22232142857143,387.12857142857143,2487.3,123.22232142857143,475.12857142857143,2587.4,83.22232142857143,521.1285714285714,2687.8,71.22232142857143,530.1285714285714,2788.3,70.22232142857143,530.1285714285714,2891.8,70.22232142857143,530.1285714285714,2993.1,70.22232142857143,530.1285714285714,3100.4,70.22232142857143,530.1285714285714,3202.1,70.22232142857143,530.1285714285714,3306.6,70.22232142857143,530.1285714285714,3416.2,70.22232142857143,530.1285714285714,3516.7,70.22232142857143,530.1285714285714,3621.9,70.22232142857143,530.1285714285714,3722.5,70.22232142857143,530.1285714285714,3826.3,70.22232142857143,530.1285714285714,3931.9,70.22232142857143,530.1285714285714,4033.1,70.22232142857143,530.1285714285714,4134.5,70.22232142857143,530.1285714285714,4236,70.22232142857143,530.1285714285714,4337,70.22232142857143,530.1285714285714,4441.1,70.22232142857143,530.1285714285714,4541.4,70.22232142857143,530.1285714285714,4647.7,70.22232142857143,530.1285714285714,4748.7,70.22232142857143,530.1285714285714,4849.3,70.22232142857143,530.1285714285714,4954.2]","[1452.2,1452.1,1000,0.1,452.1,""smooth"",""down"",""down"",""good_move"",4199.2,2745.8,2244.8,1453.6,500.9,""smooth"",""down"",""down"",""good_move"",6866.5,2667,2251.7,4199.5,415.3,""smooth"",""left"",""left"",""good_move"",10375.7,3508.1,3083.9,6867.6,424.2,""smooth"",""left"",""left"",""good_move""]"
"4431","","<div style=""width:500px;"">
  <p>What determined the result of this run?</p>
  </div>","42","html-slider-response","14","217630","0.0-7.0-1.0","80","1","2025-07-30 09:21:38","36c45c0696341be0efffe67d72a12abb","102.209.191.18","Mozilla/5.0 (Windows NT 10.0; Win64; x64) AppleWebKit/537.36 (KHTML, like Gecko) Chrome/138.0.0.0 Safari/537.36","WebKit","Chrome","138.0.0.0","Windows","10.0","https://app.prolific.com/","en-US,en;q=0.9","67e161beb708693951a94cbd","687a360dabe5252b5ada7185","6889da8ab1198f1cce08b2f0","0","67e161beb708693951a94cbd","0","2025-07-30T09:25:18.416Z","","","","AttribQ","","","","","","","","","","","50","","","","","","","","","","","","","","","","","","","","","","","","","","",""
"2636","","<div style=""width:500px;"">
  <p>How much control did you have over the ball?</p>
  </div>","57","html-slider-response","15","220268","0.0-7.0-2.0","80","1","2025-07-30 09:21:38","36c45c0696341be0efffe67d72a12abb","102.209.191.18","Mozilla/5.0 (Windows NT 10.0; Win64; x64) AppleWebKit/537.36 (KHTML, like Gecko) Chrome/138.0.0.0 Safari/537.36","WebKit","Chrome","138.0.0.0","Windows","10.0","https://app.prolific.com/","en-US,en;q=0.9","67e161beb708693951a94cbd","687a360dabe5252b5ada7185","6889da8ab1198f1cce08b2f0","0","67e161beb708693951a94cbd","0","2025-07-30T09:25:21.054Z","","","","ControlQ","","","","","","","","","","","50","","","","","","","","","","","","","","","","","","","","","","","","","","",""
"2297","","<div style=""width:500px;"">
  <p>How would you describe your current emotional state?</p>
  </div>","37","html-slider-response","16","222568","0.0-7.0-3.0","80","1","2025-07-30 09:21:38","36c45c0696341be0efffe67d72a12abb","102.209.191.18","Mozilla/5.0 (Windows NT 10.0; Win64; x64) AppleWebKit/537.36 (KHTML, like Gecko) Chrome/138.0.0.0 Safari/537.36","WebKit","Chrome","138.0.0.0","Windows","10.0","https://app.prolific.com/","en-US,en;q=0.9","67e161beb708693951a94cbd","687a360dabe5252b5ada7185","6889da8ab1198f1cce08b2f0","0","67e161beb708693951a94cbd","0","2025-07-30T09:25:23.354Z","","","","StressQ","","","","","","","","","","","50","","","","","","","","","","","","","","","","","","","","","","","","","","",""
"2814","","<div style=""width:500px;"">
  <p>What best describes how you currently feel?</p>
  </div>","50","html-slider-response","17","225383","0.0-7.0-4.0","80","1","2025-07-30 09:21:38","36c45c0696341be0efffe67d72a12abb","102.209.191.18","Mozilla/5.0 (Windows NT 10.0; Win64; x64) AppleWebKit/537.36 (KHTML, like Gecko) Chrome/138.0.0.0 Safari/537.36","WebKit","Chrome","138.0.0.0","Windows","10.0","https://app.prolific.com/","en-US,en;q=0.9","67e161beb708693951a94cbd","687a360dabe5252b5ada7185","6889da8ab1198f1cce08b2f0","0","67e161beb708693951a94cbd","0","2025-07-30T09:25:26.169Z","","","","MotivationQ","","","","","","","","","","","50","","","","","","","","","","","","","","","","","","","","","","","","","","",""
"","","","","ctl-task-cpt","18","251793","0.0-7.0-0.1","80","1","2025-07-30 09:21:38","36c45c0696341be0efffe67d72a12abb","102.209.191.18","Mozilla/5.0 (Windows NT 10.0; Win64; x64) AppleWebKit/537.36 (KHTML, like Gecko) Chrome/138.0.0.0 Safari/537.36","WebKit","Chrome","138.0.0.0","Windows","10.0","https://app.prolific.com/","en-US,en;q=0.9","67e161beb708693951a94cbd","687a360dabe5252b5ada7185","6889da8ab1198f1cce08b2f0","0","67e161beb708693951a94cbd","0","2025-07-30T09:25:52.579Z","","","","","","","","","","","","","","","","win-only","0","g1:NW,g2:SE","0.9","2","0","228938.4","1427.1","6431","23396.7","1","4","8","6","2","8","8","9","1","0.06818181818181818","1833.6","3000","780","[""down"",""right""]","{""num_key_presses"":6,""num_perfect"":5,""num_errors"":0,""num_randdir"":1,""num_randdir_good_moves"":1,""num_whilered"":0,""num_whileblue"":0,""num_blue"":0,""num_good_moves"":6}","[297.22232142857143,296.12857142857143,0.4,297.22232142857143,296.12857142857143,103.8,297.22232142857143,296.12857142857143,204,297.22232142857143,296.12857142857143,304.5,297.22232142857143,296.12857142857143,409.5,297.22232142857143,296.12857142857143,514.6,297.22232142857143,297.12857142857143,614.7,314.22232142857143,325.12857142857143,715.2,314.22232142857143,325.12857142857143,819.2,325.22232142857143,345.12857142857143,919.7,383.22232142857143,436.12857142857143,1031.6,383.22232142857143,436.12857142857143,1131.8,395.22232142857143,439.12857142857143,1233.6,481.22232142857143,496.12857142857143,1335,506.22232142857143,535.1285714285714,1438.9,520.2223214285714,556.1285714285714,1539.1,532.2223214285714,557.1285714285714,1649.3,532.2223214285714,557.1285714285714,1754.1,532.2223214285714,557.1285714285714,1865,532.2223214285714,557.1285714285714,1965.4,532.2223214285714,557.1285714285714,2068.8,532.2223214285714,557.1285714285714,2175.6,532.2223214285714,557.1285714285714,2281.9,532.2223214285714,557.1285714285714,2382.8,532.2223214285714,557.1285714285714,2485.4,532.2223214285714,557.1285714285714,2589.2,532.2223214285714,557.1285714285714,2697.9,532.2223214285714,557.1285714285714,2798.6,532.2223214285714,557.1285714285714,2900.2,532.2223214285714,557.1285714285714,3004,532.2223214285714,557.1285714285714,3104.6,532.2223214285714,557.1285714285714,3212,532.2223214285714,557.1285714285714,3314.1,532.2223214285714,557.1285714285714,3414.7,532.2223214285714,557.1285714285714,3518.3,532.2223214285714,557.1285714285714,3618.9,532.2223214285714,557.1285714285714,3724.5,532.2223214285714,557.1285714285714,3824.5,532.2223214285714,557.1285714285714,3931.5,532.2223214285714,557.1285714285714,4032.3,532.2223214285714,557.1285714285714,4134.8,532.2223214285714,557.1285714285714,4238.3,532.2223214285714,557.1285714285714,4338.5,532.2223214285714,557.1285714285714,4438.8,532.2223214285714,557.1285714285714,4548.2,532.2223214285714,557.1285714285714,4648.9,532.2223214285714,557.1285714285714,4754.7,532.2223214285714,557.1285714285714,4863.6,532.2223214285714,557.1285714285714,4969.6]","[1413,1413.1,1000,0,413.1,""smooth"",""down"",""down"",""good_move"",5010.6,3597.3,3185.5,1413.3,411.8,""oops"",""down"",""down"",""good_move"",7692.4,2681.4,2191.9,5011,489.5,""smooth"",""right"",""right"",""good_move"",10449.7,2756.7,2358.1,7693,398.6,""smooth"",""right"",""right"",""good_move"",13958.7,3508.6,3011.1,10450.1,497.5,""smooth"",""right"",""right"",""good_move"",16862.6,2902.7,2501.9,13960,400.7,""smooth"",""down"",""down"",""good_move""]"
"3852","","<div style=""width:500px;"">
  <p>What determined the result of this run?</p>
  </div>","53","html-slider-response","19","255646","0.0-7.0-1.1","80","1","2025-07-30 09:21:38","36c45c0696341be0efffe67d72a12abb","102.209.191.18","Mozilla/5.0 (Windows NT 10.0; Win64; x64) AppleWebKit/537.36 (KHTML, like Gecko) Chrome/138.0.0.0 Safari/537.36","WebKit","Chrome","138.0.0.0","Windows","10.0","https://app.prolific.com/","en-US,en;q=0.9","67e161beb708693951a94cbd","687a360dabe5252b5ada7185","6889da8ab1198f1cce08b2f0","0","67e161beb708693951a94cbd","0","2025-07-30T09:25:56.432Z","","","","AttribQ","","","","","","","","","","","50","","","","","","","","","","","","","","","","","","","","","","","","","","",""
"2477","","<div style=""width:500px;"">
  <p>How much control did you have over the ball?</p>
  </div>","59","html-slider-response","20","258124","0.0-7.0-2.1","80","1","2025-07-30 09:21:38","36c45c0696341be0efffe67d72a12abb","102.209.191.18","Mozilla/5.0 (Windows NT 10.0; Win64; x64) AppleWebKit/537.36 (KHTML, like Gecko) Chrome/138.0.0.0 Safari/537.36","WebKit","Chrome","138.0.0.0","Windows","10.0","https://app.prolific.com/","en-US,en;q=0.9","67e161beb708693951a94cbd","687a360dabe5252b5ada7185","6889da8ab1198f1cce08b2f0","0","67e161beb708693951a94cbd","0","2025-07-30T09:25:58.911Z","","","","ControlQ","","","","","","","","","","","50","","","","","","","","","","","","","","","","","","","","","","","","","","",""
"3031","","<div style=""width:500px;"">
  <p>How would you describe your current emotional state?</p>
  </div>","24","html-slider-response","21","261158","0.0-7.0-3.1","80","1","2025-07-30 09:21:38","36c45c0696341be0efffe67d72a12abb","102.209.191.18","Mozilla/5.0 (Windows NT 10.0; Win64; x64) AppleWebKit/537.36 (KHTML, like Gecko) Chrome/138.0.0.0 Safari/537.36","WebKit","Chrome","138.0.0.0","Windows","10.0","https://app.prolific.com/","en-US,en;q=0.9","67e161beb708693951a94cbd","687a360dabe5252b5ada7185","6889da8ab1198f1cce08b2f0","0","67e161beb708693951a94cbd","0","2025-07-30T09:26:01.944Z","","","","StressQ","","","","","","","","","","","50","","","","","","","","","","","","","","","","","","","","","","","","","","",""
"2446","","<div style=""width:500px;"">
  <p>What best describes how you currently feel?</p>
  </div>","71","html-slider-response","22","263607","0.0-7.0-4.1","80","1","2025-07-30 09:21:38","36c45c0696341be0efffe67d72a12abb","102.209.191.18","Mozilla/5.0 (Windows NT 10.0; Win64; x64) AppleWebKit/537.36 (KHTML, like Gecko) Chrome/138.0.0.0 Safari/537.36","WebKit","Chrome","138.0.0.0","Windows","10.0","https://app.prolific.com/","en-US,en;q=0.9","67e161beb708693951a94cbd","687a360dabe5252b5ada7185","6889da8ab1198f1cce08b2f0","0","67e161beb708693951a94cbd","0","2025-07-30T09:26:04.393Z","","","","MotivationQ","","","","","","","","","","","50","","","","","","","","","","","","","","","","","","","","","","","","","","",""
"","","","","ctl-task-cpt","23","305206","0.0-7.0-0.2","80","1","2025-07-30 09:21:38","36c45c0696341be0efffe67d72a12abb","102.209.191.18","Mozilla/5.0 (Windows NT 10.0; Win64; x64) AppleWebKit/537.36 (KHTML, like Gecko) Chrome/138.0.0.0 Safari/537.36","WebKit","Chrome","138.0.0.0","Windows","10.0","https://app.prolific.com/","en-US,en;q=0.9","67e161beb708693951a94cbd","687a360dabe5252b5ada7185","6889da8ab1198f1cce08b2f0","0","67e161beb708693951a94cbd","0","2025-07-30T09:26:45.992Z","","","","","","","","","","","","","","","","win-only","1","g1:NE,g2:SW","0.8","3","0","267164.2","1363.2","6367","38586.2","1","4","8","6","1","1","1","10","9","0.07575757575757576","2686.8","3000","545","[""up"",""right""]","{""num_key_presses"":6,""num_perfect"":5,""num_errors"":0,""num_randdir"":1,""num_randdir_good_moves"":0,""num_whilered"":0,""num_whileblue"":0,""num_blue"":4,""num_good_moves"":5}","[299.22232142857143,293.12857142857143,0.3,299.22232142857143,293.12857142857143,103.2,299.22232142857143,293.12857142857143,212.3,299.22232142857143,293.12857142857143,318.2,299.22232142857143,293.12857142857143,420.2,299.22232142857143,293.12857142857143,524.7,266.22232142857143,338.12857142857143,629.9,218.22232142857143,421.12857142857143,732.5,218.22232142857143,421.12857142857143,834.2,203.22232142857143,435.12857142857143,937.7,98.22232142857143,507.12857142857143,1046.6,83.22232142857143,519.1285714285714,1147.4,73.22232142857143,521.1285714285714,1252.8,73.22232142857143,522.1285714285714,1352.9,73.22232142857143,522.1285714285714,1453.6,244.22232142857143,382.12857142857143,1564,322.22232142857143,338.12857142857143,1664.4,322.22232142857143,338.12857142857143,1768.5,401.22232142857143,206.12857142857143,1872.3,490.22232142857143,82.12857142857143,1972.3,491.22232142857143,80.12857142857143,2073.1,491.22232142857143,80.12857142857143,2173.2,491.22232142857143,80.12857142857143,2275.4,518.2223214285714,68.12857142857143,2385.6,529.2223214285714,67.12857142857143,2496,529.2223214285714,67.12857142857143,2597.7,529.2223214285714,67.12857142857143,2700.4,529.2223214285714,67.12857142857143,2802.6,529.2223214285714,67.12857142857143,2911.2,529.2223214285714,67.12857142857143,3013.5,529.2223214285714,67.12857142857143,3118.4,529.2223214285714,67.12857142857143,3223.3,529.2223214285714,67.12857142857143,3328,529.2223214285714,67.12857142857143,3429,529.2223214285714,67.12857142857143,3532.6,529.2223214285714,67.12857142857143,3633.1,529.2223214285714,67.12857142857143,3733.9,529.2223214285714,67.12857142857143,3838.7,529.2223214285714,67.12857142857143,3946.9,529.2223214285714,67.12857142857143,4048.5,529.2223214285714,67.12857142857143,4153.8,529.2223214285714,67.12857142857143,4260.1,529.2223214285714,67.12857142857143,4362.2,529.2223214285714,67.12857142857143,4463.3,529.2223214285714,67.12857142857143,4563.5,529.2223214285714,67.12857142857143,4672.6,529.2223214285714,67.12857142857143,4772.7,529.2223214285714,67.12857142857143,4877.5,529.2223214285714,67.12857142857143,4978.4]","[1444.9,1444.9,1000,0,444.9,""smooth"",""up"",""up"",""good_move"",4829.1,3382.1,2926.7,1447,455.4,""smooth"",""up"",""up"",""good_move"",11681.3,6850.6,2771.2,8498.5,411.6,""smooth"",""right"",""right"",""good_move"",17488,5806.3,2248.6,14769.4,470,""oops"",""right"",""left"",""bad_move"",20996.1,3507.6,2948.7,17488.5,559,""smooth"",""right"",""right"",""good_move"",32119.2,11122.8,2652.9,29028.3,438,""smooth"",""right"",""right"",""good_move""]"
"3896","","<div style=""width:500px;"">
  <p>What determined the result of this run?</p>
  </div>","55","html-slider-response","24","309104","0.0-7.0-1.2","80","1","2025-07-30 09:21:38","36c45c0696341be0efffe67d72a12abb","102.209.191.18","Mozilla/5.0 (Windows NT 10.0; Win64; x64) AppleWebKit/537.36 (KHTML, like Gecko) Chrome/138.0.0.0 Safari/537.36","WebKit","Chrome","138.0.0.0","Windows","10.0","https://app.prolific.com/","en-US,en;q=0.9","67e161beb708693951a94cbd","687a360dabe5252b5ada7185","6889da8ab1198f1cce08b2f0","0","67e161beb708693951a94cbd","0","2025-07-30T09:26:49.890Z","","","","AttribQ","","","","","","","","","","","50","","","","","","","","","","","","","","","","","","","","","","","","","","",""
"4073","","<div style=""width:500px;"">
  <p>How much control did you have over the ball?</p>
  </div>","39","html-slider-response","25","313179","0.0-7.0-2.2","80","1","2025-07-30 09:21:38","36c45c0696341be0efffe67d72a12abb","102.209.191.18","Mozilla/5.0 (Windows NT 10.0; Win64; x64) AppleWebKit/537.36 (KHTML, like Gecko) Chrome/138.0.0.0 Safari/537.36","WebKit","Chrome","138.0.0.0","Windows","10.0","https://app.prolific.com/","en-US,en;q=0.9","67e161beb708693951a94cbd","687a360dabe5252b5ada7185","6889da8ab1198f1cce08b2f0","0","67e161beb708693951a94cbd","0","2025-07-30T09:26:53.965Z","","","","ControlQ","","","","","","","","","","","50","","","","","","","","","","","","","","","","","","","","","","","","","","",""
"2318","","<div style=""width:500px;"">
  <p>How would you describe your current emotional state?</p>
  </div>","36","html-slider-response","26","315499","0.0-7.0-3.2","80","1","2025-07-30 09:21:38","36c45c0696341be0efffe67d72a12abb","102.209.191.18","Mozilla/5.0 (Windows NT 10.0; Win64; x64) AppleWebKit/537.36 (KHTML, like Gecko) Chrome/138.0.0.0 Safari/537.36","WebKit","Chrome","138.0.0.0","Windows","10.0","https://app.prolific.com/","en-US,en;q=0.9","67e161beb708693951a94cbd","687a360dabe5252b5ada7185","6889da8ab1198f1cce08b2f0","0","67e161beb708693951a94cbd","0","2025-07-30T09:26:56.285Z","","","","StressQ","","","","","","","","","","","50","","","","","","","","","","","","","","","","","","","","","","","","","","",""
"2496","","<div style=""width:500px;"">
  <p>What best describes how you currently feel?</p>
  </div>","66","html-slider-response","27","317997","0.0-7.0-4.2","80","1","2025-07-30 09:21:38","36c45c0696341be0efffe67d72a12abb","102.209.191.18","Mozilla/5.0 (Windows NT 10.0; Win64; x64) AppleWebKit/537.36 (KHTML, like Gecko) Chrome/138.0.0.0 Safari/537.36","WebKit","Chrome","138.0.0.0","Windows","10.0","https://app.prolific.com/","en-US,en;q=0.9","67e161beb708693951a94cbd","687a360dabe5252b5ada7185","6889da8ab1198f1cce08b2f0","0","67e161beb708693951a94cbd","0","2025-07-30T09:26:58.783Z","","","","MotivationQ","","","","","","","","","","","50","","","","","","","","","","","","","","","","","","","","","","","","","","",""
"","","","","ctl-task-cpt","28","335950","0.0-7.0-0.3","80","1","2025-07-30 09:21:38","36c45c0696341be0efffe67d72a12abb","102.209.191.18","Mozilla/5.0 (Windows NT 10.0; Win64; x64) AppleWebKit/537.36 (KHTML, like Gecko) Chrome/138.0.0.0 Safari/537.36","WebKit","Chrome","138.0.0.0","Windows","10.0","https://app.prolific.com/","en-US,en;q=0.9","67e161beb708693951a94cbd","687a360dabe5252b5ada7185","6889da8ab1198f1cce08b2f0","0","67e161beb708693951a94cbd","0","2025-07-30T09:27:16.736Z","","","","","","","","","","","","","","","","win-only","2","g1:SE,g2:NW","0.7","4","0","321553.6","1099.6","6102.2","14936.9","1","4","4","6","1","1","1","11","10","0.08333333333333333","2220.6","3000","1690","[""down"",""right""]","{""num_key_presses"":4,""num_perfect"":4,""num_errors"":0,""num_randdir"":0,""num_randdir_good_moves"":0,""num_whilered"":0,""num_whileblue"":0,""num_blue"":0,""num_good_moves"":4}","[302.22232142857143,292.12857142857143,0.4,302.22232142857143,292.12857142857143,102.6,302.22232142857143,292.12857142857143,205.7,302.22232142857143,292.12857142857143,305.8,302.22232142857143,292.12857142857143,405.9,302.22232142857143,292.12857142857143,506.7,303.22232142857143,301.12857142857143,617.5,217.22232142857143,198.12857142857143,723.1,200.22232142857143,167.12857142857143,835.4,200.22232142857143,167.12857142857143,936.2,201.22232142857143,168.12857142857143,1037.3,314.22232142857143,294.12857142857143,1138.3,333.22232142857143,325.12857142857143,1251.1,333.22232142857143,325.12857142857143,1352.4,419.22232142857143,396.12857142857143,1457.8,485.22232142857143,470.12857142857143,1561.2,485.22232142857143,470.12857142857143,1669.4,496.22232142857143,477.12857142857143,1769.5,529.2223214285714,508.12857142857143,1871.5,536.2223214285714,520.1285714285714,1971.5,541.2223214285714,535.1285714285714,2071.8,541.2223214285714,535.1285714285714,2186,541.2223214285714,535.1285714285714,2299.4,541.2223214285714,535.1285714285714,2402.5,541.2223214285714,535.1285714285714,2502.7,541.2223214285714,535.1285714285714,2606.1,541.2223214285714,535.1285714285714,2706.2,541.2223214285714,535.1285714285714,2806.3,541.2223214285714,535.1285714285714,2919.6,541.2223214285714,535.1285714285714,3022.9,541.2223214285714,535.1285714285714,3134.1,541.2223214285714,535.1285714285714,3236.1,541.2223214285714,535.1285714285714,3337.4,541.2223214285714,535.1285714285714,3443.1,541.2223214285714,535.1285714285714,3543.6,541.2223214285714,535.1285714285714,3649,541.2223214285714,535.1285714285714,3752.2,541.2223214285714,535.1285714285714,3852.7,541.2223214285714,535.1285714285714,3956.6,541.2223214285714,535.1285714285714,4068.8,541.2223214285714,535.1285714285714,4171.7,541.2223214285714,535.1285714285714,4286.4,541.2223214285714,535.1285714285714,4392.6,541.2223214285714,535.1285714285714,4502.8,541.2223214285714,535.1285714285714,4606,541.2223214285714,535.1285714285714,4706,541.2223214285714,535.1285714285714,4806.1,541.2223214285714,535.1285714285714,4913]","[1447.9,1447.9,1000,0,447.9,""smooth"",""down"",""down"",""good_move"",3845.8,2397.4,1975.7,1448.4,421.7,""smooth"",""down"",""down"",""good_move"",5980.2,2133.7,1706.2,3846.5,427.5,""smooth"",""right"",""right"",""good_move"",8718.5,2737.8,2318.9,5980.7,418.9,""smooth"",""right"",""right"",""good_move""]"
"28591","","<div style=""width:500px;"">
  <p>What determined the result of this run?</p>
  </div>","85","html-slider-response","29","364543","0.0-7.0-1.3","80","1","2025-07-30 09:21:38","36c45c0696341be0efffe67d72a12abb","102.209.191.18","Mozilla/5.0 (Windows NT 10.0; Win64; x64) AppleWebKit/537.36 (KHTML, like Gecko) Chrome/138.0.0.0 Safari/537.36","WebKit","Chrome","138.0.0.0","Windows","10.0","https://app.prolific.com/","en-US,en;q=0.9","67e161beb708693951a94cbd","687a360dabe5252b5ada7185","6889da8ab1198f1cce08b2f0","0","67e161beb708693951a94cbd","0","2025-07-30T09:27:45.329Z","","","","AttribQ","","","","","","","","","","","50","","","","","","","","","","","","","","","","","","","","","","","","","","",""
"7473","","<div style=""width:500px;"">
  <p>How much control did you have over the ball?</p>
  </div>","33","html-slider-response","30","372019","0.0-7.0-2.3","80","1","2025-07-30 09:21:38","36c45c0696341be0efffe67d72a12abb","102.209.191.18","Mozilla/5.0 (Windows NT 10.0; Win64; x64) AppleWebKit/537.36 (KHTML, like Gecko) Chrome/138.0.0.0 Safari/537.36","WebKit","Chrome","138.0.0.0","Windows","10.0","https://app.prolific.com/","en-US,en;q=0.9","67e161beb708693951a94cbd","687a360dabe5252b5ada7185","6889da8ab1198f1cce08b2f0","0","67e161beb708693951a94cbd","0","2025-07-30T09:27:52.805Z","","","","ControlQ","","","","","","","","","","","50","","","","","","","","","","","","","","","","","","","","","","","","","","",""
"3536","","<div style=""width:500px;"">
  <p>How would you describe your current emotional state?</p>
  </div>","37","html-slider-response","31","375557","0.0-7.0-3.3","80","1","2025-07-30 09:21:38","36c45c0696341be0efffe67d72a12abb","102.209.191.18","Mozilla/5.0 (Windows NT 10.0; Win64; x64) AppleWebKit/537.36 (KHTML, like Gecko) Chrome/138.0.0.0 Safari/537.36","WebKit","Chrome","138.0.0.0","Windows","10.0","https://app.prolific.com/","en-US,en;q=0.9","67e161beb708693951a94cbd","687a360dabe5252b5ada7185","6889da8ab1198f1cce08b2f0","0","67e161beb708693951a94cbd","0","2025-07-30T09:27:56.343Z","","","","StressQ","","","","","","","","","","","50","","","","","","","","","","","","","","","","","","","","","","","","","","",""
"3895","","<div style=""width:500px;"">
  <p>What best describes how you currently feel?</p>
  </div>","68","html-slider-response","32","379453","0.0-7.0-4.3","80","1","2025-07-30 09:21:38","36c45c0696341be0efffe67d72a12abb","102.209.191.18","Mozilla/5.0 (Windows NT 10.0; Win64; x64) AppleWebKit/537.36 (KHTML, like Gecko) Chrome/138.0.0.0 Safari/537.36","WebKit","Chrome","138.0.0.0","Windows","10.0","https://app.prolific.com/","en-US,en;q=0.9","67e161beb708693951a94cbd","687a360dabe5252b5ada7185","6889da8ab1198f1cce08b2f0","0","67e161beb708693951a94cbd","0","2025-07-30T09:28:00.239Z","","","","MotivationQ","","","","","","","","","","","50","","","","","","","","","","","","","","","","","","","","","","","","","","",""
"","","","","ctl-task-cpt","33","422473","0.0-7.0-0.4","80","1","2025-07-30 09:21:38","36c45c0696341be0efffe67d72a12abb","102.209.191.18","Mozilla/5.0 (Windows NT 10.0; Win64; x64) AppleWebKit/537.36 (KHTML, like Gecko) Chrome/138.0.0.0 Safari/537.36","WebKit","Chrome","138.0.0.0","Windows","10.0","https://app.prolific.com/","en-US,en;q=0.9","67e161beb708693951a94cbd","687a360dabe5252b5ada7185","6889da8ab1198f1cce08b2f0","0","67e161beb708693951a94cbd","0","2025-07-30T09:28:43.260Z","","","","","","","","","","","","","","","","win-only","0","g1:NW,g2:SE","0.6","5","0","383010.2","1742.7","6745.1","39985.9","1","4","4","6","2","-4","-4","7","11","0.05303030303030303","3030.1","3000","-2140","[""down"",""right""]","{""num_key_presses"":9,""num_perfect"":5,""num_errors"":0,""num_randdir"":4,""num_randdir_good_moves"":1,""num_whilered"":0,""num_whileblue"":0,""num_blue"":2,""num_good_moves"":5}","[303.22232142857143,296.12857142857143,0.4,303.22232142857143,296.12857142857143,104.9,303.22232142857143,296.12857142857143,206.9,303.22232142857143,296.12857142857143,314.2,303.22232142857143,296.12857142857143,414.7,303.22232142857143,296.12857142857143,514.8,312.22232142857143,348.12857142857143,617.6,321.22232142857143,363.12857142857143,718.1,321.22232142857143,363.12857142857143,821,350.22232142857143,380.12857142857143,924.2,397.22232142857143,422.12857142857143,1024.9,430.22232142857143,460.12857142857143,1130.8,430.22232142857143,460.12857142857143,1236.8,430.22232142857143,460.12857142857143,1339.1,471.22232142857143,498.12857142857143,1440.8,493.22232142857143,518.1285714285714,1546.4,485.22232142857143,492.12857142857143,1648.4,403.22232142857143,431.12857142857143,1749.9,318.22232142857143,402.12857142857143,1860,318.22232142857143,402.12857142857143,1967.3,326.22232142857143,407.12857142857143,2071.3,415.22232142857143,529.1285714285714,2173.7,439.22232142857143,551.1285714285714,2275.7,439.22232142857143,551.1285714285714,2380.6,449.22232142857143,552.1285714285714,2483.5,559.2223214285714,564.1285714285714,2598.6,561.2223214285714,562.1285714285714,2699.4,559.2223214285714,559.1285714285714,2803.2,558.2223214285714,557.1285714285714,2904.3,558.2223214285714,557.1285714285714,3005.3,558.2223214285714,557.1285714285714,3111.9,558.2223214285714,557.1285714285714,3215.9,558.2223214285714,557.1285714285714,3326,558.2223214285714,557.1285714285714,3428.1,558.2223214285714,557.1285714285714,3530.4,558.2223214285714,557.1285714285714,3648.1,558.2223214285714,557.1285714285714,3755.2,558.2223214285714,557.1285714285714,3858.2,558.2223214285714,557.1285714285714,3959.1,558.2223214285714,557.1285714285714,4062.7,558.2223214285714,557.1285714285714,4174.1,558.2223214285714,557.1285714285714,4280.7,558.2223214285714,557.1285714285714,4382.8,558.2223214285714,557.1285714285714,4483,558.2223214285714,557.1285714285714,4594.7,558.2223214285714,557.1285714285714,4695.6,558.2223214285714,557.1285714285714,4798.7,558.2223214285714,557.1285714285714,4898.8]","[1461.1,1461.1,1000,0,461.1,""oops"",""down"",""down"",""good_move"",4128.7,2667,2186.9,1461.7,480.2,""smooth"",""down"",""down"",""good_move"",7309.3,3179.8,2746.5,4129.5,433.3,""smooth"",""down"",""down"",""good_move"",9398.7,2088.6,1552.1,7310.1,536.6,""smooth"",""right"",""right"",""good_move"",12561.4,3162,2693.3,9399.4,468.7,""oops"",""right"",""left"",""bad_move"",18715.4,6151.1,1880.3,16362.1,473,""smooth"",""up"",""up"",""bad_move"",21142.2,2426.4,1941.9,18715.8,484.5,""smooth"",""right"",""right"",""good_move"",24025,2882.5,2504.1,21142.5,378.4,""oops"",""right"",""up"",""bad_move"",27622.6,3596.9,3118.2,24025.7,478.7,""oops"",""right"",""up"",""bad_move""]"
"2634","","<div style=""width:500px;"">
  <p>What determined the result of this run?</p>
  </div>","62","html-slider-response","34","425109","0.0-7.0-1.4","80","1","2025-07-30 09:21:38","36c45c0696341be0efffe67d72a12abb","102.209.191.18","Mozilla/5.0 (Windows NT 10.0; Win64; x64) AppleWebKit/537.36 (KHTML, like Gecko) Chrome/138.0.0.0 Safari/537.36","WebKit","Chrome","138.0.0.0","Windows","10.0","https://app.prolific.com/","en-US,en;q=0.9","67e161beb708693951a94cbd","687a360dabe5252b5ada7185","6889da8ab1198f1cce08b2f0","0","67e161beb708693951a94cbd","0","2025-07-30T09:28:45.895Z","","","","AttribQ","","","","","","","","","","","50","","","","","","","","","","","","","","","","","","","","","","","","","","",""
"3844","","<div style=""width:500px;"">
  <p>How much control did you have over the ball?</p>
  </div>","24","html-slider-response","35","428955","0.0-7.0-2.4","80","1","2025-07-30 09:21:38","36c45c0696341be0efffe67d72a12abb","102.209.191.18","Mozilla/5.0 (Windows NT 10.0; Win64; x64) AppleWebKit/537.36 (KHTML, like Gecko) Chrome/138.0.0.0 Safari/537.36","WebKit","Chrome","138.0.0.0","Windows","10.0","https://app.prolific.com/","en-US,en;q=0.9","67e161beb708693951a94cbd","687a360dabe5252b5ada7185","6889da8ab1198f1cce08b2f0","0","67e161beb708693951a94cbd","0","2025-07-30T09:28:49.741Z","","","","ControlQ","","","","","","","","","","","50","","","","","","","","","","","","","","","","","","","","","","","","","","",""
"3686","","<div style=""width:500px;"">
  <p>How would you describe your current emotional state?</p>
  </div>","29","html-slider-response","36","432643","0.0-7.0-3.4","80","1","2025-07-30 09:21:38","36c45c0696341be0efffe67d72a12abb","102.209.191.18","Mozilla/5.0 (Windows NT 10.0; Win64; x64) AppleWebKit/537.36 (KHTML, like Gecko) Chrome/138.0.0.0 Safari/537.36","WebKit","Chrome","138.0.0.0","Windows","10.0","https://app.prolific.com/","en-US,en;q=0.9","67e161beb708693951a94cbd","687a360dabe5252b5ada7185","6889da8ab1198f1cce08b2f0","0","67e161beb708693951a94cbd","0","2025-07-30T09:28:53.429Z","","","","StressQ","","","","","","","","","","","50","","","","","","","","","","","","","","","","","","","","","","","","","","",""
"3299","","<div style=""width:500px;"">
  <p>What best describes how you currently feel?</p>
  </div>","61","html-slider-response","37","435944","0.0-7.0-4.4","80","1","2025-07-30 09:21:38","36c45c0696341be0efffe67d72a12abb","102.209.191.18","Mozilla/5.0 (Windows NT 10.0; Win64; x64) AppleWebKit/537.36 (KHTML, like Gecko) Chrome/138.0.0.0 Safari/537.36","WebKit","Chrome","138.0.0.0","Windows","10.0","https://app.prolific.com/","en-US,en;q=0.9","67e161beb708693951a94cbd","687a360dabe5252b5ada7185","6889da8ab1198f1cce08b2f0","0","67e161beb708693951a94cbd","0","2025-07-30T09:28:56.730Z","","","","MotivationQ","","","","","","","","","","","50","","","","","","","","","","","","","","","","","","","","","","","","","","",""
"","","","","ctl-task-cpt","38","458196","0.0-7.0-0.5","80","1","2025-07-30 09:21:38","36c45c0696341be0efffe67d72a12abb","102.209.191.18","Mozilla/5.0 (Windows NT 10.0; Win64; x64) AppleWebKit/537.36 (KHTML, like Gecko) Chrome/138.0.0.0 Safari/537.36","WebKit","Chrome","138.0.0.0","Windows","10.0","https://app.prolific.com/","en-US,en;q=0.9","67e161beb708693951a94cbd","687a360dabe5252b5ada7185","6889da8ab1198f1cce08b2f0","0","67e161beb708693951a94cbd","0","2025-07-30T09:29:18.983Z","","","","","","","","","","","","","","","","win-only","0","g1:NW,g2:SE","0.5","6","0","439501.9","1572","6578","19231.6","1","4","8","6","1","1","1","8","7","0.06060606060606061","1989.9","3000","1555","[""left"",""up""]","{""num_key_presses"":4,""num_perfect"":3,""num_errors"":0,""num_randdir"":1,""num_randdir_good_moves"":1,""num_whilered"":0,""num_whileblue"":0,""num_blue"":0,""num_good_moves"":4}","[300.22232142857143,297.12857142857143,0.8,300.22232142857143,297.12857142857143,115.3,300.22232142857143,297.12857142857143,220.2,300.22232142857143,297.12857142857143,324.4,300.22232142857143,297.12857142857143,434.7,285.22232142857143,362.12857142857143,535.4,289.22232142857143,434.12857142857143,638.9,291.22232142857143,419.12857142857143,750.2,254.22232142857143,325.12857142857143,853.6,220.22232142857143,279.12857142857143,961.2,220.22232142857143,279.12857142857143,1062,220.22232142857143,256.12857142857143,1166.3,122.22232142857143,91.12857142857143,1280.6,121.22232142857143,86.12857142857143,1384.5,121.22232142857143,86.12857142857143,1488.8,74.22232142857143,56.128571428571426,1602.5,67.22232142857143,57.128571428571426,1706.4,63.222321428571426,57.128571428571426,1816.2,63.222321428571426,57.128571428571426,1925,63.222321428571426,57.128571428571426,2028.9,63.222321428571426,57.128571428571426,2132.2,63.222321428571426,57.128571428571426,2233.7,63.222321428571426,57.128571428571426,2336.6,63.222321428571426,57.128571428571426,2437.9,63.222321428571426,57.128571428571426,2538.5,63.222321428571426,57.128571428571426,2640.5,63.222321428571426,57.128571428571426,2741.3,63.222321428571426,57.128571428571426,2841.3,63.222321428571426,57.128571428571426,2944.2,63.222321428571426,57.128571428571426,3050.5,63.222321428571426,57.128571428571426,3153.8,63.222321428571426,57.128571428571426,3259.5,63.222321428571426,57.128571428571426,3369.9,63.222321428571426,57.128571428571426,3474.4,63.222321428571426,57.128571428571426,3578.6,63.222321428571426,57.128571428571426,3681.1,63.222321428571426,57.128571428571426,3783.6,63.222321428571426,57.128571428571426,3886.4,63.222321428571426,57.128571428571426,3992.6,63.222321428571426,57.128571428571426,4093.2,63.222321428571426,57.128571428571426,4206,63.222321428571426,57.128571428571426,4309.8,63.222321428571426,57.128571428571426,4416.5,63.222321428571426,57.128571428571426,4520.5,63.222321428571426,57.128571428571426,4624.5,63.222321428571426,57.128571428571426,4729,63.222321428571426,57.128571428571426,4829.2,63.222321428571426,57.128571428571426,4930.3]","[1467.7,1467.8,1000,0,467.8,""smooth"",""up"",""up"",""good_move"",4960.9,3491.6,2685,1469.3,806.6,""smooth"",""up"",""up"",""good_move"",8479.8,3518.3,2958.1,4961.7,560.1,""smooth"",""left"",""left"",""good_move"",12523.9,4042.7,3628.2,8481.3,414.5,""oops"",""left"",""left"",""good_move""]"
"4208","","<div style=""width:500px;"">
  <p>What determined the result of this run?</p>
  </div>","36","html-slider-response","39","462410","0.0-7.0-1.5","80","1","2025-07-30 09:21:38","36c45c0696341be0efffe67d72a12abb","102.209.191.18","Mozilla/5.0 (Windows NT 10.0; Win64; x64) AppleWebKit/537.36 (KHTML, like Gecko) Chrome/138.0.0.0 Safari/537.36","WebKit","Chrome","138.0.0.0","Windows","10.0","https://app.prolific.com/","en-US,en;q=0.9","67e161beb708693951a94cbd","687a360dabe5252b5ada7185","6889da8ab1198f1cce08b2f0","0","67e161beb708693951a94cbd","0","2025-07-30T09:29:23.196Z","","","","AttribQ","","","","","","","","","","","50","","","","","","","","","","","","","","","","","","","","","","","","","","",""
"2426","","<div style=""width:500px;"">
  <p>How much control did you have over the ball?</p>
  </div>","33","html-slider-response","40","464839","0.0-7.0-2.5","80","1","2025-07-30 09:21:38","36c45c0696341be0efffe67d72a12abb","102.209.191.18","Mozilla/5.0 (Windows NT 10.0; Win64; x64) AppleWebKit/537.36 (KHTML, like Gecko) Chrome/138.0.0.0 Safari/537.36","WebKit","Chrome","138.0.0.0","Windows","10.0","https://app.prolific.com/","en-US,en;q=0.9","67e161beb708693951a94cbd","687a360dabe5252b5ada7185","6889da8ab1198f1cce08b2f0","0","67e161beb708693951a94cbd","0","2025-07-30T09:29:25.625Z","","","","ControlQ","","","","","","","","","","","50","","","","","","","","","","","","","","","","","","","","","","","","","","",""
"2378","","<div style=""width:500px;"">
  <p>How would you describe your current emotional state?</p>
  </div>","38","html-slider-response","41","467221","0.0-7.0-3.5","80","1","2025-07-30 09:21:38","36c45c0696341be0efffe67d72a12abb","102.209.191.18","Mozilla/5.0 (Windows NT 10.0; Win64; x64) AppleWebKit/537.36 (KHTML, like Gecko) Chrome/138.0.0.0 Safari/537.36","WebKit","Chrome","138.0.0.0","Windows","10.0","https://app.prolific.com/","en-US,en;q=0.9","67e161beb708693951a94cbd","687a360dabe5252b5ada7185","6889da8ab1198f1cce08b2f0","0","67e161beb708693951a94cbd","0","2025-07-30T09:29:28.007Z","","","","StressQ","","","","","","","","","","","50","","","","","","","","","","","","","","","","","","","","","","","","","","",""
"3026","","<div style=""width:500px;"">
  <p>What best describes how you currently feel?</p>
  </div>","55","html-slider-response","42","470250","0.0-7.0-4.5","80","1","2025-07-30 09:21:38","36c45c0696341be0efffe67d72a12abb","102.209.191.18","Mozilla/5.0 (Windows NT 10.0; Win64; x64) AppleWebKit/537.36 (KHTML, like Gecko) Chrome/138.0.0.0 Safari/537.36","WebKit","Chrome","138.0.0.0","Windows","10.0","https://app.prolific.com/","en-US,en;q=0.9","67e161beb708693951a94cbd","687a360dabe5252b5ada7185","6889da8ab1198f1cce08b2f0","0","67e161beb708693951a94cbd","0","2025-07-30T09:29:31.037Z","","","","MotivationQ","","","","","","","","","","","50","","","","","","","","","","","","","","","","","","","","","","","","","","",""
"","","","","ctl-task-cpt","43","519416","0.0-7.0-0.6","80","1","2025-07-30 09:21:38","36c45c0696341be0efffe67d72a12abb","102.209.191.18","Mozilla/5.0 (Windows NT 10.0; Win64; x64) AppleWebKit/537.36 (KHTML, like Gecko) Chrome/138.0.0.0 Safari/537.36","WebKit","Chrome","138.0.0.0","Windows","10.0","https://app.prolific.com/","en-US,en;q=0.9","67e161beb708693951a94cbd","687a360dabe5252b5ada7185","6889da8ab1198f1cce08b2f0","0","67e161beb708693951a94cbd","0","2025-07-30T09:30:20.202Z","","","","","","","","","","","","","","","","win-only","2","g1:SE,g2:NW","0.4","7","0","473816.3","1338","6344.5","46136.2","1","4","4","6","1","-1","-1","7","8","0.05303030303030303","2319.6","3000","-1930","[""down"",""right""]","{""num_key_presses"":10,""num_perfect"":4,""num_errors"":0,""num_randdir"":6,""num_randdir_good_moves"":1,""num_whilered"":0,""num_whileblue"":0,""num_blue"":3,""num_good_moves"":5}","[293.22232142857143,298.12857142857143,1,293.22232142857143,298.12857142857143,109.5,293.22232142857143,298.12857142857143,212,293.22232142857143,298.12857142857143,315.8,293.22232142857143,298.12857142857143,418.2,292.22232142857143,265.12857142857143,524.2,301.22232142857143,271.12857142857143,624.5,316.22232142857143,278.12857142857143,724.6,345.22232142857143,339.12857142857143,827.3,345.22232142857143,339.12857142857143,943,345.22232142857143,339.12857142857143,1044.4,345.22232142857143,337.12857142857143,1158.3,361.22232142857143,361.12857142857143,1261.3,361.22232142857143,361.12857142857143,1363.7,367.22232142857143,368.12857142857143,1468.2,438.22232142857143,455.12857142857143,1578.7,441.22232142857143,458.12857142857143,1684.8,441.22232142857143,458.12857142857143,1787.9,507.22232142857143,486.12857142857143,1890.6,542.2223214285714,513.1285714285714,2014.8,543.2223214285714,516.1285714285714,2117.5,543.2223214285714,516.1285714285714,2219.1,543.2223214285714,516.1285714285714,2333.1,543.2223214285714,516.1285714285714,2435.8,543.2223214285714,516.1285714285714,2537.4,543.2223214285714,516.1285714285714,2637.7,543.2223214285714,516.1285714285714,2739.2,543.2223214285714,516.1285714285714,2842.5,543.2223214285714,516.1285714285714,2953.2,543.2223214285714,516.1285714285714,3054.3,543.2223214285714,516.1285714285714,3157.9,543.2223214285714,516.1285714285714,3259.7,543.2223214285714,516.1285714285714,3362,543.2223214285714,516.1285714285714,3464.5,543.2223214285714,516.1285714285714,3568.6,543.2223214285714,516.1285714285714,3687.9,543.2223214285714,516.1285714285714,3806.5,543.2223214285714,516.1285714285714,3919.8,543.2223214285714,516.1285714285714,4026.4,543.2223214285714,516.1285714285714,4127.6,543.2223214285714,516.1285714285714,4231.1,543.2223214285714,516.1285714285714,4333.5,543.2223214285714,516.1285714285714,4445.7,543.2223214285714,516.1285714285714,4548.3,543.2223214285714,516.1285714285714,4648.8,543.2223214285714,516.1285714285714,4750.4,543.2223214285714,516.1285714285714,4853,543.2223214285714,516.1285714285714,4953.7]","[1423.6,1423.6,1000,0,423.6,""smooth"",""down"",""down"",""good_move"",7249.6,5824.3,1867.9,4969,412.7,""oops"",""down"",""right"",""good_move"",9957.6,2707.7,2203.3,7250,504.4,""oops"",""down"",""up"",""bad_move"",12975.9,3017,2400.9,9958.9,616.1,""smooth"",""right"",""right"",""good_move"",16199.8,3222.3,2731.9,12977.5,490.4,""oops"",""right"",""up"",""bad_move"",18910.4,2710.2,2267.6,16200.2,442.6,""smooth"",""down"",""down"",""good_move"",25601.7,6686.1,2042.4,23096.1,463.3,""oops"",""down"",""left"",""bad_move"",28630.4,3026.7,2608.7,25603.7,418,""smooth"",""down"",""down"",""good_move"",31461,2829.5,2364.9,28631.5,464.6,""oops"",""right"",""left"",""bad_move"",34640.2,3177.2,2683.8,31463.1,493.3,""oops"",""down"",""up"",""bad_move""]"
"2546","","<div style=""width:500px;"">
  <p>What determined the result of this run?</p>
  </div>","60","html-slider-response","44","521965","0.0-7.0-1.6","80","1","2025-07-30 09:21:38","36c45c0696341be0efffe67d72a12abb","102.209.191.18","Mozilla/5.0 (Windows NT 10.0; Win64; x64) AppleWebKit/537.36 (KHTML, like Gecko) Chrome/138.0.0.0 Safari/537.36","WebKit","Chrome","138.0.0.0","Windows","10.0","https://app.prolific.com/","en-US,en;q=0.9","67e161beb708693951a94cbd","687a360dabe5252b5ada7185","6889da8ab1198f1cce08b2f0","0","67e161beb708693951a94cbd","0","2025-07-30T09:30:22.752Z","","","","AttribQ","","","","","","","","","","","50","","","","","","","","","","","","","","","","","","","","","","","","","","",""
"2420","","<div style=""width:500px;"">
  <p>How much control did you have over the ball?</p>
  </div>","7","html-slider-response","45","524389","0.0-7.0-2.6","80","1","2025-07-30 09:21:38","36c45c0696341be0efffe67d72a12abb","102.209.191.18","Mozilla/5.0 (Windows NT 10.0; Win64; x64) AppleWebKit/537.36 (KHTML, like Gecko) Chrome/138.0.0.0 Safari/537.36","WebKit","Chrome","138.0.0.0","Windows","10.0","https://app.prolific.com/","en-US,en;q=0.9","67e161beb708693951a94cbd","687a360dabe5252b5ada7185","6889da8ab1198f1cce08b2f0","0","67e161beb708693951a94cbd","0","2025-07-30T09:30:25.176Z","","","","ControlQ","","","","","","","","","","","50","","","","","","","","","","","","","","","","","","","","","","","","","","",""
"2856","","<div style=""width:500px;"">
  <p>How would you describe your current emotional state?</p>
  </div>","36","html-slider-response","46","527250","0.0-7.0-3.6","80","1","2025-07-30 09:21:38","36c45c0696341be0efffe67d72a12abb","102.209.191.18","Mozilla/5.0 (Windows NT 10.0; Win64; x64) AppleWebKit/537.36 (KHTML, like Gecko) Chrome/138.0.0.0 Safari/537.36","WebKit","Chrome","138.0.0.0","Windows","10.0","https://app.prolific.com/","en-US,en;q=0.9","67e161beb708693951a94cbd","687a360dabe5252b5ada7185","6889da8ab1198f1cce08b2f0","0","67e161beb708693951a94cbd","0","2025-07-30T09:30:28.036Z","","","","StressQ","","","","","","","","","","","50","","","","","","","","","","","","","","","","","","","","","","","","","","",""
"3178","","<div style=""width:500px;"">
  <p>What best describes how you currently feel?</p>
  </div>","69","html-slider-response","47","530431","0.0-7.0-4.6","80","1","2025-07-30 09:21:38","36c45c0696341be0efffe67d72a12abb","102.209.191.18","Mozilla/5.0 (Windows NT 10.0; Win64; x64) AppleWebKit/537.36 (KHTML, like Gecko) Chrome/138.0.0.0 Safari/537.36","WebKit","Chrome","138.0.0.0","Windows","10.0","https://app.prolific.com/","en-US,en;q=0.9","67e161beb708693951a94cbd","687a360dabe5252b5ada7185","6889da8ab1198f1cce08b2f0","0","67e161beb708693951a94cbd","0","2025-07-30T09:30:31.217Z","","","","MotivationQ","","","","","","","","","","","50","","","","","","","","","","","","","","","","","","","","","","","","","","",""
"","","","","ctl-task-cpt","48","566159","0.0-7.0-0.7","80","1","2025-07-30 09:21:38","36c45c0696341be0efffe67d72a12abb","102.209.191.18","Mozilla/5.0 (Windows NT 10.0; Win64; x64) AppleWebKit/537.36 (KHTML, like Gecko) Chrome/138.0.0.0 Safari/537.36","WebKit","Chrome","138.0.0.0","Windows","10.0","https://app.prolific.com/","en-US,en;q=0.9","67e161beb708693951a94cbd","687a360dabe5252b5ada7185","6889da8ab1198f1cce08b2f0","0","67e161beb708693951a94cbd","0","2025-07-30T09:31:06.945Z","","","","","","","","","","","","","","","","win-only","1","g1:NE,g2:SW","0.3","8","0","533996.1","1952.3","6957.6","32705.1","1","4","8","6","1","1","1","8","7","0.06060606060606061","1883.6","3000","680","[""up"",""right""]","{""num_key_presses"":8,""num_perfect"":3,""num_errors"":0,""num_randdir"":5,""num_randdir_good_moves"":3,""num_whilered"":0,""num_whileblue"":0,""num_blue"":1,""num_good_moves"":6}","[297.22232142857143,290.12857142857143,0.6,297.22232142857143,290.12857142857143,124.7,297.22232142857143,290.12857142857143,225.2,297.22232142857143,290.12857142857143,344.3,293.22232142857143,290.12857142857143,448.4,210.22232142857143,340.12857142857143,553,197.22232142857143,353.12857142857143,658,197.22232142857143,349.12857142857143,758.9,227.22232142857143,328.12857142857143,872.4,410.22232142857143,178.12857142857143,975.4,410.22232142857143,178.12857142857143,1080.4,410.22232142857143,178.12857142857143,1184.8,459.22232142857143,127.12857142857143,1298.9,542.2223214285714,85.12857142857143,1399.8,544.2223214285714,83.12857142857143,1511.9,544.2223214285714,61.128571428571426,1624.5,544.2223214285714,61.128571428571426,1747,544.2223214285714,61.128571428571426,1849.7,544.2223214285714,61.128571428571426,1950.4,544.2223214285714,61.128571428571426,2052.4,544.2223214285714,61.128571428571426,2156.7,544.2223214285714,61.128571428571426,2273.5,544.2223214285714,61.128571428571426,2374.4,544.2223214285714,61.128571428571426,2479.9,544.2223214285714,61.128571428571426,2590.2,544.2223214285714,61.128571428571426,2692.9,544.2223214285714,61.128571428571426,2794.4,544.2223214285714,61.128571428571426,2895,544.2223214285714,61.128571428571426,3009.2,544.2223214285714,61.128571428571426,3117,544.2223214285714,61.128571428571426,3218.3,544.2223214285714,61.128571428571426,3325.7,544.2223214285714,61.128571428571426,3429,544.2223214285714,61.128571428571426,3533.8,544.2223214285714,61.128571428571426,3641.3,544.2223214285714,61.128571428571426,3748,544.2223214285714,61.128571428571426,3850,544.2223214285714,61.128571428571426,3973.5,544.2223214285714,61.128571428571426,4103.8,544.2223214285714,61.128571428571426,4225.3,544.2223214285714,61.128571428571426,4343.7,544.2223214285714,61.128571428571426,4450.8,544.2223214285714,61.128571428571426,4577.2,544.2223214285714,61.128571428571426,4678.5,544.2223214285714,61.128571428571426,4779.7,544.2223214285714,61.128571428571426,4886.9,544.2223214285714,61.128571428571426,4998.9]","[1526.3,1526.3,1000,0,526.3,""smooth"",""up"",""up"",""good_move"",4529.8,3002.9,2429.6,1526.9,573.3,""smooth"",""up"",""up"",""good_move"",6367.7,1835.5,1436,4532.2,399.5,""smooth"",""right"",""right"",""good_move"",9655.1,3286.5,2917.9,6368.6,368.6,""oops"",""right"",""down"",""bad_move"",12088.6,2432.5,2080.7,9656.2,351.7,""oops"",""right"",""left"",""bad_move"",19175.4,7086.4,2600.8,15663.5,911.2,""oops"",""up"",""up"",""good_move"",22364.4,3188.1,2716.4,19176.4,471.7,""oops"",""right"",""right"",""good_move"",25577,3212.1,2723,22364.9,489.1,""oops"",""right"",""right"",""good_move""]"
"3107","","<div style=""width:500px;"">
  <p>What determined the result of this run?</p>
  </div>","73","html-slider-response","49","569268","0.0-7.0-1.7","80","1","2025-07-30 09:21:38","36c45c0696341be0efffe67d72a12abb","102.209.191.18","Mozilla/5.0 (Windows NT 10.0; Win64; x64) AppleWebKit/537.36 (KHTML, like Gecko) Chrome/138.0.0.0 Safari/537.36","WebKit","Chrome","138.0.0.0","Windows","10.0","https://app.prolific.com/","en-US,en;q=0.9","67e161beb708693951a94cbd","687a360dabe5252b5ada7185","6889da8ab1198f1cce08b2f0","0","67e161beb708693951a94cbd","0","2025-07-30T09:31:10.054Z","","","","AttribQ","","","","","","","","","","","50","","","","","","","","","","","","","","","","","","","","","","","","","","",""
"2161","","<div style=""width:500px;"">
  <p>How much control did you have over the ball?</p>
  </div>","47","html-slider-response","50","571434","0.0-7.0-2.7","80","1","2025-07-30 09:21:38","36c45c0696341be0efffe67d72a12abb","102.209.191.18","Mozilla/5.0 (Windows NT 10.0; Win64; x64) AppleWebKit/537.36 (KHTML, like Gecko) Chrome/138.0.0.0 Safari/537.36","WebKit","Chrome","138.0.0.0","Windows","10.0","https://app.prolific.com/","en-US,en;q=0.9","67e161beb708693951a94cbd","687a360dabe5252b5ada7185","6889da8ab1198f1cce08b2f0","0","67e161beb708693951a94cbd","0","2025-07-30T09:31:12.221Z","","","","ControlQ","","","","","","","","","","","50","","","","","","","","","","","","","","","","","","","","","","","","","","",""
"2222","","<div style=""width:500px;"">
  <p>How would you describe your current emotional state?</p>
  </div>","42","html-slider-response","51","573662","0.0-7.0-3.7","80","1","2025-07-30 09:21:38","36c45c0696341be0efffe67d72a12abb","102.209.191.18","Mozilla/5.0 (Windows NT 10.0; Win64; x64) AppleWebKit/537.36 (KHTML, like Gecko) Chrome/138.0.0.0 Safari/537.36","WebKit","Chrome","138.0.0.0","Windows","10.0","https://app.prolific.com/","en-US,en;q=0.9","67e161beb708693951a94cbd","687a360dabe5252b5ada7185","6889da8ab1198f1cce08b2f0","0","67e161beb708693951a94cbd","0","2025-07-30T09:31:14.448Z","","","","StressQ","","","","","","","","","","","50","","","","","","","","","","","","","","","","","","","","","","","","","","",""
"2894","","<div style=""width:500px;"">
  <p>What best describes how you currently feel?</p>
  </div>","72","html-slider-response","52","576563","0.0-7.0-4.7","80","1","2025-07-30 09:21:38","36c45c0696341be0efffe67d72a12abb","102.209.191.18","Mozilla/5.0 (Windows NT 10.0; Win64; x64) AppleWebKit/537.36 (KHTML, like Gecko) Chrome/138.0.0.0 Safari/537.36","WebKit","Chrome","138.0.0.0","Windows","10.0","https://app.prolific.com/","en-US,en;q=0.9","67e161beb708693951a94cbd","687a360dabe5252b5ada7185","6889da8ab1198f1cce08b2f0","0","67e161beb708693951a94cbd","0","2025-07-30T09:31:17.349Z","","","","MotivationQ","","","","","","","","","","","50","","","","","","","","","","","","","","","","","","","","","","","","","","",""
"","","","","ctl-task-cpt","53","606087","0.0-7.0-0.8","80","1","2025-07-30 09:21:38","36c45c0696341be0efffe67d72a12abb","102.209.191.18","Mozilla/5.0 (Windows NT 10.0; Win64; x64) AppleWebKit/537.36 (KHTML, like Gecko) Chrome/138.0.0.0 Safari/537.36","WebKit","Chrome","138.0.0.0","Windows","10.0","https://app.prolific.com/","en-US,en;q=0.9","67e161beb708693951a94cbd","687a360dabe5252b5ada7185","6889da8ab1198f1cce08b2f0","0","67e161beb708693951a94cbd","0","2025-07-30T09:31:46.873Z","","","","","","","","","","","","","","","","win-only","0","g1:NW,g2:SE","0.4","9","0","580121.5","1268.6","6269.9","26497.1","1","4","8","6","1","1","1","9","8","0.06818181818181818","1860.9","3000","1090","[""left"",""up""]","{""num_key_presses"":6,""num_perfect"":3,""num_errors"":0,""num_randdir"":3,""num_randdir_good_moves"":2,""num_whilered"":0,""num_whileblue"":0,""num_blue"":1,""num_good_moves"":5}","[293.22232142857143,301.12857142857143,0.4,293.22232142857143,301.12857142857143,102.6,293.22232142857143,301.12857142857143,204,293.22232142857143,301.12857142857143,314.2,293.22232142857143,301.12857142857143,414.4,293.22232142857143,301.12857142857143,516.4,290.22232142857143,317.12857142857143,620.4,299.22232142857143,361.12857142857143,722,299.22232142857143,361.12857142857143,825.8,239.22232142857143,285.12857142857143,944.9,182.22232142857143,231.12857142857143,1051.6,182.22232142857143,231.12857142857143,1155.9,168.22232142857143,209.12857142857143,1264.5,102.22232142857143,75.12857142857143,1374.9,88.22232142857143,54.128571428571426,1477,85.22232142857143,56.128571428571426,1580.6,84.22232142857143,57.128571428571426,1687.9,84.22232142857143,57.128571428571426,1791.1,84.22232142857143,57.128571428571426,1893,84.22232142857143,57.128571428571426,2027.3,84.22232142857143,57.128571428571426,2131,84.22232142857143,57.128571428571426,2233.4,84.22232142857143,57.128571428571426,2335.1,84.22232142857143,57.128571428571426,2457.3,84.22232142857143,57.128571428571426,2558.2,84.22232142857143,57.128571428571426,2659,84.22232142857143,57.128571428571426,2762.8,84.22232142857143,57.128571428571426,2864.4,84.22232142857143,57.128571428571426,2976.6,84.22232142857143,57.128571428571426,3078,84.22232142857143,57.128571428571426,3191.4,84.22232142857143,57.128571428571426,3299.3,84.22232142857143,57.128571428571426,3403,84.22232142857143,57.128571428571426,3503.9,84.22232142857143,57.128571428571426,3619.4,84.22232142857143,57.128571428571426,3724.4,84.22232142857143,57.128571428571426,3826.4,84.22232142857143,57.128571428571426,3929.3,84.22232142857143,57.128571428571426,4041.2,84.22232142857143,57.128571428571426,4163.6,84.22232142857143,57.128571428571426,4268.1,84.22232142857143,57.128571428571426,4370.7,84.22232142857143,57.128571428571426,4493,84.22232142857143,57.128571428571426,4599.7,84.22232142857143,57.128571428571426,4702.7,84.22232142857143,57.128571428571426,4806.7,84.22232142857143,57.128571428571426,4908.6]","[4635,4635,2163.3,2011.2,460.5,""smooth"",""up"",""up"",""good_move"",7358.7,2722.8,1856.2,4636.1,866.5,""oops"",""up"",""left"",""good_move"",10806.3,3446.3,2575.3,7360.1,870.9,""smooth"",""up"",""up"",""good_move"",13358.6,2551.4,2037.5,10807.3,513.9,""oops"",""left"",""down"",""bad_move"",16523.5,3164.3,2749.7,13359.2,414.6,""oops"",""left"",""left"",""good_move"",20052.9,3528.7,2879.2,16524.2,649.5,""smooth"",""up"",""up"",""good_move""]"
"3323","","<div style=""width:500px;"">
  <p>What determined the result of this run?</p>
  </div>","35","html-slider-response","54","609413","0.0-7.0-1.8","80","1","2025-07-30 09:21:38","36c45c0696341be0efffe67d72a12abb","102.209.191.18","Mozilla/5.0 (Windows NT 10.0; Win64; x64) AppleWebKit/537.36 (KHTML, like Gecko) Chrome/138.0.0.0 Safari/537.36","WebKit","Chrome","138.0.0.0","Windows","10.0","https://app.prolific.com/","en-US,en;q=0.9","67e161beb708693951a94cbd","687a360dabe5252b5ada7185","6889da8ab1198f1cce08b2f0","0","67e161beb708693951a94cbd","0","2025-07-30T09:31:50.199Z","","","","AttribQ","","","","","","","","","","","50","","","","","","","","","","","","","","","","","","","","","","","","","","",""
"3321","","<div style=""width:500px;"">
  <p>How much control did you have over the ball?</p>
  </div>","50","html-slider-response","55","612741","0.0-7.0-2.8","80","1","2025-07-30 09:21:38","36c45c0696341be0efffe67d72a12abb","102.209.191.18","Mozilla/5.0 (Windows NT 10.0; Win64; x64) AppleWebKit/537.36 (KHTML, like Gecko) Chrome/138.0.0.0 Safari/537.36","WebKit","Chrome","138.0.0.0","Windows","10.0","https://app.prolific.com/","en-US,en;q=0.9","67e161beb708693951a94cbd","687a360dabe5252b5ada7185","6889da8ab1198f1cce08b2f0","0","67e161beb708693951a94cbd","0","2025-07-30T09:31:53.527Z","","","","ControlQ","","","","","","","","","","","50","","","","","","","","","","","","","","","","","","","","","","","","","","",""
"3025","","<div style=""width:500px;"">
  <p>How would you describe your current emotional state?</p>
  </div>","28","html-slider-response","56","615770","0.0-7.0-3.8","80","1","2025-07-30 09:21:38","36c45c0696341be0efffe67d72a12abb","102.209.191.18","Mozilla/5.0 (Windows NT 10.0; Win64; x64) AppleWebKit/537.36 (KHTML, like Gecko) Chrome/138.0.0.0 Safari/537.36","WebKit","Chrome","138.0.0.0","Windows","10.0","https://app.prolific.com/","en-US,en;q=0.9","67e161beb708693951a94cbd","687a360dabe5252b5ada7185","6889da8ab1198f1cce08b2f0","0","67e161beb708693951a94cbd","0","2025-07-30T09:31:56.556Z","","","","StressQ","","","","","","","","","","","50","","","","","","","","","","","","","","","","","","","","","","","","","","",""
"2781","","<div style=""width:500px;"">
  <p>What best describes how you currently feel?</p>
  </div>","65","html-slider-response","57","618555","0.0-7.0-4.8","80","1","2025-07-30 09:21:38","36c45c0696341be0efffe67d72a12abb","102.209.191.18","Mozilla/5.0 (Windows NT 10.0; Win64; x64) AppleWebKit/537.36 (KHTML, like Gecko) Chrome/138.0.0.0 Safari/537.36","WebKit","Chrome","138.0.0.0","Windows","10.0","https://app.prolific.com/","en-US,en;q=0.9","67e161beb708693951a94cbd","687a360dabe5252b5ada7185","6889da8ab1198f1cce08b2f0","0","67e161beb708693951a94cbd","0","2025-07-30T09:31:59.341Z","","","","MotivationQ","","","","","","","","","","","50","","","","","","","","","","","","","","","","","","","","","","","","","","",""
"","","","","ctl-task-cpt","58","654877","0.0-7.0-0.9","80","1","2025-07-30 09:21:38","36c45c0696341be0efffe67d72a12abb","102.209.191.18","Mozilla/5.0 (Windows NT 10.0; Win64; x64) AppleWebKit/537.36 (KHTML, like Gecko) Chrome/138.0.0.0 Safari/537.36","WebKit","Chrome","138.0.0.0","Windows","10.0","https://app.prolific.com/","en-US,en;q=0.9","67e161beb708693951a94cbd","687a360dabe5252b5ada7185","6889da8ab1198f1cce08b2f0","0","67e161beb708693951a94cbd","0","2025-07-30T09:32:35.663Z","","","","","","","","","","","","","","","","win-only","2","g1:SE,g2:NW","0.5","10","0","622114.3","1701.6","6704.9","33295.7","1","4","4","6","1","1","1","10","9","0.07575757575757576","1928.9","3000","1120","[""down"",""right""]","{""num_key_presses"":6,""num_perfect"":2,""num_errors"":0,""num_randdir"":4,""num_randdir_good_moves"":3,""num_whilered"":0,""num_whileblue"":0,""num_blue"":3,""num_good_moves"":5}","[299.22232142857143,297.12857142857143,0.5,299.22232142857143,297.12857142857143,100.3,299.22232142857143,297.12857142857143,204.6,299.22232142857143,297.12857142857143,307.4,299.22232142857143,297.12857142857143,413.1,305.22232142857143,268.12857142857143,517.2,335.22232142857143,283.12857142857143,622.5,335.22232142857143,283.12857142857143,730.1,336.22232142857143,291.12857142857143,842.1,362.22232142857143,361.12857142857143,945.4,362.22232142857143,362.12857142857143,1048.4,390.22232142857143,392.12857142857143,1152.7,476.22232142857143,473.12857142857143,1279.8,476.22232142857143,473.12857142857143,1390.1,476.22232142857143,473.12857142857143,1498.4,540.2223214285714,501.12857142857143,1599.6,546.2223214285714,506.12857142857143,1711.3,546.2223214285714,506.12857142857143,1812.9,546.2223214285714,506.12857142857143,1918.5,546.2223214285714,506.12857142857143,2019.5,546.2223214285714,506.12857142857143,2122.9,546.2223214285714,506.12857142857143,2225.1,546.2223214285714,506.12857142857143,2328,546.2223214285714,506.12857142857143,2429.8,546.2223214285714,506.12857142857143,2558,546.2223214285714,506.12857142857143,2662,546.2223214285714,506.12857142857143,2763.4,546.2223214285714,506.12857142857143,2871.9,546.2223214285714,506.12857142857143,2981,546.2223214285714,506.12857142857143,3083.6,546.2223214285714,506.12857142857143,3187,546.2223214285714,506.12857142857143,3303.5,546.2223214285714,506.12857142857143,3427.6,546.2223214285714,506.12857142857143,3544.3,546.2223214285714,506.12857142857143,3659,546.2223214285714,506.12857142857143,3760.4,546.2223214285714,506.12857142857143,3863,546.2223214285714,506.12857142857143,3963.7,546.2223214285714,506.12857142857143,4068.3,546.2223214285714,506.12857142857143,4171.9,546.2223214285714,506.12857142857143,4279,546.2223214285714,506.12857142857143,4395.2,546.2223214285714,506.12857142857143,4501.7,546.2223214285714,506.12857142857143,4603.5,546.2223214285714,506.12857142857143,4704.4,546.2223214285714,506.12857142857143,4821.2,546.2223214285714,506.12857142857143,4926.9]","[1608.9,1608.9,1000,0,608.9,""oops"",""right"",""down"",""good_move"",7320.5,5708.2,1832.2,4911.7,576.6,""smooth"",""right"",""right"",""good_move"",14091.9,6769.4,2924,10722.7,445.2,""smooth"",""right"",""right"",""good_move"",20484.3,6392,2266.8,17788.8,428.7,""oops"",""down"",""left"",""bad_move"",23443.9,2956.9,1468.9,20487.1,1488,""oops"",""down"",""right"",""good_move"",26423.5,2979.3,2445.9,23444.2,533.4,""oops"",""down"",""down"",""good_move""]"
"2650","","<div style=""width:500px;"">
  <p>What determined the result of this run?</p>
  </div>","73","html-slider-response","59","657528","0.0-7.0-1.9","80","1","2025-07-30 09:21:38","36c45c0696341be0efffe67d72a12abb","102.209.191.18","Mozilla/5.0 (Windows NT 10.0; Win64; x64) AppleWebKit/537.36 (KHTML, like Gecko) Chrome/138.0.0.0 Safari/537.36","WebKit","Chrome","138.0.0.0","Windows","10.0","https://app.prolific.com/","en-US,en;q=0.9","67e161beb708693951a94cbd","687a360dabe5252b5ada7185","6889da8ab1198f1cce08b2f0","0","67e161beb708693951a94cbd","0","2025-07-30T09:32:38.314Z","","","","AttribQ","","","","","","","","","","","50","","","","","","","","","","","","","","","","","","","","","","","","","","",""
"3030","","<div style=""width:500px;"">
  <p>How much control did you have over the ball?</p>
  </div>","50","html-slider-response","60","660562","0.0-7.0-2.9","80","1","2025-07-30 09:21:38","36c45c0696341be0efffe67d72a12abb","102.209.191.18","Mozilla/5.0 (Windows NT 10.0; Win64; x64) AppleWebKit/537.36 (KHTML, like Gecko) Chrome/138.0.0.0 Safari/537.36","WebKit","Chrome","138.0.0.0","Windows","10.0","https://app.prolific.com/","en-US,en;q=0.9","67e161beb708693951a94cbd","687a360dabe5252b5ada7185","6889da8ab1198f1cce08b2f0","0","67e161beb708693951a94cbd","0","2025-07-30T09:32:41.349Z","","","","ControlQ","","","","","","","","","","","50","","","","","","","","","","","","","","","","","","","","","","","","","","",""
"2761","","<div style=""width:500px;"">
  <p>How would you describe your current emotional state?</p>
  </div>","35","html-slider-response","61","663328","0.0-7.0-3.9","80","1","2025-07-30 09:21:38","36c45c0696341be0efffe67d72a12abb","102.209.191.18","Mozilla/5.0 (Windows NT 10.0; Win64; x64) AppleWebKit/537.36 (KHTML, like Gecko) Chrome/138.0.0.0 Safari/537.36","WebKit","Chrome","138.0.0.0","Windows","10.0","https://app.prolific.com/","en-US,en;q=0.9","67e161beb708693951a94cbd","687a360dabe5252b5ada7185","6889da8ab1198f1cce08b2f0","0","67e161beb708693951a94cbd","0","2025-07-30T09:32:44.114Z","","","","StressQ","","","","","","","","","","","50","","","","","","","","","","","","","","","","","","","","","","","","","","",""
"3385","","<div style=""width:500px;"">
  <p>What best describes how you currently feel?</p>
  </div>","60","html-slider-response","62","666715","0.0-7.0-4.9","80","1","2025-07-30 09:21:38","36c45c0696341be0efffe67d72a12abb","102.209.191.18","Mozilla/5.0 (Windows NT 10.0; Win64; x64) AppleWebKit/537.36 (KHTML, like Gecko) Chrome/138.0.0.0 Safari/537.36","WebKit","Chrome","138.0.0.0","Windows","10.0","https://app.prolific.com/","en-US,en;q=0.9","67e161beb708693951a94cbd","687a360dabe5252b5ada7185","6889da8ab1198f1cce08b2f0","0","67e161beb708693951a94cbd","0","2025-07-30T09:32:47.502Z","","","","MotivationQ","","","","","","","","","","","50","","","","","","","","","","","","","","","","","","","","","","","","","","",""
"","","","","ctl-task-cpt","63","709081","0.0-7.0-0.10","80","1","2025-07-30 09:21:38","36c45c0696341be0efffe67d72a12abb","102.209.191.18","Mozilla/5.0 (Windows NT 10.0; Win64; x64) AppleWebKit/537.36 (KHTML, like Gecko) Chrome/138.0.0.0 Safari/537.36","WebKit","Chrome","138.0.0.0","Windows","10.0","https://app.prolific.com/","en-US,en;q=0.9","67e161beb708693951a94cbd","687a360dabe5252b5ada7185","6889da8ab1198f1cce08b2f0","0","67e161beb708693951a94cbd","0","2025-07-30T09:33:29.867Z","","","","","","","","","","","","","","","","win-only","2","g1:SE,g2:NW","0.6","11","0","670274.8","3359.4","8369.6","39320","1","4","8","6","1","1","1","11","10","0.08333333333333333","2219.2","3000","910","[""down"",""right""]","{""num_key_presses"":10,""num_perfect"":6,""num_errors"":0,""num_randdir"":4,""num_randdir_good_moves"":1,""num_whilered"":0,""num_whileblue"":0,""num_blue"":1,""num_good_moves"":7}","[293.22232142857143,299.12857142857143,1.7,293.22232142857143,299.12857142857143,109.1,293.22232142857143,299.12857142857143,212.4,293.22232142857143,299.12857142857143,318.7,293.22232142857143,299.12857142857143,422.7,307.22232142857143,299.12857142857143,525.4,339.22232142857143,348.12857142857143,626,340.22232142857143,356.12857142857143,726.5,340.22232142857143,356.12857142857143,859.6,340.22232142857143,356.12857142857143,969.3,377.22232142857143,432.12857142857143,1073.6,377.22232142857143,432.12857142857143,1174.9,377.22232142857143,432.12857142857143,1276.4,377.22232142857143,432.12857142857143,1386,482.22232142857143,468.12857142857143,1488.3,511.22232142857143,498.12857142857143,1595.5,512.2223214285714,510.12857142857143,1708.4,512.2223214285714,510.12857142857143,1812.1,512.2223214285714,510.12857142857143,1914.9,513.2223214285714,512.1285714285714,2018.8,514.2223214285714,512.1285714285714,2127.2,514.2223214285714,512.1285714285714,2229.5,514.2223214285714,512.1285714285714,2333,514.2223214285714,512.1285714285714,2441.6,514.2223214285714,512.1285714285714,2548.5,514.2223214285714,512.1285714285714,2656.4,514.2223214285714,512.1285714285714,2756.7,514.2223214285714,512.1285714285714,2863.1,514.2223214285714,512.1285714285714,2971.1,514.2223214285714,512.1285714285714,3100.5,514.2223214285714,512.1285714285714,3215,514.2223214285714,512.1285714285714,3318.2,514.2223214285714,512.1285714285714,3429.3,514.2223214285714,512.1285714285714,3542.2,514.2223214285714,512.1285714285714,3643,514.2223214285714,512.1285714285714,3749,514.2223214285714,512.1285714285714,3862,514.2223214285714,512.1285714285714,3969.3,514.2223214285714,512.1285714285714,4074.8,514.2223214285714,512.1285714285714,4181.8,514.2223214285714,512.1285714285714,4283.1,514.2223214285714,512.1285714285714,4393.6,514.2223214285714,512.1285714285714,4506.2,514.2223214285714,512.1285714285714,4620.2,514.2223214285714,512.1285714285714,4722.6,514.2223214285714,512.1285714285714,4832.6,514.2223214285714,512.1285714285714,4936.7]","[1546.4,1546.4,1000,0,546.4,""smooth"",""down"",""down"",""good_move"",4946.6,3399.1,2892.4,1547.5,506.7,""smooth"",""down"",""down"",""good_move"",7137.7,2189.3,1733,4948.4,456.3,""smooth"",""right"",""right"",""good_move"",10703.9,3564.5,3079.6,7139.4,484.9,""oops"",""right"",""left"",""bad_move"",13384.1,2678.8,2167.3,10705.3,511.5,""oops"",""right"",""up"",""bad_move"",15825.3,2439.5,1568.7,13385.8,870.9,""smooth"",""right"",""right"",""good_move"",18336.8,2510.4,2067.6,15826.4,442.8,""smooth"",""right"",""right"",""good_move"",24942.9,6603.7,2350.4,22149.8,442.7,""oops"",""down"",""left"",""bad_move"",27475.8,2530.1,2010.5,24945.8,519.5,""smooth"",""down"",""down"",""good_move"",30724.3,3246.1,2690.3,27478.3,555.8,""oops"",""right"",""right"",""good_move""]"
"2577","","<div style=""width:500px;"">
  <p>What determined the result of this run?</p>
  </div>","80","html-slider-response","64","711661","0.0-7.0-1.10","80","1","2025-07-30 09:21:38","36c45c0696341be0efffe67d72a12abb","102.209.191.18","Mozilla/5.0 (Windows NT 10.0; Win64; x64) AppleWebKit/537.36 (KHTML, like Gecko) Chrome/138.0.0.0 Safari/537.36","WebKit","Chrome","138.0.0.0","Windows","10.0","https://app.prolific.com/","en-US,en;q=0.9","67e161beb708693951a94cbd","687a360dabe5252b5ada7185","6889da8ab1198f1cce08b2f0","0","67e161beb708693951a94cbd","0","2025-07-30T09:33:32.447Z","","","","AttribQ","","","","","","","","","","","50","","","","","","","","","","","","","","","","","","","","","","","","","","",""
"2664","","<div style=""width:500px;"">
  <p>How much control did you have over the ball?</p>
  </div>","68","html-slider-response","65","714327","0.0-7.0-2.10","80","1","2025-07-30 09:21:38","36c45c0696341be0efffe67d72a12abb","102.209.191.18","Mozilla/5.0 (Windows NT 10.0; Win64; x64) AppleWebKit/537.36 (KHTML, like Gecko) Chrome/138.0.0.0 Safari/537.36","WebKit","Chrome","138.0.0.0","Windows","10.0","https://app.prolific.com/","en-US,en;q=0.9","67e161beb708693951a94cbd","687a360dabe5252b5ada7185","6889da8ab1198f1cce08b2f0","0","67e161beb708693951a94cbd","0","2025-07-30T09:33:35.114Z","","","","ControlQ","","","","","","","","","","","50","","","","","","","","","","","","","","","","","","","","","","","","","","",""
"2961","","<div style=""width:500px;"">
  <p>How would you describe your current emotional state?</p>
  </div>","43","html-slider-response","66","717291","0.0-7.0-3.10","80","1","2025-07-30 09:21:38","36c45c0696341be0efffe67d72a12abb","102.209.191.18","Mozilla/5.0 (Windows NT 10.0; Win64; x64) AppleWebKit/537.36 (KHTML, like Gecko) Chrome/138.0.0.0 Safari/537.36","WebKit","Chrome","138.0.0.0","Windows","10.0","https://app.prolific.com/","en-US,en;q=0.9","67e161beb708693951a94cbd","687a360dabe5252b5ada7185","6889da8ab1198f1cce08b2f0","0","67e161beb708693951a94cbd","0","2025-07-30T09:33:38.077Z","","","","StressQ","","","","","","","","","","","50","","","","","","","","","","","","","","","","","","","","","","","","","","",""
"3438","","<div style=""width:500px;"">
  <p>What best describes how you currently feel?</p>
  </div>","65","html-slider-response","67","720732","0.0-7.0-4.10","80","1","2025-07-30 09:21:38","36c45c0696341be0efffe67d72a12abb","102.209.191.18","Mozilla/5.0 (Windows NT 10.0; Win64; x64) AppleWebKit/537.36 (KHTML, like Gecko) Chrome/138.0.0.0 Safari/537.36","WebKit","Chrome","138.0.0.0","Windows","10.0","https://app.prolific.com/","en-US,en;q=0.9","67e161beb708693951a94cbd","687a360dabe5252b5ada7185","6889da8ab1198f1cce08b2f0","0","67e161beb708693951a94cbd","0","2025-07-30T09:33:41.519Z","","","","MotivationQ","","","","","","","","","","","50","","","","","","","","","","","","","","","","","","","","","","","","","","",""
"","","","","ctl-task-cpt","68","749360","0.0-7.0-0.11","80","1","2025-07-30 09:21:38","36c45c0696341be0efffe67d72a12abb","102.209.191.18","Mozilla/5.0 (Windows NT 10.0; Win64; x64) AppleWebKit/537.36 (KHTML, like Gecko) Chrome/138.0.0.0 Safari/537.36","WebKit","Chrome","138.0.0.0","Windows","10.0","https://app.prolific.com/","en-US,en;q=0.9","67e161beb708693951a94cbd","687a360dabe5252b5ada7185","6889da8ab1198f1cce08b2f0","0","67e161beb708693951a94cbd","0","2025-07-30T09:34:10.146Z","","","","","","","","","","","","","","","","win-only","2","g1:SE,g2:NW","0.7","12","0","724300.3","3951.5","8966.1","25562.5","1","4","4","6","1","1","1","12","11","0.09090909090909091","1974.1","3000","2160","[""down"",""right""]","{""num_key_presses"":4,""num_perfect"":3,""num_errors"":0,""num_randdir"":1,""num_randdir_good_moves"":1,""num_whilered"":0,""num_whileblue"":0,""num_blue"":2,""num_good_moves"":4}","[295.22232142857143,296.12857142857143,0.6,295.22232142857143,296.12857142857143,105.4,295.22232142857143,296.12857142857143,207.4,295.22232142857143,296.12857142857143,328.1,295.22232142857143,296.12857142857143,436.2,295.22232142857143,296.12857142857143,542.1,295.22232142857143,296.12857142857143,650.9,295.22232142857143,296.12857142857143,752.9,335.22232142857143,318.12857142857143,854.3,374.22232142857143,377.12857142857143,957.4,374.22232142857143,377.12857142857143,1059,392.22232142857143,387.12857142857143,1170.6,501.22232142857143,473.12857142857143,1280.9,501.22232142857143,473.12857142857143,1390.5,501.22232142857143,473.12857142857143,1495.5,516.2223214285714,485.12857142857143,1598.3,538.2223214285714,510.12857142857143,1706.8,539.2223214285714,514.1285714285714,1807.2,539.2223214285714,514.1285714285714,1909.1,539.2223214285714,514.1285714285714,2016.3,539.2223214285714,514.1285714285714,2131.3,539.2223214285714,514.1285714285714,2246.8,539.2223214285714,514.1285714285714,2355.3,539.2223214285714,514.1285714285714,2488.9,539.2223214285714,514.1285714285714,2590.9,539.2223214285714,514.1285714285714,2700.2,539.2223214285714,514.1285714285714,2805.3,539.2223214285714,514.1285714285714,2908.8,539.2223214285714,514.1285714285714,3011.6,539.2223214285714,514.1285714285714,3111.9,539.2223214285714,514.1285714285714,3220.3,539.2223214285714,514.1285714285714,3321.1,539.2223214285714,514.1285714285714,3432.3,539.2223214285714,514.1285714285714,3533.3,539.2223214285714,514.1285714285714,3634.5,539.2223214285714,514.1285714285714,3738.1,539.2223214285714,514.1285714285714,3842.8,539.2223214285714,514.1285714285714,3953.3,539.2223214285714,514.1285714285714,4056.2,539.2223214285714,514.1285714285714,4159.1,539.2223214285714,514.1285714285714,4293,539.2223214285714,514.1285714285714,4393.6,539.2223214285714,514.1285714285714,4499.2,539.2223214285714,514.1285714285714,4604.4,539.2223214285714,514.1285714285714,4705.2,539.2223214285714,514.1285714285714,4815.4,539.2223214285714,514.1285714285714,4928.5]","[4681.8,4681.8,2153.2,2014.6,514,""smooth"",""down"",""down"",""good_move"",7550.2,2866.9,2392,4683.3,474.9,""smooth"",""down"",""down"",""good_move"",10116.2,2565.7,2124.7,7550.5,441,""oops"",""right"",""right"",""good_move"",16374.4,6256.5,2078.9,13753,542.6,""smooth"",""right"",""right"",""good_move""]"
"2742","","<div style=""width:500px;"">
  <p>What determined the result of this run?</p>
  </div>","92","html-slider-response","69","752104","0.0-7.0-1.11","80","1","2025-07-30 09:21:38","36c45c0696341be0efffe67d72a12abb","102.209.191.18","Mozilla/5.0 (Windows NT 10.0; Win64; x64) AppleWebKit/537.36 (KHTML, like Gecko) Chrome/138.0.0.0 Safari/537.36","WebKit","Chrome","138.0.0.0","Windows","10.0","https://app.prolific.com/","en-US,en;q=0.9","67e161beb708693951a94cbd","687a360dabe5252b5ada7185","6889da8ab1198f1cce08b2f0","0","67e161beb708693951a94cbd","0","2025-07-30T09:34:12.890Z","","","","AttribQ","","","","","","","","","","","50","","","","","","","","","","","","","","","","","","","","","","","","","","",""
"3042","","<div style=""width:500px;"">
  <p>How much control did you have over the ball?</p>
  </div>","34","html-slider-response","70","755151","0.0-7.0-2.11","80","1","2025-07-30 09:21:38","36c45c0696341be0efffe67d72a12abb","102.209.191.18","Mozilla/5.0 (Windows NT 10.0; Win64; x64) AppleWebKit/537.36 (KHTML, like Gecko) Chrome/138.0.0.0 Safari/537.36","WebKit","Chrome","138.0.0.0","Windows","10.0","https://app.prolific.com/","en-US,en;q=0.9","67e161beb708693951a94cbd","687a360dabe5252b5ada7185","6889da8ab1198f1cce08b2f0","0","67e161beb708693951a94cbd","0","2025-07-30T09:34:15.937Z","","","","ControlQ","","","","","","","","","","","50","","","","","","","","","","","","","","","","","","","","","","","","","","",""
"2661","","<div style=""width:500px;"">
  <p>How would you describe your current emotional state?</p>
  </div>","35","html-slider-response","71","757816","0.0-7.0-3.11","80","1","2025-07-30 09:21:38","36c45c0696341be0efffe67d72a12abb","102.209.191.18","Mozilla/5.0 (Windows NT 10.0; Win64; x64) AppleWebKit/537.36 (KHTML, like Gecko) Chrome/138.0.0.0 Safari/537.36","WebKit","Chrome","138.0.0.0","Windows","10.0","https://app.prolific.com/","en-US,en;q=0.9","67e161beb708693951a94cbd","687a360dabe5252b5ada7185","6889da8ab1198f1cce08b2f0","0","67e161beb708693951a94cbd","0","2025-07-30T09:34:18.603Z","","","","StressQ","","","","","","","","","","","50","","","","","","","","","","","","","","","","","","","","","","","","","","",""
"2584","","<div style=""width:500px;"">
  <p>What best describes how you currently feel?</p>
  </div>","60","html-slider-response","72","760411","0.0-7.0-4.11","80","1","2025-07-30 09:21:38","36c45c0696341be0efffe67d72a12abb","102.209.191.18","Mozilla/5.0 (Windows NT 10.0; Win64; x64) AppleWebKit/537.36 (KHTML, like Gecko) Chrome/138.0.0.0 Safari/537.36","WebKit","Chrome","138.0.0.0","Windows","10.0","https://app.prolific.com/","en-US,en;q=0.9","67e161beb708693951a94cbd","687a360dabe5252b5ada7185","6889da8ab1198f1cce08b2f0","0","67e161beb708693951a94cbd","0","2025-07-30T09:34:21.197Z","","","","MotivationQ","","","","","","","","","","","50","","","","","","","","","","","","","","","","","","","","","","","","","","",""
"","","","","ctl-task-cpt","73","784906","0.0-7.0-0.12","80","1","2025-07-30 09:21:38","36c45c0696341be0efffe67d72a12abb","102.209.191.18","Mozilla/5.0 (Windows NT 10.0; Win64; x64) AppleWebKit/537.36 (KHTML, like Gecko) Chrome/138.0.0.0 Safari/537.36","WebKit","Chrome","138.0.0.0","Windows","10.0","https://app.prolific.com/","en-US,en;q=0.9","67e161beb708693951a94cbd","687a360dabe5252b5ada7185","6889da8ab1198f1cce08b2f0","0","67e161beb708693951a94cbd","0","2025-07-30T09:34:45.692Z","","","","","","","","","","","","","","","","win-only","0","g1:NW,g2:SE","0.8","13","0","763969.6","5115.2","10123","21456.7","1","4","8","6","1","1","1","13","12","0.09848484848484848","2805.1","3000","2245","[""left"",""up""]","{""num_key_presses"":4,""num_perfect"":4,""num_errors"":0,""num_randdir"":0,""num_randdir_good_moves"":0,""num_whilered"":0,""num_whileblue"":0,""num_blue"":0,""num_good_moves"":4}","[298.22232142857143,294.12857142857143,0.3,298.22232142857143,294.12857142857143,101.2,298.22232142857143,294.12857142857143,209,298.22232142857143,294.12857142857143,310.5,298.22232142857143,294.12857142857143,415.7,298.22232142857143,294.12857142857143,525.6,298.22232142857143,294.12857142857143,639.7,351.22232142857143,348.12857142857143,751,374.22232142857143,378.12857142857143,853.8,375.22232142857143,379.12857142857143,985.7,377.22232142857143,379.12857142857143,1092.4,474.22232142857143,440.12857142857143,1201.5,480.22232142857143,443.12857142857143,1307.2,480.22232142857143,443.12857142857143,1413.7,480.22232142857143,443.12857142857143,1513.7,380.22232142857143,360.12857142857143,1615.3,368.22232142857143,349.12857142857143,1723.4,368.22232142857143,349.12857142857143,1823.5,349.22232142857143,323.12857142857143,1929.8,230.22232142857143,214.12857142857143,2045.3,213.22232142857143,199.12857142857143,2148.6,213.22232142857143,199.12857142857143,2254.9,133.22232142857143,110.12857142857143,2362.7,84.22232142857143,55.128571428571426,2467.3,78.22232142857143,48.128571428571426,2570.9,78.22232142857143,48.128571428571426,2676.1,78.22232142857143,48.128571428571426,2776.8,78.22232142857143,48.128571428571426,2885.5,78.22232142857143,48.128571428571426,3000.9,78.22232142857143,48.128571428571426,3104.3,78.22232142857143,48.128571428571426,3209.3,78.22232142857143,48.128571428571426,3317.5,78.22232142857143,48.128571428571426,3417.5,78.22232142857143,48.128571428571426,3533.4,78.22232142857143,48.128571428571426,3637.5,78.22232142857143,48.128571428571426,3747.5,78.22232142857143,48.128571428571426,3854.6,78.22232142857143,48.128571428571426,3965.5,78.22232142857143,48.128571428571426,4073.8,78.22232142857143,48.128571428571426,4173.8,78.22232142857143,48.128571428571426,4278.2,78.22232142857143,48.128571428571426,4413.3,78.22232142857143,48.128571428571426,4517.3,78.22232142857143,48.128571428571426,4623.2,78.22232142857143,48.128571428571426,4732.8,78.22232142857143,48.128571428571426,4837.9,78.22232142857143,48.128571428571426,4942.9]","[1556.2,1556.3,1000,0,556.3,""smooth"",""up"",""up"",""good_move"",4740.9,3183.6,2202.1,1557.4,981.5,""smooth"",""up"",""up"",""good_move"",8471.2,3729.3,3214.1,4741.9,515.2,""smooth"",""left"",""left"",""good_move"",11093.5,2619.6,1990.6,8473.9,629,""smooth"",""left"",""left"",""good_move""]"
"2562","","<div style=""width:500px;"">
  <p>What determined the result of this run?</p>
  </div>","59","html-slider-response","74","787472","0.0-7.0-1.12","80","1","2025-07-30 09:21:38","36c45c0696341be0efffe67d72a12abb","102.209.191.18","Mozilla/5.0 (Windows NT 10.0; Win64; x64) AppleWebKit/537.36 (KHTML, like Gecko) Chrome/138.0.0.0 Safari/537.36","WebKit","Chrome","138.0.0.0","Windows","10.0","https://app.prolific.com/","en-US,en;q=0.9","67e161beb708693951a94cbd","687a360dabe5252b5ada7185","6889da8ab1198f1cce08b2f0","0","67e161beb708693951a94cbd","0","2025-07-30T09:34:48.258Z","","","","AttribQ","","","","","","","","","","","50","","","","","","","","","","","","","","","","","","","","","","","","","","",""
"2361","","<div style=""width:500px;"">
  <p>How much control did you have over the ball?</p>
  </div>","60","html-slider-response","75","789842","0.0-7.0-2.12","80","1","2025-07-30 09:21:38","36c45c0696341be0efffe67d72a12abb","102.209.191.18","Mozilla/5.0 (Windows NT 10.0; Win64; x64) AppleWebKit/537.36 (KHTML, like Gecko) Chrome/138.0.0.0 Safari/537.36","WebKit","Chrome","138.0.0.0","Windows","10.0","https://app.prolific.com/","en-US,en;q=0.9","67e161beb708693951a94cbd","687a360dabe5252b5ada7185","6889da8ab1198f1cce08b2f0","0","67e161beb708693951a94cbd","0","2025-07-30T09:34:50.629Z","","","","ControlQ","","","","","","","","","","","50","","","","","","","","","","","","","","","","","","","","","","","","","","",""
"3614","","<div style=""width:500px;"">
  <p>How would you describe your current emotional state?</p>
  </div>","41","html-slider-response","76","793461","0.0-7.0-3.12","80","1","2025-07-30 09:21:38","36c45c0696341be0efffe67d72a12abb","102.209.191.18","Mozilla/5.0 (Windows NT 10.0; Win64; x64) AppleWebKit/537.36 (KHTML, like Gecko) Chrome/138.0.0.0 Safari/537.36","WebKit","Chrome","138.0.0.0","Windows","10.0","https://app.prolific.com/","en-US,en;q=0.9","67e161beb708693951a94cbd","687a360dabe5252b5ada7185","6889da8ab1198f1cce08b2f0","0","67e161beb708693951a94cbd","0","2025-07-30T09:34:54.247Z","","","","StressQ","","","","","","","","","","","50","","","","","","","","","","","","","","","","","","","","","","","","","","",""
"2473","","<div style=""width:500px;"">
  <p>What best describes how you currently feel?</p>
  </div>","61","html-slider-response","77","795939","0.0-7.0-4.12","80","1","2025-07-30 09:21:38","36c45c0696341be0efffe67d72a12abb","102.209.191.18","Mozilla/5.0 (Windows NT 10.0; Win64; x64) AppleWebKit/537.36 (KHTML, like Gecko) Chrome/138.0.0.0 Safari/537.36","WebKit","Chrome","138.0.0.0","Windows","10.0","https://app.prolific.com/","en-US,en;q=0.9","67e161beb708693951a94cbd","687a360dabe5252b5ada7185","6889da8ab1198f1cce08b2f0","0","67e161beb708693951a94cbd","0","2025-07-30T09:34:56.725Z","","","","MotivationQ","","","","","","","","","","","50","","","","","","","","","","","","","","","","","","","","","","","","","","",""
"","","","","ctl-task-cpt","78","822101","0.0-7.0-0.13","80","1","2025-07-30 09:21:38","36c45c0696341be0efffe67d72a12abb","102.209.191.18","Mozilla/5.0 (Windows NT 10.0; Win64; x64) AppleWebKit/537.36 (KHTML, like Gecko) Chrome/138.0.0.0 Safari/537.36","WebKit","Chrome","138.0.0.0","Windows","10.0","https://app.prolific.com/","en-US,en;q=0.9","67e161beb708693951a94cbd","687a360dabe5252b5ada7185","6889da8ab1198f1cce08b2f0","0","67e161beb708693951a94cbd","0","2025-07-30T09:35:22.887Z","","","","","","","","","","","","","","","","win-only","3","g1:SW,g2:NE","0.9","14","0","799499","1511.8","6529.5","23123.3","1","4","4","6","2","4","4","17","13","0.12878787878787878","1905.2","3000","1855","[""up"",""right""]","{""num_key_presses"":6,""num_perfect"":5,""num_errors"":0,""num_randdir"":1,""num_randdir_good_moves"":1,""num_whilered"":0,""num_whileblue"":0,""num_blue"":0,""num_good_moves"":6}","[303.22232142857143,293.12857142857143,1.1,303.22232142857143,293.12857142857143,100.6,303.22232142857143,293.12857142857143,210.7,303.22232142857143,293.12857142857143,315.9,303.22232142857143,293.12857142857143,422.7,303.22232142857143,293.12857142857143,524.1,303.22232142857143,293.12857142857143,632.6,303.22232142857143,289.12857142857143,740.2,356.22232142857143,238.12857142857143,850.8,356.22232142857143,238.12857142857143,967.5,370.22232142857143,206.12857142857143,1086.8,490.22232142857143,49.128571428571426,1206.3,511.22232142857143,33.128571428571426,1322.6,511.22232142857143,33.128571428571426,1428.5,511.22232142857143,33.128571428571426,1535.8,538.2223214285714,49.128571428571426,1655.2,543.2223214285714,56.128571428571426,1767.7,543.2223214285714,56.128571428571426,1885.1,543.2223214285714,56.128571428571426,1991.8,543.2223214285714,56.128571428571426,2111.9,543.2223214285714,56.128571428571426,2215.7,543.2223214285714,56.128571428571426,2328.3,543.2223214285714,56.128571428571426,2437.1,543.2223214285714,56.128571428571426,2550.7,543.2223214285714,56.128571428571426,2660.7,543.2223214285714,56.128571428571426,2771.5,543.2223214285714,56.128571428571426,2882.5,543.2223214285714,56.128571428571426,2992.3,543.2223214285714,56.128571428571426,3114.5,543.2223214285714,56.128571428571426,3230.8,543.2223214285714,56.128571428571426,3337,543.2223214285714,56.128571428571426,3452.5,543.2223214285714,56.128571428571426,3562.5,543.2223214285714,56.128571428571426,3673.6,543.2223214285714,56.128571428571426,3789.9,543.2223214285714,56.128571428571426,3901.7,543.2223214285714,56.128571428571426,4013.9,543.2223214285714,56.128571428571426,4138.7,543.2223214285714,56.128571428571426,4242,543.2223214285714,56.128571428571426,4357.7,543.2223214285714,56.128571428571426,4471.4,543.2223214285714,56.128571428571426,4582.2,543.2223214285714,56.128571428571426,4699.9,543.2223214285714,56.128571428571426,4808.6,543.2223214285714,56.128571428571426,4924.7]","[1565.4,1565.4,1000,0,565.4,""smooth"",""up"",""up"",""good_move"",4551.4,2984.2,2423.6,1567.2,560.6,""smooth"",""up"",""up"",""good_move"",7588.3,3036.2,2591,4552.1,445.3,""oops"",""right"",""right"",""good_move"",10780,3186.1,2479.2,7593.9,706.9,""smooth"",""right"",""right"",""good_move"",13567.3,2786.7,2320,10780.6,466.7,""smooth"",""right"",""right"",""good_move"",16307,2737.8,2299.4,13569.2,438.4,""smooth"",""up"",""up"",""good_move""]"
"2751","","<div style=""width:500px;"">
  <p>What determined the result of this run?</p>
