"rt","response_timestamp","stimulus","response","trial_type","trial_index","time_elapsed","internal_node_id","run_id","condition","recorded_at","source_code_version","ip","user_agent","device","browser","browser_version","platform","platform_version","referer","accept_language","PROLIFIC_PID","STUDY_ID","SESSION_ID","BATCH","prolific_id","batch","realtime","success","question_order","question_id","eventType","responses","item_order","radio_event_ids","radio_event_times","key_event_times","mouse_event_times","straightlining","zigzagging","honeypot","view_history","slider_start","which_type","canvas_config","goals_layout","control_level","trial_number","tutorial_trial_number","trial_start_time","phase1_start_time","phase2_start_time","phase3_start_time","goal_1_value","goal_1_distance","goal_2_value","goal_2_distance","goal_selected","outcome","outcome_total","participant_final_score","participant_initial_score","participant_final_score_prop","goal_choice_rt","allocated_time","allocated_time_remaining","goal_direction","counts","mouse_movements","key_presses"
"5326","1754481676040","<p style='font-size:40px;line-height:1.25'><strong>Welcome to the experiment!</strong></p><p style='font-size:1.1em;line-height:1.25'>Thank you for participanting in our experiment again! You will be asked to play the Dysfunctional Ball Game again. We will briefly recap the rules before we start.</p><p style='font-size:1.1em;line-height:1.25'>Press <strong>Next</strong> to continue.</p>","0","custom-html-button-response","0","5363","0.0-0.0","194","1","2025-08-06 12:00:46","36c45c0696341be0efffe67d72a12abb","105.4.4.84","Mozilla/5.0 (Windows NT 10.0; Win64; x64) AppleWebKit/537.36 (KHTML, like Gecko) Chrome/135.0.0.0 Safari/537.36 OPR/120.0.0.0","WebKit","Opera","120.0.0.0","Windows","10.0","https://app.prolific.com/","en-US,en;q=0.9","67e575f103799e89aacd209c","687a1a965b9f5b85a264363e","68933afa525bfd2bd32a3f62","1","67e575f103799e89aacd209c","1","2025-08-06T12:01:16.070Z","","","","","","","","","","","","","","","","","","","","","","","","","","","","","","","","","","","","","","","","","",""
"900","","","","fullscreen","1","7308","0.0-1.0","194","1","2025-08-06 12:00:46","36c45c0696341be0efffe67d72a12abb","105.4.4.84","Mozilla/5.0 (Windows NT 10.0; Win64; x64) AppleWebKit/537.36 (KHTML, like Gecko) Chrome/135.0.0.0 Safari/537.36 OPR/120.0.0.0","WebKit","Opera","120.0.0.0","Windows","10.0","https://app.prolific.com/","en-US,en;q=0.9","67e575f103799e89aacd209c","687a1a965b9f5b85a264363e","68933afa525bfd2bd32a3f62","1","67e575f103799e89aacd209c","1","","true","","","","","","","","","","","","","","","","","","","","","","","","","","","","","","","","","","","","","","","","",""
"2140","1754481680170"," <p style='font-size:1.1em;line-height:1.25'>Thank you for closing all other tabs.</p><p style='font-size:1.1em;line-height:1.25'>We will now invite you to fill in some questionnaires, before starting the game.<br>This will take about 5 minutes.<br></p><p style='font-size:1.1em;line-height:1.25'>Press the <strong>Next</strong> button to continue.</p>","0","custom-html-button-response","2","9465","0.0-2.0","194","1","2025-08-06 12:00:46","36c45c0696341be0efffe67d72a12abb","105.4.4.84","Mozilla/5.0 (Windows NT 10.0; Win64; x64) AppleWebKit/537.36 (KHTML, like Gecko) Chrome/135.0.0.0 Safari/537.36 OPR/120.0.0.0","WebKit","Opera","120.0.0.0","Windows","10.0","https://app.prolific.com/","en-US,en;q=0.9","67e575f103799e89aacd209c","687a1a965b9f5b85a264363e","68933afa525bfd2bd32a3f62","1","67e575f103799e89aacd209c","1","2025-08-06T12:01:20.172Z","","","","","","","","","","","","","","","","","","","","","","","","","","","","","","","","","","","","","","","","","",""
"3459","","","{""assigned_sex"":""female""}","survey-multi-choice","3","12931","0.0-3.0-0.0","194","1","2025-08-06 12:00:46","36c45c0696341be0efffe67d72a12abb","105.4.4.84","Mozilla/5.0 (Windows NT 10.0; Win64; x64) AppleWebKit/537.36 (KHTML, like Gecko) Chrome/135.0.0.0 Safari/537.36 OPR/120.0.0.0","WebKit","Opera","120.0.0.0","Windows","10.0","https://app.prolific.com/","en-US,en;q=0.9","67e575f103799e89aacd209c","687a1a965b9f5b85a264363e","68933afa525bfd2bd32a3f62","1","67e575f103799e89aacd209c","1","","","[0]","0","demographics","","","","","","","","","","","","","","","","","","","","","","","","","","","","","","","","","","","","","",""
"4334","1754481687975","<p style='font-size:1.1em;line-height:1.25'>In the following, we will perform a baseline assessment. This means that we will ask you a few questions relating to your experiences over the past month.<br></p><p style='font-size:1.1em;line-height:1.25'>Press the <strong>Next</strong> button to continue.</p>","0","custom-html-button-response","4","17271","0.0-4.0-0.0","194","1","2025-08-06 12:00:46","36c45c0696341be0efffe67d72a12abb","105.4.4.84","Mozilla/5.0 (Windows NT 10.0; Win64; x64) AppleWebKit/537.36 (KHTML, like Gecko) Chrome/135.0.0.0 Safari/537.36 OPR/120.0.0.0","WebKit","Opera","120.0.0.0","Windows","10.0","https://app.prolific.com/","en-US,en;q=0.9","67e575f103799e89aacd209c","687a1a965b9f5b85a264363e","68933afa525bfd2bd32a3f62","1","67e575f103799e89aacd209c","1","2025-08-06T12:01:27.978Z","","","","","","","","","","","","","","","","","","","","","","","","","","","","","","","","","","","","","","","","","",""
"63248.19999999995","","","","survey-template","5","80541","0.0-4.0-1.0","194","1","2025-08-06 12:00:46","36c45c0696341be0efffe67d72a12abb","105.4.4.84","Mozilla/5.0 (Windows NT 10.0; Win64; x64) AppleWebKit/537.36 (KHTML, like Gecko) Chrome/135.0.0.0 Safari/537.36 OPR/120.0.0.0","WebKit","Opera","120.0.0.0","Windows","10.0","https://app.prolific.com/","en-US,en;q=0.9","67e575f103799e89aacd209c","687a1a965b9f5b85a264363e","68933afa525bfd2bd32a3f62","1","67e575f103799e89aacd209c","1","2025-08-06T12:02:31.248Z","","","","pss","{""Q01"":""3"",""Q02"":""4"",""Q03"":""4"",""Q04"":""2"",""Q05"":""3"",""Q06"":""3"",""Q07"":""0"",""Q08"":""2"",""Q09"":""3"",""Q10"":""3""}","[0,1,2,3,4,5,6,7,8,9]","[""Q01"",""Q02"",""Q03"",""Q03"",""Q03"",""Q04"",""Q05"",""Q06"",""Q07"",""Q08"",""Q09"",""Q10""]","[6402.299999999814,13353.399999999907,18152.5,19062.5,19620.59999999986,24035.299999999814,32546.299999999814,36865.59999999986,44917.69999999995,53379.69999999995,58545.89999999991,61996.09999999986]","[]","[0.2999999998137355,5154.09999999986,6402.299999999814,11151.199999999953,13353.399999999907,15820.59999999986,18152.5,19062.5,19620.59999999986,24035.299999999814,29919.899999999907,32546.299999999814,36865.59999999986,44917.69999999995,53379.69999999995,58545.89999999991,61996.09999999986,63155.19999999995]","0.4","0.4444444444444444","0","","","","","","","","","","","","","","","","","","","","","","","","","","","","",""
"3445","1754481754700","<p style='font-size:1.1em;line-height:1.25'>Thank you for your answers! Now we will ask you a few more questions relating to your feelings in the last 24 hours.<br></p><p style='font-size:1.1em;line-height:1.25'>Press the <strong>Next</strong> button to continue.</p>","0","custom-html-button-response","6","83999","0.0-4.0-2.0","194","1","2025-08-06 12:00:46","36c45c0696341be0efffe67d72a12abb","105.4.4.84","Mozilla/5.0 (Windows NT 10.0; Win64; x64) AppleWebKit/537.36 (KHTML, like Gecko) Chrome/135.0.0.0 Safari/537.36 OPR/120.0.0.0","WebKit","Opera","120.0.0.0","Windows","10.0","https://app.prolific.com/","en-US,en;q=0.9","67e575f103799e89aacd209c","687a1a965b9f5b85a264363e","68933afa525bfd2bd32a3f62","1","67e575f103799e89aacd209c","1","2025-08-06T12:02:34.708Z","","","","","","","","","","","","","","","","","","","","","","","","","","","","","","","","","","","","","","","","","",""
"148430.8999999999","","","","survey-template","7","232472","0.0-4.0-3.0","194","1","2025-08-06 12:00:46","36c45c0696341be0efffe67d72a12abb","105.4.4.84","Mozilla/5.0 (Windows NT 10.0; Win64; x64) AppleWebKit/537.36 (KHTML, like Gecko) Chrome/135.0.0.0 Safari/537.36 OPR/120.0.0.0","WebKit","Opera","120.0.0.0","Windows","10.0","https://app.prolific.com/","en-US,en;q=0.9","67e575f103799e89aacd209c","687a1a965b9f5b85a264363e","68933afa525bfd2bd32a3f62","1","67e575f103799e89aacd209c","1","2025-08-06T12:05:03.180Z","","","","drsp","{""Q01"":""2"",""Q02"":""3"",""Q03"":""0"",""Q04"":""1"",""Q05"":""2"",""Q06"":""3"",""Q07"":""2"",""Q08"":""3"",""Q09"":""4"",""Q10"":""0"",""Q11"":""1"",""Q12"":""2"",""Q13"":""5"",""Q14"":""0"",""Q15"":""1"",""Q16"":""2"",""Q17"":""2"",""Q18"":""2"",""Q19"":""0"",""Q20"":""0"",""Q21"":""0"",""Q22"":""0""}","[0,1,2,3,4,5,6,7,8,9,10,11,12,13,14,15,16,17,18,19,20,21]","[""Q01"",""Q02"",""Q03"",""Q04"",""Q05"",""Q06"",""Q07"",""Q08"",""Q09"",""Q10"",""Q11"",""Q12"",""Q13"",""Q14"",""Q15"",""Q16"",""Q17"",""Q18"",""Q19"",""Q20"",""Q21"",""Q22""]","[8715.59999999986,11383.09999999986,13945.09999999986,17788.59999999986,21677.399999999907,26934.5,31120.09999999986,35091.89999999991,84733.30000000005,87501.3999999999,90646.09999999986,93866.09999999986,99397.5,110107.09999999986,118748.19999999995,124492.19999999995,127451.80000000005,133435.5,134751.80000000005,137492.5,138801.30000000005,140652.09999999986]","[]","[0.6999999999534339,7574.699999999953,8715.59999999986,11383.09999999986,13945.09999999986,15771.300000000047,17788.59999999986,21677.399999999907,26934.5,31120.09999999986,33653.80000000005,35091.89999999991,38106.09999999986,40172,84733.30000000005,87501.3999999999,90646.09999999986,93866.09999999986,99397.5,108681.59999999986,110107.09999999986,118748.19999999995,124492.19999999995,127451.80000000005,129980.30000000005,133435.5,134751.80000000005,136011.8999999999,137492.5,138801.30000000005,140652.09999999986,148411.80000000005]","0.3181818181818182","0.5714285714285714","0","","","","","","","","","","","","","","","","","","","","","","","","","","","","",""
"14837.800000000047","","","","survey-template","8","247315","0.0-4.0-4.0","194","1","2025-08-06 12:00:46","36c45c0696341be0efffe67d72a12abb","105.4.4.84","Mozilla/5.0 (Windows NT 10.0; Win64; x64) AppleWebKit/537.36 (KHTML, like Gecko) Chrome/135.0.0.0 Safari/537.36 OPR/120.0.0.0","WebKit","Opera","120.0.0.0","Windows","10.0","https://app.prolific.com/","en-US,en;q=0.9","67e575f103799e89aacd209c","687a1a965b9f5b85a264363e","68933afa525bfd2bd32a3f62","1","67e575f103799e89aacd209c","1","2025-08-06T12:05:18.022Z","","","","stress","{""Q01"":""2"",""Q02"":""4"",""Q03"":""0""}","[0,1,2]","[""Q01"",""Q03"",""Q02""]","[3969.8000000000466,9837.90000000014,12880.40000000014]","[]","[3969.8000000000466,6611.40000000014,9837.90000000014,12880.40000000014,14830.800000000047]","0.3333333333333333","1","0","","","","","","","","","","","","","","","","","","","","","","","","","","","","",""
"2325","","","","instructions","9","249643","0.0-5.0-0.0","194","1","2025-08-06 12:00:46","36c45c0696341be0efffe67d72a12abb","105.4.4.84","Mozilla/5.0 (Windows NT 10.0; Win64; x64) AppleWebKit/537.36 (KHTML, like Gecko) Chrome/135.0.0.0 Safari/537.36 OPR/120.0.0.0","WebKit","Opera","120.0.0.0","Windows","10.0","https://app.prolific.com/","en-US,en;q=0.9","67e575f103799e89aacd209c","687a1a965b9f5b85a264363e","68933afa525bfd2bd32a3f62","1","67e575f103799e89aacd209c","1","","","","","","","","","","","","","","","[{""page_index"":0,""viewing_time"":2324}]","","","","","","","","","","","","","","","","","","","","","","","","","","","",""
"3184","","<p>Before you start with this game please answer the following three questions yourself. </p>
  <p>Through this game, we measure several aspects of your cognitive performance, such as reaction times, multi-tasking capabilities </p>
  <p>and the ability to assess the situation you are in.</p>
  <p></p>
  <p><b>How good do you usually are in such tasks?</b></p>","56","html-slider-response","10","252848","0.0-6.0-0.0","194","1","2025-08-06 12:00:46","36c45c0696341be0efffe67d72a12abb","105.4.4.84","Mozilla/5.0 (Windows NT 10.0; Win64; x64) AppleWebKit/537.36 (KHTML, like Gecko) Chrome/135.0.0.0 Safari/537.36 OPR/120.0.0.0","WebKit","Opera","120.0.0.0","Windows","10.0","https://app.prolific.com/","en-US,en;q=0.9","67e575f103799e89aacd209c","687a1a965b9f5b85a264363e","68933afa525bfd2bd32a3f62","1","67e575f103799e89aacd209c","1","2025-08-06T12:05:23.555Z","","","","PreSkillQ","","","","","","","","","","","50","","","","","","","","","","","","","","","","","","","","","","","","","","",""
"3474","","<div style=""width:500px;"">
  <p>How well do you think you will perform in this task compared to other participants?</p>
  </div>","58","html-slider-response","11","256350","0.0-6.0-1.0","194","1","2025-08-06 12:00:46","36c45c0696341be0efffe67d72a12abb","105.4.4.84","Mozilla/5.0 (Windows NT 10.0; Win64; x64) AppleWebKit/537.36 (KHTML, like Gecko) Chrome/135.0.0.0 Safari/537.36 OPR/120.0.0.0","WebKit","Opera","120.0.0.0","Windows","10.0","https://app.prolific.com/","en-US,en;q=0.9","67e575f103799e89aacd209c","687a1a965b9f5b85a264363e","68933afa525bfd2bd32a3f62","1","67e575f103799e89aacd209c","1","2025-08-06T12:05:27.057Z","","","","PrePerfQ","","","","","","","","","","","50","","","","","","","","","","","","","","","","","","","","","","","","","","",""
"4256","","<div style=""width:500px;"">
  <p>What best describes how you currently feel?</p>
  </div>","99","html-slider-response","12","260614","0.0-6.0-2.0","194","1","2025-08-06 12:00:46","36c45c0696341be0efffe67d72a12abb","105.4.4.84","Mozilla/5.0 (Windows NT 10.0; Win64; x64) AppleWebKit/537.36 (KHTML, like Gecko) Chrome/135.0.0.0 Safari/537.36 OPR/120.0.0.0","WebKit","Opera","120.0.0.0","Windows","10.0","https://app.prolific.com/","en-US,en;q=0.9","67e575f103799e89aacd209c","687a1a965b9f5b85a264363e","68933afa525bfd2bd32a3f62","1","67e575f103799e89aacd209c","1","2025-08-06T12:05:31.322Z","","","","PreMotivationQ","","","","","","","","","","","50","","","","","","","","","","","","","","","","","","","","","","","","","","",""
"","","","","ctl-task-cpt","13","297288","0.0-7.0-0.0","194","1","2025-08-06 12:00:46","36c45c0696341be0efffe67d72a12abb","105.4.4.84","Mozilla/5.0 (Windows NT 10.0; Win64; x64) AppleWebKit/537.36 (KHTML, like Gecko) Chrome/135.0.0.0 Safari/537.36 OPR/120.0.0.0","WebKit","Opera","120.0.0.0","Windows","10.0","https://app.prolific.com/","en-US,en;q=0.9","67e575f103799e89aacd209c","687a1a965b9f5b85a264363e","68933afa525bfd2bd32a3f62","1","67e575f103799e89aacd209c","1","2025-08-06T12:06:07.995Z","","","","","","","","","","","","","","","","win-only","2","g1:SE,g2:NW","1","1","0","288669.9","5090","10283.3","33646.9","1","4","4","6","1","1","-4","0","0","0","5193.2","3000","1425","[""down"",""right""]","{""num_key_presses"":10,""num_perfect"":4,""num_errors"":5,""num_randdir"":0,""num_randdir_good_moves"":0,""num_whilered"":1,""num_whileblue"":0,""num_blue"":1,""num_good_moves"":4}","[289.22232142857143,294.12857142857143,12.3,289.22232142857143,294.12857142857143,100.9,289.22232142857143,294.12857142857143,203.6,289.22232142857143,294.12857142857143,306.5,289.22232142857143,294.12857142857143,409.6,289.22232142857143,294.12857142857143,512.7,289.22232142857143,294.12857142857143,615.3,289.22232142857143,294.12857142857143,718.3,289.22232142857143,294.12857142857143,825.7,289.22232142857143,294.12857142857143,926.2,289.22232142857143,294.12857142857143,1036.1,289.22232142857143,294.12857142857143,1144.5,289.22232142857143,294.12857142857143,1319.4,289.22232142857143,294.12857142857143,1522.1,289.22232142857143,294.12857142857143,1629.2,289.22232142857143,294.12857142857143,1737.2,289.22232142857143,294.12857142857143,1864.7,289.22232142857143,294.12857142857143,1971.6,289.22232142857143,294.12857142857143,2081.3,289.22232142857143,294.12857142857143,2181.7,289.22232142857143,294.12857142857143,2287.8,289.22232142857143,294.12857142857143,2389.1,289.22232142857143,294.12857142857143,2492.5,289.22232142857143,294.12857142857143,2594,289.22232142857143,294.12857142857143,2715.2,289.22232142857143,294.12857142857143,2903.7,289.22232142857143,294.12857142857143,3015.3,289.22232142857143,294.12857142857143,3125.5,289.22232142857143,294.12857142857143,3239.3,289.22232142857143,294.12857142857143,3343.9,289.22232142857143,294.12857142857143,3451.3,289.22232142857143,294.12857142857143,3567.8,289.22232142857143,294.12857142857143,3668.3,289.22232142857143,294.12857142857143,3772.5,289.22232142857143,294.12857142857143,3875.5,289.22232142857143,294.12857142857143,3980.7,289.22232142857143,294.12857142857143,4087.1,289.22232142857143,294.12857142857143,4187.5,289.22232142857143,294.12857142857143,4293.5,289.22232142857143,294.12857142857143,4395.6,289.22232142857143,294.12857142857143,4498.9,289.22232142857143,294.12857142857143,4606.3,289.22232142857143,294.12857142857143,4710.1,289.22232142857143,294.12857142857143,4817.6]","[2186.1,2186.1,1000,0,1186.1,""smooth"",""right"",""right"",""good_move"",3060.9,869.5,2959.5,2191.5,-2090.1,""error"",""-"",""-"",""no_move"",4728.3,1653.9,2624.1,4078.9,-1974.7,""error"",""-"",""-"",""no_move"",5552,823.4,2624.1,4078.9,-1151,""while_red"",""-"",""-"",""no_move"",6249.2,1520.6,1549.3,5731,-1031.1,""error"",""-"",""-"",""no_move"",11050.5,4801.2,3158.2,7283.1,609.2,""smooth"",""right"",""right"",""good_move"",14427.9,3377.3,2348.8,11050.6,1028.6,""smooth"",""down"",""down"",""good_move"",14830.9,402.5,2193,14428.4,-1790.5,""error"",""-"",""-"",""no_move"",19309.9,4478.9,1726.6,19124.3,-1541,""error"",""-"",""-"",""no_move"",23188.2,3878,1915.3,20582.7,690.2,""smooth"",""down"",""down"",""good_move""]"
"6152","","<div style=""width:500px;"">
  <p>What determined the result of this run?</p>
  </div>","45","html-slider-response","14","303456","0.0-7.0-1.0","194","1","2025-08-06 12:00:46","36c45c0696341be0efffe67d72a12abb","105.4.4.84","Mozilla/5.0 (Windows NT 10.0; Win64; x64) AppleWebKit/537.36 (KHTML, like Gecko) Chrome/135.0.0.0 Safari/537.36 OPR/120.0.0.0","WebKit","Opera","120.0.0.0","Windows","10.0","https://app.prolific.com/","en-US,en;q=0.9","67e575f103799e89aacd209c","687a1a965b9f5b85a264363e","68933afa525bfd2bd32a3f62","1","67e575f103799e89aacd209c","1","2025-08-06T12:06:14.163Z","","","","AttribQ","","","","","","","","","","","50","","","","","","","","","","","","","","","","","","","","","","","","","","",""
"4206","","<div style=""width:500px;"">
  <p>How much control did you have over the ball?</p>
  </div>","43","html-slider-response","15","307674","0.0-7.0-2.0","194","1","2025-08-06 12:00:46","36c45c0696341be0efffe67d72a12abb","105.4.4.84","Mozilla/5.0 (Windows NT 10.0; Win64; x64) AppleWebKit/537.36 (KHTML, like Gecko) Chrome/135.0.0.0 Safari/537.36 OPR/120.0.0.0","WebKit","Opera","120.0.0.0","Windows","10.0","https://app.prolific.com/","en-US,en;q=0.9","67e575f103799e89aacd209c","687a1a965b9f5b85a264363e","68933afa525bfd2bd32a3f62","1","67e575f103799e89aacd209c","1","2025-08-06T12:06:18.381Z","","","","ControlQ","","","","","","","","","","","50","","","","","","","","","","","","","","","","","","","","","","","","","","",""
"7552","","<div style=""width:500px;"">
  <p>How would you describe your current emotional state?</p>
  </div>","6","html-slider-response","16","315250","0.0-7.0-3.0","194","1","2025-08-06 12:00:46","36c45c0696341be0efffe67d72a12abb","105.4.4.84","Mozilla/5.0 (Windows NT 10.0; Win64; x64) AppleWebKit/537.36 (KHTML, like Gecko) Chrome/135.0.0.0 Safari/537.36 OPR/120.0.0.0","WebKit","Opera","120.0.0.0","Windows","10.0","https://app.prolific.com/","en-US,en;q=0.9","67e575f103799e89aacd209c","687a1a965b9f5b85a264363e","68933afa525bfd2bd32a3f62","1","67e575f103799e89aacd209c","1","2025-08-06T12:06:25.957Z","","","","StressQ","","","","","","","","","","","50","","","","","","","","","","","","","","","","","","","","","","","","","","",""
"4717","","<div style=""width:500px;"">
  <p>What best describes how you currently feel?</p>
  </div>","100","html-slider-response","17","319989","0.0-7.0-4.0","194","1","2025-08-06 12:00:46","36c45c0696341be0efffe67d72a12abb","105.4.4.84","Mozilla/5.0 (Windows NT 10.0; Win64; x64) AppleWebKit/537.36 (KHTML, like Gecko) Chrome/135.0.0.0 Safari/537.36 OPR/120.0.0.0","WebKit","Opera","120.0.0.0","Windows","10.0","https://app.prolific.com/","en-US,en;q=0.9","67e575f103799e89aacd209c","687a1a965b9f5b85a264363e","68933afa525bfd2bd32a3f62","1","67e575f103799e89aacd209c","1","2025-08-06T12:06:30.696Z","","","","MotivationQ","","","","","","","","","","","50","","","","","","","","","","","","","","","","","","","","","","","","","","",""
"","","","","ctl-task-cpt","18","392226","0.0-7.0-0.1","194","1","2025-08-06 12:00:46","36c45c0696341be0efffe67d72a12abb","105.4.4.84","Mozilla/5.0 (Windows NT 10.0; Win64; x64) AppleWebKit/537.36 (KHTML, like Gecko) Chrome/135.0.0.0 Safari/537.36 OPR/120.0.0.0","WebKit","Opera","120.0.0.0","Windows","10.0","https://app.prolific.com/","en-US,en;q=0.9","67e575f103799e89aacd209c","687a1a965b9f5b85a264363e","68933afa525bfd2bd32a3f62","1","67e575f103799e89aacd209c","1","2025-08-06T12:07:42.933Z","","","","","","","","","","","","","","","","win-only","3","g1:SW,g2:NE","0.9","2","0","348054.7","3183.3","8193.8","69166.9","1","4","8","6","1","-1","-4","0","0","0","5010.3","3000","-660","[""down"",""left""]","{""num_key_presses"":15,""num_perfect"":11,""num_errors"":3,""num_randdir"":1,""num_randdir_good_moves"":0,""num_whilered"":0,""num_whileblue"":0,""num_blue"":3,""num_good_moves"":5}","[287.22232142857143,299.12857142857143,14.7,287.22232142857143,299.12857142857143,102.8,287.22232142857143,299.12857142857143,204,287.22232142857143,299.12857142857143,305.6,287.22232142857143,299.12857142857143,405.8,287.22232142857143,299.12857142857143,507.9,287.22232142857143,299.12857142857143,619.6,287.22232142857143,299.12857142857143,795.9,287.22232142857143,299.12857142857143,900.4,287.22232142857143,299.12857142857143,1011.3,287.22232142857143,299.12857142857143,1119.2,287.22232142857143,299.12857142857143,1243.2,287.22232142857143,299.12857142857143,1355,287.22232142857143,299.12857142857143,1460.8,287.22232142857143,299.12857142857143,1582.6,287.22232142857143,299.12857142857143,1694.1,287.22232142857143,299.12857142857143,1807.9,287.22232142857143,299.12857142857143,1906.2,287.22232142857143,299.12857142857143,2017.3,287.22232142857143,299.12857142857143,2131.9,287.22232142857143,299.12857142857143,2233.3,287.22232142857143,299.12857142857143,2351,287.22232142857143,299.12857142857143,2455.5,287.22232142857143,299.12857142857143,2560.6,287.22232142857143,299.12857142857143,2678,287.22232142857143,299.12857142857143,2793,287.22232142857143,299.12857142857143,2918.4,287.22232142857143,299.12857142857143,3018.7,287.22232142857143,299.12857142857143,3124.8,287.22232142857143,299.12857142857143,3230.2,287.22232142857143,299.12857142857143,3332.1,287.22232142857143,299.12857142857143,3432.6,287.22232142857143,299.12857142857143,3542.4,287.22232142857143,299.12857142857143,3665.7,287.22232142857143,299.12857142857143,3767.5,287.22232142857143,299.12857142857143,3876,287.22232142857143,299.12857142857143,3989.8,287.22232142857143,299.12857142857143,4091.8,287.22232142857143,299.12857142857143,4197.3,287.22232142857143,299.12857142857143,4315,287.22232142857143,299.12857142857143,4415.8,287.22232142857143,299.12857142857143,4517.1,287.22232142857143,299.12857142857143,4643.3,287.22232142857143,299.12857142857143,4747,287.22232142857143,299.12857142857143,4849.7,287.22232142857143,299.12857142857143,4957.7]","[1903.4,1903.4,1000,0,903.4,""smooth"",""up"",""up"",""bad_move"",5354,3439,2794,1915,645.1,""smooth"",""up"",""up"",""bad_move"",8790.6,3436.4,2449.5,5354.2,986.9,""smooth"",""right"",""right"",""bad_move"",15803.6,7012.8,2863.5,12353.4,586.7,""oops"",""right"",""up"",""bad_move"",23050.2,7246.5,2462.8,20140.1,447.4,""smooth"",""right"",""right"",""bad_move"",25981.8,2916.1,2399.1,23065.7,517,""smooth"",""right"",""right"",""bad_move"",29286.8,3300.2,1768.5,25986.6,1531.8,""smooth"",""right"",""up"",""bad_move"",31238.4,1931,2187.3,29307.4,-256.3,""error"",""-"",""-"",""no_move"",32386.8,1124.5,2844,32269.9,-2727.1,""error"",""-"",""-"",""no_move"",36368.7,3981.5,1770.4,33428.3,1170,""smooth"",""down"",""down"",""good_move"",39671.5,3289.4,2696.9,36382.2,592.4,""smooth"",""down"",""down"",""good_move"",42082.3,2390,2967.8,39692.3,-577.8,""error"",""-"",""-"",""no_move"",45793.5,3705,2095.4,43112.9,585.2,""smooth"",""down"",""down"",""good_move"",52197.1,6382.6,1804.1,49789.2,603.8,""smooth"",""left"",""left"",""good_move"",55961.1,3757.5,2346.6,52203.6,1410.9,""smooth"",""left"",""left"",""good_move""]"
"11769","","<div style=""width:500px;"">
  <p>What determined the result of this run?</p>
  </div>","60","html-slider-response","19","404019","0.0-7.0-1.1","194","1","2025-08-06 12:00:46","36c45c0696341be0efffe67d72a12abb","105.4.4.84","Mozilla/5.0 (Windows NT 10.0; Win64; x64) AppleWebKit/537.36 (KHTML, like Gecko) Chrome/135.0.0.0 Safari/537.36 OPR/120.0.0.0","WebKit","Opera","120.0.0.0","Windows","10.0","https://app.prolific.com/","en-US,en;q=0.9","67e575f103799e89aacd209c","687a1a965b9f5b85a264363e","68933afa525bfd2bd32a3f62","1","67e575f103799e89aacd209c","1","2025-08-06T12:07:54.729Z","","","","AttribQ","","","","","","","","","","","50","","","","","","","","","","","","","","","","","","","","","","","","","","",""
"9632","","<div style=""width:500px;"">
  <p>How much control did you have over the ball?</p>
  </div>","90","html-slider-response","20","413667","0.0-7.0-2.1","194","1","2025-08-06 12:00:46","36c45c0696341be0efffe67d72a12abb","105.4.4.84","Mozilla/5.0 (Windows NT 10.0; Win64; x64) AppleWebKit/537.36 (KHTML, like Gecko) Chrome/135.0.0.0 Safari/537.36 OPR/120.0.0.0","WebKit","Opera","120.0.0.0","Windows","10.0","https://app.prolific.com/","en-US,en;q=0.9","67e575f103799e89aacd209c","687a1a965b9f5b85a264363e","68933afa525bfd2bd32a3f62","1","67e575f103799e89aacd209c","1","2025-08-06T12:08:04.374Z","","","","ControlQ","","","","","","","","","","","50","","","","","","","","","","","","","","","","","","","","","","","","","","",""
"6419","","<div style=""width:500px;"">
  <p>How would you describe your current emotional state?</p>
  </div>","0","html-slider-response","21","420121","0.0-7.0-3.1","194","1","2025-08-06 12:00:46","36c45c0696341be0efffe67d72a12abb","105.4.4.84","Mozilla/5.0 (Windows NT 10.0; Win64; x64) AppleWebKit/537.36 (KHTML, like Gecko) Chrome/135.0.0.0 Safari/537.36 OPR/120.0.0.0","WebKit","Opera","120.0.0.0","Windows","10.0","https://app.prolific.com/","en-US,en;q=0.9","67e575f103799e89aacd209c","687a1a965b9f5b85a264363e","68933afa525bfd2bd32a3f62","1","67e575f103799e89aacd209c","1","2025-08-06T12:08:10.828Z","","","","StressQ","","","","","","","","","","","50","","","","","","","","","","","","","","","","","","","","","","","","","","",""
"4195","","<div style=""width:500px;"">
  <p>What best describes how you currently feel?</p>
  </div>","100","html-slider-response","22","424334","0.0-7.0-4.1","194","1","2025-08-06 12:00:46","36c45c0696341be0efffe67d72a12abb","105.4.4.84","Mozilla/5.0 (Windows NT 10.0; Win64; x64) AppleWebKit/537.36 (KHTML, like Gecko) Chrome/135.0.0.0 Safari/537.36 OPR/120.0.0.0","WebKit","Opera","120.0.0.0","Windows","10.0","https://app.prolific.com/","en-US,en;q=0.9","67e575f103799e89aacd209c","687a1a965b9f5b85a264363e","68933afa525bfd2bd32a3f62","1","67e575f103799e89aacd209c","1","2025-08-06T12:08:15.041Z","","","","MotivationQ","","","","","","","","","","","50","","","","","","","","","","","","","","","","","","","","","","","","","","",""
"","","","","ctl-task-cpt","23","466327","0.0-7.0-0.2","194","1","2025-08-06 12:00:46","36c45c0696341be0efffe67d72a12abb","105.4.4.84","Mozilla/5.0 (Windows NT 10.0; Win64; x64) AppleWebKit/537.36 (KHTML, like Gecko) Chrome/135.0.0.0 Safari/537.36 OPR/120.0.0.0","WebKit","Opera","120.0.0.0","Windows","10.0","https://app.prolific.com/","en-US,en;q=0.9","67e575f103799e89aacd209c","687a1a965b9f5b85a264363e","68933afa525bfd2bd32a3f62","1","67e575f103799e89aacd209c","1","2025-08-06T12:08:57.042Z","","","","","","","","","","","","","","","","win-only","1","g1:NE,g2:SW","0.8","3","0","452395.8","2402.9","7412.1","38949.5","1","4","4","6","2","4","4","4","0","0.030303030303030304","5009.2","3000","2205","[""down"",""left""]","{""num_key_presses"":6,""num_perfect"":5,""num_errors"":0,""num_randdir"":1,""num_randdir_good_moves"":1,""num_whilered"":0,""num_whileblue"":0,""num_blue"":1,""num_good_moves"":6}","[296.22232142857143,296.12857142857143,16.4,296.22232142857143,296.12857142857143,107.1,296.22232142857143,296.12857142857143,208.5,296.22232142857143,296.12857142857143,359.2,296.22232142857143,296.12857142857143,462.7,296.22232142857143,296.12857142857143,625.9,296.22232142857143,296.12857142857143,743.7,296.22232142857143,296.12857142857143,868.1,296.22232142857143,296.12857142857143,970,296.22232142857143,296.12857142857143,1081.2,296.22232142857143,296.12857142857143,1188.1,296.22232142857143,296.12857142857143,1306.4,296.22232142857143,296.12857142857143,1419.6,296.22232142857143,296.12857142857143,1564.7,296.22232142857143,296.12857142857143,1667,296.22232142857143,296.12857142857143,1772.8,296.22232142857143,296.12857142857143,1898.7,296.22232142857143,296.12857142857143,2036.9,296.22232142857143,296.12857142857143,2172.3,296.22232142857143,296.12857142857143,2293.9,296.22232142857143,296.12857142857143,2401.9,296.22232142857143,296.12857142857143,2512.5,296.22232142857143,296.12857142857143,2634.5,296.22232142857143,296.12857142857143,2743.7,296.22232142857143,296.12857142857143,2874.8,296.22232142857143,296.12857142857143,2994.5,296.22232142857143,296.12857142857143,3136,296.22232142857143,296.12857142857143,3253.2,296.22232142857143,296.12857142857143,3386.4,296.22232142857143,296.12857142857143,3487.7,296.22232142857143,296.12857142857143,3598,296.22232142857143,296.12857142857143,3709.1,296.22232142857143,296.12857142857143,3823.5,296.22232142857143,296.12857142857143,3923.9,296.22232142857143,296.12857142857143,4037.2,296.22232142857143,296.12857142857143,4153.7,296.22232142857143,296.12857142857143,4273.5,296.22232142857143,296.12857142857143,4387.4,296.22232142857143,296.12857142857143,4509.4,296.22232142857143,296.12857142857143,4610.5,296.22232142857143,296.12857142857143,4745.8,296.22232142857143,296.12857142857143,4863.4]","[5820.1,5820.1,2822.9,2006.6,990.6,""smooth"",""left"",""left"",""good_move"",11143.5,5314.6,2501.2,5829,2813.4,""smooth"",""left"",""left"",""good_move"",17438.1,6294.5,2360.8,11143.6,3933.7,""oops"",""left"",""down"",""good_move"",21143.6,3688.5,2948.6,17455.1,739.9,""smooth"",""left"",""left"",""good_move"",27757.1,6602.7,1878.3,21154.4,4724.4,""smooth"",""left"",""down"",""good_move"",31053.4,3304,2677.4,27760.7,626.5,""smooth"",""left"",""down"",""good_move""]"
"15937","","<div style=""width:500px;"">
  <p>What determined the result of this run?</p>
  </div>","63","html-slider-response","24","482292","0.0-7.0-1.2","194","1","2025-08-06 12:00:46","36c45c0696341be0efffe67d72a12abb","105.4.4.84","Mozilla/5.0 (Windows NT 10.0; Win64; x64) AppleWebKit/537.36 (KHTML, like Gecko) Chrome/135.0.0.0 Safari/537.36 OPR/120.0.0.0","WebKit","Opera","120.0.0.0","Windows","10.0","https://app.prolific.com/","en-US,en;q=0.9","67e575f103799e89aacd209c","687a1a965b9f5b85a264363e","68933afa525bfd2bd32a3f62","1","67e575f103799e89aacd209c","1","2025-08-06T12:09:12.999Z","","","","AttribQ","","","","","","","","","","","50","","","","","","","","","","","","","","","","","","","","","","","","","","",""
"9506","","<div style=""width:500px;"">
  <p>How much control did you have over the ball?</p>
  </div>","60","html-slider-response","25","491831","0.0-7.0-2.2","194","1","2025-08-06 12:00:46","36c45c0696341be0efffe67d72a12abb","105.4.4.84","Mozilla/5.0 (Windows NT 10.0; Win64; x64) AppleWebKit/537.36 (KHTML, like Gecko) Chrome/135.0.0.0 Safari/537.36 OPR/120.0.0.0","WebKit","Opera","120.0.0.0","Windows","10.0","https://app.prolific.com/","en-US,en;q=0.9","67e575f103799e89aacd209c","687a1a965b9f5b85a264363e","68933afa525bfd2bd32a3f62","1","67e575f103799e89aacd209c","1","2025-08-06T12:09:22.538Z","","","","ControlQ","","","","","","","","","","","50","","","","","","","","","","","","","","","","","","","","","","","","","","",""
"6219","","<div style=""width:500px;"">
  <p>How would you describe your current emotional state?</p>
  </div>","0","html-slider-response","26","498065","0.0-7.0-3.2","194","1","2025-08-06 12:00:46","36c45c0696341be0efffe67d72a12abb","105.4.4.84","Mozilla/5.0 (Windows NT 10.0; Win64; x64) AppleWebKit/537.36 (KHTML, like Gecko) Chrome/135.0.0.0 Safari/537.36 OPR/120.0.0.0","WebKit","Opera","120.0.0.0","Windows","10.0","https://app.prolific.com/","en-US,en;q=0.9","67e575f103799e89aacd209c","687a1a965b9f5b85a264363e","68933afa525bfd2bd32a3f62","1","67e575f103799e89aacd209c","1","2025-08-06T12:09:28.772Z","","","","StressQ","","","","","","","","","","","50","","","","","","","","","","","","","","","","","","","","","","","","","","",""
"4322","","<div style=""width:500px;"">
  <p>What best describes how you currently feel?</p>
  </div>","98","html-slider-response","27","502403","0.0-7.0-4.2","194","1","2025-08-06 12:00:46","36c45c0696341be0efffe67d72a12abb","105.4.4.84","Mozilla/5.0 (Windows NT 10.0; Win64; x64) AppleWebKit/537.36 (KHTML, like Gecko) Chrome/135.0.0.0 Safari/537.36 OPR/120.0.0.0","WebKit","Opera","120.0.0.0","Windows","10.0","https://app.prolific.com/","en-US,en;q=0.9","67e575f103799e89aacd209c","687a1a965b9f5b85a264363e","68933afa525bfd2bd32a3f62","1","67e575f103799e89aacd209c","1","2025-08-06T12:09:33.111Z","","","","MotivationQ","","","","","","","","","","","50","","","","","","","","","","","","","","","","","","","","","","","","","","",""
"","","","","ctl-task-cpt","28","564980","0.0-7.0-0.3","194","1","2025-08-06 12:00:46","36c45c0696341be0efffe67d72a12abb","105.4.4.84","Mozilla/5.0 (Windows NT 10.0; Win64; x64) AppleWebKit/537.36 (KHTML, like Gecko) Chrome/135.0.0.0 Safari/537.36 OPR/120.0.0.0","WebKit","Opera","120.0.0.0","Windows","10.0","https://app.prolific.com/","en-US,en;q=0.9","67e575f103799e89aacd209c","687a1a965b9f5b85a264363e","68933afa525bfd2bd32a3f62","1","67e575f103799e89aacd209c","1","2025-08-06T12:10:35.687Z","","","","","","","","","","","","","","","","win-only","2","g1:SE,g2:NW","0.7","4","0","530477.9","4052.2","9099.4","59512.9","1","4","8","6","2","8","7","11","4","0.08333333333333333","1352.8","3000","2310","[""left"",""up""]","{""num_key_presses"":9,""num_perfect"":6,""num_errors"":1,""num_randdir"":2,""num_randdir_good_moves"":1,""num_whilered"":0,""num_whileblue"":0,""num_blue"":2,""num_good_moves"":7}","[294.22232142857143,295.12857142857143,18.2,294.22232142857143,295.12857142857143,106.1,294.22232142857143,295.12857142857143,240.4,294.22232142857143,295.12857142857143,383.7,294.22232142857143,295.12857142857143,496.4,294.22232142857143,295.12857142857143,633.3,294.22232142857143,295.12857142857143,750.1,294.22232142857143,295.12857142857143,871.2,35.222321428571426,99.12857142857143,984.9,23.222321428571426,75.12857142857143,1118.7,23.222321428571426,75.12857142857143,1239.6,23.222321428571426,75.12857142857143,1406.6,23.222321428571426,75.12857142857143,1534.1,23.222321428571426,75.12857142857143,1733.8,23.222321428571426,75.12857142857143,1888.5,23.222321428571426,75.12857142857143,2339.9,23.222321428571426,75.12857142857143,2456.3,23.222321428571426,75.12857142857143,2557.6,23.222321428571426,75.12857142857143,2692.4,23.222321428571426,75.12857142857143,2836.5,23.222321428571426,75.12857142857143,2987.7,23.222321428571426,75.12857142857143,3121.7,23.222321428571426,75.12857142857143,3271.9,23.222321428571426,75.12857142857143,3373.6,23.222321428571426,75.12857142857143,3507.6,23.222321428571426,75.12857142857143,3626.5,23.222321428571426,75.12857142857143,3770.7,23.222321428571426,75.12857142857143,3940.2,23.222321428571426,75.12857142857143,4066.3,23.222321428571426,75.12857142857143,4192.8,23.222321428571426,75.12857142857143,4309.6,23.222321428571426,75.12857142857143,4412,23.222321428571426,75.12857142857143,4517.7,23.222321428571426,75.12857142857143,4641.7,23.222321428571426,75.12857142857143,4745.7,23.222321428571426,75.12857142857143,4848.4,23.222321428571426,75.12857142857143,4977.8]","[1701.8,1701.7,1000,0.1,701.7,""smooth"",""up"",""up"",""good_move"",9286.3,7578.4,1970.4,1707.9,5608,""oops"",""up"",""right"",""bad_move"",12668.4,3355.4,2235.5,9313.1,1119.9,""smooth"",""left"",""left"",""good_move"",25756.2,13070.7,1899.2,23306.6,550.5,""smooth"",""left"",""left"",""good_move"",32401.1,6638.6,2714.8,25762.5,3923.8,""smooth"",""left"",""left"",""good_move"",38905.4,6488.4,2857.1,32417,3631.3,""smooth"",""left"",""left"",""good_move"",44176.7,5264.9,1727.4,38911.8,3537.5,""smooth"",""up"",""up"",""good_move"",44869.3,667.6,2473.1,44201.7,-1805.5,""error"",""-"",""-"",""no_move"",49644.2,4774.3,2242.6,45891.4,1510.2,""oops"",""up"",""up"",""good_move""]"
"7029","","<div style=""width:500px;"">
  <p>What determined the result of this run?</p>
  </div>","100","html-slider-response","29","572021","0.0-7.0-1.3","194","1","2025-08-06 12:00:46","36c45c0696341be0efffe67d72a12abb","105.4.4.84","Mozilla/5.0 (Windows NT 10.0; Win64; x64) AppleWebKit/537.36 (KHTML, like Gecko) Chrome/135.0.0.0 Safari/537.36 OPR/120.0.0.0","WebKit","Opera","120.0.0.0","Windows","10.0","https://app.prolific.com/","en-US,en;q=0.9","67e575f103799e89aacd209c","687a1a965b9f5b85a264363e","68933afa525bfd2bd32a3f62","1","67e575f103799e89aacd209c","1","2025-08-06T12:10:42.728Z","","","","AttribQ","","","","","","","","","","","50","","","","","","","","","","","","","","","","","","","","","","","","","","",""
"3561","","<div style=""width:500px;"">
  <p>How much control did you have over the ball?</p>
  </div>","100","html-slider-response","30","575597","0.0-7.0-2.3","194","1","2025-08-06 12:00:46","36c45c0696341be0efffe67d72a12abb","105.4.4.84","Mozilla/5.0 (Windows NT 10.0; Win64; x64) AppleWebKit/537.36 (KHTML, like Gecko) Chrome/135.0.0.0 Safari/537.36 OPR/120.0.0.0","WebKit","Opera","120.0.0.0","Windows","10.0","https://app.prolific.com/","en-US,en;q=0.9","67e575f103799e89aacd209c","687a1a965b9f5b85a264363e","68933afa525bfd2bd32a3f62","1","67e575f103799e89aacd209c","1","2025-08-06T12:10:46.304Z","","","","ControlQ","","","","","","","","","","","50","","","","","","","","","","","","","","","","","","","","","","","","","","",""