"rt","response_timestamp","stimulus","response","trial_type","trial_index","time_elapsed","internal_node_id","run_id","condition","recorded_at","source_code_version","ip","user_agent","device","browser","browser_version","platform","platform_version","referer","accept_language","PROLIFIC_PID","STUDY_ID","SESSION_ID","BATCH","prolific_id","batch","realtime","success","question_order","question_id","eventType","responses","item_order","radio_event_ids","radio_event_times","key_event_times","mouse_event_times","straightlining","zigzagging","honeypot","view_history","slider_start","which_type","canvas_config","goals_layout","control_level","trial_number","tutorial_trial_number","trial_start_time","phase1_start_time","phase2_start_time","phase3_start_time","goal_1_value","goal_1_distance","goal_2_value","goal_2_distance","goal_selected","outcome","outcome_total","participant_final_score","participant_initial_score","participant_final_score_prop","goal_choice_rt","allocated_time","allocated_time_remaining","goal_direction","counts","mouse_movements","key_presses"
"13633","1754511491358","<p style='font-size:40px;line-height:1.25'><strong>Welcome to the experiment!</strong></p><p style='font-size:1.1em;line-height:1.25'>Thank you for participanting in our experiment again! You will be asked to play the Dysfunctional Ball Game again. We will briefly recap the rules before we start.</p><p style='font-size:1.1em;line-height:1.25'>Press <strong>Next</strong> to continue.</p>","0","custom-html-button-response","0","13643","0.0-0.0","218","1","2025-08-06 20:17:54","36c45c0696341be0efffe67d72a12abb","41.193.213.182","Mozilla/5.0 (Windows NT 10.0; Win64; x64) AppleWebKit/537.36 (KHTML, like Gecko) Chrome/138.0.0.0 Safari/537.36 Edg/138.0.0.0","WebKit","Edge","138.0.0.0","Windows","10.0","https://app.prolific.com/","en-US,en;q=0.9","67e94945e5f6a3090ed5a9d0","687a1a965b9f5b85a264363e","6893b861177cfbc233b53752","1","67e94945e5f6a3090ed5a9d0","1","2025-08-06T20:18:11.362Z","","","","","","","","","","","","","","","","","","","","","","","","","","","","","","","","","","","","","","","","","",""
"14871","","","","fullscreen","1","29528","0.0-1.0","218","1","2025-08-06 20:17:54","36c45c0696341be0efffe67d72a12abb","41.193.213.182","Mozilla/5.0 (Windows NT 10.0; Win64; x64) AppleWebKit/537.36 (KHTML, like Gecko) Chrome/138.0.0.0 Safari/537.36 Edg/138.0.0.0","WebKit","Edge","138.0.0.0","Windows","10.0","https://app.prolific.com/","en-US,en;q=0.9","67e94945e5f6a3090ed5a9d0","687a1a965b9f5b85a264363e","6893b861177cfbc233b53752","1","67e94945e5f6a3090ed5a9d0","1","","true","","","","","","","","","","","","","","","","","","","","","","","","","","","","","","","","","","","","","","","","",""
"5797","1754511513046"," <p style='font-size:1.1em;line-height:1.25'>Thank you for closing all other tabs.</p><p style='font-size:1.1em;line-height:1.25'>We will now invite you to fill in some questionnaires, before starting the game.<br>This will take about 5 minutes.<br></p><p style='font-size:1.1em;line-height:1.25'>Press the <strong>Next</strong> button to continue.</p>","0","custom-html-button-response","2","35329","0.0-2.0","218","1","2025-08-06 20:17:54","36c45c0696341be0efffe67d72a12abb","41.193.213.182","Mozilla/5.0 (Windows NT 10.0; Win64; x64) AppleWebKit/537.36 (KHTML, like Gecko) Chrome/138.0.0.0 Safari/537.36 Edg/138.0.0.0","WebKit","Edge","138.0.0.0","Windows","10.0","https://app.prolific.com/","en-US,en;q=0.9","67e94945e5f6a3090ed5a9d0","687a1a965b9f5b85a264363e","6893b861177cfbc233b53752","1","67e94945e5f6a3090ed5a9d0","1","2025-08-06T20:18:33.047Z","","","","","","","","","","","","","","","","","","","","","","","","","","","","","","","","","","","","","","","","","",""
"3712","","","{""assigned_sex"":""female""}","survey-multi-choice","3","39048","0.0-3.0-0.0","218","1","2025-08-06 20:17:54","36c45c0696341be0efffe67d72a12abb","41.193.213.182","Mozilla/5.0 (Windows NT 10.0; Win64; x64) AppleWebKit/537.36 (KHTML, like Gecko) Chrome/138.0.0.0 Safari/537.36 Edg/138.0.0.0","WebKit","Edge","138.0.0.0","Windows","10.0","https://app.prolific.com/","en-US,en;q=0.9","67e94945e5f6a3090ed5a9d0","687a1a965b9f5b85a264363e","6893b861177cfbc233b53752","1","67e94945e5f6a3090ed5a9d0","1","","","[0]","0","demographics","","","","","","","","","","","","","","","","","","","","","","","","","","","","","","","","","","","","","",""
"11680","1754511528449","<p style='font-size:1.1em;line-height:1.25'>In the following, we will perform a baseline assessment. This means that we will ask you a few questions relating to your experiences over the past month.<br></p><p style='font-size:1.1em;line-height:1.25'>Press the <strong>Next</strong> button to continue.</p>","0","custom-html-button-response","4","50732","0.0-4.0-0.0","218","1","2025-08-06 20:17:54","36c45c0696341be0efffe67d72a12abb","41.193.213.182","Mozilla/5.0 (Windows NT 10.0; Win64; x64) AppleWebKit/537.36 (KHTML, like Gecko) Chrome/138.0.0.0 Safari/537.36 Edg/138.0.0.0","WebKit","Edge","138.0.0.0","Windows","10.0","https://app.prolific.com/","en-US,en;q=0.9","67e94945e5f6a3090ed5a9d0","687a1a965b9f5b85a264363e","6893b861177cfbc233b53752","1","67e94945e5f6a3090ed5a9d0","1","2025-08-06T20:18:48.450Z","","","","","","","","","","","","","","","","","","","","","","","","","","","","","","","","","","","","","","","","","",""
"232520.90000009537","","","","survey-template","5","283262","0.0-4.0-1.0","218","1","2025-08-06 20:17:54","36c45c0696341be0efffe67d72a12abb","41.193.213.182","Mozilla/5.0 (Windows NT 10.0; Win64; x64) AppleWebKit/537.36 (KHTML, like Gecko) Chrome/138.0.0.0 Safari/537.36 Edg/138.0.0.0","WebKit","Edge","138.0.0.0","Windows","10.0","https://app.prolific.com/","en-US,en;q=0.9","67e94945e5f6a3090ed5a9d0","687a1a965b9f5b85a264363e","6893b861177cfbc233b53752","1","67e94945e5f6a3090ed5a9d0","1","2025-08-06T20:22:40.980Z","","","","pss","{""Q01"":""3"",""Q02"":""2"",""Q03"":""3"",""Q04"":""2"",""Q05"":""2"",""Q06"":""2"",""Q07"":""2"",""Q08"":""2"",""Q09"":""2"",""Q10"":""2""}","[0,1,2,3,4,5,6,7,8,9]","[""Q01"",""Q02"",""Q03"",""Q04"",""Q05"",""Q06"",""Q07"",""Q08"",""Q09"",""Q10""]","[7167.799999952316,48142.90000009537,78995.5,85813.70000004768,107222.70000004768,153971.40000009537,167422.20000004768,171996.09999990463,221483.90000009537,228826.40000009537]","[]","[0.2999999523162842,7167.799999952316,48142.90000009537,78995.5,85813.70000004768,107222.70000004768,153971.40000009537,167422.20000004768,171996.09999990463,221483.90000009537,228826.40000009537,232515.70000004768]","0.8","0.3333333333333333","0","","","","","","","","","","","","","","","","","","","","","","","","","","","","",""
"3495","1754511764478","<p style='font-size:1.1em;line-height:1.25'>Thank you for your answers! Now we will ask you a few more questions relating to your feelings in the last 24 hours.<br></p><p style='font-size:1.1em;line-height:1.25'>Press the <strong>Next</strong> button to continue.</p>","0","custom-html-button-response","6","286761","0.0-4.0-2.0","218","1","2025-08-06 20:17:54","36c45c0696341be0efffe67d72a12abb","41.193.213.182","Mozilla/5.0 (Windows NT 10.0; Win64; x64) AppleWebKit/537.36 (KHTML, like Gecko) Chrome/138.0.0.0 Safari/537.36 Edg/138.0.0.0","WebKit","Edge","138.0.0.0","Windows","10.0","https://app.prolific.com/","en-US,en;q=0.9","67e94945e5f6a3090ed5a9d0","687a1a965b9f5b85a264363e","6893b861177cfbc233b53752","1","67e94945e5f6a3090ed5a9d0","1","2025-08-06T20:22:44.479Z","","","","","","","","","","","","","","","","","","","","","","","","","","","","","","","","","","","","","","","","","",""
"180406.60000014305","","","","survey-template","7","467179","0.0-4.0-3.0","218","1","2025-08-06 20:17:54","36c45c0696341be0efffe67d72a12abb","41.193.213.182","Mozilla/5.0 (Windows NT 10.0; Win64; x64) AppleWebKit/537.36 (KHTML, like Gecko) Chrome/138.0.0.0 Safari/537.36 Edg/138.0.0.0","WebKit","Edge","138.0.0.0","Windows","10.0","https://app.prolific.com/","en-US,en;q=0.9","67e94945e5f6a3090ed5a9d0","687a1a965b9f5b85a264363e","6893b861177cfbc233b53752","1","67e94945e5f6a3090ed5a9d0","1","2025-08-06T20:25:44.897Z","","","","drsp","{""Q01"":""3"",""Q02"":""0"",""Q03"":""0"",""Q04"":""2"",""Q05"":""2"",""Q06"":""1"",""Q07"":""2"",""Q08"":""1"",""Q09"":""0"",""Q10"":""0"",""Q11"":""2"",""Q12"":""0"",""Q13"":""5"",""Q14"":""1"",""Q15"":""1"",""Q16"":""0"",""Q17"":""1"",""Q18"":""0"",""Q19"":""0"",""Q20"":""0"",""Q21"":""1"",""Q22"":""1""}","[0,1,2,3,4,5,6,7,8,9,10,11,12,13,14,15,16,17,18,19,20,21]","[""Q01"",""Q02"",""Q03"",""Q04"",""Q04"",""Q05"",""Q06"",""Q07"",""Q08"",""Q09"",""Q10"",""Q11"",""Q12"",""Q13"",""Q14"",""Q15"",""Q14"",""Q14"",""Q16"",""Q17"",""Q18"",""Q19"",""Q20"",""Q21"",""Q22""]","[4488,7878.799999952316,9508.600000143051,11718,14725.5,44651,49254.10000014305,53030.60000014305,75690.79999995232,77624.70000004768,86245.10000014305,91236.90000009537,92777.10000014305,94498.40000009537,105978.10000014305,125043.29999995232,129058.10000014305,132162.5,141099.29999995232,143369.20000004768,145334.79999995232,148826.5,158826,162626.60000014305,172501.60000014305]","[]","[0.10000014305114746,4488,7878.799999952316,9508.600000143051,11718,14725.5,44651,49254.10000014305,50815.700000047684,53030.60000014305,75690.79999995232,77624.70000004768,86245.10000014305,91236.90000009537,92777.10000014305,94498.40000009537,105978.10000014305,125043.29999995232,129058.10000014305,132162.5,141099.29999995232,143369.20000004768,145334.79999995232,148826.5,158826,162626.60000014305,172501.60000014305,180393.70000004768]","0.4090909090909091","0.42857142857142855","0","","","","","","","","","","","","","","","","","","","","","","","","","","","","",""
"48732.90000009537","","","","survey-template","8","515917","0.0-4.0-4.0","218","1","2025-08-06 20:17:54","36c45c0696341be0efffe67d72a12abb","41.193.213.182","Mozilla/5.0 (Windows NT 10.0; Win64; x64) AppleWebKit/537.36 (KHTML, like Gecko) Chrome/138.0.0.0 Safari/537.36 Edg/138.0.0.0","WebKit","Edge","138.0.0.0","Windows","10.0","https://app.prolific.com/","en-US,en;q=0.9","67e94945e5f6a3090ed5a9d0","687a1a965b9f5b85a264363e","6893b861177cfbc233b53752","1","67e94945e5f6a3090ed5a9d0","1","2025-08-06T20:26:33.636Z","","","","stress","{""Q01"":""1"",""Q02"":""3"",""Q03"":""0""}","[0,1,2]","[""Q01"",""Q02"",""Q03"",""Q03""]","[14060.400000095367,21412,43483.5,47031.60000014305]","[]","[8026.5,14060.400000095367,21412,43483.5,47031.60000014305,48730.40000009537]","0.3333333333333333","0.5","0","","","","","","","","","","","","","","","","","","","","","","","","","","","","",""
"27804","","","","instructions","9","543726","0.0-5.0-0.0","218","1","2025-08-06 20:17:54","36c45c0696341be0efffe67d72a12abb","41.193.213.182","Mozilla/5.0 (Windows NT 10.0; Win64; x64) AppleWebKit/537.36 (KHTML, like Gecko) Chrome/138.0.0.0 Safari/537.36 Edg/138.0.0.0","WebKit","Edge","138.0.0.0","Windows","10.0","https://app.prolific.com/","en-US,en;q=0.9","67e94945e5f6a3090ed5a9d0","687a1a965b9f5b85a264363e","6893b861177cfbc233b53752","1","67e94945e5f6a3090ed5a9d0","1","","","","","","","","","","","","","","","[{""page_index"":0,""viewing_time"":27803}]","","","","","","","","","","","","","","","","","","","","","","","","","","","",""
"18492","","<p>Before you start with this game please answer the following three questions yourself. </p>
  <p>Through this game, we measure several aspects of your cognitive performance, such as reaction times, multi-tasking capabilities </p>
  <p>and the ability to assess the situation you are in.</p>
  <p></p>
  <p><b>How good do you usually are in such tasks?</b></p>","98","html-slider-response","10","562222","0.0-6.0-0.0","218","1","2025-08-06 20:17:54","36c45c0696341be0efffe67d72a12abb","41.193.213.182","Mozilla/5.0 (Windows NT 10.0; Win64; x64) AppleWebKit/537.36 (KHTML, like Gecko) Chrome/138.0.0.0 Safari/537.36 Edg/138.0.0.0","WebKit","Edge","138.0.0.0","Windows","10.0","https://app.prolific.com/","en-US,en;q=0.9","67e94945e5f6a3090ed5a9d0","687a1a965b9f5b85a264363e","6893b861177cfbc233b53752","1","67e94945e5f6a3090ed5a9d0","1","2025-08-06T20:27:19.940Z","","","","PreSkillQ","","","","","","","","","","","50","","","","","","","","","","","","","","","","","","","","","","","","","","",""
"6988","","<div style=""width:500px;"">
  <p>How well do you think you will perform in this task compared to other participants?</p>
  </div>","98","html-slider-response","11","569214","0.0-6.0-1.0","218","1","2025-08-06 20:17:54","36c45c0696341be0efffe67d72a12abb","41.193.213.182","Mozilla/5.0 (Windows NT 10.0; Win64; x64) AppleWebKit/537.36 (KHTML, like Gecko) Chrome/138.0.0.0 Safari/537.36 Edg/138.0.0.0","WebKit","Edge","138.0.0.0","Windows","10.0","https://app.prolific.com/","en-US,en;q=0.9","67e94945e5f6a3090ed5a9d0","687a1a965b9f5b85a264363e","6893b861177cfbc233b53752","1","67e94945e5f6a3090ed5a9d0","1","2025-08-06T20:27:26.932Z","","","","PrePerfQ","","","","","","","","","","","50","","","","","","","","","","","","","","","","","","","","","","","","","","",""
"10337","","<div style=""width:500px;"">
  <p>What best describes how you currently feel?</p>
  </div>","9","html-slider-response","12","579554","0.0-6.0-2.0","218","1","2025-08-06 20:17:54","36c45c0696341be0efffe67d72a12abb","41.193.213.182","Mozilla/5.0 (Windows NT 10.0; Win64; x64) AppleWebKit/537.36 (KHTML, like Gecko) Chrome/138.0.0.0 Safari/537.36 Edg/138.0.0.0","WebKit","Edge","138.0.0.0","Windows","10.0","https://app.prolific.com/","en-US,en;q=0.9","67e94945e5f6a3090ed5a9d0","687a1a965b9f5b85a264363e","6893b861177cfbc233b53752","1","67e94945e5f6a3090ed5a9d0","1","2025-08-06T20:27:37.272Z","","","","PreMotivationQ","","","","","","","","","","","50","","","","","","","","","","","","","","","","","","","","","","","","","","",""
"","","","","ctl-task-cpt","13","614585","0.0-7.0-0.0","218","1","2025-08-06 20:17:54","36c45c0696341be0efffe67d72a12abb","41.193.213.182","Mozilla/5.0 (Windows NT 10.0; Win64; x64) AppleWebKit/537.36 (KHTML, like Gecko) Chrome/138.0.0.0 Safari/537.36 Edg/138.0.0.0","WebKit","Edge","138.0.0.0","Windows","10.0","https://app.prolific.com/","en-US,en;q=0.9","67e94945e5f6a3090ed5a9d0","687a1a965b9f5b85a264363e","6893b861177cfbc233b53752","1","67e94945e5f6a3090ed5a9d0","1","2025-08-06T20:28:12.304Z","","","","","","","","","","","","","","","","win-only","2","g1:SE,g2:NW","1","1","0","583165.4","1731","6742.8","32018.8","1","4","8","6","2","8","8","8","0","0.06060606060606061","1360.8","3000","1070","[""left"",""up""]","{""num_key_presses"":6,""num_perfect"":6,""num_errors"":0,""num_randdir"":0,""num_randdir_good_moves"":0,""num_whilered"":0,""num_whileblue"":0,""num_blue"":3,""num_good_moves"":6}","[303.22232142857143,303.12857142857143,0.8,303.22232142857143,303.12857142857143,107.9,303.22232142857143,303.12857142857143,212.6,303.22232142857143,303.12857142857143,314.9,303.22232142857143,303.12857142857143,415.1,303.22232142857143,303.12857142857143,515.1,303.22232142857143,303.12857142857143,620.9,303.22232142857143,303.12857142857143,721,303.22232142857143,303.12857142857143,828,183.22232142857143,213.12857142857143,930.1,44.222321428571426,90.12857142857143,1036,40.222321428571426,84.12857142857143,1145.7,40.222321428571426,84.12857142857143,1251.4,40.222321428571426,84.12857142857143,1366.2,40.222321428571426,84.12857142857143,1470.4,40.222321428571426,84.12857142857143,1579.9,40.222321428571426,84.12857142857143,1680,40.222321428571426,84.12857142857143,1781.1,40.222321428571426,84.12857142857143,1885.1,40.222321428571426,84.12857142857143,1985,40.222321428571426,84.12857142857143,2085.2,40.222321428571426,84.12857142857143,2185.2,40.222321428571426,84.12857142857143,2294.5,40.222321428571426,84.12857142857143,2395.2,40.222321428571426,84.12857142857143,2495.6,40.222321428571426,84.12857142857143,2600.1,40.222321428571426,84.12857142857143,2700.1,40.222321428571426,84.12857142857143,2810.4,40.222321428571426,84.12857142857143,2910.6,40.222321428571426,84.12857142857143,3014.7,40.222321428571426,84.12857142857143,3114.8,40.222321428571426,84.12857142857143,3216,40.222321428571426,84.12857142857143,3316.1,40.222321428571426,84.12857142857143,3421.1,40.222321428571426,84.12857142857143,3526.8,40.222321428571426,84.12857142857143,3626.8,40.222321428571426,84.12857142857143,3727,40.222321428571426,84.12857142857143,3827.4,40.222321428571426,84.12857142857143,3930.1,40.222321428571426,84.12857142857143,4031.2,40.222321428571426,84.12857142857143,4134.8,40.222321428571426,84.12857142857143,4235,40.222321428571426,84.12857142857143,4343.1,40.222321428571426,84.12857142857143,4443.5,40.222321428571426,84.12857142857143,4544.9,40.222321428571426,84.12857142857143,4645,40.222321428571426,84.12857142857143,4745.2,40.222321428571426,84.12857142857143,4849.9,40.222321428571426,84.12857142857143,4950]","[7775.2,7775.2,2086.4,5273.9,414.9,""smooth"",""up"",""up"",""good_move"",10750.9,2973.9,2578,7777,395.9,""smooth"",""up"",""up"",""good_move"",13849.8,3098.5,2747.2,10751.4,351.3,""smooth"",""up"",""up"",""good_move"",16469.1,2616.9,2279.2,13852.2,337.7,""smooth"",""left"",""left"",""good_move"",18822.9,2352.1,1995.2,16470.9,356.8,""smooth"",""left"",""left"",""good_move"",25164.9,6340.6,2407.5,22353.3,404.1,""smooth"",""left"",""left"",""good_move""]"
"5143","","<div style=""width:500px;"">
  <p>What determined the result of this run?</p>
  </div>","100","html-slider-response","14","619732","0.0-7.0-1.0","218","1","2025-08-06 20:17:54","36c45c0696341be0efffe67d72a12abb","41.193.213.182","Mozilla/5.0 (Windows NT 10.0; Win64; x64) AppleWebKit/537.36 (KHTML, like Gecko) Chrome/138.0.0.0 Safari/537.36 Edg/138.0.0.0","WebKit","Edge","138.0.0.0","Windows","10.0","https://app.prolific.com/","en-US,en;q=0.9","67e94945e5f6a3090ed5a9d0","687a1a965b9f5b85a264363e","6893b861177cfbc233b53752","1","67e94945e5f6a3090ed5a9d0","1","2025-08-06T20:28:17.450Z","","","","AttribQ","","","","","","","","","","","50","","","","","","","","","","","","","","","","","","","","","","","","","","",""
"5569","","<div style=""width:500px;"">
  <p>How much control did you have over the ball?</p>
  </div>","100","html-slider-response","15","625304","0.0-7.0-2.0","218","1","2025-08-06 20:17:54","36c45c0696341be0efffe67d72a12abb","41.193.213.182","Mozilla/5.0 (Windows NT 10.0; Win64; x64) AppleWebKit/537.36 (KHTML, like Gecko) Chrome/138.0.0.0 Safari/537.36 Edg/138.0.0.0","WebKit","Edge","138.0.0.0","Windows","10.0","https://app.prolific.com/","en-US,en;q=0.9","67e94945e5f6a3090ed5a9d0","687a1a965b9f5b85a264363e","6893b861177cfbc233b53752","1","67e94945e5f6a3090ed5a9d0","1","2025-08-06T20:28:23.022Z","","","","ControlQ","","","","","","","","","","","50","","","","","","","","","","","","","","","","","","","","","","","","","","",""
"8198","","<div style=""width:500px;"">
  <p>How would you describe your current emotional state?</p>
  </div>","29","html-slider-response","16","633505","0.0-7.0-3.0","218","1","2025-08-06 20:17:54","36c45c0696341be0efffe67d72a12abb","41.193.213.182","Mozilla/5.0 (Windows NT 10.0; Win64; x64) AppleWebKit/537.36 (KHTML, like Gecko) Chrome/138.0.0.0 Safari/537.36 Edg/138.0.0.0","WebKit","Edge","138.0.0.0","Windows","10.0","https://app.prolific.com/","en-US,en;q=0.9","67e94945e5f6a3090ed5a9d0","687a1a965b9f5b85a264363e","6893b861177cfbc233b53752","1","67e94945e5f6a3090ed5a9d0","1","2025-08-06T20:28:31.224Z","","","","StressQ","","","","","","","","","","","50","","","","","","","","","","","","","","","","","","","","","","","","","","",""
"5581","","<div style=""width:500px;"">
  <p>What best describes how you currently feel?</p>
  </div>","22","html-slider-response","17","639090","0.0-7.0-4.0","218","1","2025-08-06 20:17:54","36c45c0696341be0efffe67d72a12abb","41.193.213.182","Mozilla/5.0 (Windows NT 10.0; Win64; x64) AppleWebKit/537.36 (KHTML, like Gecko) Chrome/138.0.0.0 Safari/537.36 Edg/138.0.0.0","WebKit","Edge","138.0.0.0","Windows","10.0","https://app.prolific.com/","en-US,en;q=0.9","67e94945e5f6a3090ed5a9d0","687a1a965b9f5b85a264363e","6893b861177cfbc233b53752","1","67e94945e5f6a3090ed5a9d0","1","2025-08-06T20:28:36.808Z","","","","MotivationQ","","","","","","","","","","","50","","","","","","","","","","","","","","","","","","","","","","","","","","",""
"","","","","ctl-task-cpt","18","668148","0.0-7.0-0.1","218","1","2025-08-06 20:17:54","36c45c0696341be0efffe67d72a12abb","41.193.213.182","Mozilla/5.0 (Windows NT 10.0; Win64; x64) AppleWebKit/537.36 (KHTML, like Gecko) Chrome/138.0.0.0 Safari/537.36 Edg/138.0.0.0","WebKit","Edge","138.0.0.0","Windows","10.0","https://app.prolific.com/","en-US,en;q=0.9","67e94945e5f6a3090ed5a9d0","687a1a965b9f5b85a264363e","6893b861177cfbc233b53752","1","67e94945e5f6a3090ed5a9d0","1","2025-08-06T20:29:05.866Z","","","","","","","","","","","","","","","","win-only","2","g1:SE,g2:NW","0.9","2","0","642697.2","1124.3","6126.4","26041.6","1","4","4","6","2","4","4","12","8","0.09090909090909091","1104.8","3000","1030","[""left"",""up""]","{""num_key_presses"":6,""num_perfect"":5,""num_errors"":0,""num_randdir"":1,""num_randdir_good_moves"":1,""num_whilered"":0,""num_whileblue"":0,""num_blue"":1,""num_good_moves"":6}","[302.22232142857143,302.12857142857143,2.2,302.22232142857143,302.12857142857143,108.7,302.22232142857143,302.12857142857143,215.6,302.22232142857143,302.12857142857143,316.8,302.22232142857143,302.12857142857143,416.8,302.22232142857143,302.12857142857143,520,252.22232142857143,267.12857142857143,621.2,55.222321428571426,99.12857142857143,721.7,48.222321428571426,85.12857142857143,822.5,48.222321428571426,85.12857142857143,923.2,48.222321428571426,85.12857142857143,1025.8,48.222321428571426,85.12857142857143,1127.5,48.222321428571426,85.12857142857143,1234.4,48.222321428571426,85.12857142857143,1340,48.222321428571426,85.12857142857143,1442.3,48.222321428571426,85.12857142857143,1542.4,48.222321428571426,85.12857142857143,1647.6,48.222321428571426,85.12857142857143,1750.8,48.222321428571426,85.12857142857143,1851.9,48.222321428571426,85.12857142857143,1952.2,48.222321428571426,85.12857142857143,2052.5,48.222321428571426,85.12857142857143,2156.9,48.222321428571426,85.12857142857143,2266.8,48.222321428571426,85.12857142857143,2370,48.222321428571426,85.12857142857143,2472.2,48.222321428571426,85.12857142857143,2573.3,48.222321428571426,85.12857142857143,2677.4,48.222321428571426,85.12857142857143,2777.4,48.222321428571426,85.12857142857143,2884.7,48.222321428571426,85.12857142857143,2987.2,48.222321428571426,85.12857142857143,3092,48.222321428571426,85.12857142857143,3192.3,48.222321428571426,85.12857142857143,3292.3,48.222321428571426,85.12857142857143,3392.4,48.222321428571426,85.12857142857143,3496.7,48.222321428571426,85.12857142857143,3597.9,48.222321428571426,85.12857142857143,3700.3,48.222321428571426,85.12857142857143,3800.4,48.222321428571426,85.12857142857143,3904.7,48.222321428571426,85.12857142857143,4007.2,48.222321428571426,85.12857142857143,4107.3,48.222321428571426,85.12857142857143,4216.9,48.222321428571426,85.12857142857143,4323.4,48.222321428571426,85.12857142857143,4427.3,48.222321428571426,85.12857142857143,4535.7,48.222321428571426,85.12857142857143,4635.7,48.222321428571426,85.12857142857143,4736.7,48.222321428571426,85.12857142857143,4842.1,48.222321428571426,85.12857142857143,4943.5]","[1448.2,1448.2,1000,0,448.2,""oops"",""up"",""left"",""good_move"",4569,3118.5,2768.3,1450.6,350.2,""smooth"",""up"",""up"",""good_move"",7383.6,2812.6,2471.2,4571,341.4,""smooth"",""up"",""up"",""good_move"",10386.4,3001.2,2648.4,7385.3,352.7,""smooth"",""up"",""up"",""good_move"",16230.5,5842.5,2389.1,13405.8,435.6,""smooth"",""left"",""left"",""good_move"",19802,3570.4,3220.5,16231.6,349.9,""smooth"",""left"",""left"",""good_move""]"
"4253","","<div style=""width:500px;"">
  <p>What determined the result of this run?</p>
  </div>","100","html-slider-response","19","672403","0.0-7.0-1.1","218","1","2025-08-06 20:17:54","36c45c0696341be0efffe67d72a12abb","41.193.213.182","Mozilla/5.0 (Windows NT 10.0; Win64; x64) AppleWebKit/537.36 (KHTML, like Gecko) Chrome/138.0.0.0 Safari/537.36 Edg/138.0.0.0","WebKit","Edge","138.0.0.0","Windows","10.0","https://app.prolific.com/","en-US,en;q=0.9","67e94945e5f6a3090ed5a9d0","687a1a965b9f5b85a264363e","6893b861177cfbc233b53752","1","67e94945e5f6a3090ed5a9d0","1","2025-08-06T20:29:10.121Z","","","","AttribQ","","","","","","","","","","","50","","","","","","","","","","","","","","","","","","","","","","","","","","",""
"3968","","<div style=""width:500px;"">
  <p>How much control did you have over the ball?</p>
  </div>","91","html-slider-response","20","676373","0.0-7.0-2.1","218","1","2025-08-06 20:17:54","36c45c0696341be0efffe67d72a12abb","41.193.213.182","Mozilla/5.0 (Windows NT 10.0; Win64; x64) AppleWebKit/537.36 (KHTML, like Gecko) Chrome/138.0.0.0 Safari/537.36 Edg/138.0.0.0","WebKit","Edge","138.0.0.0","Windows","10.0","https://app.prolific.com/","en-US,en;q=0.9","67e94945e5f6a3090ed5a9d0","687a1a965b9f5b85a264363e","6893b861177cfbc233b53752","1","67e94945e5f6a3090ed5a9d0","1","2025-08-06T20:29:14.092Z","","","","ControlQ","","","","","","","","","","","50","","","","","","","","","","","","","","","","","","","","","","","","","","",""
"4617","","<div style=""width:500px;"">
  <p>How would you describe your current emotional state?</p>
  </div>","19","html-slider-response","21","680993","0.0-7.0-3.1","218","1","2025-08-06 20:17:54","36c45c0696341be0efffe67d72a12abb","41.193.213.182","Mozilla/5.0 (Windows NT 10.0; Win64; x64) AppleWebKit/537.36 (KHTML, like Gecko) Chrome/138.0.0.0 Safari/537.36 Edg/138.0.0.0","WebKit","Edge","138.0.0.0","Windows","10.0","https://app.prolific.com/","en-US,en;q=0.9","67e94945e5f6a3090ed5a9d0","687a1a965b9f5b85a264363e","6893b861177cfbc233b53752","1","67e94945e5f6a3090ed5a9d0","1","2025-08-06T20:29:18.711Z","","","","StressQ","","","","","","","","","","","50","","","","","","","","","","","","","","","","","","","","","","","","","","",""
"3952","","<div style=""width:500px;"">
  <p>What best describes how you currently feel?</p>
  </div>","19","html-slider-response","22","684950","0.0-7.0-4.1","218","1","2025-08-06 20:17:54","36c45c0696341be0efffe67d72a12abb","41.193.213.182","Mozilla/5.0 (Windows NT 10.0; Win64; x64) AppleWebKit/537.36 (KHTML, like Gecko) Chrome/138.0.0.0 Safari/537.36 Edg/138.0.0.0","WebKit","Edge","138.0.0.0","Windows","10.0","https://app.prolific.com/","en-US,en;q=0.9","67e94945e5f6a3090ed5a9d0","687a1a965b9f5b85a264363e","6893b861177cfbc233b53752","1","67e94945e5f6a3090ed5a9d0","1","2025-08-06T20:29:22.668Z","","","","MotivationQ","","","","","","","","","","","50","","","","","","","","","","","","","","","","","","","","","","","","","","",""
"","","","","ctl-task-cpt","23","733573","0.0-7.0-0.2","218","1","2025-08-06 20:17:54","36c45c0696341be0efffe67d72a12abb","41.193.213.182","Mozilla/5.0 (Windows NT 10.0; Win64; x64) AppleWebKit/537.36 (KHTML, like Gecko) Chrome/138.0.0.0 Safari/537.36 Edg/138.0.0.0","WebKit","Edge","138.0.0.0","Windows","10.0","https://app.prolific.com/","en-US,en;q=0.9","67e94945e5f6a3090ed5a9d0","687a1a965b9f5b85a264363e","6893b861177cfbc233b53752","1","67e94945e5f6a3090ed5a9d0","1","2025-08-06T20:30:11.291Z","","","","","","","","","","","","","","","","win-only","1","g1:NE,g2:SW","0.8","3","0","688559.7","1280.5","6287.2","45596.7","1","4","4","6","2","-4","-4","8","12","0.06060606060606061","1570.5","3000","-2925","[""down"",""left""]","{""num_key_presses"":9,""num_perfect"":7,""num_errors"":0,""num_randdir"":2,""num_randdir_good_moves"":0,""num_whilered"":0,""num_whileblue"":0,""num_blue"":3,""num_good_moves"":7}","[294.22232142857143,299.12857142857143,1.1,294.22232142857143,299.12857142857143,102.8,294.22232142857143,299.12857142857143,211,294.22232142857143,299.12857142857143,314.9,294.22232142857143,299.12857142857143,416.7,294.22232142857143,299.12857142857143,521.8,294.22232142857143,299.12857142857143,625.2,240.22232142857143,359.12857142857143,728.5,146.22232142857143,457.12857142857143,835,114.22232142857143,503.12857142857143,935.2,104.22232142857143,510.12857142857143,1036.4,97.22232142857143,513.1285714285714,1141.3,87.22232142857143,514.1285714285714,1248.8,84.22232142857143,514.1285714285714,1352,84.22232142857143,514.1285714285714,1456.1,84.22232142857143,514.1285714285714,1565.9,84.22232142857143,514.1285714285714,1671,84.22232142857143,514.1285714285714,1770.9,84.22232142857143,514.1285714285714,1872.1,84.22232142857143,514.1285714285714,1980,84.22232142857143,514.1285714285714,2080.5,84.22232142857143,514.1285714285714,2180.9,84.22232142857143,514.1285714285714,2285.9,84.22232142857143,514.1285714285714,2397,84.22232142857143,514.1285714285714,2498.9,84.22232142857143,514.1285714285714,2600.4,84.22232142857143,514.1285714285714,2700.7,84.22232142857143,514.1285714285714,2800.8,84.22232142857143,514.1285714285714,2905.8,84.22232142857143,514.1285714285714,3006.9,84.22232142857143,514.1285714285714,3108.4,84.22232142857143,514.1285714285714,3211.6,84.22232142857143,514.1285714285714,3311.7,84.22232142857143,514.1285714285714,3417,84.22232142857143,514.1285714285714,3521,84.22232142857143,514.1285714285714,3621.8,84.22232142857143,514.1285714285714,3729.3,84.22232142857143,514.1285714285714,3834.8,84.22232142857143,514.1285714285714,3936,84.22232142857143,514.1285714285714,4036.6,84.22232142857143,514.1285714285714,4141.5,84.22232142857143,514.1285714285714,4249.3,84.22232142857143,514.1285714285714,4351.1,84.22232142857143,514.1285714285714,4456.2,84.22232142857143,514.1285714285714,4561.7,84.22232142857143,514.1285714285714,4666.8,84.22232142857143,514.1285714285714,4767.2,84.22232142857143,514.1285714285714,4871.1,84.22232142857143,514.1285714285714,4975.5]","[1408.4,1408.4,1000,0,408.4,""smooth"",""down"",""down"",""good_move"",4661.6,3251.6,2890.4,1410,361.2,""smooth"",""down"",""down"",""good_move"",7343.2,2679.7,2299.7,4663.6,379.9,""smooth"",""down"",""down"",""good_move"",10244.8,2900.3,2558.2,7344.5,342.1,""oops"",""left"",""right"",""bad_move"",14088.3,3841.8,3505.8,10246.5,336,""smooth"",""left"",""left"",""good_move"",21387.4,7296.9,3377.4,17655,355.1,""smooth"",""left"",""left"",""good_move"",23626.2,2237.6,1825.4,21388.6,412.2,""oops"",""left"",""right"",""bad_move"",26623,2994.9,2623.2,23628.2,371.6,""smooth"",""left"",""left"",""good_move"",29794.8,3170.5,2883.4,26624.3,287.1,""smooth"",""left"",""left"",""good_move""]"
"8123","","<div style=""width:500px;"">
  <p>What determined the result of this run?</p>
  </div>","97","html-slider-response","24","741698","0.0-7.0-1.2","218","1","2025-08-06 20:17:54","36c45c0696341be0efffe67d72a12abb","41.193.213.182","Mozilla/5.0 (Windows NT 10.0; Win64; x64) AppleWebKit/537.36 (KHTML, like Gecko) Chrome/138.0.0.0 Safari/537.36 Edg/138.0.0.0","WebKit","Edge","138.0.0.0","Windows","10.0","https://app.prolific.com/","en-US,en;q=0.9","67e94945e5f6a3090ed5a9d0","687a1a965b9f5b85a264363e","6893b861177cfbc233b53752","1","67e94945e5f6a3090ed5a9d0","1","2025-08-06T20:30:19.416Z","","","","AttribQ","","","","","","","","","","","50","","","","","","","","","","","","","","","","","","","","","","","","","","",""
"5698","","<div style=""width:500px;"">
  <p>How much control did you have over the ball?</p>
  </div>","82","html-slider-response","25","747399","0.0-7.0-2.2","218","1","2025-08-06 20:17:54","36c45c0696341be0efffe67d72a12abb","41.193.213.182","Mozilla/5.0 (Windows NT 10.0; Win64; x64) AppleWebKit/537.36 (KHTML, like Gecko) Chrome/138.0.0.0 Safari/537.36 Edg/138.0.0.0","WebKit","Edge","138.0.0.0","Windows","10.0","https://app.prolific.com/","en-US,en;q=0.9","67e94945e5f6a3090ed5a9d0","687a1a965b9f5b85a264363e","6893b861177cfbc233b53752","1","67e94945e5f6a3090ed5a9d0","1","2025-08-06T20:30:25.117Z","","","","ControlQ","","","","","","","","","","","50","","","","","","","","","","","","","","","","","","","","","","","","","","",""
"3876","","<div style=""width:500px;"">
  <p>How would you describe your current emotional state?</p>
  </div>","19","html-slider-response","26","751279","0.0-7.0-3.2","218","1","2025-08-06 20:17:54","36c45c0696341be0efffe67d72a12abb","41.193.213.182","Mozilla/5.0 (Windows NT 10.0; Win64; x64) AppleWebKit/537.36 (KHTML, like Gecko) Chrome/138.0.0.0 Safari/537.36 Edg/138.0.0.0","WebKit","Edge","138.0.0.0","Windows","10.0","https://app.prolific.com/","en-US,en;q=0.9","67e94945e5f6a3090ed5a9d0","687a1a965b9f5b85a264363e","6893b861177cfbc233b53752","1","67e94945e5f6a3090ed5a9d0","1","2025-08-06T20:30:28.997Z","","","","StressQ","","","","","","","","","","","50","","","","","","","","","","","","","","","","","","","","","","","","","","",""
"7594","","<div style=""width:500px;"">
  <p>What best describes how you currently feel?</p>
  </div>","18","html-slider-response","27","758876","0.0-7.0-4.2","218","1","2025-08-06 20:17:54","36c45c0696341be0efffe67d72a12abb","41.193.213.182","Mozilla/5.0 (Windows NT 10.0; Win64; x64) AppleWebKit/537.36 (KHTML, like Gecko) Chrome/138.0.0.0 Safari/537.36 Edg/138.0.0.0","WebKit","Edge","138.0.0.0","Windows","10.0","https://app.prolific.com/","en-US,en;q=0.9","67e94945e5f6a3090ed5a9d0","687a1a965b9f5b85a264363e","6893b861177cfbc233b53752","1","67e94945e5f6a3090ed5a9d0","1","2025-08-06T20:30:36.594Z","","","","MotivationQ","","","","","","","","","","","50","","","","","","","","","","","","","","","","","","","","","","","","","","",""
"","","","","ctl-task-cpt","28","797396","0.0-7.0-0.3","218","1","2025-08-06 20:17:54","36c45c0696341be0efffe67d72a12abb","41.193.213.182","Mozilla/5.0 (Windows NT 10.0; Win64; x64) AppleWebKit/537.36 (KHTML, like Gecko) Chrome/138.0.0.0 Safari/537.36 Edg/138.0.0.0","WebKit","Edge","138.0.0.0","Windows","10.0","https://app.prolific.com/","en-US,en;q=0.9","67e94945e5f6a3090ed5a9d0","687a1a965b9f5b85a264363e","6893b861177cfbc233b53752","1","67e94945e5f6a3090ed5a9d0","1","2025-08-06T20:31:15.114Z","","","","","","","","","","","","","","","","win-only","0","g1:NW,g2:SE","0.7","4","0","762484.6","1266","6272","35498.1","1","4","8","6","2","8","7","15","8","0.11363636363636363","1323.1","3000","540","[""down"",""right""]","{""num_key_presses"":10,""num_perfect"":6,""num_errors"":1,""num_randdir"":3,""num_randdir_good_moves"":2,""num_whilered"":0,""num_whileblue"":1,""num_blue"":2,""num_good_moves"":8}","[298.22232142857143,296.12857142857143,1.1,298.22232142857143,296.12857142857143,100.5,298.22232142857143,296.12857142857143,204.7,298.22232142857143,296.12857142857143,306,298.22232142857143,296.12857142857143,406.6,298.22232142857143,296.12857142857143,517.3,298.22232142857143,296.12857142857143,620.5,298.22232142857143,296.12857142857143,723.8,463.22232142857143,462.12857142857143,826.1,531.2223214285714,556.1285714285714,955,533.2223214285714,557.1285714285714,1055.8,537.2223214285714,559.1285714285714,1155.8,537.2223214285714,559.1285714285714,1260.6,537.2223214285714,559.1285714285714,1364.6,537.2223214285714,559.1285714285714,1478.9,537.2223214285714,559.1285714285714,1581.6,537.2223214285714,559.1285714285714,1687,537.2223214285714,559.1285714285714,1790.2,537.2223214285714,559.1285714285714,1891.2,537.2223214285714,559.1285714285714,2005.5,537.2223214285714,559.1285714285714,2106.3,537.2223214285714,559.1285714285714,2210.5,537.2223214285714,559.1285714285714,2318.5,537.2223214285714,559.1285714285714,2420.4,537.2223214285714,559.1285714285714,2524.7,537.2223214285714,559.1285714285714,2625.3,537.2223214285714,559.1285714285714,2736,537.2223214285714,559.1285714285714,2837.2,537.2223214285714,559.1285714285714,2939.9,537.2223214285714,559.1285714285714,3040.8,537.2223214285714,559.1285714285714,3141.3,537.2223214285714,559.1285714285714,3241.5,537.2223214285714,559.1285714285714,3351.3,537.2223214285714,559.1285714285714,3455.4,537.2223214285714,559.1285714285714,3556.3,537.2223214285714,559.1285714285714,3667.1,537.2223214285714,559.1285714285714,3773.8,537.2223214285714,559.1285714285714,3876.4,537.2223214285714,559.1285714285714,3985.5,537.2223214285714,559.1285714285714,4085.9,537.2223214285714,559.1285714285714,4191.3,537.2223214285714,559.1285714285714,4295.8,537.2223214285714,559.1285714285714,4399.6,537.2223214285714,559.1285714285714,4500.3,537.2223214285714,559.1285714285714,4600.5,537.2223214285714,559.1285714285714,4705.5,537.2223214285714,559.1285714285714,4814.6,537.2223214285714,559.1285714285714,4916.4]","[1381.9,1381.9,1000,0,381.9,""smooth"",""down"",""down"",""good_move"",4814.1,3429.9,3106.6,1384.2,323.3,""while_blue"",""down"",""up"",""bad_move"",7390.7,2574.6,2167.8,4816.1,406.8,""smooth"",""down"",""down"",""good_move"",9542.2,2147.6,1765.9,7394.6,381.7,""oops"",""down"",""left"",""bad_move"",12548.1,3003.1,2675.4,9545,327.7,""oops"",""down"",""down"",""good_move"",15976.9,3426.9,3069.9,12550,357,""smooth"",""down"",""down"",""good_move"",19310.5,3332,3016.2,15978.7,315.7,""oops"",""right"",""right"",""good_move"",21949.6,2636.2,2300.9,19313.5,335.2,""smooth"",""right"",""right"",""good_move"",24240.1,2288.9,1969,21951.2,319.9,""smooth"",""right"",""right"",""good_move"",29109.3,4867.2,1533.9,27189.2,386.2,""smooth"",""right"",""right"",""good_move""]"
"4612","","<div style=""width:500px;"">
  <p>What determined the result of this run?</p>
  </div>","99","html-slider-response","29","802011","0.0-7.0-1.3","218","1","2025-08-06 20:17:54","36c45c0696341be0efffe67d72a12abb","41.193.213.182","Mozilla/5.0 (Windows NT 10.0; Win64; x64) AppleWebKit/537.36 (KHTML, like Gecko) Chrome/138.0.0.0 Safari/537.36 Edg/138.0.0.0","WebKit","Edge","138.0.0.0","Windows","10.0","https://app.prolific.com/","en-US,en;q=0.9","67e94945e5f6a3090ed5a9d0","687a1a965b9f5b85a264363e","6893b861177cfbc233b53752","1","67e94945e5f6a3090ed5a9d0","1","2025-08-06T20:31:19.729Z","","","","AttribQ","","","","","","","","","","","50","","","","","","","","","","","","","","","","","","","","","","","","","","",""
"5697","","<div style=""width:500px;"">
  <p>How much control did you have over the ball?</p>
  </div>","89","html-slider-response","30","807710","0.0-7.0-2.3","218","1","2025-08-06 20:17:54","36c45c0696341be0efffe67d72a12abb","41.193.213.182","Mozilla/5.0 (Windows NT 10.0; Win64; x64) AppleWebKit/537.36 (KHTML, like Gecko) Chrome/138.0.0.0 Safari/537.36 Edg/138.0.0.0","WebKit","Edge","138.0.0.0","Windows","10.0","https://app.prolific.com/","en-US,en;q=0.9","67e94945e5f6a3090ed5a9d0","687a1a965b9f5b85a264363e","6893b861177cfbc233b53752","1","67e94945e5f6a3090ed5a9d0","1","2025-08-06T20:31:25.428Z","","","","ControlQ","","","","","","","","","","","50","","","","","","","","","","","","","","","","","","","","","","","","","","",""
"3478","","<div style=""width:500px;"">
  <p>How would you describe your current emotional state?</p>
  </div>","17","html-slider-response","31","811191","0.0-7.0-3.3","218","1","2025-08-06 20:17:54","36c45c0696341be0efffe67d72a12abb","41.193.213.182","Mozilla/5.0 (Windows NT 10.0; Win64; x64) AppleWebKit/537.36 (KHTML, like Gecko) Chrome/138.0.0.0 Safari/537.36 Edg/138.0.0.0","WebKit","Edge","138.0.0.0","Windows","10.0","https://app.prolific.com/","en-US,en;q=0.9","67e94945e5f6a3090ed5a9d0","687a1a965b9f5b85a264363e","6893b861177cfbc233b53752","1","67e94945e5f6a3090ed5a9d0","1","2025-08-06T20:31:28.909Z","","","","StressQ","","","","","","","","","","","50","","","","","","","","","","","","","","","","","","","","","","","","","","",""
"2935","","<div style=""width:500px;"">
  <p>What best describes how you currently feel?</p>
  </div>","19","html-slider-response","32","814129","0.0-7.0-4.3","218","1","2025-08-06 20:17:54","36c45c0696341be0efffe67d72a12abb","41.193.213.182","Mozilla/5.0 (Windows NT 10.0; Win64; x64) AppleWebKit/537.36 (KHTML, like Gecko) Chrome/138.0.0.0 Safari/537.36 Edg/138.0.0.0","WebKit","Edge","138.0.0.0","Windows","10.0","https://app.prolific.com/","en-US,en;q=0.9","67e94945e5f6a3090ed5a9d0","687a1a965b9f5b85a264363e","6893b861177cfbc233b53752","1","67e94945e5f6a3090ed5a9d0","1","2025-08-06T20:31:31.848Z","","","","MotivationQ","","","","","","","","","","","50","","","","","","","","","","","","","","","","","","","","","","","","","","",""
"","","","","ctl-task-cpt","33","870211","0.0-7.0-0.4","218","1","2025-08-06 20:17:54","36c45c0696341be0efffe67d72a12abb","41.193.213.182","Mozilla/5.0 (Windows NT 10.0; Win64; x64) AppleWebKit/537.36 (KHTML, like Gecko) Chrome/138.0.0.0 Safari/537.36 Edg/138.0.0.0","WebKit","Edge","138.0.0.0","Windows","10.0","https://app.prolific.com/","en-US,en;q=0.9","67e94945e5f6a3090ed5a9d0","687a1a965b9f5b85a264363e","6893b861177cfbc233b53752","1","67e94945e5f6a3090ed5a9d0","1","2025-08-06T20:32:27.930Z","","","","","","","","","","","","","","","","win-only","1","g1:NE,g2:SW","0.6","5","0","817740.1","1437.7","6444.2","53058.2","1","4","8","6","2","-8","-9","6","15","0.045454545454545456","1288.6","3000","-2110","[""down"",""left""]","{""num_key_presses"":12,""num_perfect"":6,""num_errors"":1,""num_randdir"":5,""num_randdir_good_moves"":1,""num_whilered"":0,""num_whileblue"":0,""num_blue"":3,""num_good_moves"":7}","[299.22232142857143,290.12857142857143,1,299.22232142857143,290.12857142857143,100.1,299.22232142857143,290.12857142857143,200.6,299.22232142857143,290.12857142857143,309.4,299.22232142857143,290.12857142857143,409.5,299.22232142857143,290.12857142857143,510.8,299.22232142857143,290.12857142857143,614.7,191.22232142857143,409.12857142857143,734.2,120.22232142857143,484.12857142857143,836.5,65.22232142857143,516.1285714285714,942.2,55.222321428571426,521.1285714285714,1047.2,55.222321428571426,521.1285714285714,1154.2,55.222321428571426,521.1285714285714,1283.3,55.222321428571426,521.1285714285714,1386.8,55.222321428571426,521.1285714285714,1491,55.222321428571426,521.1285714285714,1592.1,55.222321428571426,521.1285714285714,1703.1,55.222321428571426,521.1285714285714,1803.4,55.222321428571426,521.1285714285714,1905.2,55.222321428571426,521.1285714285714,2012.6,55.222321428571426,521.1285714285714,2130,55.222321428571426,521.1285714285714,2231.3,55.222321428571426,521.1285714285714,2335.5,55.222321428571426,521.1285714285714,2435.9,55.222321428571426,521.1285714285714,2536,55.222321428571426,521.1285714285714,2637.5,55.222321428571426,521.1285714285714,2741.4,55.222321428571426,521.1285714285714,2841.9,55.222321428571426,521.1285714285714,2945,55.222321428571426,521.1285714285714,3079.7,55.222321428571426,521.1285714285714,3183.6,55.222321428571426,521.1285714285714,3289.1,55.222321428571426,521.1285714285714,3389.1,55.222321428571426,521.1285714285714,3489.6,55.222321428571426,521.1285714285714,3595,55.222321428571426,521.1285714285714,3695.3,55.222321428571426,521.1285714285714,3796.9,55.222321428571426,521.1285714285714,3901,55.222321428571426,521.1285714285714,4001.8,55.222321428571426,521.1285714285714,4108.4,55.222321428571426,521.1285714285714,4210.3,55.222321428571426,521.1285714285714,4311.2,55.222321428571426,521.1285714285714,4418.3,55.222321428571426,521.1285714285714,4522.9,55.222321428571426,521.1285714285714,4626.8,55.222321428571426,521.1285714285714,4731.1,55.222321428571426,521.1285714285714,4831.2,55.222321428571426,521.1285714285714,4938]","[1415.7,1415.7,1000,0,415.7,""smooth"",""down"",""down"",""good_move"",8025.8,6605.5,2955.2,4741.4,329.2,""smooth"",""down"",""down"",""good_move"",10171.8,2143,1787.4,8028.8,355.6,""smooth"",""down"",""down"",""good_move"",12909.8,2733.9,2400.3,10175.9,333.6,""oops"",""left"",""right"",""bad_move"",16407.7,3496,3162,12911.8,333.9,""smooth"",""left"",""left"",""good_move"",25985.8,9575.8,2463.5,23096.7,425.6,""oops"",""left"",""right"",""bad_move"",28949.6,2962.3,2527.1,25987.4,435.2,""oops"",""left"",""up"",""bad_move"",31917.5,2960,2588.1,28957.5,371.9,""smooth"",""left"",""left"",""good_move"",34406.1,2486.3,2121.9,31919.9,364.4,""smooth"",""left"",""left"",""good_move"",37470.7,3062,2774,34408.8,287.9,""oops"",""left"",""right"",""bad_move"",40103.4,2629.7,2306.1,37473.8,323.6,""oops"",""left"",""left"",""good_move"",42503.1,2395.5,2522.1,40107.7,-126.7,""error"",""-"",""-"",""no_move""]"
"4726","","<div style=""width:500px;"">
  <p>What determined the result of this run?</p>
  </div>","94","html-slider-response","34","874940","0.0-7.0-1.4","218","1","2025-08-06 20:17:54","36c45c0696341be0efffe67d72a12abb","41.193.213.182","Mozilla/5.0 (Windows NT 10.0; Win64; x64) AppleWebKit/537.36 (KHTML, like Gecko) Chrome/138.0.0.0 Safari/537.36 Edg/138.0.0.0","WebKit","Edge","138.0.0.0","Windows","10.0","https://app.prolific.com/","en-US,en;q=0.9","67e94945e5f6a3090ed5a9d0","687a1a965b9f5b85a264363e","6893b861177cfbc233b53752","1","67e94945e5f6a3090ed5a9d0","1","2025-08-06T20:32:32.658Z","","","","AttribQ","","","","","","","","","","","50","","","","","","","","","","","","","","","","","","","","","","","","","","",""
"5577","","<div style=""width:500px;"">
  <p>How much control did you have over the ball?</p>
  </div>","31","html-slider-response","35","880520","0.0-7.0-2.4","218","1","2025-08-06 20:17:54","36c45c0696341be0efffe67d72a12abb","41.193.213.182","Mozilla/5.0 (Windows NT 10.0; Win64; x64) AppleWebKit/537.36 (KHTML, like Gecko) Chrome/138.0.0.0 Safari/537.36 Edg/138.0.0.0","WebKit","Edge","138.0.0.0","Windows","10.0","https://app.prolific.com/","en-US,en;q=0.9","67e94945e5f6a3090ed5a9d0","687a1a965b9f5b85a264363e","6893b861177cfbc233b53752","1","67e94945e5f6a3090ed5a9d0","1","2025-08-06T20:32:38.238Z","","","","ControlQ","","","","","","","","","","","50","","","","","","","","","","","","","","","","","","","","","","","","","","",""
"5410","","<div style=""width:500px;"">
  <p>How would you describe your current emotional state?</p>
  </div>","21","html-slider-response","36","885932","0.0-7.0-3.4","218","1","2025-08-06 20:17:54","36c45c0696341be0efffe67d72a12abb","41.193.213.182","Mozilla/5.0 (Windows NT 10.0; Win64; x64) AppleWebKit/537.36 (KHTML, like Gecko) Chrome/138.0.0.0 Safari/537.36 Edg/138.0.0.0","WebKit","Edge","138.0.0.0","Windows","10.0","https://app.prolific.com/","en-US,en;q=0.9","67e94945e5f6a3090ed5a9d0","687a1a965b9f5b85a264363e","6893b861177cfbc233b53752","1","67e94945e5f6a3090ed5a9d0","1","2025-08-06T20:32:43.651Z","","","","StressQ","","","","","","","","","","","50","","","","","","","","","","","","","","","","","","","","","","","","","","",""
"18919","","<div style=""width:500px;"">
  <p>What best describes how you currently feel?</p>
  </div>","20","html-slider-response","37","904856","0.0-7.0-4.4","218","1","2025-08-06 20:17:54","36c45c0696341be0efffe67d72a12abb","41.193.213.182","Mozilla/5.0 (Windows NT 10.0; Win64; x64) AppleWebKit/537.36 (KHTML, like Gecko) Chrome/138.0.0.0 Safari/537.36 Edg/138.0.0.0","WebKit","Edge","138.0.0.0","Windows","10.0","https://app.prolific.com/","en-US,en;q=0.9","67e94945e5f6a3090ed5a9d0","687a1a965b9f5b85a264363e","6893b861177cfbc233b53752","1","67e94945e5f6a3090ed5a9d0","1","2025-08-06T20:33:02.574Z","","","","MotivationQ","","","","","","","","","","","50","","","","","","","","","","","","","","","","","","","","","","","","","","",""
"","","","","ctl-task-cpt","38","945955","0.0-7.0-0.5","218","1","2025-08-06 20:17:54","36c45c0696341be0efffe67d72a12abb","41.193.213.182","Mozilla/5.0 (Windows NT 10.0; Win64; x64) AppleWebKit/537.36 (KHTML, like Gecko) Chrome/138.0.0.0 Safari/537.36 Edg/138.0.0.0","WebKit","Edge","138.0.0.0","Windows","10.0","https://app.prolific.com/","en-US,en;q=0.9","67e94945e5f6a3090ed5a9d0","687a1a965b9f5b85a264363e","6893b861177cfbc233b53752","1","67e94945e5f6a3090ed5a9d0","1","2025-08-06T20:33:43.673Z","","","","","","","","","","","","","","","","win-only","0","g1:NW,g2:SE","0.5","6","0","908466.1","2349.4","7354","38070","1","4","4","6","2","4","4","10","6","0.07575757575757576","1464.7","3000","1365","[""down"",""right""]","{""num_key_presses"":8,""num_perfect"":3,""num_errors"":0,""num_randdir"":5,""num_randdir_good_moves"":4,""num_whilered"":0,""num_whileblue"":0,""num_blue"":3,""num_good_moves"":7}","[302.22232142857143,296.12857142857143,1.6,302.22232142857143,296.12857142857143,101.8,302.22232142857143,296.12857142857143,212.6,302.22232142857143,296.12857142857143,318.4,302.22232142857143,296.12857142857143,419.1,302.22232142857143,296.12857142857143,521.8,302.22232142857143,296.12857142857143,626.2,302.22232142857143,296.12857142857143,732,341.22232142857143,319.12857142857143,837.7,480.22232142857143,458.12857142857143,951.5,508.22232142857143,497.12857142857143,1052,521.2223214285714,513.1285714285714,1156.7,525.2223214285714,521.1285714285714,1262.6,525.2223214285714,521.1285714285714,1363.6,525.2223214285714,521.1285714285714,1473.7,525.2223214285714,521.1285714285714,1598.4,525.2223214285714,521.1285714285714,1713.7,525.2223214285714,521.1285714285714,1819.7,525.2223214285714,521.1285714285714,1920.6,525.2223214285714,521.1285714285714,2032.2,525.2223214285714,521.1285714285714,2135,525.2223214285714,521.1285714285714,2236.9,525.2223214285714,521.1285714285714,2342.2,525.2223214285714,521.1285714285714,2448.9,525.2223214285714,521.1285714285714,2553.6,525.2223214285714,521.1285714285714,2654.7,525.2223214285714,521.1285714285714,2762.2,525.2223214285714,521.1285714285714,2866.2,525.2223214285714,521.1285714285714,2968.2,525.2223214285714,521.1285714285714,3071.9,525.2223214285714,521.1285714285714,3184,525.2223214285714,521.1285714285714,3284,525.2223214285714,521.1285714285714,3388.2,525.2223214285714,521.1285714285714,3488.8,525.2223214285714,521.1285714285714,3590,525.2223214285714,521.1285714285714,3691.1,525.2223214285714,521.1285714285714,3794.6,525.2223214285714,521.1285714285714,3900.1,525.2223214285714,521.1285714285714,4000.2,525.2223214285714,521.1285714285714,4104.3,525.2223214285714,521.1285714285714,4207.2,525.2223214285714,521.1285714285714,4307.7,525.2223214285714,521.1285714285714,4411.7,525.2223214285714,521.1285714285714,4520.4,525.2223214285714,521.1285714285714,4629.4,525.2223214285714,521.1285714285714,4734.2,525.2223214285714,521.1285714285714,4843.5,525.2223214285714,521.1285714285714,4962.8]","[1453.5,1453.5,1000,0,453.5,""smooth"",""down"",""down"",""good_move"",3731.5,2276.3,1937.2,1455.2,339.1,""oops"",""down"",""down"",""good_move"",5408.6,1675.2,1281.7,3733.4,393.5,""oops"",""down"",""right"",""good_move"",12584.5,7173.7,2780.6,9439.2,364.7,""oops"",""down"",""down"",""good_move"",15319.7,2732.8,2397,12586.9,335.8,""oops"",""right"",""left"",""bad_move"",18037.8,2716,2392,15321.8,324,""oops"",""right"",""right"",""good_move"",24853.9,6814.2,2645.1,21844.5,364.3,""smooth"",""right"",""right"",""good_move"",30561.3,5705.9,1347.9,28866.1,347.3,""smooth"",""right"",""right"",""good_move""]"
"3934","","<div style=""width:500px;"">
  <p>What determined the result of this run?</p>
  </div>","98","html-slider-response","39","949892","0.0-7.0-1.5","218","1","2025-08-06 20:17:54","36c45c0696341be0efffe67d72a12abb","41.193.213.182","Mozilla/5.0 (Windows NT 10.0; Win64; x64) AppleWebKit/537.36 (KHTML, like Gecko) Chrome/138.0.0.0 Safari/537.36 Edg/138.0.0.0","WebKit","Edge","138.0.0.0","Windows","10.0","https://app.prolific.com/","en-US,en;q=0.9","67e94945e5f6a3090ed5a9d0","687a1a965b9f5b85a264363e","6893b861177cfbc233b53752","1","67e94945e5f6a3090ed5a9d0","1","2025-08-06T20:33:47.610Z","","","","AttribQ","","","","","","","","","","","50","","","","","","","","","","","","","","","","","","","","","","","","","","",""
"8683","","<div style=""width:500px;"">
  <p>How much control did you have over the ball?</p>
  </div>","67","html-slider-response","40","958578","0.0-7.0-2.5","218","1","2025-08-06 20:17:54","36c45c0696341be0efffe67d72a12abb","41.193.213.182","Mozilla/5.0 (Windows NT 10.0; Win64; x64) AppleWebKit/537.36 (KHTML, like Gecko) Chrome/138.0.0.0 Safari/537.36 Edg/138.0.0.0","WebKit","Edge","138.0.0.0","Windows","10.0","https://app.prolific.com/","en-US,en;q=0.9","67e94945e5f6a3090ed5a9d0","687a1a965b9f5b85a264363e","6893b861177cfbc233b53752","1","67e94945e5f6a3090ed5a9d0","1","2025-08-06T20:33:56.296Z","","","","ControlQ","","","","","","","","","","","50","","","","","","","","","","","","","","","","","","","","","","","","","","",""
"3916","","<div style=""width:500px;"">
  <p>How would you describe your current emotional state?</p>
  </div>","24","html-slider-response","41","962501","0.0-7.0-3.5","218","1","2025-08-06 20:17:54","36c45c0696341be0efffe67d72a12abb","41.193.213.182","Mozilla/5.0 (Windows NT 10.0; Win64; x64) AppleWebKit/537.36 (KHTML, like Gecko) Chrome/138.0.0.0 Safari/537.36 Edg/138.0.0.0","WebKit","Edge","138.0.0.0","Windows","10.0","https://app.prolific.com/","en-US,en;q=0.9","67e94945e5f6a3090ed5a9d0","687a1a965b9f5b85a264363e","6893b861177cfbc233b53752","1","67e94945e5f6a3090ed5a9d0","1","2025-08-06T20:34:00.220Z","","","","StressQ","","","","","","","","","","","50","","","","","","","","","","","","","","","","","","","","","","","","","","",""
"4400","","<div style=""width:500px;"">
  <p>What best describes how you currently feel?</p>
  </div>","23","html-slider-response","42","966905","0.0-7.0-4.5","218","1","2025-08-06 20:17:54","36c45c0696341be0efffe67d72a12abb","41.193.213.182","Mozilla/5.0 (Windows NT 10.0; Win64; x64) AppleWebKit/537.36 (KHTML, like Gecko) Chrome/138.0.0.0 Safari/537.36 Edg/138.0.0.0","WebKit","Edge","138.0.0.0","Windows","10.0","https://app.prolific.com/","en-US,en;q=0.9","67e94945e5f6a3090ed5a9d0","687a1a965b9f5b85a264363e","6893b861177cfbc233b53752","1","67e94945e5f6a3090ed5a9d0","1","2025-08-06T20:34:04.623Z","","","","MotivationQ","","","","","","","","","","","50","","","","","","","","","","","","","","","","","","","","","","","","","","",""
"","","","","ctl-task-cpt","43","1038838","0.0-7.0-0.6","218","1","2025-08-06 20:17:54","36c45c0696341be0efffe67d72a12abb","41.193.213.182","Mozilla/5.0 (Windows NT 10.0; Win64; x64) AppleWebKit/537.36 (KHTML, like Gecko) Chrome/138.0.0.0 Safari/537.36 Edg/138.0.0.0","WebKit","Edge","138.0.0.0","Windows","10.0","https://app.prolific.com/","en-US,en;q=0.9","67e94945e5f6a3090ed5a9d0","687a1a965b9f5b85a264363e","6893b861177cfbc233b53752","1","67e94945e5f6a3090ed5a9d0","1","2025-08-06T20:35:16.556Z","","","","","","","","","","","","","","","","win-only","1","g1:NE,g2:SW","0.4","7","0","970515.6","1343.4","6351.7","68910.2","1","4","4","6","2","4","4","14","10","0.10606060606060606","1397.5","3000","160","[""down"",""left""]","{""num_key_presses"":16,""num_perfect"":7,""num_errors"":0,""num_randdir"":9,""num_randdir_good_moves"":4,""num_whilered"":0,""num_whileblue"":0,""num_blue"":5,""num_good_moves"":11}","[291.22232142857143,290.12857142857143,3.5,291.22232142857143,290.12857142857143,102.5,291.22232142857143,290.12857142857143,214.3,291.22232142857143,290.12857142857143,314.9,291.22232142857143,290.12857142857143,421.6,291.22232142857143,290.12857142857143,526.6,291.22232142857143,290.12857142857143,632.5,73.22232142857143,498.12857142857143,733.7,10.222321428571426,562.1285714285714,851.6,9.222321428571426,563.1285714285714,959.3,9.222321428571426,564.1285714285714,1068.4,21.222321428571426,559.1285714285714,1169.1,24.222321428571426,558.1285714285714,1277.8,24.222321428571426,558.1285714285714,1378.1,24.222321428571426,558.1285714285714,1479.5,24.222321428571426,558.1285714285714,1585.9,24.222321428571426,558.1285714285714,1693.7,24.222321428571426,558.1285714285714,1796.2,24.222321428571426,558.1285714285714,1900.6,24.222321428571426,558.1285714285714,2017.3,24.222321428571426,558.1285714285714,2119.2,24.222321428571426,558.1285714285714,2220.2,24.222321428571426,558.1285714285714,2324,24.222321428571426,558.1285714285714,2432.8,24.222321428571426,558.1285714285714,2533.1,24.222321428571426,558.1285714285714,2638.3,24.222321428571426,558.1285714285714,2748.9,24.222321428571426,558.1285714285714,2856,24.222321428571426,558.1285714285714,2963.2,24.222321428571426,558.1285714285714,3064.4,24.222321428571426,558.1285714285714,3165.9,24.222321428571426,558.1285714285714,3266.6,24.222321428571426,558.1285714285714,3368.1,24.222321428571426,558.1285714285714,3469.1,24.222321428571426,558.1285714285714,3577,24.222321428571426,558.1285714285714,3686.5,24.222321428571426,558.1285714285714,3789.3,24.222321428571426,558.1285714285714,3889.4,24.222321428571426,558.1285714285714,4000.2,24.222321428571426,558.1285714285714,4108.2,24.222321428571426,558.1285714285714,4213.9,24.222321428571426,558.1285714285714,4319.6,24.222321428571426,558.1285714285714,4425.7,24.222321428571426,558.1285714285714,4526.4,24.222321428571426,558.1285714285714,4628.9,24.222321428571426,558.1285714285714,4732.4,24.222321428571426,558.1285714285714,4844,24.222321428571426,558.1285714285714,4950.3]","[1409.5,1409.5,1000,0,409.5,""smooth"",""down"",""down"",""good_move"",4269.1,2858,2513,1411.1,345,""oops"",""down"",""down"",""good_move"",7559.7,3288.7,2946.6,4271,342.1,""oops"",""down"",""right"",""bad_move"",10312.9,2750.3,2343.2,7562.7,407.1,""oops"",""down"",""left"",""good_move"",13095.8,2779.8,2457.4,10316,322.4,""smooth"",""down"",""down"",""good_move"",19925.4,6828.1,2180.4,17351.3,393.7,""smooth"",""left"",""left"",""good_move"",26126.2,6199.5,2565.2,23155.2,405.8,""oops"",""left"",""right"",""bad_move"",29138.7,3010.9,2594.2,26127.8,416.7,""smooth"",""left"",""left"",""good_move"",36268,7127.1,3474.7,32428.4,364.9,""oops"",""left"",""up"",""bad_move"",45432.5,9163,2204,42827,401.5,""oops"",""left"",""right"",""bad_move"",47859.3,2424.3,1953,45435,471.3,""oops"",""left"",""left"",""good_move"",50360.3,2498.4,2056.3,47862.1,442,""smooth"",""left"",""left"",""good_move"",53300.4,2935.6,2509.4,50364.9,426.1,""oops"",""left"",""up"",""bad_move"",56572.5,3269.5,2927.5,53303,342,""smooth"",""left"",""left"",""good_move"",60250.8,3675.3,3269.4,56575.5,405.9,""oops"",""down"",""down"",""good_move"",62331.7,2078.6,1707.3,60253.1,371.3,""smooth"",""down"",""down"",""good_move""]"
"14104","","<div style=""width:500px;"">
  <p>What determined the result of this run?</p>
  </div>","90","html-slider-response","44","1052945","0.0-7.0-1.6","218","1","2025-08-06 20:17:54","36c45c0696341be0efffe67d72a12abb","41.193.213.182","Mozilla/5.0 (Windows NT 10.0; Win64; x64) AppleWebKit/537.36 (KHTML, like Gecko) Chrome/138.0.0.0 Safari/537.36 Edg/138.0.0.0","WebKit","Edge","138.0.0.0","Windows","10.0","https://app.prolific.com/","en-US,en;q=0.9","67e94945e5f6a3090ed5a9d0","687a1a965b9f5b85a264363e","6893b861177cfbc233b53752","1","67e94945e5f6a3090ed5a9d0","1","2025-08-06T20:35:30.663Z","","","","AttribQ","","","","","","","","","","","50","","","","","","","","","","","","","","","","","","","","","","","","","","",""
"5765","","<div style=""width:500px;"">
  <p>How much control did you have over the ball?</p>
  </div>","36","html-slider-response","45","1058713","0.0-7.0-2.6","218","1","2025-08-06 20:17:54","36c45c0696341be0efffe67d72a12abb","41.193.213.182","Mozilla/5.0 (Windows NT 10.0; Win64; x64) AppleWebKit/537.36 (KHTML, like Gecko) Chrome/138.0.0.0 Safari/537.36 Edg/138.0.0.0","WebKit","Edge","138.0.0.0","Windows","10.0","https://app.prolific.com/","en-US,en;q=0.9","67e94945e5f6a3090ed5a9d0","687a1a965b9f5b85a264363e","6893b861177cfbc233b53752","1","67e94945e5f6a3090ed5a9d0","1","2025-08-06T20:35:36.431Z","","","","ControlQ","","","","","","","","","","","50","","","","","","","","","","","","","","","","","","","","","","","","","","",""
"5765","","<div style=""width:500px;"">
  <p>How would you describe your current emotional state?</p>
  </div>","20","html-slider-response","46","1064482","0.0-7.0-3.6","218","1","2025-08-06 20:17:54","36c45c0696341be0efffe67d72a12abb","41.193.213.182","Mozilla/5.0 (Windows NT 10.0; Win64; x64) AppleWebKit/537.36 (KHTML, like Gecko) Chrome/138.0.0.0 Safari/537.36 Edg/138.0.0.0","WebKit","Edge","138.0.0.0","Windows","10.0","https://app.prolific.com/","en-US,en;q=0.9","67e94945e5f6a3090ed5a9d0","687a1a965b9f5b85a264363e","6893b861177cfbc233b53752","1","67e94945e5f6a3090ed5a9d0","1","2025-08-06T20:35:42.200Z","","","","StressQ","","","","","","","","","","","50","","","","","","","","","","","","","","","","","","","","","","","","","","",""
"4053","","<div style=""width:500px;"">
  <p>What best describes how you currently feel?</p>
  </div>","21","html-slider-response","47","1068539","0.0-7.0-4.6","218","1","2025-08-06 20:17:54","36c45c0696341be0efffe67d72a12abb","41.193.213.182","Mozilla/5.0 (Windows NT 10.0; Win64; x64) AppleWebKit/537.36 (KHTML, like Gecko) Chrome/138.0.0.0 Safari/537.36 Edg/138.0.0.0","WebKit","Edge","138.0.0.0","Windows","10.0","https://app.prolific.com/","en-US,en;q=0.9","67e94945e5f6a3090ed5a9d0","687a1a965b9f5b85a264363e","6893b861177cfbc233b53752","1","67e94945e5f6a3090ed5a9d0","1","2025-08-06T20:35:46.257Z","","","","MotivationQ","","","","","","","","","","","50","","","","","","","","","","","","","","","","","","","","","","","","","","",""
"","","","","ctl-task-cpt","48","1154763","0.0-7.0-0.7","218","1","2025-08-06 20:17:54","36c45c0696341be0efffe67d72a12abb","41.193.213.182","Mozilla/5.0 (Windows NT 10.0; Win64; x64) AppleWebKit/537.36 (KHTML, like Gecko) Chrome/138.0.0.0 Safari/537.36 Edg/138.0.0.0","WebKit","Edge","138.0.0.0","Windows","10.0","https://app.prolific.com/","en-US,en;q=0.9","67e94945e5f6a3090ed5a9d0","687a1a965b9f5b85a264363e","6893b861177cfbc233b53752","1","67e94945e5f6a3090ed5a9d0","1","2025-08-06T20:37:12.482Z","","","","","","","","","","","","","","","","win-only","0","g1:NW,g2:SE","0.3","8","0","1072151","10939.9","15949.6","83192","1","4","8","6","2","-8","-8","6","14","0.045454545454545456","1496.3","3000","-1105","[""down"",""right""]","{""num_key_presses"":18,""num_perfect"":6,""num_errors"":0,""num_randdir"":12,""num_randdir_good_moves"":4,""num_whilered"":0,""num_whileblue"":0,""num_blue"":4,""num_good_moves"":10}","[298.22232142857143,297.12857142857143,5.2,298.22232142857143,297.12857142857143,107.6,298.22232142857143,297.12857142857143,221.1,298.22232142857143,297.12857142857143,328.5,298.22232142857143,297.12857142857143,430.6,298.22232142857143,297.12857142857143,540.9,359.22232142857143,362.12857142857143,650.7,426.22232142857143,437.12857142857143,758,449.22232142857143,461.12857142857143,858.9,466.22232142857143,476.12857142857143,963.5,499.22232142857143,502.12857142857143,1065.4,523.2223214285714,516.1285714285714,1175.2,523.2223214285714,517.1285714285714,1277.4,523.2223214285714,517.1285714285714,1387.4,523.2223214285714,517.1285714285714,1517.1,523.2223214285714,517.1285714285714,1624.2,523.2223214285714,517.1285714285714,1733.6,523.2223214285714,517.1285714285714,1834.3,523.2223214285714,517.1285714285714,1944.6,523.2223214285714,517.1285714285714,2049.1,523.2223214285714,517.1285714285714,2156.8,523.2223214285714,517.1285714285714,2266.8,523.2223214285714,517.1285714285714,2374.9,523.2223214285714,517.1285714285714,2476.3,523.2223214285714,517.1285714285714,2581.7,523.2223214285714,517.1285714285714,2689.6,523.2223214285714,517.1285714285714,2796,523.2223214285714,517.1285714285714,2899,523.2223214285714,517.1285714285714,3003.8,523.2223214285714,517.1285714285714,3114.9,523.2223214285714,517.1285714285714,3227.9,523.2223214285714,517.1285714285714,3332.2,523.2223214285714,517.1285714285714,3452.4,523.2223214285714,517.1285714285714,3556.1,523.2223214285714,517.1285714285714,3663.4,523.2223214285714,517.1285714285714,3774.8,523.2223214285714,517.1285714285714,3880.3,523.2223214285714,517.1285714285714,3981.3,523.2223214285714,517.1285714285714,4081.7,523.2223214285714,517.1285714285714,4186.2,523.2223214285714,517.1285714285714,4294.9,523.2223214285714,517.1285714285714,4399.7,523.2223214285714,517.1285714285714,4500.7,523.2223214285714,517.1285714285714,4610.2,523.2223214285714,517.1285714285714,4710.3,523.2223214285714,517.1285714285714,4818.2,523.2223214285714,517.1285714285714,4923.8]","[1407.5,1407.5,1000,0,407.5,""oops"",""down"",""up"",""bad_move"",3715.7,2301.9,1844.3,1413.8,457.6,""oops"",""down"",""up"",""bad_move"",10727.2,7009.3,2388.9,7989.4,349,""smooth"",""down"",""down"",""good_move"",13565,2836.1,2495.2,10729,340.8,""oops"",""down"",""up"",""bad_move"",19010.1,5443.1,1982.8,16615.1,412.2,""oops"",""down"",""right"",""good_move"",22230.1,3217.1,2855.9,19013.1,361.2,""oops"",""down"",""left"",""bad_move"",25913.3,3680.1,3299.5,22233.2,380.6,""oops"",""down"",""left"",""bad_move"",28488.7,2573.7,1990.6,25915,583.1,""oops"",""down"",""right"",""good_move"",32515.7,4022,3693.7,28493.7,328.3,""smooth"",""down"",""down"",""good_move"",38303.4,5785.5,1909.3,35941.3,452.8,""smooth"",""down"",""down"",""good_move"",44047.4,5742.3,2111.2,41543.8,392.4,""oops"",""down"",""down"",""good_move"",46239.4,2190.7,1716.6,44048.7,474.1,""oops"",""down"",""left"",""bad_move"",49255,3010.9,2660.4,46244.1,350.5,""smooth"",""down"",""down"",""good_move"",52225.8,2966.9,2589.4,49259.1,377.4,""smooth"",""down"",""down"",""good_move"",54908.4,2679.9,2263,52228.5,416.9,""oops"",""right"",""right"",""good_move"",57808.7,2898,2530.6,54910.8,367.3,""oops"",""right"",""left"",""bad_move"",60666.4,2854.8,2436.8,57811.6,418,""smooth"",""right"",""right"",""good_move"",63507.1,2838.5,2520.5,60668.7,317.9,""oops"",""right"",""up"",""bad_move""]"
"4476","","<div style=""width:500px;"">
  <p>What determined the result of this run?</p>
  </div>","91","html-slider-response","49","1159243","0.0-7.0-1.7","218","1","2025-08-06 20:17:54","36c45c0696341be0efffe67d72a12abb","41.193.213.182","Mozilla/5.0 (Windows NT 10.0; Win64; x64) AppleWebKit/537.36 (KHTML, like Gecko) Chrome/138.0.0.0 Safari/537.36 Edg/138.0.0.0","WebKit","Edge","138.0.0.0","Windows","10.0","https://app.prolific.com/","en-US,en;q=0.9","67e94945e5f6a3090ed5a9d0","687a1a965b9f5b85a264363e","6893b861177cfbc233b53752","1","67e94945e5f6a3090ed5a9d0","1","2025-08-06T20:37:16.961Z","","","","AttribQ","","","","","","","","","","","50","","","","","","","","","","","","","","","","","","","","","","","","","","",""
"5217","","<div style=""width:500px;"">
  <p>How much control did you have over the ball?</p>
  </div>","13","html-slider-response","50","1164463","0.0-7.0-2.7","218","1","2025-08-06 20:17:54","36c45c0696341be0efffe67d72a12abb","41.193.213.182","Mozilla/5.0 (Windows NT 10.0; Win64; x64) AppleWebKit/537.36 (KHTML, like Gecko) Chrome/138.0.0.0 Safari/537.36 Edg/138.0.0.0","WebKit","Edge","138.0.0.0","Windows","10.0","https://app.prolific.com/","en-US,en;q=0.9","67e94945e5f6a3090ed5a9d0","687a1a965b9f5b85a264363e","6893b861177cfbc233b53752","1","67e94945e5f6a3090ed5a9d0","1","2025-08-06T20:37:22.181Z","","","","ControlQ","","","","","","","","","","","50","","","","","","","","","","","","","","","","","","","","","","","","","","",""
"4089","","<div style=""width:500px;"">
  <p>How would you describe your current emotional state?</p>
  </div>","21","html-slider-response","51","1168556","0.0-7.0-3.7","218","1","2025-08-06 20:17:54","36c45c0696341be0efffe67d72a12abb","41.193.213.182","Mozilla/5.0 (Windows NT 10.0; Win64; x64) AppleWebKit/537.36 (KHTML, like Gecko) Chrome/138.0.0.0 Safari/537.36 Edg/138.0.0.0","WebKit","Edge","138.0.0.0","Windows","10.0","https://app.prolific.com/","en-US,en;q=0.9","67e94945e5f6a3090ed5a9d0","687a1a965b9f5b85a264363e","6893b861177cfbc233b53752","1","67e94945e5f6a3090ed5a9d0","1","2025-08-06T20:37:26.274Z","","","","StressQ","","","","","","","","","","","50","","","","","","","","","","","","","","","","","","","","","","","","","","",""
"4427","","<div style=""width:500px;"">
  <p>What best describes how you currently feel?</p>
  </div>","18","html-slider-response","52","1172987","0.0-7.0-4.7","218","1","2025-08-06 20:17:54","36c45c0696341be0efffe67d72a12abb","41.193.213.182","Mozilla/5.0 (Windows NT 10.0; Win64; x64) AppleWebKit/537.36 (KHTML, like Gecko) Chrome/138.0.0.0 Safari/537.36 Edg/138.0.0.0","WebKit","Edge","138.0.0.0","Windows","10.0","https://app.prolific.com/","en-US,en;q=0.9","67e94945e5f6a3090ed5a9d0","687a1a965b9f5b85a264363e","6893b861177cfbc233b53752","1","67e94945e5f6a3090ed5a9d0","1","2025-08-06T20:37:30.705Z","","","","MotivationQ","","","","","","","","","","","50","","","","","","","","","","","","","","","","","","","","","","","","","","",""
"","","","","ctl-task-cpt","53","1225904","0.0-7.0-0.8","218","1","2025-08-06 20:17:54","36c45c0696341be0efffe67d72a12abb","41.193.213.182","Mozilla/5.0 (Windows NT 10.0; Win64; x64) AppleWebKit/537.36 (KHTML, like Gecko) Chrome/138.0.0.0 Safari/537.36 Edg/138.0.0.0","WebKit","Edge","138.0.0.0","Windows","10.0","https://app.prolific.com/","en-US,en;q=0.9","67e94945e5f6a3090ed5a9d0","687a1a965b9f5b85a264363e","6893b861177cfbc233b53752","1","67e94945e5f6a3090ed5a9d0","1","2025-08-06T20:38:23.622Z","","","","","","","","","","","","","","","","win-only","0","g1:NW,g2:SE","0.4","9","0","1176599.7","3549.4","8556.8","49888.1","1","4","8","6","2","8","8","14","6","0.10606060606060606","1253","3000","1085","[""down"",""right""]","{""num_key_presses"":14,""num_perfect"":6,""num_errors"":0,""num_randdir"":8,""num_randdir_good_moves"":4,""num_whilered"":0,""num_whileblue"":0,""num_blue"":0,""num_good_moves"":10}","[297.22232142857143,302.12857142857143,2.2,297.22232142857143,302.12857142857143,111.3,297.22232142857143,302.12857142857143,222.6,297.22232142857143,302.12857142857143,330,297.22232142857143,302.12857142857143,455.8,297.22232142857143,302.12857142857143,575.1,460.22232142857143,471.12857142857143,704.3,475.22232142857143,505.12857142857143,806.1,494.22232142857143,514.1285714285714,913.1,515.2223214285714,520.1285714285714,1023.9,515.2223214285714,520.1285714285714,1133.7,515.2223214285714,520.1285714285714,1234.4,515.2223214285714,520.1285714285714,1351.8,515.2223214285714,520.1285714285714,1478.7,515.2223214285714,520.1285714285714,1604.2,515.2223214285714,520.1285714285714,1712.8,515.2223214285714,520.1285714285714,1825.8,515.2223214285714,520.1285714285714,1945.1,515.2223214285714,520.1285714285714,2048.9,515.2223214285714,520.1285714285714,2165.1,515.2223214285714,520.1285714285714,2284.9,515.2223214285714,520.1285714285714,2396.9,515.2223214285714,520.1285714285714,2516.3,515.2223214285714,520.1285714285714,2624,515.2223214285714,520.1285714285714,2739.3,515.2223214285714,520.1285714285714,2844.7,515.2223214285714,520.1285714285714,2952,515.2223214285714,520.1285714285714,3054.6,515.2223214285714,520.1285714285714,3155,515.2223214285714,520.1285714285714,3264.7,515.2223214285714,520.1285714285714,3367.6,515.2223214285714,520.1285714285714,3471.8,515.2223214285714,520.1285714285714,3576.2,515.2223214285714,520.1285714285714,3686,515.2223214285714,520.1285714285714,3788.4,515.2223214285714,520.1285714285714,3894.4,515.2223214285714,520.1285714285714,3998.4,515.2223214285714,520.1285714285714,4107.7,515.2223214285714,520.1285714285714,4209.7,515.2223214285714,520.1285714285714,4312.1,515.2223214285714,520.1285714285714,4419.2,515.2223214285714,520.1285714285714,4529.3,515.2223214285714,520.1285714285714,4637.2,515.2223214285714,520.1285714285714,4738.2,515.2223214285714,520.1285714285714,4841.4,515.2223214285714,520.1285714285714,4941.5]","[1851.5,1851.5,1000,0,851.5,""smooth"",""down"",""down"",""good_move"",4858.2,3005.2,2584.5,1853,420.7,""smooth"",""down"",""down"",""good_move"",8045.4,3185.5,2799.3,4860,386.1,""oops"",""down"",""right"",""good_move"",11518.3,3467.5,3049.6,8050.8,417.9,""oops"",""down"",""up"",""bad_move"",15245.1,3724.2,2079.3,11520.9,1644.9,""oops"",""down"",""right"",""good_move"",17921.7,2671.8,2287.6,15249.9,384.2,""smooth"",""down"",""down"",""good_move"",20751.9,2826.8,2460.7,17925.2,366,""smooth"",""down"",""down"",""good_move"",23499.4,2744.8,2421.2,20754.8,323.5,""oops"",""right"",""up"",""bad_move"",26617.1,3114.9,2697.2,23502.2,417.7,""oops"",""right"",""left"",""bad_move"",29682.7,3063.7,2727.1,26619,336.6,""oops"",""right"",""right"",""good_move"",32275.9,2589.5,2204,29686.4,385.5,""smooth"",""right"",""right"",""good_move"",35307.3,3029.2,2684.6,32278.1,344.6,""oops"",""down"",""left"",""bad_move"",38271.8,2962.9,2546.8,35309.1,416.1,""smooth"",""down"",""down"",""good_move"",41070.8,2795.9,2379.6,38275,416.3,""oops"",""right"",""right"",""good_move""]"
"7310","","<div style=""width:500px;"">
  <p>What determined the result of this run?</p>
  </div>","92","html-slider-response","54","1233218","0.0-7.0-1.8","218","1","2025-08-06 20:17:54","36c45c0696341be0efffe67d72a12abb","41.193.213.182","Mozilla/5.0 (Windows NT 10.0; Win64; x64) AppleWebKit/537.36 (KHTML, like Gecko) Chrome/138.0.0.0 Safari/537.36 Edg/138.0.0.0","WebKit","Edge","138.0.0.0","Windows","10.0","https://app.prolific.com/","en-US,en;q=0.9","67e94945e5f6a3090ed5a9d0","687a1a965b9f5b85a264363e","6893b861177cfbc233b53752","1","67e94945e5f6a3090ed5a9d0","1","2025-08-06T20:38:30.936Z","","","","AttribQ","","","","","","","","","","","50","","","","","","","","","","","","","","","","","","","","","","","","","","",""
"25356","","<div style=""width:500px;"">
  <p>How much control did you have over the ball?</p>
  </div>","64","html-slider-response","55","1258578","0.0-7.0-2.8","218","1","2025-08-06 20:17:54","36c45c0696341be0efffe67d72a12abb","41.193.213.182","Mozilla/5.0 (Windows NT 10.0; Win64; x64) AppleWebKit/537.36 (KHTML, like Gecko) Chrome/138.0.0.0 Safari/537.36 Edg/138.0.0.0","WebKit","Edge","138.0.0.0","Windows","10.0","https://app.prolific.com/","en-US,en;q=0.9","67e94945e5f6a3090ed5a9d0","687a1a965b9f5b85a264363e","6893b861177cfbc233b53752","1","67e94945e5f6a3090ed5a9d0","1","2025-08-06T20:38:56.296Z","","","","ControlQ","","","","","","","","","","","50","","","","","","","","","","","","","","","","","","","","","","","","","","",""
"9041","","<div style=""width:500px;"">
  <p>How would you describe your current emotional state?</p>
  </div>","19","html-slider-response","56","1267626","0.0-7.0-3.8","218","1","2025-08-06 20:17:54","36c45c0696341be0efffe67d72a12abb","41.193.213.182","Mozilla/5.0 (Windows NT 10.0; Win64; x64) AppleWebKit/537.36 (KHTML, like Gecko) Chrome/138.0.0.0 Safari/537.36 Edg/138.0.0.0","WebKit","Edge","138.0.0.0","Windows","10.0","https://app.prolific.com/","en-US,en;q=0.9","67e94945e5f6a3090ed5a9d0","687a1a965b9f5b85a264363e","6893b861177cfbc233b53752","1","67e94945e5f6a3090ed5a9d0","1","2025-08-06T20:39:05.344Z","","","","StressQ","","","","","","","","","","","50","","","","","","","","","","","","","","","","","","","","","","","","","","",""
"10782","","<div style=""width:500px;"">
  <p>What best describes how you currently feel?</p>
  </div>","18","html-slider-response","57","1278411","0.0-7.0-4.8","218","1","2025-08-06 20:17:54","36c45c0696341be0efffe67d72a12abb","41.193.213.182","Mozilla/5.0 (Windows NT 10.0; Win64; x64) AppleWebKit/537.36 (KHTML, like Gecko) Chrome/138.0.0.0 Safari/537.36 Edg/138.0.0.0","WebKit","Edge","138.0.0.0","Windows","10.0","https://app.prolific.com/","en-US,en;q=0.9","67e94945e5f6a3090ed5a9d0","687a1a965b9f5b85a264363e","6893b861177cfbc233b53752","1","67e94945e5f6a3090ed5a9d0","1","2025-08-06T20:39:16.129Z","","","","MotivationQ","","","","","","","","","","","50","","","","","","","","","","","","","","","","","","","","","","","","","","",""
"","","","","ctl-task-cpt","58","1331893","0.0-7.0-0.9","218","1","2025-08-06 20:17:54","36c45c0696341be0efffe67d72a12abb","41.193.213.182","Mozilla/5.0 (Windows NT 10.0; Win64; x64) AppleWebKit/537.36 (KHTML, like Gecko) Chrome/138.0.0.0 Safari/537.36 Edg/138.0.0.0","WebKit","Edge","138.0.0.0","Windows","10.0","https://app.prolific.com/","en-US,en;q=0.9","67e94945e5f6a3090ed5a9d0","687a1a965b9f5b85a264363e","6893b861177cfbc233b53752","1","67e94945e5f6a3090ed5a9d0","1","2025-08-06T20:40:09.611Z","","","","","","","","","","","","","","","","win-only","3","g1:SW,g2:NE","0.5","10","0","1282023.9","6167.9","11177.2","50448.6","1","4","4","6","2","4","3","17","14","0.12878787878787878","1624.9","3000","1365","[""up"",""right""]","{""num_key_presses"":11,""num_perfect"":5,""num_errors"":1,""num_randdir"":5,""num_randdir_good_moves"":3,""num_whilered"":0,""num_whileblue"":0,""num_blue"":2,""num_good_moves"":8}","[296.22232142857143,300.12857142857143,1.6,296.22232142857143,300.12857142857143,104.2,296.22232142857143,300.12857142857143,205,296.22232142857143,300.12857142857143,316,296.22232142857143,300.12857142857143,419.6,296.22232142857143,300.12857142857143,536.5,296.22232142857143,300.12857142857143,656,321.22232142857143,265.12857142857143,762.9,441.22232142857143,127.12857142857143,874.4,477.22232142857143,99.12857142857143,987.6,531.2223214285714,91.12857142857143,1105.7,532.2223214285714,91.12857142857143,1220.9,532.2223214285714,91.12857142857143,1339.8,532.2223214285714,91.12857142857143,1465,532.2223214285714,91.12857142857143,1585.2,532.2223214285714,91.12857142857143,1694.6,532.2223214285714,91.12857142857143,1814.1,532.2223214285714,91.12857142857143,1927.2,532.2223214285714,91.12857142857143,2054.1,532.2223214285714,91.12857142857143,2156.1,532.2223214285714,91.12857142857143,2265,532.2223214285714,91.12857142857143,2381,532.2223214285714,91.12857142857143,2488,532.2223214285714,91.12857142857143,2592.1,532.2223214285714,91.12857142857143,2716.6,532.2223214285714,91.12857142857143,2819.1,532.2223214285714,91.12857142857143,2939.1,532.2223214285714,91.12857142857143,3060.1,532.2223214285714,91.12857142857143,3163.7,532.2223214285714,91.12857142857143,3282.5,532.2223214285714,91.12857142857143,3384.5,532.2223214285714,91.12857142857143,3508.4,532.2223214285714,91.12857142857143,3628.9,532.2223214285714,91.12857142857143,3753.6,532.2223214285714,91.12857142857143,3876.9,532.2223214285714,91.12857142857143,3994.9,532.2223214285714,91.12857142857143,4099.1,532.2223214285714,91.12857142857143,4203.7,532.2223214285714,91.12857142857143,4325.1,532.2223214285714,91.12857142857143,4450.3,532.2223214285714,91.12857142857143,4570.9,532.2223214285714,91.12857142857143,4688.5,532.2223214285714,91.12857142857143,4833.5,532.2223214285714,91.12857142857143,4936.1]","[1566.4,1566.4,1000,0,566.4,""smooth"",""up"",""up"",""good_move"",4886.7,3318.6,2989.3,1568.1,329.3,""smooth"",""up"",""up"",""good_move"",14430.8,9541,2448.7,11584.3,397.9,""oops"",""up"",""up"",""good_move"",16941.2,2506.9,2703.6,14434.3,-196.7,""error"",""-"",""-"",""no_move"",20970.7,4026.3,2487.7,17950.4,532.6,""oops"",""right"",""left"",""bad_move"",24069.6,3097.6,2606.9,20972,490.7,""oops"",""right"",""right"",""good_move"",27005.4,2933.4,2556.3,24072,377.1,""oops"",""right"",""down"",""bad_move"",30115.4,3107.3,2667.9,27008.1,439.4,""oops"",""right"",""right"",""good_move"",33039.1,2921,2450.5,30118.1,470.5,""smooth"",""right"",""right"",""good_move"",35878.4,2836.9,2241.5,33041.5,595.4,""smooth"",""up"",""up"",""good_move"",39024.5,3142.6,2591.6,35881.9,551,""smooth"",""right"",""right"",""good_move""]"
"20309","","<div style=""width:500px;"">
  <p>What determined the result of this run?</p>
  </div>","99","html-slider-response","59","1352205","0.0-7.0-1.9","218","1","2025-08-06 20:17:54","36c45c0696341be0efffe67d72a12abb","41.193.213.182","Mozilla/5.0 (Windows NT 10.0; Win64; x64) AppleWebKit/537.36 (KHTML, like Gecko) Chrome/138.0.0.0 Safari/537.36 Edg/138.0.0.0","WebKit","Edge","138.0.0.0","Windows","10.0","https://app.prolific.com/","en-US,en;q=0.9","67e94945e5f6a3090ed5a9d0","687a1a965b9f5b85a264363e","6893b861177cfbc233b53752","1","67e94945e5f6a3090ed5a9d0","1","2025-08-06T20:40:29.923Z","","","","AttribQ","","","","","","","","","","","50","","","","","","","","","","","","","","","","","","","","","","","","","","",""
"29425","","<div style=""width:500px;"">
  <p>How much control did you have over the ball?</p>
  </div>","39","html-slider-response","60","1381638","0.0-7.0-2.9","218","1","2025-08-06 20:17:54","36c45c0696341be0efffe67d72a12abb","41.193.213.182","Mozilla/5.0 (Windows NT 10.0; Win64; x64) AppleWebKit/537.36 (KHTML, like Gecko) Chrome/138.0.0.0 Safari/537.36 Edg/138.0.0.0","WebKit","Edge","138.0.0.0","Windows","10.0","https://app.prolific.com/","en-US,en;q=0.9","67e94945e5f6a3090ed5a9d0","687a1a965b9f5b85a264363e","6893b861177cfbc233b53752","1","67e94945e5f6a3090ed5a9d0","1","2025-08-06T20:40:59.356Z","","","","ControlQ","","","","","","","","","","","50","","","","","","","","","","","","","","","","","","","","","","","","","","",""
"5799","","<div style=""width:500px;"">
  <p>How would you describe your current emotional state?</p>
  </div>","18","html-slider-response","61","1387443","0.0-7.0-3.9","218","1","2025-08-06 20:17:54","36c45c0696341be0efffe67d72a12abb","41.193.213.182","Mozilla/5.0 (Windows NT 10.0; Win64; x64) AppleWebKit/537.36 (KHTML, like Gecko) Chrome/138.0.0.0 Safari/537.36 Edg/138.0.0.0","WebKit","Edge","138.0.0.0","Windows","10.0","https://app.prolific.com/","en-US,en;q=0.9","67e94945e5f6a3090ed5a9d0","687a1a965b9f5b85a264363e","6893b861177cfbc233b53752","1","67e94945e5f6a3090ed5a9d0","1","2025-08-06T20:41:05.161Z","","","","StressQ","","","","","","","","","","","50","","","","","","","","","","","","","","","","","","","","","","","","","","",""
"6014","","<div style=""width:500px;"">
  <p>What best describes how you currently feel?</p>
  </div>","18","html-slider-response","62","1393460","0.0-7.0-4.9","218","1","2025-08-06 20:17:54","36c45c0696341be0efffe67d72a12abb","41.193.213.182","Mozilla/5.0 (Windows NT 10.0; Win64; x64) AppleWebKit/537.36 (KHTML, like Gecko) Chrome/138.0.0.0 Safari/537.36 Edg/138.0.0.0","WebKit","Edge","138.0.0.0","Windows","10.0","https://app.prolific.com/","en-US,en;q=0.9","67e94945e5f6a3090ed5a9d0","687a1a965b9f5b85a264363e","6893b861177cfbc233b53752","1","67e94945e5f6a3090ed5a9d0","1","2025-08-06T20:41:11.178Z","","","","MotivationQ","","","","","","","","","","","50","","","","","","","","","","","","","","","","","","","","","","","","","","",""
"","","","","ctl-task-cpt","63","1419713","0.0-7.0-0.10","218","1","2025-08-06 20:17:54","36c45c0696341be0efffe67d72a12abb","41.193.213.182","Mozilla/5.0 (Windows NT 10.0; Win64; x64) AppleWebKit/537.36 (KHTML, like Gecko) Chrome/138.0.0.0 Safari/537.36 Edg/138.0.0.0","WebKit","Edge","138.0.0.0","Windows","10.0","https://app.prolific.com/","en-US,en;q=0.9","67e94945e5f6a3090ed5a9d0","687a1a965b9f5b85a264363e","6893b861177cfbc233b53752","1","67e94945e5f6a3090ed5a9d0","1","2025-08-06T20:41:37.431Z","","","","","","","","","","","","","","","","win-only","3","g1:SW,g2:NE","0.6","11","0","1397069.9","1527.2","6547.3","23226.9","1","4","4","6","2","4","4","21","17","0.1590909090909091","1237.7","3000","2320","[""up"",""right""]","{""num_key_presses"":6,""num_perfect"":4,""num_errors"":0,""num_randdir"":2,""num_randdir_good_moves"":2,""num_whilered"":0,""num_whileblue"":0,""num_blue"":0,""num_good_moves"":6}","[302.22232142857143,295.12857142857143,7.9,302.22232142857143,295.12857142857143,103.1,302.22232142857143,295.12857142857143,208.5,302.22232142857143,295.12857142857143,315.3,302.22232142857143,295.12857142857143,420.1,302.22232142857143,295.12857142857143,527.7,302.22232142857143,295.12857142857143,648.5,480.22232142857143,115.12857142857143,770.3,507.22232142857143,86.12857142857143,890.4,507.22232142857143,86.12857142857143,991.7,508.22232142857143,86.12857142857143,1092.7,508.22232142857143,86.12857142857143,1197,508.22232142857143,86.12857142857143,1299,508.22232142857143,86.12857142857143,1405.6,508.22232142857143,86.12857142857143,1522,508.22232142857143,86.12857142857143,1624.5,508.22232142857143,86.12857142857143,1740.5,508.22232142857143,86.12857142857143,1867.1,508.22232142857143,86.12857142857143,1985,508.22232142857143,86.12857142857143,2092.3,508.22232142857143,86.12857142857143,2195.2,508.22232142857143,86.12857142857143,2312.4,508.22232142857143,86.12857142857143,2417,508.22232142857143,86.12857142857143,2535.2,508.22232142857143,86.12857142857143,2649.5,508.22232142857143,86.12857142857143,2758.7,508.22232142857143,86.12857142857143,2865.1,508.22232142857143,86.12857142857143,2986.6,508.22232142857143,86.12857142857143,3103,508.22232142857143,86.12857142857143,3210.5,508.22232142857143,86.12857142857143,3315.8,508.22232142857143,86.12857142857143,3427.1,508.22232142857143,86.12857142857143,3539.7,508.22232142857143,86.12857142857143,3640.1,508.22232142857143,86.12857142857143,3752.6,508.22232142857143,86.12857142857143,3864,508.22232142857143,86.12857142857143,3969.1,508.22232142857143,86.12857142857143,4082.1,508.22232142857143,86.12857142857143,4188.3,508.22232142857143,86.12857142857143,4296.9,508.22232142857143,86.12857142857143,4404.6,508.22232142857143,86.12857142857143,4505,508.22232142857143,86.12857142857143,4617.9,508.22232142857143,86.12857142857143,4732.3,508.22232142857143,86.12857142857143,4849.4,508.22232142857143,86.12857142857143,4956.5]","[1367.5,1367.5,1000,0,367.5,""smooth"",""up"",""up"",""good_move"",4189.5,2820.4,2416,1369.1,404.4,""smooth"",""up"",""up"",""good_move"",7368.5,3176.9,2815.5,4191.7,361.3,""oops"",""up"",""right"",""good_move"",10413.9,3042.9,2567,7371,475.9,""oops"",""up"",""up"",""good_move"",13930.3,3514.4,3077.4,10415.9,437,""smooth"",""right"",""right"",""good_move"",16385.1,2453,2038.9,13932.1,414.1,""smooth"",""right"",""right"",""good_move""]"
"6698","","<div style=""width:500px;"">
  <p>What determined the result of this run?</p>
  </div>","98","html-slider-response","64","1426413","0.0-7.0-1.10","218","1","2025-08-06 20:17:54","36c45c0696341be0efffe67d72a12abb","41.193.213.182","Mozilla/5.0 (Windows NT 10.0; Win64; x64) AppleWebKit/537.36 (KHTML, like Gecko) Chrome/138.0.0.0 Safari/537.36 Edg/138.0.0.0","WebKit","Edge","138.0.0.0","Windows","10.0","https://app.prolific.com/","en-US,en;q=0.9","67e94945e5f6a3090ed5a9d0","687a1a965b9f5b85a264363e","6893b861177cfbc233b53752","1","67e94945e5f6a3090ed5a9d0","1","2025-08-06T20:41:44.132Z","","","","AttribQ","","","","","","","","","","","50","","","","","","","","","","","","","","","","","","","","","","","","","","",""
"4823","","<div style=""width:500px;"">
  <p>How much control did you have over the ball?</p>
  </div>","92","html-slider-response","65","1431240","0.0-7.0-2.10","218","1","2025-08-06 20:17:54","36c45c0696341be0efffe67d72a12abb","41.193.213.182","Mozilla/5.0 (Windows NT 10.0; Win64; x64) AppleWebKit/537.36 (KHTML, like Gecko) Chrome/138.0.0.0 Safari/537.36 Edg/138.0.0.0","WebKit","Edge","138.0.0.0","Windows","10.0","https://app.prolific.com/","en-US,en;q=0.9","67e94945e5f6a3090ed5a9d0","687a1a965b9f5b85a264363e","6893b861177cfbc233b53752","1","67e94945e5f6a3090ed5a9d0","1","2025-08-06T20:41:48.959Z","","","","ControlQ","","","","","","","","","","","50","","","","","","","","","","","","","","","","","","","","","","","","","","",""
"12716","","<div style=""width:500px;"">
  <p>How would you describe your current emotional state?</p>
  </div>","16","html-slider-response","66","1443959","0.0-7.0-3.10","218","1","2025-08-06 20:17:54","36c45c0696341be0efffe67d72a12abb","41.193.213.182","Mozilla/5.0 (Windows NT 10.0; Win64; x64) AppleWebKit/537.36 (KHTML, like Gecko) Chrome/138.0.0.0 Safari/537.36 Edg/138.0.0.0","WebKit","Edge","138.0.0.0","Windows","10.0","https://app.prolific.com/","en-US,en;q=0.9","67e94945e5f6a3090ed5a9d0","687a1a965b9f5b85a264363e","6893b861177cfbc233b53752","1","67e94945e5f6a3090ed5a9d0","1","2025-08-06T20:42:01.677Z","","","","StressQ","","","","","","","","","","","50","","","","","","","","","","","","","","","","","","","","","","","","","","",""
"4366","","<div style=""width:500px;"">
  <p>What best describes how you currently feel?</p>
  </div>","15","html-slider-response","67","1448329","0.0-7.0-4.10","218","1","2025-08-06 20:17:54","36c45c0696341be0efffe67d72a12abb","41.193.213.182","Mozilla/5.0 (Windows NT 10.0; Win64; x64) AppleWebKit/537.36 (KHTML, like Gecko) Chrome/138.0.0.0 Safari/537.36 Edg/138.0.0.0","WebKit","Edge","138.0.0.0","Windows","10.0","https://app.prolific.com/","en-US,en;q=0.9","67e94945e5f6a3090ed5a9d0","687a1a965b9f5b85a264363e","6893b861177cfbc233b53752","1","67e94945e5f6a3090ed5a9d0","1","2025-08-06T20:42:06.047Z","","","","MotivationQ","","","","","","","","","","","50","","","","","","","","","","","","","","","","","","","","","","","","","","",""
"","","","","ctl-task-cpt","68","1483584","0.0-7.0-0.11","218","1","2025-08-06 20:17:54","36c45c0696341be0efffe67d72a12abb","41.193.213.182","Mozilla/5.0 (Windows NT 10.0; Win64; x64) AppleWebKit/537.36 (KHTML, like Gecko) Chrome/138.0.0.0 Safari/537.36 Edg/138.0.0.0","WebKit","Edge","138.0.0.0","Windows","10.0","https://app.prolific.com/","en-US,en;q=0.9","67e94945e5f6a3090ed5a9d0","687a1a965b9f5b85a264363e","6893b861177cfbc233b53752","1","67e94945e5f6a3090ed5a9d0","1","2025-08-06T20:42:41.303Z","","","","","","","","","","","","","","","","win-only","0","g1:NW,g2:SE","0.7","12","0","1451939.7","1662.1","6667.1","32226.2","1","4","8","6","2","8","8","29","21","0.2196969696969697","1335.9","3000","2315","[""down"",""right""]","{""num_key_presses"":8,""num_perfect"":7,""num_errors"":0,""num_randdir"":1,""num_randdir_good_moves"":0,""num_whilered"":0,""num_whileblue"":0,""num_blue"":1,""num_good_moves"":7}","[292.22232142857143,293.12857142857143,3.9,292.22232142857143,293.12857142857143,113.8,292.22232142857143,293.12857142857143,220.3,292.22232142857143,293.12857142857143,332,292.22232142857143,293.12857142857143,447.9,292.22232142857143,293.12857142857143,556.2,292.22232142857143,293.12857142857143,665,364.22232142857143,347.12857142857143,775,511.22232142857143,480.12857142857143,875.9,544.2223214285714,510.12857142857143,986.9,553.2223214285714,516.1285714285714,1100.3,554.2223214285714,517.1285714285714,1212,554.2223214285714,517.1285714285714,1323.1,554.2223214285714,517.1285714285714,1430.2,554.2223214285714,517.1285714285714,1551.4,554.2223214285714,517.1285714285714,1652.8,554.2223214285714,517.1285714285714,1765.7,554.2223214285714,517.1285714285714,1875.3,554.2223214285714,517.1285714285714,1976.5,554.2223214285714,517.1285714285714,2085.8,554.2223214285714,517.1285714285714,2196.9,554.2223214285714,517.1285714285714,2315.1,554.2223214285714,517.1285714285714,2431.2,554.2223214285714,517.1285714285714,2533.6,554.2223214285714,517.1285714285714,2636.6,554.2223214285714,517.1285714285714,2746.4,554.2223214285714,517.1285714285714,2848.9,554.2223214285714,517.1285714285714,2959.2,554.2223214285714,517.1285714285714,3064.4,554.2223214285714,517.1285714285714,3166.9,554.2223214285714,517.1285714285714,3270.7,554.2223214285714,517.1285714285714,3383.2,554.2223214285714,517.1285714285714,3494.2,554.2223214285714,517.1285714285714,3600.2,554.2223214285714,517.1285714285714,3705.5,554.2223214285714,517.1285714285714,3807.1,554.2223214285714,517.1285714285714,3914.3,554.2223214285714,517.1285714285714,4022.8,554.2223214285714,517.1285714285714,4125.4,554.2223214285714,517.1285714285714,4238.6,554.2223214285714,517.1285714285714,4344.6,554.2223214285714,517.1285714285714,4447.7,554.2223214285714,517.1285714285714,4555.1,554.2223214285714,517.1285714285714,4658.9,554.2223214285714,517.1285714285714,4775.9,554.2223214285714,517.1285714285714,4883.7,554.2223214285714,517.1285714285714,4988.4]","[1448.2,1448.2,1000,0,448.2,""oops"",""right"",""left"",""bad_move"",5238.2,3785.5,2501.1,1452.7,1284.4,""smooth"",""right"",""right"",""good_move"",8908.4,3667.8,3298.1,5240.6,369.8,""smooth"",""right"",""right"",""good_move"",10825.9,1915.5,1483,8910.4,432.6,""smooth"",""right"",""right"",""good_move"",13747.2,2919.9,2545.5,10827.3,374.4,""smooth"",""right"",""right"",""good_move"",16096.2,2344.6,1963.4,13751.6,381.2,""smooth"",""down"",""down"",""good_move"",22535,6433.6,2391.6,19771.5,371.9,""smooth"",""down"",""down"",""good_move"",25173.1,2636.6,2239.1,22536.5,397.5,""smooth"",""down"",""down"",""good_move""]"
"5750","","<div style=""width:500px;"">
  <p>What determined the result of this run?</p>
  </div>","99","html-slider-response","69","1489339","0.0-7.0-1.11","218","1","2025-08-06 20:17:54","36c45c0696341be0efffe67d72a12abb","41.193.213.182","Mozilla/5.0 (Windows NT 10.0; Win64; x64) AppleWebKit/537.36 (KHTML, like Gecko) Chrome/138.0.0.0 Safari/537.36 Edg/138.0.0.0","WebKit","Edge","138.0.0.0","Windows","10.0","https://app.prolific.com/","en-US,en;q=0.9","67e94945e5f6a3090ed5a9d0","687a1a965b9f5b85a264363e","6893b861177cfbc233b53752","1","67e94945e5f6a3090ed5a9d0","1","2025-08-06T20:42:47.057Z","","","","AttribQ","","","","","","","","","","","50","","","","","","","","","","","","","","","","","","","","","","","","","","",""
"4294","","<div style=""width:500px;"">
  <p>How much control did you have over the ball?</p>
  </div>","98","html-slider-response","70","1493637","0.0-7.0-2.11","218","1","2025-08-06 20:17:54","36c45c0696341be0efffe67d72a12abb","41.193.213.182","Mozilla/5.0 (Windows NT 10.0; Win64; x64) AppleWebKit/537.36 (KHTML, like Gecko) Chrome/138.0.0.0 Safari/537.36 Edg/138.0.0.0","WebKit","Edge","138.0.0.0","Windows","10.0","https://app.prolific.com/","en-US,en;q=0.9","67e94945e5f6a3090ed5a9d0","687a1a965b9f5b85a264363e","6893b861177cfbc233b53752","1","67e94945e5f6a3090ed5a9d0","1","2025-08-06T20:42:51.355Z","","","","ControlQ","","","","","","","","","","","50","","","","","","","","","","","","","","","","","","","","","","","","","","",""
"3671","","<div style=""width:500px;"">
  <p>How would you describe your current emotional state?</p>
  </div>","17","html-slider-response","71","1497312","0.0-7.0-3.11","218","1","2025-08-06 20:17:54","36c45c0696341be0efffe67d72a12abb","41.193.213.182","Mozilla/5.0 (Windows NT 10.0; Win64; x64) AppleWebKit/537.36 (KHTML, like Gecko) Chrome/138.0.0.0 Safari/537.36 Edg/138.0.0.0","WebKit","Edge","138.0.0.0","Windows","10.0","https://app.prolific.com/","en-US,en;q=0.9","67e94945e5f6a3090ed5a9d0","687a1a965b9f5b85a264363e","6893b861177cfbc233b53752","1","67e94945e5f6a3090ed5a9d0","1","2025-08-06T20:42:55.030Z","","","","StressQ","","","","","","","","","","","50","","","","","","","","","","","","","","","","","","","","","","","","","","",""
"4941","","<div style=""width:500px;"">
  <p>What best describes how you currently feel?</p>
  </div>","16","html-slider-response","72","1502256","0.0-7.0-4.11","218","1","2025-08-06 20:17:54","36c45c0696341be0efffe67d72a12abb","41.193.213.182","Mozilla/5.0 (Windows NT 10.0; Win64; x64) AppleWebKit/537.36 (KHTML, like Gecko) Chrome/138.0.0.0 Safari/537.36 Edg/138.0.0.0","WebKit","Edge","138.0.0.0","Windows","10.0","https://app.prolific.com/","en-US,en;q=0.9","67e94945e5f6a3090ed5a9d0","687a1a965b9f5b85a264363e","6893b861177cfbc233b53752","1","67e94945e5f6a3090ed5a9d0","1","2025-08-06T20:42:59.974Z","","","","MotivationQ","","","","","","","","","","","50","","","","","","","","","","","","","","","","","","","","","","","","","","",""
"","","","","ctl-task-cpt","73","1545068","0.0-7.0-0.12","218","1","2025-08-06 20:17:54","36c45c0696341be0efffe67d72a12abb","41.193.213.182","Mozilla/5.0 (Windows NT 10.0; Win64; x64) AppleWebKit/537.36 (KHTML, like Gecko) Chrome/138.0.0.0 Safari/537.36 Edg/138.0.0.0","WebKit","Edge","138.0.0.0","Windows","10.0","https://app.prolific.com/","en-US,en;q=0.9","67e94945e5f6a3090ed5a9d0","687a1a965b9f5b85a264363e","6893b861177cfbc233b53752","1","67e94945e5f6a3090ed5a9d0","1","2025-08-06T20:43:42.787Z","","","","","","","","","","","","","","","","win-only","0","g1:NW,g2:SE","0.8","13","0","1505866.8","1391.3","6396.3","39774.6","1","4","4","6","2","4","4","33","29","0.25","1359.9","3000","2085","[""down"",""right""]","{""num_key_presses"":8,""num_perfect"":7,""num_errors"":0,""num_randdir"":1,""num_randdir_good_moves"":0,""num_whilered"":0,""num_whileblue"":0,""num_blue"":3,""num_good_moves"":7}","[298.22232142857143,296.12857142857143,0.8,298.22232142857143,296.12857142857143,109,298.22232142857143,296.12857142857143,214.2,298.22232142857143,296.12857142857143,331.4,298.22232142857143,296.12857142857143,440.1,298.22232142857143,296.12857142857143,556.3,437.22232142857143,386.12857142857143,663.3,511.22232142857143,476.12857142857143,776.8,530.2223214285714,490.12857142857143,878.7,538.2223214285714,503.12857142857143,981.8,538.2223214285714,521.1285714285714,1085.6,538.2223214285714,525.1285714285714,1193.8,538.2223214285714,525.1285714285714,1309.2,538.2223214285714,525.1285714285714,1418.5,538.2223214285714,525.1285714285714,1527.9,538.2223214285714,525.1285714285714,1636.2,538.2223214285714,525.1285714285714,1749.1,538.2223214285714,525.1285714285714,1861.5,538.2223214285714,525.1285714285714,1967.3,538.2223214285714,525.1285714285714,2070.2,538.2223214285714,525.1285714285714,2179.8,538.2223214285714,525.1285714285714,2293,538.2223214285714,525.1285714285714,2400.7,538.2223214285714,525.1285714285714,2513.8,538.2223214285714,525.1285714285714,2620.3,538.2223214285714,525.1285714285714,2736.5,538.2223214285714,525.1285714285714,2841.5,538.2223214285714,525.1285714285714,2943.2,538.2223214285714,525.1285714285714,3045.2,538.2223214285714,525.1285714285714,3159.9,538.2223214285714,525.1285714285714,3270.8,538.2223214285714,525.1285714285714,3384.1,538.2223214285714,525.1285714285714,3492.5,538.2223214285714,525.1285714285714,3592.7,538.2223214285714,525.1285714285714,3702.6,538.2223214285714,525.1285714285714,3811.7,538.2223214285714,525.1285714285714,3918.7,538.2223214285714,525.1285714285714,4034.8,538.2223214285714,525.1285714285714,4135.2,538.2223214285714,525.1285714285714,4240.5,538.2223214285714,525.1285714285714,4360.5,538.2223214285714,525.1285714285714,4465.3,538.2223214285714,525.1285714285714,4574.9,538.2223214285714,525.1285714285714,4691,538.2223214285714,525.1285714285714,4800.3,538.2223214285714,525.1285714285714,4908.5]","[4838.8,4838.8,2362.4,2018.2,458.2,""smooth"",""down"",""down"",""good_move"",7660.5,2816.7,2385.3,4843.8,431.4,""smooth"",""down"",""down"",""good_move"",10745.6,3081.7,2612.8,7664,468.8,""smooth"",""down"",""down"",""good_move"",20086.8,9339.4,2501.2,17141.5,444.2,""smooth"",""right"",""right"",""good_move"",22076.8,1988.5,1368.6,20088.4,619.9,""oops"",""right"",""up"",""bad_move"",25750.3,3671.5,2410.3,22078.9,1261.1,""smooth"",""right"",""right"",""good_move"",28954.4,3202,2728.5,25752.5,473.4,""smooth"",""right"",""right"",""good_move"",33017.2,4059.3,3693,28957.9,366.3,""smooth"",""down"",""down"",""good_move""]"
"3892","","<div style=""width:500px;"">
  <p>What determined the result of this run?</p>
  </div>","100","html-slider-response","74","1548962","0.0-7.0-1.12","218","1","2025-08-06 20:17:54","36c45c0696341be0efffe67d72a12abb","41.193.213.182","Mozilla/5.0 (Windows NT 10.0; Win64; x64) AppleWebKit/537.36 (KHTML, like Gecko) Chrome/138.0.0.0 Safari/537.36 Edg/138.0.0.0","WebKit","Edge","138.0.0.0","Windows","10.0","https://app.prolific.com/","en-US,en;q=0.9","67e94945e5f6a3090ed5a9d0","687a1a965b9f5b85a264363e","6893b861177cfbc233b53752","1","67e94945e5f6a3090ed5a9d0","1","2025-08-06T20:43:46.681Z","","","","AttribQ","","","","","","","","","","","50","","","","","","","","","","","","","","","","","","","","","","","","","","",""
"4658","","<div style=""width:500px;"">
  <p>How much control did you have over the ball?</p>
  </div>","94","html-slider-response","75","1553627","0.0-7.0-2.12","218","1","2025-08-06 20:17:54","36c45c0696341be0efffe67d72a12abb","41.193.213.182","Mozilla/5.0 (Windows NT 10.0; Win64; x64) AppleWebKit/537.36 (KHTML, like Gecko) Chrome/138.0.0.0 Safari/537.36 Edg/138.0.0.0","WebKit","Edge","138.0.0.0","Windows","10.0","https://app.prolific.com/","en-US,en;q=0.9","67e94945e5f6a3090ed5a9d0","687a1a965b9f5b85a264363e","6893b861177cfbc233b53752","1","67e94945e5f6a3090ed5a9d0","1","2025-08-06T20:43:51.345Z","","","","ControlQ","","","","","","","","","","","50","","","","","","","","","","","","","","","","","","","","","","","","","","",""
"18882","","<div style=""width:500px;"">
  <p>How would you describe your current emotional state?</p>
