"rt","response_timestamp","stimulus","response","trial_type","trial_index","time_elapsed","internal_node_id","run_id","condition","recorded_at","source_code_version","ip","user_agent","device","browser","browser_version","platform","platform_version","referer","accept_language","PROLIFIC_PID","STUDY_ID","SESSION_ID","BATCH","prolific_id","batch","realtime","success","question_order","question_id","eventType","responses","item_order","radio_event_ids","radio_event_times","key_event_times","mouse_event_times","straightlining","zigzagging","honeypot","view_history","slider_start","which_type","canvas_config","goals_layout","control_level","trial_number","tutorial_trial_number","trial_start_time","phase1_start_time","phase2_start_time","phase3_start_time","goal_1_value","goal_1_distance","goal_2_value","goal_2_distance","goal_selected","outcome","outcome_total","participant_final_score","participant_initial_score","participant_final_score_prop","goal_choice_rt","allocated_time","allocated_time_remaining","goal_direction","counts","mouse_movements","key_presses"
"570470","1754497318843","<p style='font-size:40px;line-height:1.25'><strong>Welcome to the experiment!</strong></p><p style='font-size:1.1em;line-height:1.25'>Thank you for participanting in our experiment again! You will be asked to play the Dysfunctional Ball Game again. We will briefly recap the rules before we start.</p><p style='font-size:1.1em;line-height:1.25'>Press <strong>Next</strong> to continue.</p>","0","custom-html-button-response","0","570473","0.0-0.0","211","1","2025-08-06 16:12:21","36c45c0696341be0efffe67d72a12abb","162.251.248.35","Mozilla/5.0 (Windows NT 10.0; Win64; x64) AppleWebKit/537.36 (KHTML, like Gecko) Chrome/134.0.0.0 Safari/537.36","WebKit","Chrome","134.0.0.0","Windows","10.0","https://app.prolific.com/","en-US,en;q=0.9","67eab317b6f969b3df440160","6877649eabb845cf142cd221","68937ed002b16a259f33b85f","1","67eab317b6f969b3df440160","1","2025-08-06T16:21:58.844Z","","","","","","","","","","","","","","","","","","","","","","","","","","","","","","","","","","","","","","","","","",""
"3646","","","","fullscreen","1","575136","0.0-1.0","211","1","2025-08-06 16:12:21","36c45c0696341be0efffe67d72a12abb","162.251.248.35","Mozilla/5.0 (Windows NT 10.0; Win64; x64) AppleWebKit/537.36 (KHTML, like Gecko) Chrome/134.0.0.0 Safari/537.36","WebKit","Chrome","134.0.0.0","Windows","10.0","https://app.prolific.com/","en-US,en;q=0.9","67eab317b6f969b3df440160","6877649eabb845cf142cd221","68937ed002b16a259f33b85f","1","67eab317b6f969b3df440160","1","","true","","","","","","","","","","","","","","","","","","","","","","","","","","","","","","","","","","","","","","","","",""
"33348","1754497356859"," <p style='font-size:1.1em;line-height:1.25'>Thank you for closing all other tabs.</p><p style='font-size:1.1em;line-height:1.25'>We will now invite you to fill in some questionnaires, before starting the game.<br>This will take about 5 minutes.<br></p><p style='font-size:1.1em;line-height:1.25'>Press the <strong>Next</strong> button to continue.</p>","0","custom-html-button-response","2","608489","0.0-2.0","211","1","2025-08-06 16:12:21","36c45c0696341be0efffe67d72a12abb","162.251.248.35","Mozilla/5.0 (Windows NT 10.0; Win64; x64) AppleWebKit/537.36 (KHTML, like Gecko) Chrome/134.0.0.0 Safari/537.36","WebKit","Chrome","134.0.0.0","Windows","10.0","https://app.prolific.com/","en-US,en;q=0.9","67eab317b6f969b3df440160","6877649eabb845cf142cd221","68937ed002b16a259f33b85f","1","67eab317b6f969b3df440160","1","2025-08-06T16:22:36.860Z","","","","","","","","","","","","","","","","","","","","","","","","","","","","","","","","","","","","","","","","","",""
"4638","","","{""assigned_sex"":""female""}","survey-multi-choice","3","613129","0.0-3.0-0.0","211","1","2025-08-06 16:12:21","36c45c0696341be0efffe67d72a12abb","162.251.248.35","Mozilla/5.0 (Windows NT 10.0; Win64; x64) AppleWebKit/537.36 (KHTML, like Gecko) Chrome/134.0.0.0 Safari/537.36","WebKit","Chrome","134.0.0.0","Windows","10.0","https://app.prolific.com/","en-US,en;q=0.9","67eab317b6f969b3df440160","6877649eabb845cf142cd221","68937ed002b16a259f33b85f","1","67eab317b6f969b3df440160","1","","","[0]","0","demographics","","","","","","","","","","","","","","","","","","","","","","","","","","","","","","","","","","","","","",""
"6782","1754497368283","<p style='font-size:1.1em;line-height:1.25'>In the following, we will perform a baseline assessment. This means that we will ask you a few questions relating to your experiences over the past month.<br></p><p style='font-size:1.1em;line-height:1.25'>Press the <strong>Next</strong> button to continue.</p>","0","custom-html-button-response","4","619912","0.0-4.0-0.0","211","1","2025-08-06 16:12:21","36c45c0696341be0efffe67d72a12abb","162.251.248.35","Mozilla/5.0 (Windows NT 10.0; Win64; x64) AppleWebKit/537.36 (KHTML, like Gecko) Chrome/134.0.0.0 Safari/537.36","WebKit","Chrome","134.0.0.0","Windows","10.0","https://app.prolific.com/","en-US,en;q=0.9","67eab317b6f969b3df440160","6877649eabb845cf142cd221","68937ed002b16a259f33b85f","1","67eab317b6f969b3df440160","1","2025-08-06T16:22:48.283Z","","","","","","","","","","","","","","","","","","","","","","","","","","","","","","","","","","","","","","","","","",""
"242287.10000002384","","","","survey-template","5","862203","0.0-4.0-1.0","211","1","2025-08-06 16:12:21","36c45c0696341be0efffe67d72a12abb","162.251.248.35","Mozilla/5.0 (Windows NT 10.0; Win64; x64) AppleWebKit/537.36 (KHTML, like Gecko) Chrome/134.0.0.0 Safari/537.36","WebKit","Chrome","134.0.0.0","Windows","10.0","https://app.prolific.com/","en-US,en;q=0.9","67eab317b6f969b3df440160","6877649eabb845cf142cd221","68937ed002b16a259f33b85f","1","67eab317b6f969b3df440160","1","2025-08-06T16:26:50.574Z","","","","pss","{""Q01"":""2"",""Q02"":""2"",""Q03"":""2"",""Q04"":""1"",""Q05"":""1"",""Q06"":""2"",""Q07"":""1"",""Q08"":""2"",""Q09"":""1"",""Q10"":""1""}","[0,1,2,3,4,5,6,7,8,9]","[""Q01"",""Q02"",""Q03"",""Q04"",""Q05"",""Q06"",""Q07"",""Q07"",""Q08"",""Q09"",""Q10""]","[6997.700000047684,13821.800000011921,18453.400000035763,23421.600000023842,27469.600000023842,32045.700000047684,49125.60000002384,50213.700000047684,54549.60000002384,61765.700000047684,76757.60000002384]","[]","[0,6997.700000047684,13821.800000011921,18453.400000035763,22790.80000001192,23421.600000023842,27469.600000023842,32045.700000047684,48541.60000002384,49125.60000002384,49693.700000047684,50213.700000047684,54549.60000002384,61765.700000047684,75197.80000001192,76398.60000002384,76757.60000002384,242285.90000003576]","0.5","0.5555555555555556","0","","","","","","","","","","","","","","","","","","","","","","","","","","","","",""
"4892","1754497615468","<p style='font-size:1.1em;line-height:1.25'>Thank you for your answers! Now we will ask you a few more questions relating to your feelings in the last 24 hours.<br></p><p style='font-size:1.1em;line-height:1.25'>Press the <strong>Next</strong> button to continue.</p>","0","custom-html-button-response","6","867097","0.0-4.0-2.0","211","1","2025-08-06 16:12:21","36c45c0696341be0efffe67d72a12abb","162.251.248.35","Mozilla/5.0 (Windows NT 10.0; Win64; x64) AppleWebKit/537.36 (KHTML, like Gecko) Chrome/134.0.0.0 Safari/537.36","WebKit","Chrome","134.0.0.0","Windows","10.0","https://app.prolific.com/","en-US,en;q=0.9","67eab317b6f969b3df440160","6877649eabb845cf142cd221","68937ed002b16a259f33b85f","1","67eab317b6f969b3df440160","1","2025-08-06T16:26:55.468Z","","","","","","","","","","","","","","","","","","","","","","","","","","","","","","","","","","","","","","","","","",""
"75703.79999995232","","","","survey-template","7","942804","0.0-4.0-3.0","211","1","2025-08-06 16:12:21","36c45c0696341be0efffe67d72a12abb","162.251.248.35","Mozilla/5.0 (Windows NT 10.0; Win64; x64) AppleWebKit/537.36 (KHTML, like Gecko) Chrome/134.0.0.0 Safari/537.36","WebKit","Chrome","134.0.0.0","Windows","10.0","https://app.prolific.com/","en-US,en;q=0.9","67eab317b6f969b3df440160","6877649eabb845cf142cd221","68937ed002b16a259f33b85f","1","67eab317b6f969b3df440160","1","2025-08-06T16:28:11.175Z","","","","drsp","{""Q01"":""0"",""Q02"":""0"",""Q03"":""0"",""Q04"":""1"",""Q05"":""1"",""Q06"":""1"",""Q07"":""1"",""Q08"":""0"",""Q09"":""1"",""Q10"":""0"",""Q11"":""0"",""Q12"":""0"",""Q13"":""5"",""Q14"":""2"",""Q15"":""1"",""Q16"":""1"",""Q17"":""1"",""Q18"":""0"",""Q19"":""0"",""Q20"":""0"",""Q21"":""0"",""Q22"":""0""}","[0,1,2,3,4,5,6,7,8,9,10,11,12,13,14,15,16,17,18,19,20,21]","[""Q01"",""Q01"",""Q02"",""Q03"",""Q04"",""Q05"",""Q06"",""Q07"",""Q08"",""Q08"",""Q09"",""Q10"",""Q11"",""Q12"",""Q13"",""Q14"",""Q15"",""Q16"",""Q17"",""Q18"",""Q19"",""Q20"",""Q21"",""Q22""]","[7685.299999952316,15869.599999964237,17237.099999964237,18389.299999952316,21037.5,24293.19999998808,25021.299999952316,26933,27821.099999964237,29429.19999998808,32269.099999964237,36621.19999998808,43694,45653.19999998808,49013.299999952316,51165.09999996424,54597,57141.09999996424,59717.09999996424,62101,64133.09999996424,70093.19999998808,71941,74845.09999996424]","[]","[0,7685.299999952316,9869.299999952316,15869.599999964237,16557.299999952316,17237.099999964237,18389.299999952316,21037.5,22494.5,24293.19999998808,25021.299999952316,26933,27821.099999964237,29429.19999998808,32269.099999964237,36621.19999998808,43109.39999997616,43694,45653.19999998808,49013.299999952316,51165.09999996424,54597,57141.09999996424,58749.299999952316,59717.09999996424,61701.299999952316,62101,64133.09999996424,70093.19999998808,71941,73757.39999997616,74845.09999996424,75701.29999995232]","0.5454545454545454","0.3333333333333333","0","","","","","","","","","","","","","","","","","","","","","","","","","","","","",""
"21274.900000035763","","","","survey-template","8","964081","0.0-4.0-4.0","211","1","2025-08-06 16:12:21","36c45c0696341be0efffe67d72a12abb","162.251.248.35","Mozilla/5.0 (Windows NT 10.0; Win64; x64) AppleWebKit/537.36 (KHTML, like Gecko) Chrome/134.0.0.0 Safari/537.36","WebKit","Chrome","134.0.0.0","Windows","10.0","https://app.prolific.com/","en-US,en;q=0.9","67eab317b6f969b3df440160","6877649eabb845cf142cd221","68937ed002b16a259f33b85f","1","67eab317b6f969b3df440160","1","2025-08-06T16:28:32.452Z","","","","stress","{""Q01"":""0"",""Q02"":""2"",""Q03"":""1""}","[0,1,2]","[""Q01"",""Q02"",""Q02"",""Q02"",""Q03""]","[3802.400000035763,5154.300000011921,7954.400000035763,8938.400000035763,20322.30000001192]","[]","[3802.400000035763,5154.300000011921,7954.400000035763,8938.400000035763,20322.30000001192,21274.400000035763]","0.3333333333333333","0","0","","","","","","","","","","","","","","","","","","","","","","","","","","","","",""
"97806","","","","instructions","9","1061889","0.0-5.0-0.0","211","1","2025-08-06 16:12:21","36c45c0696341be0efffe67d72a12abb","162.251.248.35","Mozilla/5.0 (Windows NT 10.0; Win64; x64) AppleWebKit/537.36 (KHTML, like Gecko) Chrome/134.0.0.0 Safari/537.36","WebKit","Chrome","134.0.0.0","Windows","10.0","https://app.prolific.com/","en-US,en;q=0.9","67eab317b6f969b3df440160","6877649eabb845cf142cd221","68937ed002b16a259f33b85f","1","67eab317b6f969b3df440160","1","","","","","","","","","","","","","","","[{""page_index"":0,""viewing_time"":97806}]","","","","","","","","","","","","","","","","","","","","","","","","","","","",""
"32182","","<p>Before you start with this game please answer the following three questions yourself. </p>
  <p>Through this game, we measure several aspects of your cognitive performance, such as reaction times, multi-tasking capabilities </p>
  <p>and the ability to assess the situation you are in.</p>
  <p></p>
  <p><b>How good do you usually are in such tasks?</b></p>","83","html-slider-response","10","1094073","0.0-6.0-0.0","211","1","2025-08-06 16:12:21","36c45c0696341be0efffe67d72a12abb","162.251.248.35","Mozilla/5.0 (Windows NT 10.0; Win64; x64) AppleWebKit/537.36 (KHTML, like Gecko) Chrome/134.0.0.0 Safari/537.36","WebKit","Chrome","134.0.0.0","Windows","10.0","https://app.prolific.com/","en-US,en;q=0.9","67eab317b6f969b3df440160","6877649eabb845cf142cd221","68937ed002b16a259f33b85f","1","67eab317b6f969b3df440160","1","2025-08-06T16:30:42.444Z","","","","PreSkillQ","","","","","","","","","","","50","","","","","","","","","","","","","","","","","","","","","","","","","","",""
"4718","","<div style=""width:500px;"">
  <p>How well do you think you will perform in this task compared to other participants?</p>
  </div>","82","html-slider-response","11","1098792","0.0-6.0-1.0","211","1","2025-08-06 16:12:21","36c45c0696341be0efffe67d72a12abb","162.251.248.35","Mozilla/5.0 (Windows NT 10.0; Win64; x64) AppleWebKit/537.36 (KHTML, like Gecko) Chrome/134.0.0.0 Safari/537.36","WebKit","Chrome","134.0.0.0","Windows","10.0","https://app.prolific.com/","en-US,en;q=0.9","67eab317b6f969b3df440160","6877649eabb845cf142cd221","68937ed002b16a259f33b85f","1","67eab317b6f969b3df440160","1","2025-08-06T16:30:47.164Z","","","","PrePerfQ","","","","","","","","","","","50","","","","","","","","","","","","","","","","","","","","","","","","","","",""
"3814","","<div style=""width:500px;"">
  <p>What best describes how you currently feel?</p>
  </div>","77","html-slider-response","12","1102608","0.0-6.0-2.0","211","1","2025-08-06 16:12:21","36c45c0696341be0efffe67d72a12abb","162.251.248.35","Mozilla/5.0 (Windows NT 10.0; Win64; x64) AppleWebKit/537.36 (KHTML, like Gecko) Chrome/134.0.0.0 Safari/537.36","WebKit","Chrome","134.0.0.0","Windows","10.0","https://app.prolific.com/","en-US,en;q=0.9","67eab317b6f969b3df440160","6877649eabb845cf142cd221","68937ed002b16a259f33b85f","1","67eab317b6f969b3df440160","1","2025-08-06T16:30:50.980Z","","","","PreMotivationQ","","","","","","","","","","","50","","","","","","","","","","","","","","","","","","","","","","","","","","",""
"","","","","ctl-task-cpt","13","1142292","0.0-7.0-0.0","211","1","2025-08-06 16:12:21","36c45c0696341be0efffe67d72a12abb","162.251.248.35","Mozilla/5.0 (Windows NT 10.0; Win64; x64) AppleWebKit/537.36 (KHTML, like Gecko) Chrome/134.0.0.0 Safari/537.36","WebKit","Chrome","134.0.0.0","Windows","10.0","https://app.prolific.com/","en-US,en;q=0.9","67eab317b6f969b3df440160","6877649eabb845cf142cd221","68937ed002b16a259f33b85f","1","67eab317b6f969b3df440160","1","2025-08-06T16:31:30.664Z","","","","","","","","","","","","","","","","win-only","0","g1:NW,g2:SE","1","1","0","1113666.5","5006.6","10007.3","36680","1","4","8","6","1","-1","-3","0","0","0","5000.6","3000","-2690","[""left"",""up""]","{""num_key_presses"":8,""num_perfect"":6,""num_errors"":2,""num_randdir"":0,""num_randdir_good_moves"":0,""num_whilered"":0,""num_whileblue"":2,""num_blue"":2,""num_good_moves"":2}","[421.07142857142856,422.1808016640799,0.2,421.07142857142856,422.1808016640799,100.2,424.07142857142856,425.1808016640799,203.8,424.07142857142856,425.1808016640799,304,400.07142857142856,431.1808016640799,409.2,391.07142857142856,434.1808016640799,510.1,391.07142857142856,434.1808016640799,610.1,391.07142857142856,434.1808016640799,714.6,391.07142857142856,434.1808016640799,814.7,391.07142857142856,434.1808016640799,919.5,391.07142857142856,434.1808016640799,1024.7,391.07142857142856,434.1808016640799,1124.7,391.07142857142856,434.1808016640799,1230.1,391.07142857142856,434.1808016640799,1330.7,391.07142857142856,434.1808016640799,1434.5,391.07142857142856,434.1808016640799,1534.6,391.07142857142856,434.1808016640799,1634.6,391.07142857142856,434.1808016640799,1739.2,391.07142857142856,434.1808016640799,1839.4,391.07142857142856,434.1808016640799,1939.4,391.07142857142856,434.1808016640799,2039.7,391.07142857142856,434.1808016640799,2139.9,391.07142857142856,434.1808016640799,2244,391.07142857142856,434.1808016640799,2344.1,391.07142857142856,434.1808016640799,2444.5,391.07142857142856,434.1808016640799,2550,391.07142857142856,434.1808016640799,2655.2,391.07142857142856,434.1808016640799,2760.7,391.07142857142856,434.1808016640799,2863.9,391.07142857142856,434.1808016640799,2964.1,391.07142857142856,434.1808016640799,3064.7,391.07142857142856,434.1808016640799,3169,391.07142857142856,434.1808016640799,3269.4,391.07142857142856,434.1808016640799,3374.4,391.07142857142856,434.1808016640799,3474.9,391.07142857142856,434.1808016640799,3579,391.07142857142856,434.1808016640799,3680.1,391.07142857142856,434.1808016640799,3785.6,391.07142857142856,434.1808016640799,3889.3,391.07142857142856,434.1808016640799,3989.5,391.07142857142856,434.1808016640799,4089.8,391.07142857142856,434.1808016640799,4190.2,391.07142857142856,434.1808016640799,4291.9,391.07142857142856,434.1808016640799,4394,391.07142857142856,434.1808016640799,4494.4,391.07142857142856,434.1808016640799,4594.4,391.07142857142856,434.1808016640799,4699,391.07142857142856,434.1808016640799,4799,391.07142857142856,434.1808016640799,4900.6]","[1391.2,1391.2,1000,0,391.2,""smooth"",""right"",""right"",""bad_move"",4142.2,2750.6,2382,1391.6,368.6,""smooth"",""down"",""down"",""bad_move"",7476.8,3334.2,2934.1,4142.6,400.1,""smooth"",""right"",""right"",""bad_move"",10198,2720.9,2292.6,7477.1,428.3,""while_blue"",""down"",""right"",""bad_move"",13595.3,3396.7,3042,10198.6,354.7,""smooth"",""down"",""down"",""bad_move"",16853.8,3258.3,2915,13595.5,343.3,""smooth"",""down"",""down"",""bad_move"",19780.5,2926.5,2215.1,16854,711.4,""smooth"",""left"",""left"",""good_move"",22254.2,2473.3,2138.2,19780.9,335.1,""while_blue"",""left"",""up"",""good_move""]"
"4531","","<div style=""width:500px;"">
  <p>What determined the result of this run?</p>
  </div>","83","html-slider-response","14","1146825","0.0-7.0-1.0","211","1","2025-08-06 16:12:21","36c45c0696341be0efffe67d72a12abb","162.251.248.35","Mozilla/5.0 (Windows NT 10.0; Win64; x64) AppleWebKit/537.36 (KHTML, like Gecko) Chrome/134.0.0.0 Safari/537.36","WebKit","Chrome","134.0.0.0","Windows","10.0","https://app.prolific.com/","en-US,en;q=0.9","67eab317b6f969b3df440160","6877649eabb845cf142cd221","68937ed002b16a259f33b85f","1","67eab317b6f969b3df440160","1","2025-08-06T16:31:35.196Z","","","","AttribQ","","","","","","","","","","","50","","","","","","","","","","","","","","","","","","","","","","","","","","",""
"4494","","<div style=""width:500px;"">
  <p>How much control did you have over the ball?</p>
  </div>","86","html-slider-response","15","1151320","0.0-7.0-2.0","211","1","2025-08-06 16:12:21","36c45c0696341be0efffe67d72a12abb","162.251.248.35","Mozilla/5.0 (Windows NT 10.0; Win64; x64) AppleWebKit/537.36 (KHTML, like Gecko) Chrome/134.0.0.0 Safari/537.36","WebKit","Chrome","134.0.0.0","Windows","10.0","https://app.prolific.com/","en-US,en;q=0.9","67eab317b6f969b3df440160","6877649eabb845cf142cd221","68937ed002b16a259f33b85f","1","67eab317b6f969b3df440160","1","2025-08-06T16:31:39.692Z","","","","ControlQ","","","","","","","","","","","50","","","","","","","","","","","","","","","","","","","","","","","","","","",""
"6151","","<div style=""width:500px;"">
  <p>How would you describe your current emotional state?</p>
  </div>","77","html-slider-response","16","1157472","0.0-7.0-3.0","211","1","2025-08-06 16:12:21","36c45c0696341be0efffe67d72a12abb","162.251.248.35","Mozilla/5.0 (Windows NT 10.0; Win64; x64) AppleWebKit/537.36 (KHTML, like Gecko) Chrome/134.0.0.0 Safari/537.36","WebKit","Chrome","134.0.0.0","Windows","10.0","https://app.prolific.com/","en-US,en;q=0.9","67eab317b6f969b3df440160","6877649eabb845cf142cd221","68937ed002b16a259f33b85f","1","67eab317b6f969b3df440160","1","2025-08-06T16:31:45.844Z","","","","StressQ","","","","","","","","","","","50","","","","","","","","","","","","","","","","","","","","","","","","","","",""
"5359","","<div style=""width:500px;"">
  <p>What best describes how you currently feel?</p>
  </div>","58","html-slider-response","17","1162832","0.0-7.0-4.0","211","1","2025-08-06 16:12:21","36c45c0696341be0efffe67d72a12abb","162.251.248.35","Mozilla/5.0 (Windows NT 10.0; Win64; x64) AppleWebKit/537.36 (KHTML, like Gecko) Chrome/134.0.0.0 Safari/537.36","WebKit","Chrome","134.0.0.0","Windows","10.0","https://app.prolific.com/","en-US,en;q=0.9","67eab317b6f969b3df440160","6877649eabb845cf142cd221","68937ed002b16a259f33b85f","1","67eab317b6f969b3df440160","1","2025-08-06T16:31:51.204Z","","","","MotivationQ","","","","","","","","","","","50","","","","","","","","","","","","","","","","","","","","","","","","","","",""
"","","","","ctl-task-cpt","18","1202305","0.0-7.0-0.1","211","1","2025-08-06 16:12:21","36c45c0696341be0efffe67d72a12abb","162.251.248.35","Mozilla/5.0 (Windows NT 10.0; Win64; x64) AppleWebKit/537.36 (KHTML, like Gecko) Chrome/134.0.0.0 Safari/537.36","WebKit","Chrome","134.0.0.0","Windows","10.0","https://app.prolific.com/","en-US,en;q=0.9","67eab317b6f969b3df440160","6877649eabb845cf142cd221","68937ed002b16a259f33b85f","1","67eab317b6f969b3df440160","1","2025-08-06T16:32:30.676Z","","","","","","","","","","","","","","","","win-only","0","g1:NW,g2:SE","0.9","2","0","1173889.3","2493.8","7496.4","36455.9","1","4","4","6","2","4","2","2","0","0.015151515151515152","5002.5","3000","460","[""down"",""right""]","{""num_key_presses"":11,""num_perfect"":8,""num_errors"":2,""num_randdir"":1,""num_randdir_good_moves"":0,""num_whilered"":0,""num_whileblue"":1,""num_blue"":1,""num_good_moves"":8}","[413.57142857142856,416.1808016640799,0.3,410.57142857142856,414.6808016640799,101.5,385.07142857142856,453.6808016640799,201.9,382.07142857142856,461.1808016640799,302.3,382.07142857142856,461.1808016640799,407.7,382.07142857142856,461.1808016640799,507.8,380.57142857142856,461.1808016640799,611.6,380.57142857142856,461.1808016640799,717.9,380.57142857142856,461.1808016640799,822.4,380.57142857142856,461.1808016640799,926.9,380.57142857142856,461.1808016640799,1033.9,380.57142857142856,461.1808016640799,1135.7,380.57142857142856,461.1808016640799,1236.8,380.57142857142856,461.1808016640799,1337.9,380.57142857142856,461.1808016640799,1442.2,380.57142857142856,461.1808016640799,1549.7,380.57142857142856,461.1808016640799,1652,380.57142857142856,461.1808016640799,1752.3,380.57142857142856,461.1808016640799,1852.4,380.57142857142856,461.1808016640799,1956.7,380.57142857142856,461.1808016640799,2057.5,380.57142857142856,461.1808016640799,2157.7,380.57142857142856,461.1808016640799,2267.4,380.57142857142856,461.1808016640799,2372.3,380.57142857142856,461.1808016640799,2472.3,380.57142857142856,461.1808016640799,2572.6,380.57142857142856,461.1808016640799,2677.5,380.57142857142856,461.1808016640799,2785.1,380.57142857142856,461.1808016640799,2887.4,380.57142857142856,461.1808016640799,2987.6,380.57142857142856,461.1808016640799,3091.5,380.57142857142856,461.1808016640799,3192,380.57142857142856,461.1808016640799,3300.9,380.57142857142856,461.1808016640799,3402.9,380.57142857142856,461.1808016640799,3507.2,380.57142857142856,461.1808016640799,3617.5,380.57142857142856,461.1808016640799,3723.2,380.57142857142856,461.1808016640799,3827.6,380.57142857142856,461.1808016640799,3934,380.57142857142856,461.1808016640799,4035,380.57142857142856,461.1808016640799,4136.5,380.57142857142856,461.1808016640799,4237.1,380.57142857142856,461.1808016640799,4342.3,380.57142857142856,461.1808016640799,4450.6,380.57142857142856,461.1808016640799,4551.1,380.57142857142856,461.1808016640799,4651.6,380.57142857142856,461.1808016640799,4752.1,380.57142857142856,461.1808016640799,4857.5,380.57142857142856,461.1808016640799,4957.6]","[1366.6,1366.6,1000,0,366.6,""smooth"",""right"",""right"",""good_move"",3030.1,1663.1,1308.2,1367,354.9,""while_blue"",""right"",""up"",""bad_move"",6405.8,3375.4,3123.1,3030.4,252.3,""smooth"",""down"",""down"",""good_move"",9714.3,3308.3,2922.7,6406,385.6,""smooth"",""down"",""down"",""good_move"",12118,2403.4,2132.5,9714.6,270.9,""oops"",""right"",""left"",""bad_move"",15101.9,2983.5,2745.9,12118.5,237.5,""smooth"",""right"",""right"",""good_move"",18205.9,3103.9,2845,15102,258.9,""smooth"",""right"",""right"",""good_move"",20184.5,1978.5,1657.6,18206,320.9,""smooth"",""right"",""right"",""good_move"",22568.5,2383.9,3258,20184.6,-874.1,""error"",""-"",""-"",""no_move"",26245.8,3677,2406.4,23570.4,269,""smooth"",""down"",""down"",""good_move"",28870.3,2624.3,2358.9,26246,265.4,""smooth"",""down"",""down"",""good_move""]"
"3950","","<div style=""width:500px;"">
  <p>What determined the result of this run?</p>
  </div>","84","html-slider-response","19","1206257","0.0-7.0-1.1","211","1","2025-08-06 16:12:21","36c45c0696341be0efffe67d72a12abb","162.251.248.35","Mozilla/5.0 (Windows NT 10.0; Win64; x64) AppleWebKit/537.36 (KHTML, like Gecko) Chrome/134.0.0.0 Safari/537.36","WebKit","Chrome","134.0.0.0","Windows","10.0","https://app.prolific.com/","en-US,en;q=0.9","67eab317b6f969b3df440160","6877649eabb845cf142cd221","68937ed002b16a259f33b85f","1","67eab317b6f969b3df440160","1","2025-08-06T16:32:34.628Z","","","","AttribQ","","","","","","","","","","","50","","","","","","","","","","","","","","","","","","","","","","","","","","",""
"3454","","<div style=""width:500px;"">
  <p>How much control did you have over the ball?</p>
  </div>","89","html-slider-response","20","1209712","0.0-7.0-2.1","211","1","2025-08-06 16:12:21","36c45c0696341be0efffe67d72a12abb","162.251.248.35","Mozilla/5.0 (Windows NT 10.0; Win64; x64) AppleWebKit/537.36 (KHTML, like Gecko) Chrome/134.0.0.0 Safari/537.36","WebKit","Chrome","134.0.0.0","Windows","10.0","https://app.prolific.com/","en-US,en;q=0.9","67eab317b6f969b3df440160","6877649eabb845cf142cd221","68937ed002b16a259f33b85f","1","67eab317b6f969b3df440160","1","2025-08-06T16:32:38.084Z","","","","ControlQ","","","","","","","","","","","50","","","","","","","","","","","","","","","","","","","","","","","","","","",""
"3415","","<div style=""width:500px;"">
  <p>How would you describe your current emotional state?</p>
  </div>","31","html-slider-response","21","1213128","0.0-7.0-3.1","211","1","2025-08-06 16:12:21","36c45c0696341be0efffe67d72a12abb","162.251.248.35","Mozilla/5.0 (Windows NT 10.0; Win64; x64) AppleWebKit/537.36 (KHTML, like Gecko) Chrome/134.0.0.0 Safari/537.36","WebKit","Chrome","134.0.0.0","Windows","10.0","https://app.prolific.com/","en-US,en;q=0.9","67eab317b6f969b3df440160","6877649eabb845cf142cd221","68937ed002b16a259f33b85f","1","67eab317b6f969b3df440160","1","2025-08-06T16:32:41.500Z","","","","StressQ","","","","","","","","","","","50","","","","","","","","","","","","","","","","","","","","","","","","","","",""
"2311","","<div style=""width:500px;"">
  <p>What best describes how you currently feel?</p>
  </div>","74","html-slider-response","22","1215441","0.0-7.0-4.1","211","1","2025-08-06 16:12:21","36c45c0696341be0efffe67d72a12abb","162.251.248.35","Mozilla/5.0 (Windows NT 10.0; Win64; x64) AppleWebKit/537.36 (KHTML, like Gecko) Chrome/134.0.0.0 Safari/537.36","WebKit","Chrome","134.0.0.0","Windows","10.0","https://app.prolific.com/","en-US,en;q=0.9","67eab317b6f969b3df440160","6877649eabb845cf142cd221","68937ed002b16a259f33b85f","1","67eab317b6f969b3df440160","1","2025-08-06T16:32:43.812Z","","","","MotivationQ","","","","","","","","","","","50","","","","","","","","","","","","","","","","","","","","","","","","","","",""
"","","","","ctl-task-cpt","23","1235851","0.0-7.0-0.2","211","1","2025-08-06 16:12:21","36c45c0696341be0efffe67d72a12abb","162.251.248.35","Mozilla/5.0 (Windows NT 10.0; Win64; x64) AppleWebKit/537.36 (KHTML, like Gecko) Chrome/134.0.0.0 Safari/537.36","WebKit","Chrome","134.0.0.0","Windows","10.0","https://app.prolific.com/","en-US,en;q=0.9","67eab317b6f969b3df440160","6877649eabb845cf142cd221","68937ed002b16a259f33b85f","1","67eab317b6f969b3df440160","1","2025-08-06T16:33:04.222Z","","","","","","","","","","","","","","","","win-only","1","g1:NE,g2:SW","0.8","3","0","1226498.5","896","5896.8","17391.4","1","4","4","6","1","1","0","2","2","0.015151515151515152","5000.8","3000","2045","[""up"",""right""]","{""num_key_presses"":4,""num_perfect"":3,""num_errors"":1,""num_randdir"":0,""num_randdir_good_moves"":0,""num_whilered"":0,""num_whileblue"":1,""num_blue"":1,""num_good_moves"":4}","[425.57142857142856,417.6808016640799,0.3,425.57142857142856,417.6808016640799,105.2,424.07142857142856,417.6808016640799,209.8,424.07142857142856,417.6808016640799,317.9,424.07142857142856,417.6808016640799,418.1,424.07142857142856,417.6808016640799,522.4,424.07142857142856,417.6808016640799,624.5,424.07142857142856,417.6808016640799,725.1,424.07142857142856,417.6808016640799,825.1,424.07142857142856,417.6808016640799,925.2,424.07142857142856,417.6808016640799,1029.3,424.07142857142856,417.6808016640799,1129.9,424.07142857142856,417.6808016640799,1230.9,424.07142857142856,417.6808016640799,1337.2,424.07142857142856,417.6808016640799,1439.7,424.07142857142856,417.6808016640799,1540.7,424.07142857142856,417.6808016640799,1644.7,424.07142857142856,417.6808016640799,1750.6,424.07142857142856,417.6808016640799,1851.4,424.07142857142856,417.6808016640799,1957.5,424.07142857142856,417.6808016640799,2059.8,424.07142857142856,417.6808016640799,2159.8,424.07142857142856,417.6808016640799,2259.9,424.07142857142856,417.6808016640799,2366.4,424.07142857142856,417.6808016640799,2473.2,424.07142857142856,417.6808016640799,2575.2,424.07142857142856,417.6808016640799,2680.3,424.07142857142856,417.6808016640799,2786.1,424.07142857142856,417.6808016640799,2888,424.07142857142856,417.6808016640799,2990,424.07142857142856,417.6808016640799,3094.4,424.07142857142856,417.6808016640799,3195.2,424.07142857142856,417.6808016640799,3301.5,424.07142857142856,417.6808016640799,3404,424.07142857142856,417.6808016640799,3504.5,424.07142857142856,417.6808016640799,3605.2,424.07142857142856,417.6808016640799,3710.1,424.07142857142856,417.6808016640799,3814.7,424.07142857142856,417.6808016640799,3924.3,424.07142857142856,417.6808016640799,4024.4,424.07142857142856,417.6808016640799,4124.5,424.07142857142856,417.6808016640799,4230.7,424.07142857142856,417.6808016640799,4334.6,424.07142857142856,417.6808016640799,4440.1,424.07142857142856,417.6808016640799,4540.2,424.07142857142856,417.6808016640799,4644.5,424.07142857142856,417.6808016640799,4745,424.07142857142856,417.6808016640799,4845.7,424.07142857142856,417.6808016640799,4952.9]","[1454.7,1454.7,1000,0,454.7,""smooth"",""up"",""up"",""good_move"",4469.6,3014.5,2761.7,1455.1,252.8,""smooth"",""up"",""up"",""good_move"",7740.4,3270.3,3028.7,4470.1,241.6,""while_blue"",""right"",""right"",""good_move"",11391.7,3650.9,3314.9,7740.8,336,""smooth"",""right"",""right"",""good_move""]"
"5669","","<div style=""width:500px;"">
  <p>What determined the result of this run?</p>
  </div>","78","html-slider-response","24","1241521","0.0-7.0-1.2","211","1","2025-08-06 16:12:21","36c45c0696341be0efffe67d72a12abb","162.251.248.35","Mozilla/5.0 (Windows NT 10.0; Win64; x64) AppleWebKit/537.36 (KHTML, like Gecko) Chrome/134.0.0.0 Safari/537.36","WebKit","Chrome","134.0.0.0","Windows","10.0","https://app.prolific.com/","en-US,en;q=0.9","67eab317b6f969b3df440160","6877649eabb845cf142cd221","68937ed002b16a259f33b85f","1","67eab317b6f969b3df440160","1","2025-08-06T16:33:09.892Z","","","","AttribQ","","","","","","","","","","","50","","","","","","","","","","","","","","","","","","","","","","","","","","",""
"1879","","<div style=""width:500px;"">
  <p>How much control did you have over the ball?</p>
  </div>","73","html-slider-response","25","1243401","0.0-7.0-2.2","211","1","2025-08-06 16:12:21","36c45c0696341be0efffe67d72a12abb","162.251.248.35","Mozilla/5.0 (Windows NT 10.0; Win64; x64) AppleWebKit/537.36 (KHTML, like Gecko) Chrome/134.0.0.0 Safari/537.36","WebKit","Chrome","134.0.0.0","Windows","10.0","https://app.prolific.com/","en-US,en;q=0.9","67eab317b6f969b3df440160","6877649eabb845cf142cd221","68937ed002b16a259f33b85f","1","67eab317b6f969b3df440160","1","2025-08-06T16:33:11.772Z","","","","ControlQ","","","","","","","","","","","50","","","","","","","","","","","","","","","","","","","","","","","","","","",""
"4198","","<div style=""width:500px;"">
  <p>How would you describe your current emotional state?</p>
  </div>","19","html-slider-response","26","1247601","0.0-7.0-3.2","211","1","2025-08-06 16:12:21","36c45c0696341be0efffe67d72a12abb","162.251.248.35","Mozilla/5.0 (Windows NT 10.0; Win64; x64) AppleWebKit/537.36 (KHTML, like Gecko) Chrome/134.0.0.0 Safari/537.36","WebKit","Chrome","134.0.0.0","Windows","10.0","https://app.prolific.com/","en-US,en;q=0.9","67eab317b6f969b3df440160","6877649eabb845cf142cd221","68937ed002b16a259f33b85f","1","67eab317b6f969b3df440160","1","2025-08-06T16:33:15.972Z","","","","StressQ","","","","","","","","","","","50","","","","","","","","","","","","","","","","","","","","","","","","","","",""
"2606","","<div style=""width:500px;"">
  <p>What best describes how you currently feel?</p>
  </div>","71","html-slider-response","27","1250208","0.0-7.0-4.2","211","1","2025-08-06 16:12:21","36c45c0696341be0efffe67d72a12abb","162.251.248.35","Mozilla/5.0 (Windows NT 10.0; Win64; x64) AppleWebKit/537.36 (KHTML, like Gecko) Chrome/134.0.0.0 Safari/537.36","WebKit","Chrome","134.0.0.0","Windows","10.0","https://app.prolific.com/","en-US,en;q=0.9","67eab317b6f969b3df440160","6877649eabb845cf142cd221","68937ed002b16a259f33b85f","1","67eab317b6f969b3df440160","1","2025-08-06T16:33:18.580Z","","","","MotivationQ","","","","","","","","","","","50","","","","","","","","","","","","","","","","","","","","","","","","","","",""
"","","","","ctl-task-cpt","28","1281112","0.0-7.0-0.3","211","1","2025-08-06 16:12:21","36c45c0696341be0efffe67d72a12abb","162.251.248.35","Mozilla/5.0 (Windows NT 10.0; Win64; x64) AppleWebKit/537.36 (KHTML, like Gecko) Chrome/134.0.0.0 Safari/537.36","WebKit","Chrome","134.0.0.0","Windows","10.0","https://app.prolific.com/","en-US,en;q=0.9","67eab317b6f969b3df440160","6877649eabb845cf142cd221","68937ed002b16a259f33b85f","1","67eab317b6f969b3df440160","1","2025-08-06T16:33:49.483Z","","","","","","","","","","","","","","","","win-only","0","g1:NW,g2:SE","0.7","4","0","1261266.3","1366.8","6371.1","27886","1","4","8","6","2","8","8","10","2","0.07575757575757576","5004.3","3000","905","[""down"",""right""]","{""num_key_presses"":8,""num_perfect"":6,""num_errors"":0,""num_randdir"":2,""num_randdir_good_moves"":1,""num_whilered"":0,""num_whileblue"":0,""num_blue"":0,""num_good_moves"":7}","[416.57142857142856,416.1808016640799,0.1,416.57142857142856,416.1808016640799,103.8,416.57142857142856,416.1808016640799,203.9,416.57142857142856,416.1808016640799,313.1,416.57142857142856,416.1808016640799,413.9,416.57142857142856,416.1808016640799,519,416.57142857142856,416.1808016640799,629.4,416.57142857142856,416.1808016640799,733.6,416.57142857142856,416.1808016640799,834.1,416.57142857142856,416.1808016640799,948.1,416.57142857142856,416.1808016640799,1048.4,416.57142857142856,416.1808016640799,1148.9,416.57142857142856,416.1808016640799,1248.9,416.57142857142856,416.1808016640799,1349.1,416.57142857142856,416.1808016640799,1449.6,416.57142857142856,416.1808016640799,1553.5,416.57142857142856,416.1808016640799,1653.6,416.57142857142856,416.1808016640799,1754,416.57142857142856,416.1808016640799,1859,416.57142857142856,416.1808016640799,1964.2,416.57142857142856,416.1808016640799,2064.6,416.57142857142856,416.1808016640799,2169,416.57142857142856,416.1808016640799,2269.1,416.57142857142856,416.1808016640799,2380,416.57142857142856,416.1808016640799,2483.8,416.57142857142856,416.1808016640799,2584.2,416.57142857142856,416.1808016640799,2689,416.57142857142856,416.1808016640799,2796.9,416.57142857142856,416.1808016640799,2899.4,416.57142857142856,416.1808016640799,2999.7,416.57142857142856,416.1808016640799,3103.9,416.57142857142856,416.1808016640799,3215.4,416.57142857142856,416.1808016640799,3318,416.57142857142856,416.1808016640799,3419.1,416.57142857142856,416.1808016640799,3534.8,416.57142857142856,416.1808016640799,3638.9,416.57142857142856,416.1808016640799,3739.2,416.57142857142856,416.1808016640799,3844.3,416.57142857142856,416.1808016640799,3952.4,416.57142857142856,416.1808016640799,4054.3,416.57142857142856,416.1808016640799,4165.7,416.57142857142856,416.1808016640799,4268.2,416.57142857142856,416.1808016640799,4369.3,416.57142857142856,416.1808016640799,4483.7,416.57142857142856,416.1808016640799,4584.1,416.57142857142856,416.1808016640799,4684.3,416.57142857142856,416.1808016640799,4789.2,416.57142857142856,416.1808016640799,4894.3,416.57142857142856,416.1808016640799,4998.3]","[1378.5,1378.6,1000,0,378.6,""smooth"",""right"",""right"",""good_move"",4422.4,3043.3,2707.9,1379.1,335.4,""smooth"",""right"",""right"",""good_move"",7128.3,2705.6,2465.1,4422.8,240.4,""smooth"",""down"",""down"",""good_move"",10392.3,3263.6,2985.2,7128.7,278.4,""oops"",""down"",""right"",""good_move"",12842.6,2450.1,2221,10392.6,229,""smooth"",""down"",""down"",""good_move"",15863,3020.2,2766.8,12842.8,253.4,""oops"",""down"",""left"",""bad_move"",18186.6,2323.1,1929.9,15863.5,393.2,""smooth"",""down"",""down"",""good_move"",21402.8,3215.9,2908,18186.9,307.9,""smooth"",""right"",""right"",""good_move""]"
"3000","","<div style=""width:500px;"">
  <p>What determined the result of this run?</p>
  </div>","76","html-slider-response","29","1284113","0.0-7.0-1.3","211","1","2025-08-06 16:12:21","36c45c0696341be0efffe67d72a12abb","162.251.248.35","Mozilla/5.0 (Windows NT 10.0; Win64; x64) AppleWebKit/537.36 (KHTML, like Gecko) Chrome/134.0.0.0 Safari/537.36","WebKit","Chrome","134.0.0.0","Windows","10.0","https://app.prolific.com/","en-US,en;q=0.9","67eab317b6f969b3df440160","6877649eabb845cf142cd221","68937ed002b16a259f33b85f","1","67eab317b6f969b3df440160","1","2025-08-06T16:33:52.484Z","","","","AttribQ","","","","","","","","","","","50","","","","","","","","","","","","","","","","","","","","","","","","","","",""
"1990","","<div style=""width:500px;"">
  <p>How much control did you have over the ball?</p>
  </div>","75","html-slider-response","30","1286105","0.0-7.0-2.3","211","1","2025-08-06 16:12:21","36c45c0696341be0efffe67d72a12abb","162.251.248.35","Mozilla/5.0 (Windows NT 10.0; Win64; x64) AppleWebKit/537.36 (KHTML, like Gecko) Chrome/134.0.0.0 Safari/537.36","WebKit","Chrome","134.0.0.0","Windows","10.0","https://app.prolific.com/","en-US,en;q=0.9","67eab317b6f969b3df440160","6877649eabb845cf142cd221","68937ed002b16a259f33b85f","1","67eab317b6f969b3df440160","1","2025-08-06T16:33:54.476Z","","","","ControlQ","","","","","","","","","","","50","","","","","","","","","","","","","","","","","","","","","","","","","","",""
"2110","","<div style=""width:500px;"">
  <p>How would you describe your current emotional state?</p>
  </div>","26","html-slider-response","31","1288217","0.0-7.0-3.3","211","1","2025-08-06 16:12:21","36c45c0696341be0efffe67d72a12abb","162.251.248.35","Mozilla/5.0 (Windows NT 10.0; Win64; x64) AppleWebKit/537.36 (KHTML, like Gecko) Chrome/134.0.0.0 Safari/537.36","WebKit","Chrome","134.0.0.0","Windows","10.0","https://app.prolific.com/","en-US,en;q=0.9","67eab317b6f969b3df440160","6877649eabb845cf142cd221","68937ed002b16a259f33b85f","1","67eab317b6f969b3df440160","1","2025-08-06T16:33:56.588Z","","","","StressQ","","","","","","","","","","","50","","","","","","","","","","","","","","","","","","","","","","","","","","",""
"1846","","<div style=""width:500px;"">
  <p>What best describes how you currently feel?</p>
  </div>","71","html-slider-response","32","1290065","0.0-7.0-4.3","211","1","2025-08-06 16:12:21","36c45c0696341be0efffe67d72a12abb","162.251.248.35","Mozilla/5.0 (Windows NT 10.0; Win64; x64) AppleWebKit/537.36 (KHTML, like Gecko) Chrome/134.0.0.0 Safari/537.36","WebKit","Chrome","134.0.0.0","Windows","10.0","https://app.prolific.com/","en-US,en;q=0.9","67eab317b6f969b3df440160","6877649eabb845cf142cd221","68937ed002b16a259f33b85f","1","67eab317b6f969b3df440160","1","2025-08-06T16:33:58.436Z","","","","MotivationQ","","","","","","","","","","","50","","","","","","","","","","","","","","","","","","","","","","","","","","",""
"","","","","ctl-task-cpt","33","1320494","0.0-7.0-0.4","211","1","2025-08-06 16:12:21","36c45c0696341be0efffe67d72a12abb","162.251.248.35","Mozilla/5.0 (Windows NT 10.0; Win64; x64) AppleWebKit/537.36 (KHTML, like Gecko) Chrome/134.0.0.0 Safari/537.36","WebKit","Chrome","134.0.0.0","Windows","10.0","https://app.prolific.com/","en-US,en;q=0.9","67eab317b6f969b3df440160","6877649eabb845cf142cd221","68937ed002b16a259f33b85f","1","67eab317b6f969b3df440160","1","2025-08-06T16:34:28.865Z","","","","","","","","","","","","","","","","win-only","0","g1:NW,g2:SE","0.6","5","0","1301123","990","5992.3","27401.7","1","4","4","6","2","-4","-5","5","10","0.03787878787878788","5002.3","3000","-2490","[""down"",""right""]","{""num_key_presses"":6,""num_perfect"":2,""num_errors"":1,""num_randdir"":3,""num_randdir_good_moves"":0,""num_whilered"":0,""num_whileblue"":1,""num_blue"":1,""num_good_moves"":2}","[413.57142857142856,410.1808016640799,0.1,413.57142857142856,410.1808016640799,100.3,413.57142857142856,410.1808016640799,212.9,406.07142857142856,413.1808016640799,315.7,386.57142857142856,419.1808016640799,415.7,385.07142857142856,419.1808016640799,527.7,383.57142857142856,419.1808016640799,630.1,383.57142857142856,419.1808016640799,737,383.57142857142856,419.1808016640799,853.2,383.57142857142856,419.1808016640799,956,383.57142857142856,419.1808016640799,1060.5,383.57142857142856,419.1808016640799,1161.2,383.57142857142856,419.1808016640799,1266,383.57142857142856,419.1808016640799,1384.1,383.57142857142856,419.1808016640799,1485.8,383.57142857142856,419.1808016640799,1591.4,383.57142857142856,419.1808016640799,1695.4,383.57142857142856,419.1808016640799,1801.3,383.57142857142856,419.1808016640799,1918,383.57142857142856,419.1808016640799,2018.2,383.57142857142856,419.1808016640799,2119.4,383.57142857142856,419.1808016640799,2220.8,383.57142857142856,419.1808016640799,2325.8,383.57142857142856,419.1808016640799,2430.6,383.57142857142856,419.1808016640799,2531.4,383.57142857142856,419.1808016640799,2635.5,383.57142857142856,419.1808016640799,2749.5,383.57142857142856,419.1808016640799,2852.7,383.57142857142856,419.1808016640799,2955.4,383.57142857142856,419.1808016640799,3069.1,383.57142857142856,419.1808016640799,3169.6,383.57142857142856,419.1808016640799,3271.3,383.57142857142856,419.1808016640799,3383.9,383.57142857142856,419.1808016640799,3484.3,383.57142857142856,419.1808016640799,3584.3,383.57142857142856,419.1808016640799,3684.4,383.57142857142856,419.1808016640799,3785.5,383.57142857142856,419.1808016640799,3885.7,383.57142857142856,419.1808016640799,4001.2,383.57142857142856,419.1808016640799,4102.5,383.57142857142856,419.1808016640799,4207,383.57142857142856,419.1808016640799,4316.2,383.57142857142856,419.1808016640799,4418.2,383.57142857142856,419.1808016640799,4520.5,383.57142857142856,419.1808016640799,4633.8,383.57142857142856,419.1808016640799,4737.6,383.57142857142856,419.1808016640799,4841.7,383.57142857142856,419.1808016640799,4943.7]","[1333.6,1333.6,1000,0,333.6,""smooth"",""right"",""right"",""good_move"",4556.4,3222.4,2976,1334.1,246.3,""oops"",""right"",""up"",""bad_move"",7444.7,2887.9,2624.2,4556.8,263.7,""smooth"",""right"",""right"",""good_move"",10476.7,3031.8,2779.4,7444.9,252.4,""oops"",""right"",""left"",""bad_move"",13572.5,3095.4,2801.7,10477.1,293.7,""while_blue"",""down"",""left"",""bad_move"",16618.4,3045.7,2647.2,13572.7,398.5,""oops"",""right"",""left"",""bad_move""]"
"4418","","<div style=""width:500px;"">
  <p>What determined the result of this run?</p>
  </div>","86","html-slider-response","34","1324913","0.0-7.0-1.4","211","1","2025-08-06 16:12:21","36c45c0696341be0efffe67d72a12abb","162.251.248.35","Mozilla/5.0 (Windows NT 10.0; Win64; x64) AppleWebKit/537.36 (KHTML, like Gecko) Chrome/134.0.0.0 Safari/537.36","WebKit","Chrome","134.0.0.0","Windows","10.0","https://app.prolific.com/","en-US,en;q=0.9","67eab317b6f969b3df440160","6877649eabb845cf142cd221","68937ed002b16a259f33b85f","1","67eab317b6f969b3df440160","1","2025-08-06T16:34:33.284Z","","","","AttribQ","","","","","","","","","","","50","","","","","","","","","","","","","","","","","","","","","","","","","","",""
"4111","","<div style=""width:500px;"">
  <p>How much control did you have over the ball?</p>
  </div>","15","html-slider-response","35","1329025","0.0-7.0-2.4","211","1","2025-08-06 16:12:21","36c45c0696341be0efffe67d72a12abb","162.251.248.35","Mozilla/5.0 (Windows NT 10.0; Win64; x64) AppleWebKit/537.36 (KHTML, like Gecko) Chrome/134.0.0.0 Safari/537.36","WebKit","Chrome","134.0.0.0","Windows","10.0","https://app.prolific.com/","en-US,en;q=0.9","67eab317b6f969b3df440160","6877649eabb845cf142cd221","68937ed002b16a259f33b85f","1","67eab317b6f969b3df440160","1","2025-08-06T16:34:37.396Z","","","","ControlQ","","","","","","","","","","","50","","","","","","","","","","","","","","","","","","","","","","","","","","",""
"2689","","<div style=""width:500px;"">
  <p>How would you describe your current emotional state?</p>
  </div>","87","html-slider-response","36","1331716","0.0-7.0-3.4","211","1","2025-08-06 16:12:21","36c45c0696341be0efffe67d72a12abb","162.251.248.35","Mozilla/5.0 (Windows NT 10.0; Win64; x64) AppleWebKit/537.36 (KHTML, like Gecko) Chrome/134.0.0.0 Safari/537.36","WebKit","Chrome","134.0.0.0","Windows","10.0","https://app.prolific.com/","en-US,en;q=0.9","67eab317b6f969b3df440160","6877649eabb845cf142cd221","68937ed002b16a259f33b85f","1","67eab317b6f969b3df440160","1","2025-08-06T16:34:40.087Z","","","","StressQ","","","","","","","","","","","50","","","","","","","","","","","","","","","","","","","","","","","","","","",""
"3179","","<div style=""width:500px;"">
  <p>What best describes how you currently feel?</p>
  </div>","19","html-slider-response","37","1334897","0.0-7.0-4.4","211","1","2025-08-06 16:12:21","36c45c0696341be0efffe67d72a12abb","162.251.248.35","Mozilla/5.0 (Windows NT 10.0; Win64; x64) AppleWebKit/537.36 (KHTML, like Gecko) Chrome/134.0.0.0 Safari/537.36","WebKit","Chrome","134.0.0.0","Windows","10.0","https://app.prolific.com/","en-US,en;q=0.9","67eab317b6f969b3df440160","6877649eabb845cf142cd221","68937ed002b16a259f33b85f","1","67eab317b6f969b3df440160","1","2025-08-06T16:34:43.268Z","","","","MotivationQ","","","","","","","","","","","50","","","","","","","","","","","","","","","","","","","","","","","","","","",""
"","","","","ctl-task-cpt","38","1370396","0.0-7.0-0.5","211","1","2025-08-06 16:12:21","36c45c0696341be0efffe67d72a12abb","162.251.248.35","Mozilla/5.0 (Windows NT 10.0; Win64; x64) AppleWebKit/537.36 (KHTML, like Gecko) Chrome/134.0.0.0 Safari/537.36","WebKit","Chrome","134.0.0.0","Windows","10.0","https://app.prolific.com/","en-US,en;q=0.9","67eab317b6f969b3df440160","6877649eabb845cf142cd221","68937ed002b16a259f33b85f","1","67eab317b6f969b3df440160","1","2025-08-06T16:35:18.767Z","","","","","","","","","","","","","","","","win-only","2","g1:SE,g2:NW","0.5","6","0","1345954.5","1002.2","6008.8","32480.7","1","4","8","6","2","8","7","12","5","0.09090909090909091","5006.6","3000","765","[""left"",""up""]","{""num_key_presses"":10,""num_perfect"":5,""num_errors"":1,""num_randdir"":4,""num_randdir_good_moves"":2,""num_whilered"":0,""num_whileblue"":1,""num_blue"":1,""num_good_moves"":8}","[407.57142857142856,413.1808016640799,0.4,407.57142857142856,413.1808016640799,104.9,406.07142857142856,413.1808016640799,206.7,482.57142857142856,476.1808016640799,309.4,613.0714285714286,569.1808016640799,419.5,659.5714285714286,606.6808016640799,529.3,659.5714285714286,614.1808016640799,641.9,659.5714285714286,614.1808016640799,753,659.5714285714286,614.1808016640799,853.5,659.5714285714286,614.1808016640799,958.7,659.5714285714286,614.1808016640799,1061.4,659.5714285714286,614.1808016640799,1164.7,659.5714285714286,614.1808016640799,1264.9,659.5714285714286,614.1808016640799,1365.7,659.5714285714286,614.1808016640799,1469.1,659.5714285714286,614.1808016640799,1571.9,659.5714285714286,614.1808016640799,1675.1,659.5714285714286,614.1808016640799,1778,659.5714285714286,614.1808016640799,1884,659.5714285714286,614.1808016640799,1988.7,659.5714285714286,614.1808016640799,2089.1,659.5714285714286,614.1808016640799,2203.5,659.5714285714286,614.1808016640799,2303.5,659.5714285714286,614.1808016640799,2403.5,659.5714285714286,614.1808016640799,2504,659.5714285714286,614.1808016640799,2611.7,659.5714285714286,614.1808016640799,2722,659.5714285714286,614.1808016640799,2823.3,659.5714285714286,614.1808016640799,2929.1,659.5714285714286,614.1808016640799,3033.7,659.5714285714286,614.1808016640799,3133.9,659.5714285714286,614.1808016640799,3238.9,659.5714285714286,614.1808016640799,3353,659.5714285714286,614.1808016640799,3453.9,659.5714285714286,614.1808016640799,3559.7,659.5714285714286,614.1808016640799,3669.5,659.5714285714286,614.1808016640799,3773.5,659.5714285714286,614.1808016640799,3880,659.5714285714286,614.1808016640799,3984,659.5714285714286,614.1808016640799,4088.1,659.5714285714286,614.1808016640799,4188.2,659.5714285714286,614.1808016640799,4288.8,659.5714285714286,614.1808016640799,4390.2,659.5714285714286,614.1808016640799,4501.3,659.5714285714286,614.1808016640799,4603.8,659.5714285714286,614.1808016640799,4705.4,659.5714285714286,614.1808016640799,4812.6,659.5714285714286,614.1808016640799,4915.2]","[1389,1389,1000,0,389,""smooth"",""up"",""up"",""good_move"",4364.9,2975.5,2598.6,1389.5,376.9,""smooth"",""up"",""up"",""good_move"",7382.1,3017,2666.4,4365.1,350.6,""oops"",""left"",""down"",""bad_move"",9532.6,2149.9,1855,7382.7,294.9,""oops"",""left"",""up"",""good_move"",12364.5,2831.5,2592.2,9533,239.3,""while_blue"",""left"",""up"",""good_move"",14931.9,2567,2250,12364.9,317,""smooth"",""left"",""left"",""good_move"",17100.5,2168.1,1852.5,14932.4,315.6,""smooth"",""left"",""left"",""good_move"",20372.8,3272.1,2994.7,17100.7,277.4,""oops"",""left"",""right"",""bad_move"",23255.7,2882.4,2611.1,20373.4,271.2,""smooth"",""left"",""left"",""good_move"",26348.7,3092.9,2807.5,23255.9,285.4,""oops"",""left"",""left"",""good_move""]"
"1884","","<div style=""width:500px;"">
  <p>What determined the result of this run?</p>
  </div>","81","html-slider-response","39","1372281","0.0-7.0-1.5","211","1","2025-08-06 16:12:21","36c45c0696341be0efffe67d72a12abb","162.251.248.35","Mozilla/5.0 (Windows NT 10.0; Win64; x64) AppleWebKit/537.36 (KHTML, like Gecko) Chrome/134.0.0.0 Safari/537.36","WebKit","Chrome","134.0.0.0","Windows","10.0","https://app.prolific.com/","en-US,en;q=0.9","67eab317b6f969b3df440160","6877649eabb845cf142cd221","68937ed002b16a259f33b85f","1","67eab317b6f969b3df440160","1","2025-08-06T16:35:20.652Z","","","","AttribQ","","","","","","","","","","","50","","","","","","","","","","","","","","","","","","","","","","","","","","",""
"1830","","<div style=""width:500px;"">
  <p>How much control did you have over the ball?</p>
  </div>","71","html-slider-response","40","1374113","0.0-7.0-2.5","211","1","2025-08-06 16:12:21","36c45c0696341be0efffe67d72a12abb","162.251.248.35","Mozilla/5.0 (Windows NT 10.0; Win64; x64) AppleWebKit/537.36 (KHTML, like Gecko) Chrome/134.0.0.0 Safari/537.36","WebKit","Chrome","134.0.0.0","Windows","10.0","https://app.prolific.com/","en-US,en;q=0.9","67eab317b6f969b3df440160","6877649eabb845cf142cd221","68937ed002b16a259f33b85f","1","67eab317b6f969b3df440160","1","2025-08-06T16:35:22.484Z","","","","ControlQ","","","","","","","","","","","50","","","","","","","","","","","","","","","","","","","","","","","","","","",""
"8934","","<div style=""width:500px;"">
  <p>How would you describe your current emotional state?</p>
  </div>","50","html-slider-response","41","1383049","0.0-7.0-3.5","211","1","2025-08-06 16:12:21","36c45c0696341be0efffe67d72a12abb","162.251.248.35","Mozilla/5.0 (Windows NT 10.0; Win64; x64) AppleWebKit/537.36 (KHTML, like Gecko) Chrome/134.0.0.0 Safari/537.36","WebKit","Chrome","134.0.0.0","Windows","10.0","https://app.prolific.com/","en-US,en;q=0.9","67eab317b6f969b3df440160","6877649eabb845cf142cd221","68937ed002b16a259f33b85f","1","67eab317b6f969b3df440160","1","2025-08-06T16:35:31.420Z","","","","StressQ","","","","","","","","","","","50","","","","","","","","","","","","","","","","","","","","","","","","","","",""
"9702","","<div style=""width:500px;"">
  <p>What best describes how you currently feel?</p>
  </div>","66","html-slider-response","42","1392753","0.0-7.0-4.5","211","1","2025-08-06 16:12:21","36c45c0696341be0efffe67d72a12abb","162.251.248.35","Mozilla/5.0 (Windows NT 10.0; Win64; x64) AppleWebKit/537.36 (KHTML, like Gecko) Chrome/134.0.0.0 Safari/537.36","WebKit","Chrome","134.0.0.0","Windows","10.0","https://app.prolific.com/","en-US,en;q=0.9","67eab317b6f969b3df440160","6877649eabb845cf142cd221","68937ed002b16a259f33b85f","1","67eab317b6f969b3df440160","1","2025-08-06T16:35:41.124Z","","","","MotivationQ","","","","","","","","","","","50","","","","","","","","","","","","","","","","","","","","","","","","","","",""
"","","","","ctl-task-cpt","43","1443651","0.0-7.0-0.6","211","1","2025-08-06 16:12:21","36c45c0696341be0efffe67d72a12abb","162.251.248.35","Mozilla/5.0 (Windows NT 10.0; Win64; x64) AppleWebKit/537.36 (KHTML, like Gecko) Chrome/134.0.0.0 Safari/537.36","WebKit","Chrome","134.0.0.0","Windows","10.0","https://app.prolific.com/","en-US,en;q=0.9","67eab317b6f969b3df440160","6877649eabb845cf142cd221","68937ed002b16a259f33b85f","1","67eab317b6f969b3df440160","1","2025-08-06T16:36:32.022Z","","","","","","","","","","","","","","","","win-only","2","g1:SE,g2:NW","0.4","7","0","1403811.2","829.9","5830.8","47866.4","1","4","8","6","2","-8","-10","2","12","0.015151515151515152","5000.9","3000","-2145","[""left"",""up""]","{""num_key_presses"":13,""num_perfect"":5,""num_errors"":2,""num_randdir"":6,""num_randdir_good_moves"":2,""num_whilered"":0,""num_whileblue"":2,""num_blue"":3,""num_good_moves"":8}","[415.07142857142856,414.6808016640799,0.1,415.07142857142856,414.6808016640799,102.5,416.57142857142856,414.6808016640799,205.9,416.57142857142856,420.6808016640799,313,416.57142857142856,420.6808016640799,423.2,416.57142857142856,420.6808016640799,525.6,416.57142857142856,420.6808016640799,631.5,416.57142857142856,420.6808016640799,731.5,416.57142857142856,420.6808016640799,835.5,416.57142857142856,420.6808016640799,936.2,416.57142857142856,420.6808016640799,1041.7,416.57142857142856,420.6808016640799,1150,416.57142857142856,420.6808016640799,1251.4,416.57142857142856,420.6808016640799,1352.6,416.57142857142856,420.6808016640799,1458.6,416.57142857142856,420.6808016640799,1560.8,416.57142857142856,420.6808016640799,1666.8,416.57142857142856,420.6808016640799,1770.7,416.57142857142856,420.6808016640799,1871.5,416.57142857142856,420.6808016640799,1971.5,416.57142857142856,420.6808016640799,2084.6,416.57142857142856,420.6808016640799,2186.6,416.57142857142856,420.6808016640799,2304.7,416.57142857142856,420.6808016640799,2408.8,416.57142857142856,420.6808016640799,2510.8,416.57142857142856,420.6808016640799,2615.8,416.57142857142856,420.6808016640799,2716.1,416.57142857142856,420.6808016640799,2817.1,416.57142857142856,420.6808016640799,2920.7,416.57142857142856,420.6808016640799,3020.7,416.57142857142856,420.6808016640799,3121.6,416.57142857142856,420.6808016640799,3236.5,416.57142857142856,420.6808016640799,3351.5,416.57142857142856,420.6808016640799,3452,416.57142857142856,420.6808016640799,3561.3,416.57142857142856,420.6808016640799,3665.6,416.57142857142856,420.6808016640799,3765.6,416.57142857142856,420.6808016640799,3866.2,416.57142857142856,420.6808016640799,3974.3,416.57142857142856,420.6808016640799,4075.9,416.57142857142856,420.6808016640799,4178.5,416.57142857142856,420.6808016640799,4292.1,416.57142857142856,420.6808016640799,4395.9,416.57142857142856,420.6808016640799,4507.1,416.57142857142856,420.6808016640799,4611.9,416.57142857142856,420.6808016640799,4722.1,416.57142857142856,420.6808016640799,4833.6,416.57142857142856,420.6808016640799,4935.7]","[1477.9,1477.9,1000,0,477.9,""smooth"",""up"",""up"",""good_move"",4239.2,2760.9,2426.2,1478.3,334.7,""oops"",""left"",""up"",""good_move"",7542,3302.6,2957,4239.4,345.6,""smooth"",""left"",""left"",""good_move"",10909.9,3367.4,3036.7,7542.5,330.7,""oops"",""left"",""down"",""bad_move"",14182.6,3272.3,3031.5,10910.3,240.8,""smooth"",""left"",""left"",""good_move"",17133.9,2951,2682,14182.9,269,""while_blue"",""up"",""down"",""bad_move"",19625.3,2491.1,2127.7,17134.2,363.4,""oops"",""up"",""right"",""bad_move"",21941.9,2316.2,1943.1,19625.7,373.1,""smooth"",""up"",""up"",""good_move"",27550.1,5607.7,2619.3,24676.5,254.3,""while_blue"",""left"",""left"",""good_move"",30662.1,3111.5,2724.7,27550.6,386.8,""oops"",""up"",""down"",""bad_move"",33179.6,2517.2,1890.4,30662.4,626.8,""oops"",""up"",""right"",""bad_move"",36422.7,3242.9,2925.1,33179.8,317.8,""oops"",""left"",""up"",""good_move"",38927.3,2504.2,2147,36423.1,357.2,""smooth"",""left"",""left"",""good_move""]"
"4437","","<div style=""width:500px;"">
  <p>What determined the result of this run?</p>
  </div>","6","html-slider-response","44","1448090","0.0-7.0-1.6","211","1","2025-08-06 16:12:21","36c45c0696341be0efffe67d72a12abb","162.251.248.35","Mozilla/5.0 (Windows NT 10.0; Win64; x64) AppleWebKit/537.36 (KHTML, like Gecko) Chrome/134.0.0.0 Safari/537.36","WebKit","Chrome","134.0.0.0","Windows","10.0","https://app.prolific.com/","en-US,en;q=0.9","67eab317b6f969b3df440160","6877649eabb845cf142cd221","68937ed002b16a259f33b85f","1","67eab317b6f969b3df440160","1","2025-08-06T16:36:36.461Z","","","","AttribQ","","","","","","","","","","","50","","","","","","","","","","","","","","","","","","","","","","","","","","",""
"2365","","<div style=""width:500px;"">
  <p>How much control did you have over the ball?</p>
  </div>","0","html-slider-response","45","1450457","0.0-7.0-2.6","211","1","2025-08-06 16:12:21","36c45c0696341be0efffe67d72a12abb","162.251.248.35","Mozilla/5.0 (Windows NT 10.0; Win64; x64) AppleWebKit/537.36 (KHTML, like Gecko) Chrome/134.0.0.0 Safari/537.36","WebKit","Chrome","134.0.0.0","Windows","10.0","https://app.prolific.com/","en-US,en;q=0.9","67eab317b6f969b3df440160","6877649eabb845cf142cd221","68937ed002b16a259f33b85f","1","67eab317b6f969b3df440160","1","2025-08-06T16:36:38.828Z","","","","ControlQ","","","","","","","","","","","50","","","","","","","","","","","","","","","","","","","","","","","","","","",""
"3751","","<div style=""width:500px;"">
  <p>How would you describe your current emotional state?</p>
  </div>","100","html-slider-response","46","1454210","0.0-7.0-3.6","211","1","2025-08-06 16:12:21","36c45c0696341be0efffe67d72a12abb","162.251.248.35","Mozilla/5.0 (Windows NT 10.0; Win64; x64) AppleWebKit/537.36 (KHTML, like Gecko) Chrome/134.0.0.0 Safari/537.36","WebKit","Chrome","134.0.0.0","Windows","10.0","https://app.prolific.com/","en-US,en;q=0.9","67eab317b6f969b3df440160","6877649eabb845cf142cd221","68937ed002b16a259f33b85f","1","67eab317b6f969b3df440160","1","2025-08-06T16:36:42.581Z","","","","StressQ","","","","","","","","","","","50","","","","","","","","","","","","","","","","","","","","","","","","","","",""
"3798","","<div style=""width:500px;"">
  <p>What best describes how you currently feel?</p>
  </div>","0","html-slider-response","47","1458009","0.0-7.0-4.6","211","1","2025-08-06 16:12:21","36c45c0696341be0efffe67d72a12abb","162.251.248.35","Mozilla/5.0 (Windows NT 10.0; Win64; x64) AppleWebKit/537.36 (KHTML, like Gecko) Chrome/134.0.0.0 Safari/537.36","WebKit","Chrome","134.0.0.0","Windows","10.0","https://app.prolific.com/","en-US,en;q=0.9","67eab317b6f969b3df440160","6877649eabb845cf142cd221","68937ed002b16a259f33b85f","1","67eab317b6f969b3df440160","1","2025-08-06T16:36:46.381Z","","","","MotivationQ","","","","","","","","","","","50","","","","","","","","","","","","","","","","","","","","","","","","","","",""
"","","","","ctl-task-cpt","48","1518773","0.0-7.0-0.7","211","1","2025-08-06 16:12:21","36c45c0696341be0efffe67d72a12abb","162.251.248.35","Mozilla/5.0 (Windows NT 10.0; Win64; x64) AppleWebKit/537.36 (KHTML, like Gecko) Chrome/134.0.0.0 Safari/537.36","WebKit","Chrome","134.0.0.0","Windows","10.0","https://app.prolific.com/","en-US,en;q=0.9","67eab317b6f969b3df440160","6877649eabb845cf142cd221","68937ed002b16a259f33b85f","1","67eab317b6f969b3df440160","1","2025-08-06T16:37:47.144Z","","","","","","","","","","","","","","","","win-only","3","g1:SW,g2:NE","0.3","8","0","1469067.7","2709.8","7724.9","57726.3","1","4","4","6","1","-1","-1","1","2","0.007575757575757576","5015.1","3000","-1930","[""down"",""left""]","{""num_key_presses"":12,""num_perfect"":4,""num_errors"":0,""num_randdir"":8,""num_randdir_good_moves"":3,""num_whilered"":0,""num_whileblue"":0,""num_blue"":4,""num_good_moves"":7}","[415.07142857142856,410.1808016640799,0.3,413.57142857142856,413.1808016640799,110.3,410.57142857142856,449.1808016640799,228.1,428.57142857142856,488.1808016640799,328.7,428.57142857142856,488.1808016640799,429.1,428.57142857142856,488.1808016640799,532.3,428.57142857142856,488.1808016640799,636,428.57142857142856,488.1808016640799,736.7,428.57142857142856,488.1808016640799,838.5,428.57142857142856,488.1808016640799,941.3,428.57142857142856,488.1808016640799,1052.5,428.57142857142856,488.1808016640799,1158.5,428.57142857142856,488.1808016640799,1265,428.57142857142856,488.1808016640799,1365.8,428.57142857142856,488.1808016640799,1465.8,428.57142857142856,488.1808016640799,1570.7,428.57142857142856,488.1808016640799,1670.8,428.57142857142856,488.1808016640799,1779.2,428.57142857142856,488.1808016640799,1886.9,428.57142857142856,488.1808016640799,1989,428.57142857142856,488.1808016640799,2102.6,428.57142857142856,488.1808016640799,2214.1,428.57142857142856,488.1808016640799,2330.1,428.57142857142856,488.1808016640799,2439.9,428.57142857142856,488.1808016640799,2540.6,428.57142857142856,488.1808016640799,2662.7,428.57142857142856,488.1808016640799,2766,428.57142857142856,488.1808016640799,2877.4,428.57142857142856,488.1808016640799,2981.3,428.57142857142856,488.1808016640799,3089,428.57142857142856,488.1808016640799,3190.9,428.57142857142856,488.1808016640799,3295.1,428.57142857142856,488.1808016640799,3395.9,428.57142857142856,488.1808016640799,3496.4,428.57142857142856,488.1808016640799,3601.4,428.57142857142856,488.1808016640799,3706.3,428.57142857142856,488.1808016640799,3822.3,428.57142857142856,488.1808016640799,3923.8,428.57142857142856,488.1808016640799,4030,428.57142857142856,488.1808016640799,4134.5,428.57142857142856,488.1808016640799,4236.1,428.57142857142856,488.1808016640799,4341.6,428.57142857142856,488.1808016640799,4442.1,428.57142857142856,488.1808016640799,4555.3,428.57142857142856,488.1808016640799,4656.3,428.57142857142856,488.1808016640799,4757.4,428.57142857142856,488.1808016640799,4878.9,428.57142857142856,488.1808016640799,4981.1]","[1591.5,1591.5,1000,0,591.5,""smooth"",""down"",""down"",""good_move"",4834.1,3242,2834.7,1592.1,407.3,""smooth"",""down"",""down"",""good_move"",10688.4,5854,2187.5,8160.6,340.3,""oops"",""left"",""right"",""bad_move"",13326.4,2637.5,2165,10689,472.4,""oops"",""left"",""right"",""bad_move"",15847.7,2521,2138.8,13326.7,382.2,""oops"",""left"",""right"",""bad_move"",18575.2,2727.3,2347,15847.9,380.3,""oops"",""left"",""left"",""good_move"",20775.7,2200.3,1817.8,18575.4,382.5,""oops"",""left"",""right"",""bad_move"",23607.4,2831.3,2455.3,20776.1,376,""oops"",""left"",""left"",""good_move"",29895.8,6288.1,2872.3,26740.6,282.9,""smooth"",""left"",""left"",""good_move"",32856.5,2960.4,2606.8,29896.1,353.6,""oops"",""left"",""right"",""bad_move"",39943.9,7087,3181.7,36371.4,390.8,""smooth"",""left"",""left"",""good_move"",47072.1,7128,2716.8,43901.2,454.1,""oops"",""left"",""left"",""good_move""]"
"4283","","<div style=""width:500px;"">
  <p>What determined the result of this run?</p>
  </div>","100","html-slider-response","49","1523057","0.0-7.0-1.7","211","1","2025-08-06 16:12:21","36c45c0696341be0efffe67d72a12abb","162.251.248.35","Mozilla/5.0 (Windows NT 10.0; Win64; x64) AppleWebKit/537.36 (KHTML, like Gecko) Chrome/134.0.0.0 Safari/537.36","WebKit","Chrome","134.0.0.0","Windows","10.0","https://app.prolific.com/","en-US,en;q=0.9","67eab317b6f969b3df440160","6877649eabb845cf142cd221","68937ed002b16a259f33b85f","1","67eab317b6f969b3df440160","1","2025-08-06T16:37:51.428Z","","","","AttribQ","","","","","","","","","","","50","","","","","","","","","","","","","","","","","","","","","","","","","","",""
"2286","","<div style=""width:500px;"">
  <p>How much control did you have over the ball?</p>
  </div>","0","html-slider-response","50","1525345","0.0-7.0-2.7","211","1","2025-08-06 16:12:21","36c45c0696341be0efffe67d72a12abb","162.251.248.35","Mozilla/5.0 (Windows NT 10.0; Win64; x64) AppleWebKit/537.36 (KHTML, like Gecko) Chrome/134.0.0.0 Safari/537.36","WebKit","Chrome","134.0.0.0","Windows","10.0","https://app.prolific.com/","en-US,en;q=0.9","67eab317b6f969b3df440160","6877649eabb845cf142cd221","68937ed002b16a259f33b85f","1","67eab317b6f969b3df440160","1","2025-08-06T16:37:53.716Z","","","","ControlQ","","","","","","","","","","","50","","","","","","","","","","","","","","","","","","","","","","","","","","",""
"3302","","<div style=""width:500px;"">
  <p>How would you describe your current emotional state?</p>
  </div>","100","html-slider-response","51","1528649","0.0-7.0-3.7","211","1","2025-08-06 16:12:21","36c45c0696341be0efffe67d72a12abb","162.251.248.35","Mozilla/5.0 (Windows NT 10.0; Win64; x64) AppleWebKit/537.36 (KHTML, like Gecko) Chrome/134.0.0.0 Safari/537.36","WebKit","Chrome","134.0.0.0","Windows","10.0","https://app.prolific.com/","en-US,en;q=0.9","67eab317b6f969b3df440160","6877649eabb845cf142cd221","68937ed002b16a259f33b85f","1","67eab317b6f969b3df440160","1","2025-08-06T16:37:57.020Z","","","","StressQ","","","","","","","","","","","50","","","","","","","","","","","","","","","","","","","","","","","","","","",""
"2159","","<div style=""width:500px;"">
  <p>What best describes how you currently feel?</p>
  </div>","3","html-slider-response","52","1530809","0.0-7.0-4.7","211","1","2025-08-06 16:12:21","36c45c0696341be0efffe67d72a12abb","162.251.248.35","Mozilla/5.0 (Windows NT 10.0; Win64; x64) AppleWebKit/537.36 (KHTML, like Gecko) Chrome/134.0.0.0 Safari/537.36","WebKit","Chrome","134.0.0.0","Windows","10.0","https://app.prolific.com/","en-US,en;q=0.9","67eab317b6f969b3df440160","6877649eabb845cf142cd221","68937ed002b16a259f33b85f","1","67eab317b6f969b3df440160","1","2025-08-06T16:37:59.180Z","","","","MotivationQ","","","","","","","","","","","50","","","","","","","","","","","","","","","","","","","","","","","","","","",""
"","","","","ctl-task-cpt","53","1563670","0.0-7.0-0.8","211","1","2025-08-06 16:12:21","36c45c0696341be0efffe67d72a12abb","162.251.248.35","Mozilla/5.0 (Windows NT 10.0; Win64; x64) AppleWebKit/537.36 (KHTML, like Gecko) Chrome/134.0.0.0 Safari/537.36","WebKit","Chrome","134.0.0.0","Windows","10.0","https://app.prolific.com/","en-US,en;q=0.9","67eab317b6f969b3df440160","6877649eabb845cf142cd221","68937ed002b16a259f33b85f","1","67eab317b6f969b3df440160","1","2025-08-06T16:38:32.041Z","","","","","","","","","","","","","","","","win-only","2","g1:SE,g2:NW","0.4","9","0","1541867.8","10701.6","15706.5","29839.8","1","4","4","6","1","1","1","2","1","0.015151515151515152","5004.9","3000","335","[""down"",""right""]","{""num_key_presses"":4,""num_perfect"":3,""num_errors"":0,""num_randdir"":1,""num_randdir_good_moves"":1,""num_whilered"":0,""num_whileblue"":0,""num_blue"":0,""num_good_moves"":4}","[413.57142857142856,419.1808016640799,0.8,413.57142857142856,419.1808016640799,104.3,413.57142857142856,419.1808016640799,207.3,413.57142857142856,419.1808016640799,322.9,413.57142857142856,419.1808016640799,429.2,413.57142857142856,419.1808016640799,529.5,413.57142857142856,419.1808016640799,642.9,413.57142857142856,419.1808016640799,760.3,413.57142857142856,419.1808016640799,864,413.57142857142856,419.1808016640799,968.8,413.57142857142856,419.1808016640799,1068.9,413.57142857142856,419.1808016640799,1180.7,413.57142857142856,419.1808016640799,1285.2,413.57142857142856,419.1808016640799,1385.3,413.57142857142856,419.1808016640799,1493.8,413.57142857142856,419.1808016640799,1605.8,413.57142857142856,419.1808016640799,1714.9,413.57142857142856,419.1808016640799,1824.3,413.57142857142856,419.1808016640799,1924.7,413.57142857142856,419.1808016640799,2024.8,413.57142857142856,419.1808016640799,2148.1,413.57142857142856,419.1808016640799,2250,413.57142857142856,419.1808016640799,2354.2,413.57142857142856,419.1808016640799,2470.6,413.57142857142856,419.1808016640799,2570.9,413.57142857142856,419.1808016640799,2675.4,413.57142857142856,419.1808016640799,2793.6,413.57142857142856,419.1808016640799,2898.3,413.57142857142856,419.1808016640799,3011.2,413.57142857142856,419.1808016640799,3112.3,413.57142857142856,419.1808016640799,3214.5,413.57142857142856,419.1808016640799,3324.7,413.57142857142856,419.1808016640799,3425.2,413.57142857142856,419.1808016640799,3539.6,413.57142857142856,419.1808016640799,3666.6,413.57142857142856,419.1808016640799,3786.5,413.57142857142856,419.1808016640799,3906.3,413.57142857142856,419.1808016640799,4022.5,413.57142857142856,419.1808016640799,4138.8,413.57142857142856,419.1808016640799,4241.1,413.57142857142856,419.1808016640799,4355.6,413.57142857142856,419.1808016640799,4477.9,413.57142857142856,419.1808016640799,4579.1,413.57142857142856,419.1808016640799,4687.3,413.57142857142856,419.1808016640799,4790,413.57142857142856,419.1808016640799,4915.1]","[4946.2,4946.2,1000,0,3946.2,""oops"",""right"",""down"",""good_move"",7892.5,2945.7,2533.1,4946.8,412.6,""smooth"",""right"",""right"",""good_move"",10729.9,2836.9,2499.6,7893,337.3,""smooth"",""right"",""right"",""good_move"",13986.2,3256.1,2896.8,10730.1,359.3,""smooth"",""down"",""down"",""good_move""]"
"3179","","<div style=""width:500px;"">
  <p>What determined the result of this run?</p>
  </div>","100","html-slider-response","54","1566850","0.0-7.0-1.8","211","1","2025-08-06 16:12:21","36c45c0696341be0efffe67d72a12abb","162.251.248.35","Mozilla/5.0 (Windows NT 10.0; Win64; x64) AppleWebKit/537.36 (KHTML, like Gecko) Chrome/134.0.0.0 Safari/537.36","WebKit","Chrome","134.0.0.0","Windows","10.0","https://app.prolific.com/","en-US,en;q=0.9","67eab317b6f969b3df440160","6877649eabb845cf142cd221","68937ed002b16a259f33b85f","1","67eab317b6f969b3df440160","1","2025-08-06T16:38:35.221Z","","","","AttribQ","","","","","","","","","","","50","","","","","","","","","","","","","","","","","","","","","","","","","","",""
"2182","","<div style=""width:500px;"">
  <p>How much control did you have over the ball?</p>
  </div>","0","html-slider-response","55","1569034","0.0-7.0-2.8","211","1","2025-08-06 16:12:21","36c45c0696341be0efffe67d72a12abb","162.251.248.35","Mozilla/5.0 (Windows NT 10.0; Win64; x64) AppleWebKit/537.36 (KHTML, like Gecko) Chrome/134.0.0.0 Safari/537.36","WebKit","Chrome","134.0.0.0","Windows","10.0","https://app.prolific.com/","en-US,en;q=0.9","67eab317b6f969b3df440160","6877649eabb845cf142cd221","68937ed002b16a259f33b85f","1","67eab317b6f969b3df440160","1","2025-08-06T16:38:37.405Z","","","","ControlQ","","","","","","","","","","","50","","","","","","","","","","","","","","","","","","","","","","","","","","",""
"3366","","<div style=""width:500px;"">
  <p>How would you describe your current emotional state?</p>
  </div>","100","html-slider-response","56","1572402","0.0-7.0-3.8","211","1","2025-08-06 16:12:21","36c45c0696341be0efffe67d72a12abb","162.251.248.35","Mozilla/5.0 (Windows NT 10.0; Win64; x64) AppleWebKit/537.36 (KHTML, like Gecko) Chrome/134.0.0.0 Safari/537.36","WebKit","Chrome","134.0.0.0","Windows","10.0","https://app.prolific.com/","en-US,en;q=0.9","67eab317b6f969b3df440160","6877649eabb845cf142cd221","68937ed002b16a259f33b85f","1","67eab317b6f969b3df440160","1","2025-08-06T16:38:40.773Z","","","","StressQ","","","","","","","","","","","50","","","","","","","","","","","","","","","","","","","","","","","","","","",""
"1933","","<div style=""width:500px;"">
  <p>What best describes how you currently feel?</p>
  </div>","4","html-slider-response","57","1574337","0.0-7.0-4.8","211","1","2025-08-06 16:12:21","36c45c0696341be0efffe67d72a12abb","162.251.248.35","Mozilla/5.0 (Windows NT 10.0; Win64; x64) AppleWebKit/537.36 (KHTML, like Gecko) Chrome/134.0.0.0 Safari/537.36","WebKit","Chrome","134.0.0.0","Windows","10.0","https://app.prolific.com/","en-US,en;q=0.9","67eab317b6f969b3df440160","6877649eabb845cf142cd221","68937ed002b16a259f33b85f","1","67eab317b6f969b3df440160","1","2025-08-06T16:38:42.708Z","","","","MotivationQ","","","","","","","","","","","50","","","","","","","","","","","","","","","","","","","","","","","","","","",""
"","","","","ctl-task-cpt","58","1605836","0.0-7.0-0.9","211","1","2025-08-06 16:12:21","36c45c0696341be0efffe67d72a12abb","162.251.248.35","Mozilla/5.0 (Windows NT 10.0; Win64; x64) AppleWebKit/537.36 (KHTML, like Gecko) Chrome/134.0.0.0 Safari/537.36","WebKit","Chrome","134.0.0.0","Windows","10.0","https://app.prolific.com/","en-US,en;q=0.9","67eab317b6f969b3df440160","6877649eabb845cf142cd221","68937ed002b16a259f33b85f","1","67eab317b6f969b3df440160","1","2025-08-06T16:39:14.207Z","","","","","","","","","","","","","","","","win-only","0","g1:NW,g2:SE","0.5","10","0","1585395.3","6717.8","11735.9","28455.7","1","4","8","6","1","1","1","3","2","0.022727272727272728","5018.1","3000","2160","[""left"",""up""]","{""num_key_presses"":4,""num_perfect"":1,""num_errors"":0,""num_randdir"":3,""num_randdir_good_moves"":3,""num_whilered"":0,""num_whileblue"":0,""num_blue"":2,""num_good_moves"":4}","[410.57142857142856,408.6808016640799,0.3,410.57142857142856,408.6808016640799,105.8,410.57142857142856,416.1808016640799,218.2,410.57142857142856,425.1808016640799,332.4,410.57142857142856,425.1808016640799,433.1,410.57142857142856,425.1808016640799,544.5,410.57142857142856,425.1808016640799,665.1,410.57142857142856,425.1808016640799,765.1,410.57142857142856,425.1808016640799,868.1,410.57142857142856,425.1808016640799,973.4,410.57142857142856,425.1808016640799,1088.7,410.57142857142856,425.1808016640799,1188.9,410.57142857142856,425.1808016640799,1289.3,410.57142857142856,425.1808016640799,1402.7,410.57142857142856,425.1808016640799,1509.2,410.57142857142856,425.1808016640799,1624.1,410.57142857142856,425.1808016640799,1758.8,410.57142857142856,425.1808016640799,1873.7,410.57142857142856,425.1808016640799,1984.3,410.57142857142856,425.1808016640799,2088.2,410.57142857142856,425.1808016640799,2190.1,410.57142857142856,425.1808016640799,2301,410.57142857142856,425.1808016640799,2415,410.57142857142856,425.1808016640799,2516,410.57142857142856,425.1808016640799,2630.9,410.57142857142856,425.1808016640799,2747.1,410.57142857142856,425.1808016640799,2853.1,410.57142857142856,425.1808016640799,2958,410.57142857142856,425.1808016640799,3082.3,410.57142857142856,425.1808016640799,3182.8,410.57142857142856,425.1808016640799,3296.9,410.57142857142856,425.1808016640799,3399,410.57142857142856,425.1808016640799,3503.1,410.57142857142856,425.1808016640799,3608.1,410.57142857142856,425.1808016640799,3713.8,410.57142857142856,425.1808016640799,3837.1,410.57142857142856,425.1808016640799,3937.8,410.57142857142856,425.1808016640799,4049.4,410.57142857142856,425.1808016640799,4152.9,410.57142857142856,425.1808016640799,4259.7,410.57142857142856,425.1808016640799,4378.7,410.57142857142856,425.1808016640799,4494,410.57142857142856,425.1808016640799,4616.5,410.57142857142856,425.1808016640799,4734.7,410.57142857142856,425.1808016640799,4852.3,410.57142857142856,425.1808016640799,4965.7]","[1445.6,1445.6,1000,0,445.6,""smooth"",""up"",""up"",""good_move"",7356.9,5910.6,2214.5,4845.1,297.3,""oops"",""left"",""left"",""good_move"",13989.1,6631.8,2601.5,10976.1,411.5,""oops"",""up"",""left"",""good_move"",16575.3,2586,2156,13989.3,430,""oops"",""up"",""up"",""good_move""]"
"3372","","<div style=""width:500px;"">
  <p>What determined the result of this run?</p>
  </div>","100","html-slider-response","59","1609209","0.0-7.0-1.9","211","1","2025-08-06 16:12:21","36c45c0696341be0efffe67d72a12abb","162.251.248.35","Mozilla/5.0 (Windows NT 10.0; Win64; x64) AppleWebKit/537.36 (KHTML, like Gecko) Chrome/134.0.0.0 Safari/537.36","WebKit","Chrome","134.0.0.0","Windows","10.0","https://app.prolific.com/","en-US,en;q=0.9","67eab317b6f969b3df440160","6877649eabb845cf142cd221","68937ed002b16a259f33b85f","1","67eab317b6f969b3df440160","1","2025-08-06T16:39:17.580Z","","","","AttribQ","","","","","","","","","","","50","","","","","","","","","","","","","","","","","","","","","","","","","","",""
"1773","","<div style=""width:500px;"">
  <p>How much control did you have over the ball?</p>
  </div>","0","html-slider-response","60","1610985","0.0-7.0-2.9","211","1","2025-08-06 16:12:21","36c45c0696341be0efffe67d72a12abb","162.251.248.35","Mozilla/5.0 (Windows NT 10.0; Win64; x64) AppleWebKit/537.36 (KHTML, like Gecko) Chrome/134.0.0.0 Safari/537.36","WebKit","Chrome","134.0.0.0","Windows","10.0","https://app.prolific.com/","en-US,en;q=0.9","67eab317b6f969b3df440160","6877649eabb845cf142cd221","68937ed002b16a259f33b85f","1","67eab317b6f969b3df440160","1","2025-08-06T16:39:19.356Z","","","","ControlQ","","","","","","","","","","","50","","","","","","","","","","","","","","","","","","","","","","","","","","",""
"3070","","<div style=""width:500px;"">
  <p>How would you describe your current emotional state?</p>
  </div>","97","html-slider-response","61","1614057","0.0-7.0-3.9","211","1","2025-08-06 16:12:21","36c45c0696341be0efffe67d72a12abb","162.251.248.35","Mozilla/5.0 (Windows NT 10.0; Win64; x64) AppleWebKit/537.36 (KHTML, like Gecko) Chrome/134.0.0.0 Safari/537.36","WebKit","Chrome","134.0.0.0","Windows","10.0","https://app.prolific.com/","en-US,en;q=0.9","67eab317b6f969b3df440160","6877649eabb845cf142cd221","68937ed002b16a259f33b85f","1","67eab317b6f969b3df440160","1","2025-08-06T16:39:22.428Z","","","","StressQ","","","","","","","","","","","50","","","","","","","","","","","","","","","","","","","","","","","","","","",""
"1582","","<div style=""width:500px;"">
  <p>What best describes how you currently feel?</p>
  </div>","3","html-slider-response","62","1615641","0.0-7.0-4.9","211","1","2025-08-06 16:12:21","36c45c0696341be0efffe67d72a12abb","162.251.248.35","Mozilla/5.0 (Windows NT 10.0; Win64; x64) AppleWebKit/537.36 (KHTML, like Gecko) Chrome/134.0.0.0 Safari/537.36","WebKit","Chrome","134.0.0.0","Windows","10.0","https://app.prolific.com/","en-US,en;q=0.9","67eab317b6f969b3df440160","6877649eabb845cf142cd221","68937ed002b16a259f33b85f","1","67eab317b6f969b3df440160","1","2025-08-06T16:39:24.012Z","","","","MotivationQ","","","","","","","","","","","50","","","","","","","","","","","","","","","","","","","","","","","","","","",""
"","","","","ctl-task-cpt","63","1653549","0.0-7.0-0.10","211","1","2025-08-06 16:12:21","36c45c0696341be0efffe67d72a12abb","162.251.248.35","Mozilla/5.0 (Windows NT 10.0; Win64; x64) AppleWebKit/537.36 (KHTML, like Gecko) Chrome/134.0.0.0 Safari/537.36","WebKit","Chrome","134.0.0.0","Windows","10.0","https://app.prolific.com/","en-US,en;q=0.9","67eab317b6f969b3df440160","6877649eabb845cf142cd221","68937ed002b16a259f33b85f","1","67eab317b6f969b3df440160","1","2025-08-06T16:40:01.920Z","","","","","","","","","","","","","","","","win-only","0","g1:NW,g2:SE","0.6","11","0","1626698.9","7493","12514.3","34875.8","1","4","4","6","1","1","1","4","3","0.030303030303030304","5021.3","3000","1670","[""left"",""up""]","{""num_key_presses"":8,""num_perfect"":5,""num_errors"":0,""num_randdir"":3,""num_randdir_good_moves"":1,""num_whilered"":0,""num_whileblue"":0,""num_blue"":0,""num_good_moves"":6}","[422.57142857142856,423.6808016640799,0.3,422.57142857142856,423.6808016640799,111.9,422.57142857142856,423.6808016640799,242.1,422.57142857142856,423.6808016640799,344.2,422.57142857142856,423.6808016640799,448.7,422.57142857142856,423.6808016640799,555,422.57142857142856,423.6808016640799,657.3,422.57142857142856,423.6808016640799,757.3,422.57142857142856,423.6808016640799,857.4,422.57142857142856,423.6808016640799,958.2,422.57142857142856,423.6808016640799,1080.2,422.57142857142856,423.6808016640799,1198.9,422.57142857142856,423.6808016640799,1307.2,422.57142857142856,423.6808016640799,1408.1,422.57142857142856,423.6808016640799,1517.1,422.57142857142856,423.6808016640799,1635.3,422.57142857142856,423.6808016640799,1746.6,422.57142857142856,423.6808016640799,1848.7,422.57142857142856,423.6808016640799,1974.2,422.57142857142856,423.6808016640799,2075.1,422.57142857142856,423.6808016640799,2177.4,422.57142857142856,423.6808016640799,2284.2,422.57142857142856,423.6808016640799,2387.5,422.57142857142856,423.6808016640799,2488,422.57142857142856,423.6808016640799,2588.8,422.57142857142856,423.6808016640799,2699,422.57142857142856,423.6808016640799,2814.8,422.57142857142856,423.6808016640799,2918.2,422.57142857142856,423.6808016640799,3028.7,422.57142857142856,423.6808016640799,3167.4,422.57142857142856,423.6808016640799,3281.6,422.57142857142856,423.6808016640799,3398.2,422.57142857142856,423.6808016640799,3513.8,422.57142857142856,423.6808016640799,3642.3,422.57142857142856,423.6808016640799,3742.9,422.57142857142856,423.6808016640799,3843.6,422.57142857142856,423.6808016640799,3944.2,422.57142857142856,423.6808016640799,4048.9,422.57142857142856,423.6808016640799,4178.5,422.57142857142856,423.6808016640799,4289.6,422.57142857142856,423.6808016640799,4392.9,422.57142857142856,423.6808016640799,4517.9,422.57142857142856,423.6808016640799,4648.1,422.57142857142856,423.6808016640799,4752.8,422.57142857142856,423.6808016640799,4873.6,422.57142857142856,423.6808016640799,4977.6]","[1339.2,1339.2,1000,0,339.2,""smooth"",""up"",""up"",""good_move"",4780.3,3440.6,3137.6,1339.7,303,""smooth"",""left"",""left"",""good_move"",6942.5,2161.8,1798.9,4780.7,362.9,""smooth"",""left"",""left"",""good_move"",9850.9,2908.1,2625.5,6942.8,282.6,""oops"",""up"",""down"",""bad_move"",12928.3,3076.8,2502.1,9851.5,574.7,""oops"",""up"",""down"",""bad_move"",15808.3,2879.5,2529.2,12928.8,350.3,""oops"",""up"",""up"",""good_move"",19051.4,3242.2,2975.8,15809.2,266.4,""smooth"",""up"",""up"",""good_move"",22163.4,3111.9,2839,19051.5,273,""smooth"",""up"",""up"",""good_move""]"
"2411","","<div style=""width:500px;"">
  <p>What determined the result of this run?</p>
  </div>","99","html-slider-response","64","1655961","0.0-7.0-1.10","211","1","2025-08-06 16:12:21","36c45c0696341be0efffe67d72a12abb","162.251.248.35","Mozilla/5.0 (Windows NT 10.0; Win64; x64) AppleWebKit/537.36 (KHTML, like Gecko) Chrome/134.0.0.0 Safari/537.36","WebKit","Chrome","134.0.0.0","Windows","10.0","https://app.prolific.com/","en-US,en;q=0.9","67eab317b6f969b3df440160","6877649eabb845cf142cd221","68937ed002b16a259f33b85f","1","67eab317b6f969b3df440160","1","2025-08-06T16:40:04.332Z","","","","AttribQ","","","","","","","","","","","50","","","","","","","","","","","","","","","","","","","","","","","","","","",""
"16703","","<div style=""width:500px;"">
  <p>How much control did you have over the ball?</p>
  </div>","0","html-slider-response","65","1672666","0.0-7.0-2.10","211","1","2025-08-06 16:12:21","36c45c0696341be0efffe67d72a12abb","162.251.248.35","Mozilla/5.0 (Windows NT 10.0; Win64; x64) AppleWebKit/537.36 (KHTML, like Gecko) Chrome/134.0.0.0 Safari/537.36","WebKit","Chrome","134.0.0.0","Windows","10.0","https://app.prolific.com/","en-US,en;q=0.9","67eab317b6f969b3df440160","6877649eabb845cf142cd221","68937ed002b16a259f33b85f","1","67eab317b6f969b3df440160","1","2025-08-06T16:40:21.037Z","","","","ControlQ","","","","","","","","","","","50","","","","","","","","","","","","","","","","","","","","","","","","","","",""
"1536","","<div style=""width:500px;"">
  <p>How would you describe your current emotional state?</p>
  </div>","99","html-slider-response","66","1674204","0.0-7.0-3.10","211","1","2025-08-06 16:12:21","36c45c0696341be0efffe67d72a12abb","162.251.248.35","Mozilla/5.0 (Windows NT 10.0; Win64; x64) AppleWebKit/537.36 (KHTML, like Gecko) Chrome/134.0.0.0 Safari/537.36","WebKit","Chrome","134.0.0.0","Windows","10.0","https://app.prolific.com/","en-US,en;q=0.9","67eab317b6f969b3df440160","6877649eabb845cf142cd221","68937ed002b16a259f33b85f","1","67eab317b6f969b3df440160","1","2025-08-06T16:40:22.575Z","","","","StressQ","","","","","","","","","","","50","","","","","","","","","","","","","","","","","","","","","","","","","","",""
"1388","","<div style=""width:500px;"">
  <p>What best describes how you currently feel?</p>
  </div>","2","html-slider-response","67","1675594","0.0-7.0-4.10","211","1","2025-08-06 16:12:21","36c45c0696341be0efffe67d72a12abb","162.251.248.35","Mozilla/5.0 (Windows NT 10.0; Win64; x64) AppleWebKit/537.36 (KHTML, like Gecko) Chrome/134.0.0.0 Safari/537.36","WebKit","Chrome","134.0.0.0","Windows","10.0","https://app.prolific.com/","en-US,en;q=0.9","67eab317b6f969b3df440160","6877649eabb845cf142cd221","68937ed002b16a259f33b85f","1","67eab317b6f969b3df440160","1","2025-08-06T16:40:23.965Z","","","","MotivationQ","","","","","","","","","","","50","","","","","","","","","","","","","","","","","","","","","","","","","","",""
"","","","","ctl-task-cpt","68","1704984","0.0-7.0-0.11","211","1","2025-08-06 16:12:21","36c45c0696341be0efffe67d72a12abb","162.251.248.35","Mozilla/5.0 (Windows NT 10.0; Win64; x64) AppleWebKit/537.36 (KHTML, like Gecko) Chrome/134.0.0.0 Safari/537.36","WebKit","Chrome","134.0.0.0","Windows","10.0","https://app.prolific.com/","en-US,en;q=0.9","67eab317b6f969b3df440160","6877649eabb845cf142cd221","68937ed002b16a259f33b85f","1","67eab317b6f969b3df440160","1","2025-08-06T16:40:53.355Z","","","","","","","","","","","","","","","","win-only","0","g1:NW,g2:SE","0.7","12","0","1686652.5","10722.4","15735.9","26380.6","1","4","8","6","1","1","1","5","4","0.03787878787878788","5013.5","3000","2150","[""left"",""up""]","{""num_key_presses"":4,""num_perfect"":4,""num_errors"":0,""num_randdir"":0,""num_randdir_good_moves"":0,""num_whilered"":0,""num_whileblue"":0,""num_blue"":0,""num_good_moves"":4}","[421.07142857142856,404.1808016640799,0.2,421.07142857142856,404.1808016640799,109.3,419.57142857142856,404.1808016640799,213.2,419.57142857142856,404.1808016640799,313.6,419.57142857142856,404.1808016640799,421.3,419.57142857142856,404.1808016640799,523.8,419.57142857142856,404.1808016640799,628.2,419.57142857142856,404.1808016640799,735.9,419.57142857142856,404.1808016640799,838.8,419.57142857142856,404.1808016640799,944.6,419.57142857142856,404.1808016640799,1047.8,419.57142857142856,404.1808016640799,1162.3,419.57142857142856,404.1808016640799,1272,419.57142857142856,404.1808016640799,1374.5,419.57142857142856,404.1808016640799,1478.3,419.57142857142856,404.1808016640799,1584.3,419.57142857142856,404.1808016640799,1688,419.57142857142856,404.1808016640799,1788.2,419.57142857142856,404.1808016640799,1888.2,419.57142857142856,404.1808016640799,1988.6,419.57142857142856,404.1808016640799,2093.5,419.57142857142856,404.1808016640799,2193.8,419.57142857142856,404.1808016640799,2293.8,419.57142857142856,404.1808016640799,2411.1,419.57142857142856,404.1808016640799,2527.6,419.57142857142856,404.1808016640799,2649.9,419.57142857142856,404.1808016640799,2782.8,419.57142857142856,404.1808016640799,2884,419.57142857142856,404.1808016640799,3005.9,419.57142857142856,404.1808016640799,3108.6,419.57142857142856,404.1808016640799,3219.3,419.57142857142856,404.1808016640799,3355.8,419.57142857142856,404.1808016640799,3460.3,419.57142857142856,404.1808016640799,3561.7,419.57142857142856,404.1808016640799,3688,419.57142857142856,404.1808016640799,3792.8,419.57142857142856,404.1808016640799,3911.8,419.57142857142856,404.1808016640799,4011.9,419.57142857142856,404.1808016640799,4113.2,419.57142857142856,404.1808016640799,4213.4,419.57142857142856,404.1808016640799,4314.8,419.57142857142856,404.1808016640799,4461.2,419.57142857142856,404.1808016640799,4565,419.57142857142856,404.1808016640799,4690.7,419.57142857142856,404.1808016640799,4790.8,419.57142857142856,404.1808016640799,4917.5]","[1876.2,1876.2,1000,0,876.2,""smooth"",""left"",""left"",""good_move"",4475.7,2598.9,2262.9,1876.8,336,""smooth"",""up"",""up"",""good_move"",7651.2,3175,2853.2,4476.2,321.8,""smooth"",""left"",""left"",""good_move"",10468,2816.4,2536.5,7651.6,279.9,""smooth"",""up"",""up"",""good_move""]"
"2200","","<div style=""width:500px;"">
  <p>What determined the result of this run?</p>
  </div>","100","html-slider-response","69","1707186","0.0-7.0-1.11","211","1","2025-08-06 16:12:21","36c45c0696341be0efffe67d72a12abb","162.251.248.35","Mozilla/5.0 (Windows NT 10.0; Win64; x64) AppleWebKit/537.36 (KHTML, like Gecko) Chrome/134.0.0.0 Safari/537.36","WebKit","Chrome","134.0.0.0","Windows","10.0","https://app.prolific.com/","en-US,en;q=0.9","67eab317b6f969b3df440160","6877649eabb845cf142cd221","68937ed002b16a259f33b85f","1","67eab317b6f969b3df440160","1","2025-08-06T16:40:55.557Z","","","","AttribQ","","","","","","","","","","","50","","","","","","","","","","","","","","","","","","","","","","","","","","",""
"1806","","<div style=""width:500px;"">
  <p>How much control did you have over the ball?</p>
  </div>","0","html-slider-response","70","1708993","0.0-7.0-2.11","211","1","2025-08-06 16:12:21","36c45c0696341be0efffe67d72a12abb","162.251.248.35","Mozilla/5.0 (Windows NT 10.0; Win64; x64) AppleWebKit/537.36 (KHTML, like Gecko) Chrome/134.0.0.0 Safari/537.36","WebKit","Chrome","134.0.0.0","Windows","10.0","https://app.prolific.com/","en-US,en;q=0.9","67eab317b6f969b3df440160","6877649eabb845cf142cd221","68937ed002b16a259f33b85f","1","67eab317b6f969b3df440160","1","2025-08-06T16:40:57.364Z","","","","ControlQ","","","","","","","","","","","50","","","","","","","","","","","","","","","","","","","","","","","","","","",""
"2982","","<div style=""width:500px;"">
  <p>How would you describe your current emotional state?</p>
  </div>","94","html-slider-response","71","1711977","0.0-7.0-3.11","211","1","2025-08-06 16:12:21","36c45c0696341be0efffe67d72a12abb","162.251.248.35","Mozilla/5.0 (Windows NT 10.0; Win64; x64) AppleWebKit/537.36 (KHTML, like Gecko) Chrome/134.0.0.0 Safari/537.36","WebKit","Chrome","134.0.0.0","Windows","10.0","https://app.prolific.com/","en-US,en;q=0.9","67eab317b6f969b3df440160","6877649eabb845cf142cd221","68937ed002b16a259f33b85f","1","67eab317b6f969b3df440160","1","2025-08-06T16:41:00.348Z","","","","StressQ","","","","","","","","","","","50","","","","","","","","","","","","","","","","","","","","","","","","","","",""
"2877","","<div style=""width:500px;"">
  <p>What best describes how you currently feel?</p>
  </div>","4","html-slider-response","72","1714856","0.0-7.0-4.11","211","1","2025-08-06 16:12:21","36c45c0696341be0efffe67d72a12abb","162.251.248.35","Mozilla/5.0 (Windows NT 10.0; Win64; x64) AppleWebKit/537.36 (KHTML, like Gecko) Chrome/134.0.0.0 Safari/537.36","WebKit","Chrome","134.0.0.0","Windows","10.0","https://app.prolific.com/","en-US,en;q=0.9","67eab317b6f969b3df440160","6877649eabb845cf142cd221","68937ed002b16a259f33b85f","1","67eab317b6f969b3df440160","1","2025-08-06T16:41:03.228Z","","","","MotivationQ","","","","","","","","","","","50","","","","","","","","","","","","","","","","","","","","","","","","","","",""
"","","","","ctl-task-cpt","73","1758975","0.0-7.0-0.12","211","1","2025-08-06 16:12:21","36c45c0696341be0efffe67d72a12abb","162.251.248.35","Mozilla/5.0 (Windows NT 10.0; Win64; x64) AppleWebKit/537.36 (KHTML, like Gecko) Chrome/134.0.0.0 Safari/537.36","WebKit","Chrome","134.0.0.0","Windows","10.0","https://app.prolific.com/","en-US,en;q=0.9","67eab317b6f969b3df440160","6877649eabb845cf142cd221","68937ed002b16a259f33b85f","1","67eab317b6f969b3df440160","1","2025-08-06T16:41:47.346Z","","","","","","","","","","","","","","","","win-only","1","g1:NE,g2:SW","0.8","13","0","1725914.8","10450.6","15494","41097.5","1","4","8","6","2","8","8","13","5","0.09848484848484848","5043.4","3000","1870","[""down"",""left""]","{""num_key_presses"":8,""num_perfect"":6,""num_errors"":0,""num_randdir"":2,""num_randdir_good_moves"":1,""num_whilered"":0,""num_whileblue"":0,""num_blue"":1,""num_good_moves"":7}","[415.07142857142856,407.1808016640799,0.3,415.07142857142856,407.1808016640799,113.1,415.07142857142856,407.1808016640799,214.8,422.57142857142856,432.6808016640799,332.4,472.07142857142856,516.6808016640799,448.2,476.57142857142856,527.1808016640799,550.1,476.57142857142856,528.6808016640799,650.4,476.57142857142856,528.6808016640799,751.3,476.57142857142856,528.6808016640799,858.8,476.57142857142856,528.6808016640799,960.4,476.57142857142856,528.6808016640799,1110.5,476.57142857142856,528.6808016640799,1233.4,476.57142857142856,528.6808016640799,1334.8,476.57142857142856,528.6808016640799,1444.8,476.57142857142856,528.6808016640799,1546,476.57142857142856,528.6808016640799,1651.3,476.57142857142856,528.6808016640799,1755.7,476.57142857142856,528.6808016640799,1856.1,476.57142857142856,528.6808016640799,1956.9,476.57142857142856,528.6808016640799,2061,476.57142857142856,528.6808016640799,2185.3,476.57142857142856,528.6808016640799,2299.4,476.57142857142856,528.6808016640799,2400.7,476.57142857142856,528.6808016640799,2505.4,476.57142857142856,528.6808016640799,2647.3,476.57142857142856,528.6808016640799,2752.6,476.57142857142856,528.6808016640799,2857.8,476.57142857142856,528.6808016640799,2992.2,476.57142857142856,528.6808016640799,3092.3,476.57142857142856,528.6808016640799,3230.9,476.57142857142856,528.6808016640799,3343.2,476.57142857142856,528.6808016640799,3458.6,476.57142857142856,528.6808016640799,3586.3,476.57142857142856,528.6808016640799,3693.6,476.57142857142856,528.6808016640799,3795.1,476.57142857142856,528.6808016640799,3911.2,476.57142857142856,528.6808016640799,4026.2,476.57142857142856,528.6808016640799,4140.1,476.57142857142856,528.6808016640799,4274.6,476.57142857142856,528.6808016640799,4392.2,476.57142857142856,528.6808016640799,4494.9,476.57142857142856,528.6808016640799,4597.9,476.57142857142856,528.6808016640799,4701.5,476.57142857142856,528.6808016640799,4830.7,476.57142857142856,528.6808016640799,4945.2]","[1487.5,1487.5,1000,0,487.5,""oops"",""left"",""right"",""bad_move"",4676.9,3189,2854,1487.9,335,""smooth"",""down"",""down"",""good_move"",6969.6,2292.3,1891.5,4677.3,400.8,""smooth"",""left"",""left"",""good_move"",13111.4,6141.3,2304.2,10479.8,327.4,""smooth"",""left"",""left"",""good_move"",16903.1,3791.5,3454.8,13111.6,336.7,""smooth"",""down"",""down"",""good_move"",19871.5,2967.8,2653.7,16903.7,314.1,""oops"",""left"",""left"",""good_move"",22502.3,2630.5,2292.7,19871.8,337.8,""smooth"",""left"",""left"",""good_move"",25375.4,2872.5,2601.5,22502.9,271,""smooth"",""down"",""down"",""good_move""]"
"2210","","<div style=""width:500px;"">
  <p>What determined the result of this run?</p>
  </div>","100","html-slider-response","74","1761186","0.0-7.0-1.12","211","1","2025-08-06 16:12:21","36c45c0696341be0efffe67d72a12abb","162.251.248.35","Mozilla/5.0 (Windows NT 10.0; Win64; x64) AppleWebKit/537.36 (KHTML, like Gecko) Chrome/134.0.0.0 Safari/537.36","WebKit","Chrome","134.0.0.0","Windows","10.0","https://app.prolific.com/","en-US,en;q=0.9","67eab317b6f969b3df440160","6877649eabb845cf142cd221","68937ed002b16a259f33b85f","1","67eab317b6f969b3df440160","1","2025-08-06T16:41:49.557Z","","","","AttribQ","","","","","","","","","","","50","","","","","","","","","","","","","","","","","","","","","","","","","","",""
"3110","","<div style=""width:500px;"">
  <p>How much control did you have over the ball?</p>
  </div>","56","html-slider-response","75","1764298","0.0-7.0-2.12","211","1","2025-08-06 16:12:21","36c45c0696341be0efffe67d72a12abb","162.251.248.35","Mozilla/5.0 (Windows NT 10.0; Win64; x64) AppleWebKit/537.36 (KHTML, like Gecko) Chrome/134.0.0.0 Safari/537.36","WebKit","Chrome","134.0.0.0","Windows","10.0","https://app.prolific.com/","en-US,en;q=0.9","67eab317b6f969b3df440160","6877649eabb845cf142cd221","68937ed002b16a259f33b85f","1","67eab317b6f969b3df440160","1","2025-08-06T16:41:52.669Z","","","","ControlQ","","","","","","","","","","","50","","","","","","","","","","","","","","","","","","","","","","","","","","",""
"4189","","<div style=""width:500px;"">
  <p>How would you describe your current emotional state?</p>
  </div>","17","html-slider-response","76","1768489","0.0-7.0-3.12","211","1","2025-08-06 16:12:21","36c45c0696341be0efffe67d72a12abb","162.251.248.35","Mozilla/5.0 (Windows NT 10.0; Win64; x64) AppleWebKit/537.36 (KHTML, like Gecko) Chrome/134.0.0.0 Safari/537.36","WebKit","Chrome","134.0.0.0","Windows","10.0","https://app.prolific.com/","en-US,en;q=0.9","67eab317b6f969b3df440160","6877649eabb845cf142cd221","68937ed002b16a259f33b85f","1","67eab317b6f969b3df440160","1","2025-08-06T16:41:56.860Z","","","","StressQ","","","","","","","","","","","50","","","","","","","","","","","","","","","","","","","","","","","","","","",""
"2700","","<div style=""width:500px;"">
  <p>What best describes how you currently feel?</p>
  </div>","67","html-slider-response","77","1771191","0.0-7.0-4.12","211","1","2025-08-06 16:12:21","36c45c0696341be0efffe67d72a12abb","162.251.248.35","Mozilla/5.0 (Windows NT 10.0; Win64; x64) AppleWebKit/537.36 (KHTML, like Gecko) Chrome/134.0.0.0 Safari/537.36","WebKit","Chrome","134.0.0.0","Windows","10.0","https://app.prolific.com/","en-US,en;q=0.9","67eab317b6f969b3df440160","6877649eabb845cf142cd221","68937ed002b16a259f33b85f","1","67eab317b6f969b3df440160","1","2025-08-06T16:41:59.563Z","","","","MotivationQ","","","","","","","","","","","50","","","","","","","","","","","","","","","","","","","","","","","","","","",""
