"rt","response_timestamp","stimulus","response","trial_type","trial_index","time_elapsed","internal_node_id","run_id","condition","recorded_at","source_code_version","ip","user_agent","device","browser","browser_version","platform","platform_version","referer","accept_language","PROLIFIC_PID","STUDY_ID","SESSION_ID","BATCH","prolific_id","batch","realtime","success","question_order","question_id","eventType","responses","item_order","radio_event_ids","radio_event_times","key_event_times","mouse_event_times","straightlining","zigzagging","honeypot","view_history","slider_start","which_type","canvas_config","goals_layout","control_level","trial_number","tutorial_trial_number","trial_start_time","phase1_start_time","phase2_start_time","phase3_start_time","goal_1_value","goal_1_distance","goal_2_value","goal_2_distance","goal_selected","outcome","outcome_total","participant_final_score","participant_initial_score","participant_final_score_prop","goal_choice_rt","allocated_time","allocated_time_remaining","goal_direction","counts","mouse_movements","key_presses"
"12525","1754655868648","<p style='font-size:40px;line-height:1.25'><strong>Welcome to the experiment!</strong></p><p style='font-size:1.1em;line-height:1.25'>Thank you for participanting in our experiment again! You will be asked to play the Dysfunctional Ball Game again. We will briefly recap the rules before we start.</p><p style='font-size:1.1em;line-height:1.25'>Press <strong>Next</strong> to continue.</p>","0","custom-html-button-response","0","12536","0.0-0.0","239","1","2025-08-08 12:23:51","36c45c0696341be0efffe67d72a12abb","197.185.179.85","Mozilla/5.0 (Windows NT 10.0; Win64; x64) AppleWebKit/537.36 (KHTML, like Gecko) Chrome/138.0.0.0 Safari/537.36","WebKit","Chrome","138.0.0.0","Windows","10.0","https://app.prolific.com/","en-US,en;q=0.9","67eaee55a9b4d89e82b8df37","6877649eabb845cf142cd221","6895ec3e9dc673cb746b9962","1","67eaee55a9b4d89e82b8df37","1","2025-08-08T12:24:28.652Z","","","","","","","","","","","","","","","","","","","","","","","","","","","","","","","","","","","","","","","","","",""
"1523","","","","fullscreen","1","15424","0.0-1.0","239","1","2025-08-08 12:23:51","36c45c0696341be0efffe67d72a12abb","197.185.179.85","Mozilla/5.0 (Windows NT 10.0; Win64; x64) AppleWebKit/537.36 (KHTML, like Gecko) Chrome/138.0.0.0 Safari/537.36","WebKit","Chrome","138.0.0.0","Windows","10.0","https://app.prolific.com/","en-US,en;q=0.9","67eaee55a9b4d89e82b8df37","6877649eabb845cf142cd221","6895ec3e9dc673cb746b9962","1","67eaee55a9b4d89e82b8df37","1","","true","","","","","","","","","","","","","","","","","","","","","","","","","","","","","","","","","","","","","","","","",""
"3547","1754655875092"," <p style='font-size:1.1em;line-height:1.25'>Thank you for closing all other tabs.</p><p style='font-size:1.1em;line-height:1.25'>We will now invite you to fill in some questionnaires, before starting the game.<br>This will take about 5 minutes.<br></p><p style='font-size:1.1em;line-height:1.25'>Press the <strong>Next</strong> button to continue.</p>","0","custom-html-button-response","2","18978","0.0-2.0","239","1","2025-08-08 12:23:51","36c45c0696341be0efffe67d72a12abb","197.185.179.85","Mozilla/5.0 (Windows NT 10.0; Win64; x64) AppleWebKit/537.36 (KHTML, like Gecko) Chrome/138.0.0.0 Safari/537.36","WebKit","Chrome","138.0.0.0","Windows","10.0","https://app.prolific.com/","en-US,en;q=0.9","67eaee55a9b4d89e82b8df37","6877649eabb845cf142cd221","6895ec3e9dc673cb746b9962","1","67eaee55a9b4d89e82b8df37","1","2025-08-08T12:24:35.094Z","","","","","","","","","","","","","","","","","","","","","","","","","","","","","","","","","","","","","","","","","",""
"4067","","","{""assigned_sex"":""female""}","survey-multi-choice","3","23060","0.0-3.0-0.0","239","1","2025-08-08 12:23:51","36c45c0696341be0efffe67d72a12abb","197.185.179.85","Mozilla/5.0 (Windows NT 10.0; Win64; x64) AppleWebKit/537.36 (KHTML, like Gecko) Chrome/138.0.0.0 Safari/537.36","WebKit","Chrome","138.0.0.0","Windows","10.0","https://app.prolific.com/","en-US,en;q=0.9","67eaee55a9b4d89e82b8df37","6877649eabb845cf142cd221","6895ec3e9dc673cb746b9962","1","67eaee55a9b4d89e82b8df37","1","","","[0]","0","demographics","","","","","","","","","","","","","","","","","","","","","","","","","","","","","","","","","","","","","",""
"1401","1754655880585","<p style='font-size:1.1em;line-height:1.25'>In the following, we will perform a baseline assessment. This means that we will ask you a few questions relating to your experiences over the past month.<br></p><p style='font-size:1.1em;line-height:1.25'>Press the <strong>Next</strong> button to continue.</p>","0","custom-html-button-response","4","24477","0.0-4.0-0.0","239","1","2025-08-08 12:23:51","36c45c0696341be0efffe67d72a12abb","197.185.179.85","Mozilla/5.0 (Windows NT 10.0; Win64; x64) AppleWebKit/537.36 (KHTML, like Gecko) Chrome/138.0.0.0 Safari/537.36","WebKit","Chrome","138.0.0.0","Windows","10.0","https://app.prolific.com/","en-US,en;q=0.9","67eaee55a9b4d89e82b8df37","6877649eabb845cf142cd221","6895ec3e9dc673cb746b9962","1","67eaee55a9b4d89e82b8df37","1","2025-08-08T12:24:40.592Z","","","","","","","","","","","","","","","","","","","","","","","","","","","","","","","","","","","","","","","","","",""
"46778.09999990463","","","","survey-template","5","71287","0.0-4.0-1.0","239","1","2025-08-08 12:23:51","36c45c0696341be0efffe67d72a12abb","197.185.179.85","Mozilla/5.0 (Windows NT 10.0; Win64; x64) AppleWebKit/537.36 (KHTML, like Gecko) Chrome/138.0.0.0 Safari/537.36","WebKit","Chrome","138.0.0.0","Windows","10.0","https://app.prolific.com/","en-US,en;q=0.9","67eaee55a9b4d89e82b8df37","6877649eabb845cf142cd221","6895ec3e9dc673cb746b9962","1","67eaee55a9b4d89e82b8df37","1","2025-08-08T12:25:27.403Z","","","","pss","{""Q01"":""1"",""Q02"":""0"",""Q03"":""1"",""Q04"":""3"",""Q05"":""4"",""Q06"":""1"",""Q07"":""1"",""Q08"":""1"",""Q09"":""1"",""Q10"":""1""}","[0,1,2,3,4,5,6,7,8,9]","[""Q01"",""Q02"",""Q03"",""Q04"",""Q06"",""Q05"",""Q07"",""Q08"",""Q08"",""Q07"",""Q09"",""Q10""]","[4235.199999809265,7213.900000095367,8943.5,10612.5,13651,14925.5,19178.599999904633,26135.199999809265,29086.599999904633,33999.40000009537,37814.90000009537,43955]","[]","[0.40000009536743164,4235.199999809265,7213.900000095367,8943.5,10612.5,11892.300000190735,13651,14925.5,16728.800000190735,17886.099999904633,19178.599999904633,20519.900000095367,24630.400000095367,26135.199999809265,29086.599999904633,33999.40000009537,37814.90000009537,43955,45327.800000190735,46709.90000009537]","0.6","0.4444444444444444","0","","","","","","","","","","","","","","","","","","","","","","","","","","","","",""
"19258","1754655946670","<p style='font-size:1.1em;line-height:1.25'>Thank you for your answers! Now we will ask you a few more questions relating to your feelings in the last 24 hours.<br></p><p style='font-size:1.1em;line-height:1.25'>Press the <strong>Next</strong> button to continue.</p>","0","custom-html-button-response","6","90566","0.0-4.0-2.0","239","1","2025-08-08 12:23:51","36c45c0696341be0efffe67d72a12abb","197.185.179.85","Mozilla/5.0 (Windows NT 10.0; Win64; x64) AppleWebKit/537.36 (KHTML, like Gecko) Chrome/138.0.0.0 Safari/537.36","WebKit","Chrome","138.0.0.0","Windows","10.0","https://app.prolific.com/","en-US,en;q=0.9","67eaee55a9b4d89e82b8df37","6877649eabb845cf142cd221","6895ec3e9dc673cb746b9962","1","67eaee55a9b4d89e82b8df37","1","2025-08-08T12:25:46.682Z","","","","","","","","","","","","","","","","","","","","","","","","","","","","","","","","","","","","","","","","","",""
"65537","","","","survey-template","7","156201","0.0-4.0-3.0","239","1","2025-08-08 12:23:51","36c45c0696341be0efffe67d72a12abb","197.185.179.85","Mozilla/5.0 (Windows NT 10.0; Win64; x64) AppleWebKit/537.36 (KHTML, like Gecko) Chrome/138.0.0.0 Safari/537.36","WebKit","Chrome","138.0.0.0","Windows","10.0","https://app.prolific.com/","en-US,en;q=0.9","67eaee55a9b4d89e82b8df37","6877649eabb845cf142cd221","6895ec3e9dc673cb746b9962","1","67eaee55a9b4d89e82b8df37","1","2025-08-08T12:26:52.316Z","","","","drsp","{""Q01"":""1"",""Q02"":""0"",""Q03"":""1"",""Q04"":""2"",""Q05"":""1"",""Q06"":""1"",""Q07"":""2"",""Q08"":""1"",""Q09"":""1"",""Q10"":""2"",""Q11"":""1"",""Q12"":""3"",""Q13"":""5"",""Q14"":""3"",""Q15"":""1"",""Q16"":""3"",""Q17"":""2"",""Q18"":""0"",""Q19"":""1"",""Q20"":""3"",""Q21"":""2"",""Q22"":""1""}","[0,1,2,3,4,5,6,7,8,9,10,11,12,13,14,15,16,17,18,19,20,21]","[""Q01"",""Q03"",""Q02"",""Q04"",""Q05"",""Q06"",""Q07"",""Q08"",""Q09"",""Q10"",""Q11"",""Q12"",""Q13"",""Q14"",""Q15"",""Q16"",""Q17"",""Q18"",""Q19"",""Q20"",""Q21"",""Q22""]","[3148.9000000953674,5699.5,7186.699999809265,9532.299999713898,11359.699999809265,12520.799999713898,13638.299999713898,14762.199999809265,20889,22266.799999713898,23691.099999904633,29555,31050.400000095367,34255.59999990463,39228,43649.699999809265,47158.90000009537,49572,50973.199999809265,54629.5,61832.7999997139,64040.09999990463]","[]","[0.19999980926513672,3148.9000000953674,4286.199999809265,5699.5,7186.699999809265,9532.299999713898,11359.699999809265,12520.799999713898,13638.299999713898,14762.199999809265,16112.299999713898,20889,22266.799999713898,23691.099999904633,26548.599999904633,29555,31050.400000095367,34255.59999990463,35656.5,39228,40372.40000009537,41566.59999990463,43649.699999809265,44917,47158.90000009537,49572,50973.199999809265,54629.5,55715,61832.7999997139,62832.40000009537,64040.09999990463,65514.7999997139]","0.45454545454545453","0.5714285714285714","0","","","","","","","","","","","","","","","","","","","","","","","","","","","","",""
"16035.099999904633","","","","survey-template","8","172243","0.0-4.0-4.0","239","1","2025-08-08 12:23:51","36c45c0696341be0efffe67d72a12abb","197.185.179.85","Mozilla/5.0 (Windows NT 10.0; Win64; x64) AppleWebKit/537.36 (KHTML, like Gecko) Chrome/138.0.0.0 Safari/537.36","WebKit","Chrome","138.0.0.0","Windows","10.0","https://app.prolific.com/","en-US,en;q=0.9","67eaee55a9b4d89e82b8df37","6877649eabb845cf142cd221","6895ec3e9dc673cb746b9962","1","67eaee55a9b4d89e82b8df37","1","2025-08-08T12:27:08.358Z","","","","stress","{""Q01"":""1"",""Q02"":""1"",""Q03"":""0""}","[0,1,2]","[""Q01"",""Q02"",""Q02"",""Q03""]","[3720.9000000953674,6170.299999713898,11532.900000095367,13739.099999904633]","[]","[3720.9000000953674,5025.799999713898,6170.299999713898,7108.199999809265,10242.799999713898,11532.900000095367,13739.099999904633,16021.299999713898]","0.3333333333333333","0","0","","","","","","","","","","","","","","","","","","","","","","","","","","","","",""
"42178","","","","instructions","9","214427","0.0-5.0-0.0","239","1","2025-08-08 12:23:51","36c45c0696341be0efffe67d72a12abb","197.185.179.85","Mozilla/5.0 (Windows NT 10.0; Win64; x64) AppleWebKit/537.36 (KHTML, like Gecko) Chrome/138.0.0.0 Safari/537.36","WebKit","Chrome","138.0.0.0","Windows","10.0","https://app.prolific.com/","en-US,en;q=0.9","67eaee55a9b4d89e82b8df37","6877649eabb845cf142cd221","6895ec3e9dc673cb746b9962","1","67eaee55a9b4d89e82b8df37","1","","","","","","","","","","","","","","","[{""page_index"":0,""viewing_time"":42165}]","","","","","","","","","","","","","","","","","","","","","","","","","","","",""
"4320","","<p>Before you start with this game please answer the following three questions yourself. </p>
  <p>Through this game, we measure several aspects of your cognitive performance, such as reaction times, multi-tasking capabilities </p>
  <p>and the ability to assess the situation you are in.</p>
  <p></p>
  <p><b>How good do you usually are in such tasks?</b></p>","98","html-slider-response","10","219102","0.0-6.0-0.0","239","1","2025-08-08 12:23:51","36c45c0696341be0efffe67d72a12abb","197.185.179.85","Mozilla/5.0 (Windows NT 10.0; Win64; x64) AppleWebKit/537.36 (KHTML, like Gecko) Chrome/138.0.0.0 Safari/537.36","WebKit","Chrome","138.0.0.0","Windows","10.0","https://app.prolific.com/","en-US,en;q=0.9","67eaee55a9b4d89e82b8df37","6877649eabb845cf142cd221","6895ec3e9dc673cb746b9962","1","67eaee55a9b4d89e82b8df37","1","2025-08-08T12:27:55.218Z","","","","PreSkillQ","","","","","","","","","","","50","","","","","","","","","","","","","","","","","","","","","","","","","","",""
"3115","","<div style=""width:500px;"">
  <p>How well do you think you will perform in this task compared to other participants?</p>
  </div>","98","html-slider-response","11","222221","0.0-6.0-1.0","239","1","2025-08-08 12:23:51","36c45c0696341be0efffe67d72a12abb","197.185.179.85","Mozilla/5.0 (Windows NT 10.0; Win64; x64) AppleWebKit/537.36 (KHTML, like Gecko) Chrome/138.0.0.0 Safari/537.36","WebKit","Chrome","138.0.0.0","Windows","10.0","https://app.prolific.com/","en-US,en;q=0.9","67eaee55a9b4d89e82b8df37","6877649eabb845cf142cd221","6895ec3e9dc673cb746b9962","1","67eaee55a9b4d89e82b8df37","1","2025-08-08T12:27:58.337Z","","","","PrePerfQ","","","","","","","","","","","50","","","","","","","","","","","","","","","","","","","","","","","","","","",""
"2714","","<div style=""width:500px;"">
  <p>What best describes how you currently feel?</p>
  </div>","96","html-slider-response","12","224940","0.0-6.0-2.0","239","1","2025-08-08 12:23:51","36c45c0696341be0efffe67d72a12abb","197.185.179.85","Mozilla/5.0 (Windows NT 10.0; Win64; x64) AppleWebKit/537.36 (KHTML, like Gecko) Chrome/138.0.0.0 Safari/537.36","WebKit","Chrome","138.0.0.0","Windows","10.0","https://app.prolific.com/","en-US,en;q=0.9","67eaee55a9b4d89e82b8df37","6877649eabb845cf142cd221","6895ec3e9dc673cb746b9962","1","67eaee55a9b4d89e82b8df37","1","2025-08-08T12:28:01.055Z","","","","PreMotivationQ","","","","","","","","","","","50","","","","","","","","","","","","","","","","","","","","","","","","","","",""
"","","","","ctl-task-cpt","13","263733","0.0-7.0-0.0","239","1","2025-08-08 12:23:51","36c45c0696341be0efffe67d72a12abb","197.185.179.85","Mozilla/5.0 (Windows NT 10.0; Win64; x64) AppleWebKit/537.36 (KHTML, like Gecko) Chrome/138.0.0.0 Safari/537.36","WebKit","Chrome","138.0.0.0","Windows","10.0","https://app.prolific.com/","en-US,en;q=0.9","67eaee55a9b4d89e82b8df37","6877649eabb845cf142cd221","6895ec3e9dc673cb746b9962","1","67eaee55a9b4d89e82b8df37","1","2025-08-08T12:28:39.848Z","","","","","","","","","","","","","","","","win-only","2","g1:SE,g2:NW","1","1","0","242983.7","4604.4","9622.1","35364.7","1","4","8","6","2","8","8","8","0","0.06060606060606061","2022.4","3000","355","[""left"",""up""]","{""num_key_presses"":6,""num_perfect"":6,""num_errors"":0,""num_randdir"":0,""num_randdir_good_moves"":0,""num_whilered"":0,""num_whileblue"":0,""num_blue"":2,""num_good_moves"":6}","[297.22232142857143,300.12857142857143,6.3,297.22232142857143,300.12857142857143,103.8,297.22232142857143,300.12857142857143,222.8,297.22232142857143,300.12857142857143,323.9,297.22232142857143,300.12857142857143,475.5,297.22232142857143,300.12857142857143,577.4,297.22232142857143,300.12857142857143,677.9,297.22232142857143,300.12857142857143,781.3,297.22232142857143,300.12857142857143,890.5,297.22232142857143,300.12857142857143,993.8,297.22232142857143,300.12857142857143,1100.3,276.22232142857143,265.12857142857143,1204.7,91.22232142857143,35.128571428571426,1305.5,80.22232142857143,26.128571428571426,1415.6,80.22232142857143,26.128571428571426,1515.7,70.22232142857143,26.128571428571426,1617.2,60.222321428571426,42.128571428571426,1717.8,58.222321428571426,48.128571428571426,1821.8,58.222321428571426,48.128571428571426,1922.3,58.222321428571426,48.128571428571426,2348.7,58.222321428571426,48.128571428571426,2457.9,58.222321428571426,48.128571428571426,2575.6,58.222321428571426,48.128571428571426,2682.1,58.222321428571426,48.128571428571426,2786.2,58.222321428571426,48.128571428571426,2891.5,58.222321428571426,48.128571428571426,3002.5,58.222321428571426,48.128571428571426,3103.4,58.222321428571426,48.128571428571426,3212,58.222321428571426,48.128571428571426,3315.3,58.222321428571426,48.128571428571426,3418.6,58.222321428571426,48.128571428571426,3519,58.222321428571426,48.128571428571426,3627.8,58.222321428571426,48.128571428571426,3728.7,58.222321428571426,48.128571428571426,3833.9,58.222321428571426,48.128571428571426,3935.4,58.222321428571426,48.128571428571426,4035.8,58.222321428571426,48.128571428571426,4138.4,58.222321428571426,48.128571428571426,4243.7,58.222321428571426,48.128571428571426,4351.1,58.222321428571426,48.128571428571426,4461.6,58.222321428571426,48.128571428571426,4562.2,58.222321428571426,48.128571428571426,4664.5,58.222321428571426,48.128571428571426,4777.7,58.222321428571426,48.128571428571426,4883.1,58.222321428571426,48.128571428571426,4985.4]","[2297.8,2297.7,1000,0.1,1297.7,""smooth"",""up"",""up"",""good_move"",12745.6,10442.7,2748.1,9433.6,564,""smooth"",""up"",""up"",""good_move"",16252.9,3379.7,2422,12873.3,957.7,""smooth"",""up"",""up"",""good_move"",19749.9,3492.9,2737.6,16257,755.3,""smooth"",""left"",""left"",""good_move"",22445.7,2689.9,1959.9,19755.9,730,""smooth"",""left"",""left"",""good_move"",25596.6,3148.2,2613.7,22448.6,534.3,""smooth"",""left"",""left"",""good_move""]"
"4433","","<div style=""width:500px;"">
  <p>What determined the result of this run?</p>
  </div>","98","html-slider-response","14","268174","0.0-7.0-1.0","239","1","2025-08-08 12:23:51","36c45c0696341be0efffe67d72a12abb","197.185.179.85","Mozilla/5.0 (Windows NT 10.0; Win64; x64) AppleWebKit/537.36 (KHTML, like Gecko) Chrome/138.0.0.0 Safari/537.36","WebKit","Chrome","138.0.0.0","Windows","10.0","https://app.prolific.com/","en-US,en;q=0.9","67eaee55a9b4d89e82b8df37","6877649eabb845cf142cd221","6895ec3e9dc673cb746b9962","1","67eaee55a9b4d89e82b8df37","1","2025-08-08T12:28:44.290Z","","","","AttribQ","","","","","","","","","","","50","","","","","","","","","","","","","","","","","","","","","","","","","","",""
"4130","","<div style=""width:500px;"">
  <p>How much control did you have over the ball?</p>
  </div>","96","html-slider-response","15","272308","0.0-7.0-2.0","239","1","2025-08-08 12:23:51","36c45c0696341be0efffe67d72a12abb","197.185.179.85","Mozilla/5.0 (Windows NT 10.0; Win64; x64) AppleWebKit/537.36 (KHTML, like Gecko) Chrome/138.0.0.0 Safari/537.36","WebKit","Chrome","138.0.0.0","Windows","10.0","https://app.prolific.com/","en-US,en;q=0.9","67eaee55a9b4d89e82b8df37","6877649eabb845cf142cd221","6895ec3e9dc673cb746b9962","1","67eaee55a9b4d89e82b8df37","1","2025-08-08T12:28:48.423Z","","","","ControlQ","","","","","","","","","","","50","","","","","","","","","","","","","","","","","","","","","","","","","","",""
"3036","","<div style=""width:500px;"">
  <p>How would you describe your current emotional state?</p>
  </div>","1","html-slider-response","16","275350","0.0-7.0-3.0","239","1","2025-08-08 12:23:51","36c45c0696341be0efffe67d72a12abb","197.185.179.85","Mozilla/5.0 (Windows NT 10.0; Win64; x64) AppleWebKit/537.36 (KHTML, like Gecko) Chrome/138.0.0.0 Safari/537.36","WebKit","Chrome","138.0.0.0","Windows","10.0","https://app.prolific.com/","en-US,en;q=0.9","67eaee55a9b4d89e82b8df37","6877649eabb845cf142cd221","6895ec3e9dc673cb746b9962","1","67eaee55a9b4d89e82b8df37","1","2025-08-08T12:28:51.465Z","","","","StressQ","","","","","","","","","","","50","","","","","","","","","","","","","","","","","","","","","","","","","","",""
"4059","","<div style=""width:500px;"">
  <p>What best describes how you currently feel?</p>
  </div>","96","html-slider-response","17","279430","0.0-7.0-4.0","239","1","2025-08-08 12:23:51","36c45c0696341be0efffe67d72a12abb","197.185.179.85","Mozilla/5.0 (Windows NT 10.0; Win64; x64) AppleWebKit/537.36 (KHTML, like Gecko) Chrome/138.0.0.0 Safari/537.36","WebKit","Chrome","138.0.0.0","Windows","10.0","https://app.prolific.com/","en-US,en;q=0.9","67eaee55a9b4d89e82b8df37","6877649eabb845cf142cd221","6895ec3e9dc673cb746b9962","1","67eaee55a9b4d89e82b8df37","1","2025-08-08T12:28:55.546Z","","","","MotivationQ","","","","","","","","","","","50","","","","","","","","","","","","","","","","","","","","","","","","","","",""
"","","","","ctl-task-cpt","18","306423","0.0-7.0-0.1","239","1","2025-08-08 12:23:51","36c45c0696341be0efffe67d72a12abb","197.185.179.85","Mozilla/5.0 (Windows NT 10.0; Win64; x64) AppleWebKit/537.36 (KHTML, like Gecko) Chrome/138.0.0.0 Safari/537.36","WebKit","Chrome","138.0.0.0","Windows","10.0","https://app.prolific.com/","en-US,en;q=0.9","67eaee55a9b4d89e82b8df37","6877649eabb845cf142cd221","6895ec3e9dc673cb746b9962","1","67eaee55a9b4d89e82b8df37","1","2025-08-08T12:29:22.538Z","","","","","","","","","","","","","","","","win-only","1","g1:NE,g2:SW","0.9","2","0","297085.1","1851.9","6860.9","23947.4","1","4","4","6","2","4","4","12","8","0.09090909090909091","1318.3","3000","720","[""down"",""left""]","{""num_key_presses"":6,""num_perfect"":5,""num_errors"":0,""num_randdir"":1,""num_randdir_good_moves"":1,""num_whilered"":0,""num_whileblue"":0,""num_blue"":0,""num_good_moves"":6}","[292.22232142857143,293.12857142857143,0.1,292.22232142857143,293.12857142857143,101.6,292.22232142857143,293.12857142857143,214,292.22232142857143,293.12857142857143,314.9,292.22232142857143,293.12857142857143,420.4,292.22232142857143,293.12857142857143,528.6,292.22232142857143,293.12857142857143,639.4,109.22232142857143,428.12857142857143,754,51.222321428571426,533.1285714285714,855.3,37.222321428571426,549.1285714285714,991.3,37.222321428571426,549.1285714285714,1098.8,37.222321428571426,549.1285714285714,1205,37.222321428571426,549.1285714285714,1307.5,37.222321428571426,549.1285714285714,1415.5,37.222321428571426,549.1285714285714,1535.4,37.222321428571426,549.1285714285714,1638.9,37.222321428571426,549.1285714285714,1758.5,37.222321428571426,549.1285714285714,1871.5,37.222321428571426,549.1285714285714,1985.1,37.222321428571426,549.1285714285714,2087.2,37.222321428571426,549.1285714285714,2188.2,37.222321428571426,549.1285714285714,2290.1,37.222321428571426,549.1285714285714,2439.4,37.222321428571426,549.1285714285714,2539.5,37.222321428571426,549.1285714285714,2641.2,37.222321428571426,549.1285714285714,2745.7,37.222321428571426,549.1285714285714,2845.9,37.222321428571426,549.1285714285714,2946.2,37.222321428571426,549.1285714285714,3051.8,37.222321428571426,549.1285714285714,3167.4,37.222321428571426,549.1285714285714,3273.4,37.222321428571426,549.1285714285714,3379.3,37.222321428571426,549.1285714285714,3481,37.222321428571426,549.1285714285714,3592.3,37.222321428571426,549.1285714285714,3703.6,37.222321428571426,549.1285714285714,3806.2,37.222321428571426,549.1285714285714,3906.3,37.222321428571426,549.1285714285714,4006.4,37.222321428571426,549.1285714285714,4113.8,37.222321428571426,549.1285714285714,4216.2,37.222321428571426,549.1285714285714,4329.2,37.222321428571426,549.1285714285714,4433.5,37.222321428571426,549.1285714285714,4533.7,37.222321428571426,549.1285714285714,4635.5,37.222321428571426,549.1285714285714,4742.9,37.222321428571426,549.1285714285714,4847.8,37.222321428571426,549.1285714285714,4948.5]","[1449.8,1449.8,1000,0,449.8,""smooth"",""down"",""down"",""good_move"",4381.5,2925.2,2431.5,1456.3,493.7,""smooth"",""down"",""down"",""good_move"",7896.1,3508.5,2863.6,4387.7,644.8,""oops"",""down"",""down"",""good_move"",10965.6,3064.9,2345,7900.7,720,""smooth"",""left"",""left"",""good_move"",14191.7,3220.9,2526.9,10970.9,694,""smooth"",""left"",""left"",""good_move"",16940.8,2745.6,2114.6,14195.3,630.9,""smooth"",""left"",""left"",""good_move""]"
"17927","","<div style=""width:500px;"">
  <p>What determined the result of this run?</p>
  </div>","98","html-slider-response","19","324361","0.0-7.0-1.1","239","1","2025-08-08 12:23:51","36c45c0696341be0efffe67d72a12abb","197.185.179.85","Mozilla/5.0 (Windows NT 10.0; Win64; x64) AppleWebKit/537.36 (KHTML, like Gecko) Chrome/138.0.0.0 Safari/537.36","WebKit","Chrome","138.0.0.0","Windows","10.0","https://app.prolific.com/","en-US,en;q=0.9","67eaee55a9b4d89e82b8df37","6877649eabb845cf142cd221","6895ec3e9dc673cb746b9962","1","67eaee55a9b4d89e82b8df37","1","2025-08-08T12:29:40.477Z","","","","AttribQ","","","","","","","","","","","50","","","","","","","","","","","","","","","","","","","","","","","","","","",""
"3307","","<div style=""width:500px;"">
  <p>How much control did you have over the ball?</p>
  </div>","98","html-slider-response","20","327692","0.0-7.0-2.1","239","1","2025-08-08 12:23:51","36c45c0696341be0efffe67d72a12abb","197.185.179.85","Mozilla/5.0 (Windows NT 10.0; Win64; x64) AppleWebKit/537.36 (KHTML, like Gecko) Chrome/138.0.0.0 Safari/537.36","WebKit","Chrome","138.0.0.0","Windows","10.0","https://app.prolific.com/","en-US,en;q=0.9","67eaee55a9b4d89e82b8df37","6877649eabb845cf142cd221","6895ec3e9dc673cb746b9962","1","67eaee55a9b4d89e82b8df37","1","2025-08-08T12:29:43.807Z","","","","ControlQ","","","","","","","","","","","50","","","","","","","","","","","","","","","","","","","","","","","","","","",""
"3406","","<div style=""width:500px;"">
  <p>How would you describe your current emotional state?</p>
  </div>","1","html-slider-response","21","331103","0.0-7.0-3.1","239","1","2025-08-08 12:23:51","36c45c0696341be0efffe67d72a12abb","197.185.179.85","Mozilla/5.0 (Windows NT 10.0; Win64; x64) AppleWebKit/537.36 (KHTML, like Gecko) Chrome/138.0.0.0 Safari/537.36","WebKit","Chrome","138.0.0.0","Windows","10.0","https://app.prolific.com/","en-US,en;q=0.9","67eaee55a9b4d89e82b8df37","6877649eabb845cf142cd221","6895ec3e9dc673cb746b9962","1","67eaee55a9b4d89e82b8df37","1","2025-08-08T12:29:47.219Z","","","","StressQ","","","","","","","","","","","50","","","","","","","","","","","","","","","","","","","","","","","","","","",""
"3244","","<div style=""width:500px;"">
  <p>What best describes how you currently feel?</p>
  </div>","98","html-slider-response","22","334352","0.0-7.0-4.1","239","1","2025-08-08 12:23:51","36c45c0696341be0efffe67d72a12abb","197.185.179.85","Mozilla/5.0 (Windows NT 10.0; Win64; x64) AppleWebKit/537.36 (KHTML, like Gecko) Chrome/138.0.0.0 Safari/537.36","WebKit","Chrome","138.0.0.0","Windows","10.0","https://app.prolific.com/","en-US,en;q=0.9","67eaee55a9b4d89e82b8df37","6877649eabb845cf142cd221","6895ec3e9dc673cb746b9962","1","67eaee55a9b4d89e82b8df37","1","2025-08-08T12:29:50.468Z","","","","MotivationQ","","","","","","","","","","","50","","","","","","","","","","","","","","","","","","","","","","","","","","",""
"","","","","ctl-task-cpt","23","374150","0.0-7.0-0.2","239","1","2025-08-08 12:23:51","36c45c0696341be0efffe67d72a12abb","197.185.179.85","Mozilla/5.0 (Windows NT 10.0; Win64; x64) AppleWebKit/537.36 (KHTML, like Gecko) Chrome/138.0.0.0 Safari/537.36","WebKit","Chrome","138.0.0.0","Windows","10.0","https://app.prolific.com/","en-US,en;q=0.9","67eaee55a9b4d89e82b8df37","6877649eabb845cf142cd221","6895ec3e9dc673cb746b9962","1","67eaee55a9b4d89e82b8df37","1","2025-08-08T12:30:30.266Z","","","","","","","","","","","","","","","","win-only","3","g1:SW,g2:NE","0.8","3","0","352016.2","1553.2","6567.7","36745.5","1","4","8","6","2","8","8","20","12","0.15151515151515152","1292.8","3000","730","[""up"",""right""]","{""num_key_presses"":8,""num_perfect"":7,""num_errors"":0,""num_randdir"":1,""num_randdir_good_moves"":0,""num_whilered"":0,""num_whileblue"":0,""num_blue"":2,""num_good_moves"":7}","[298.22232142857143,292.12857142857143,26.6,298.22232142857143,292.12857142857143,103.6,298.22232142857143,292.12857142857143,215.5,298.22232142857143,292.12857142857143,330.3,298.22232142857143,292.12857142857143,447.3,298.22232142857143,292.12857142857143,566.6,360.22232142857143,228.12857142857143,669.4,539.2223214285714,68.12857142857143,776.2,561.2223214285714,63.128571428571426,876.4,566.2223214285714,68.12857142857143,979.9,566.2223214285714,69.12857142857143,1091.8,566.2223214285714,69.12857142857143,1195.8,566.2223214285714,69.12857142857143,1302.8,566.2223214285714,69.12857142857143,1403.6,566.2223214285714,69.12857142857143,1510.1,566.2223214285714,69.12857142857143,1625,566.2223214285714,69.12857142857143,1729.2,566.2223214285714,69.12857142857143,1830.6,556.2223214285714,94.12857142857143,1938.4,526.2223214285714,163.12857142857143,2046.9,518.2223214285714,185.12857142857143,2149.1,518.2223214285714,185.12857142857143,2383.5,518.2223214285714,185.12857142857143,2487,518.2223214285714,185.12857142857143,2595.3,518.2223214285714,185.12857142857143,2704.1,518.2223214285714,185.12857142857143,2811.8,518.2223214285714,185.12857142857143,2929.3,518.2223214285714,185.12857142857143,3038.9,518.2223214285714,185.12857142857143,3142.5,518.2223214285714,185.12857142857143,3246.9,518.2223214285714,185.12857142857143,3349.9,518.2223214285714,185.12857142857143,3450.6,518.2223214285714,185.12857142857143,3559.4,518.2223214285714,185.12857142857143,3675.6,518.2223214285714,185.12857142857143,3779.7,518.2223214285714,185.12857142857143,3885.9,518.2223214285714,185.12857142857143,3987.1,518.2223214285714,185.12857142857143,4095.3,518.2223214285714,185.12857142857143,4211.2,518.2223214285714,185.12857142857143,4312.1,518.2223214285714,185.12857142857143,4415.1,518.2223214285714,185.12857142857143,4532,518.2223214285714,185.12857142857143,4632.2,518.2223214285714,185.12857142857143,4737,518.2223214285714,185.12857142857143,4838.4,518.2223214285714,185.12857142857143,4948.5]","[1544,1544,1000,0,544,""smooth"",""right"",""right"",""good_move"",4955.2,3405.5,2952.2,1549.7,453.3,""oops"",""right"",""down"",""bad_move"",8113.3,3155.4,2396.6,4957.9,758.8,""smooth"",""up"",""up"",""good_move"",10873.5,2759.2,2015,8114.3,744.2,""smooth"",""up"",""up"",""good_move"",13782.5,2906.7,2447.9,10875.8,458.8,""smooth"",""up"",""up"",""good_move"",17603.2,3810.8,3145.2,13792.5,665.6,""smooth"",""up"",""up"",""good_move"",20700,3094.5,2542,17605.6,552.5,""smooth"",""right"",""right"",""good_move"",30005.5,9299,2236.5,27347.2,421.8,""smooth"",""right"",""right"",""good_move""]"
"15689","","<div style=""width:500px;"">
  <p>What determined the result of this run?</p>
  </div>","96","html-slider-response","24","389847","0.0-7.0-1.2","239","1","2025-08-08 12:23:51","36c45c0696341be0efffe67d72a12abb","197.185.179.85","Mozilla/5.0 (Windows NT 10.0; Win64; x64) AppleWebKit/537.36 (KHTML, like Gecko) Chrome/138.0.0.0 Safari/537.36","WebKit","Chrome","138.0.0.0","Windows","10.0","https://app.prolific.com/","en-US,en;q=0.9","67eaee55a9b4d89e82b8df37","6877649eabb845cf142cd221","6895ec3e9dc673cb746b9962","1","67eaee55a9b4d89e82b8df37","1","2025-08-08T12:30:45.964Z","","","","AttribQ","","","","","","","","","","","50","","","","","","","","","","","","","","","","","","","","","","","","","","",""
"2442","","<div style=""width:500px;"">
  <p>How much control did you have over the ball?</p>
  </div>","94","html-slider-response","25","392299","0.0-7.0-2.2","239","1","2025-08-08 12:23:51","36c45c0696341be0efffe67d72a12abb","197.185.179.85","Mozilla/5.0 (Windows NT 10.0; Win64; x64) AppleWebKit/537.36 (KHTML, like Gecko) Chrome/138.0.0.0 Safari/537.36","WebKit","Chrome","138.0.0.0","Windows","10.0","https://app.prolific.com/","en-US,en;q=0.9","67eaee55a9b4d89e82b8df37","6877649eabb845cf142cd221","6895ec3e9dc673cb746b9962","1","67eaee55a9b4d89e82b8df37","1","2025-08-08T12:30:48.415Z","","","","ControlQ","","","","","","","","","","","50","","","","","","","","","","","","","","","","","","","","","","","","","","",""
"2769","","<div style=""width:500px;"">
  <p>How would you describe your current emotional state?</p>
  </div>","2","html-slider-response","26","395072","0.0-7.0-3.2","239","1","2025-08-08 12:23:51","36c45c0696341be0efffe67d72a12abb","197.185.179.85","Mozilla/5.0 (Windows NT 10.0; Win64; x64) AppleWebKit/537.36 (KHTML, like Gecko) Chrome/138.0.0.0 Safari/537.36","WebKit","Chrome","138.0.0.0","Windows","10.0","https://app.prolific.com/","en-US,en;q=0.9","67eaee55a9b4d89e82b8df37","6877649eabb845cf142cd221","6895ec3e9dc673cb746b9962","1","67eaee55a9b4d89e82b8df37","1","2025-08-08T12:30:51.188Z","","","","StressQ","","","","","","","","","","","50","","","","","","","","","","","","","","","","","","","","","","","","","","",""
"2737","","<div style=""width:500px;"">
  <p>What best describes how you currently feel?</p>
  </div>","96","html-slider-response","27","397817","0.0-7.0-4.2","239","1","2025-08-08 12:23:51","36c45c0696341be0efffe67d72a12abb","197.185.179.85","Mozilla/5.0 (Windows NT 10.0; Win64; x64) AppleWebKit/537.36 (KHTML, like Gecko) Chrome/138.0.0.0 Safari/537.36","WebKit","Chrome","138.0.0.0","Windows","10.0","https://app.prolific.com/","en-US,en;q=0.9","67eaee55a9b4d89e82b8df37","6877649eabb845cf142cd221","6895ec3e9dc673cb746b9962","1","67eaee55a9b4d89e82b8df37","1","2025-08-08T12:30:53.932Z","","","","MotivationQ","","","","","","","","","","","50","","","","","","","","","","","","","","","","","","","","","","","","","","",""
"","","","","ctl-task-cpt","28","432865","0.0-7.0-0.3","239","1","2025-08-08 12:23:51","36c45c0696341be0efffe67d72a12abb","197.185.179.85","Mozilla/5.0 (Windows NT 10.0; Win64; x64) AppleWebKit/537.36 (KHTML, like Gecko) Chrome/138.0.0.0 Safari/537.36","WebKit","Chrome","138.0.0.0","Windows","10.0","https://app.prolific.com/","en-US,en;q=0.9","67eaee55a9b4d89e82b8df37","6877649eabb845cf142cd221","6895ec3e9dc673cb746b9962","1","67eaee55a9b4d89e82b8df37","1","2025-08-08T12:31:28.980Z","","","","","","","","","","","","","","","","win-only","3","g1:SW,g2:NE","0.7","4","0","415451.3","1709.5","6718.8","32023.8","1","4","4","6","1","1","1","21","20","0.1590909090909091","3167.6","3000","635","[""down"",""left""]","{""num_key_presses"":6,""num_perfect"":4,""num_errors"":0,""num_randdir"":2,""num_randdir_good_moves"":1,""num_whilered"":0,""num_whileblue"":0,""num_blue"":2,""num_good_moves"":5}","[293.22232142857143,293.12857142857143,0.7,293.22232142857143,293.12857142857143,107.7,293.22232142857143,293.12857142857143,214.4,293.22232142857143,293.12857142857143,327.6,293.22232142857143,293.12857142857143,435.1,293.22232142857143,293.12857142857143,538.8,293.22232142857143,293.12857142857143,654.7,293.22232142857143,293.12857142857143,756,293.22232142857143,293.12857142857143,860.4,293.22232142857143,293.12857142857143,973.4,293.22232142857143,293.12857142857143,1078.5,293.22232142857143,293.12857142857143,1182.3,288.22232142857143,293.12857142857143,1287.4,281.22232142857143,297.12857142857143,1405.7,278.22232142857143,301.12857142857143,1510.3,278.22232142857143,301.12857142857143,1624.4,278.22232142857143,301.12857142857143,1732.2,278.22232142857143,301.12857142857143,1833.2,86.22232142857143,496.12857142857143,1956,41.222321428571426,571.1285714285714,2063,26.222321428571426,597.1285714285714,2174.1,26.222321428571426,596.1285714285714,2276.9,26.222321428571426,596.1285714285714,2384.5,26.222321428571426,596.1285714285714,2504.2,30.222321428571426,586.1285714285714,2632.4,33.222321428571426,583.1285714285714,2732.8,37.222321428571426,576.1285714285714,2840.2,37.222321428571426,576.1285714285714,2949,37.222321428571426,576.1285714285714,3052.1,37.222321428571426,576.1285714285714,3179,37.222321428571426,576.1285714285714,3280.4,37.222321428571426,576.1285714285714,3388.9,37.222321428571426,576.1285714285714,3490.5,37.222321428571426,576.1285714285714,3593,37.222321428571426,576.1285714285714,3703.8,37.222321428571426,576.1285714285714,3809.5,37.222321428571426,576.1285714285714,3918.1,37.222321428571426,576.1285714285714,4021.6,37.222321428571426,576.1285714285714,4123.2,37.222321428571426,576.1285714285714,4234.7,37.222321428571426,576.1285714285714,4334.7,37.222321428571426,576.1285714285714,4438.3,37.222321428571426,576.1285714285714,4540.6,37.222321428571426,576.1285714285714,4651.6,37.222321428571426,576.1285714285714,4753.6,37.222321428571426,576.1285714285714,4871.1,37.222321428571426,576.1285714285714,4984.8]","[1495.7,1495.7,1000,0,495.8,""smooth"",""down"",""down"",""good_move"",4696.7,3198.8,2614.7,1497.9,584.1,""smooth"",""down"",""down"",""good_move"",15932,11235.2,2383,12951.8,597.2,""oops"",""left"",""left"",""good_move"",19461.1,3527.6,2236.3,15934.9,1290,""oops"",""left"",""right"",""bad_move"",22267.7,2806.1,1461.6,19461.6,1344.5,""smooth"",""left"",""left"",""good_move"",25130.2,2859.5,2398.2,22270.9,461.2,""smooth"",""left"",""left"",""good_move""]"
"4599","","<div style=""width:500px;"">
  <p>What determined the result of this run?</p>
  </div>","99","html-slider-response","29","437469","0.0-7.0-1.3","239","1","2025-08-08 12:23:51","36c45c0696341be0efffe67d72a12abb","197.185.179.85","Mozilla/5.0 (Windows NT 10.0; Win64; x64) AppleWebKit/537.36 (KHTML, like Gecko) Chrome/138.0.0.0 Safari/537.36","WebKit","Chrome","138.0.0.0","Windows","10.0","https://app.prolific.com/","en-US,en;q=0.9","67eaee55a9b4d89e82b8df37","6877649eabb845cf142cd221","6895ec3e9dc673cb746b9962","1","67eaee55a9b4d89e82b8df37","1","2025-08-08T12:31:33.584Z","","","","AttribQ","","","","","","","","","","","50","","","","","","","","","","","","","","","","","","","","","","","","","","",""
"3629","","<div style=""width:500px;"">
  <p>How much control did you have over the ball?</p>
  </div>","92","html-slider-response","30","441140","0.0-7.0-2.3","239","1","2025-08-08 12:23:51","36c45c0696341be0efffe67d72a12abb","197.185.179.85","Mozilla/5.0 (Windows NT 10.0; Win64; x64) AppleWebKit/537.36 (KHTML, like Gecko) Chrome/138.0.0.0 Safari/537.36","WebKit","Chrome","138.0.0.0","Windows","10.0","https://app.prolific.com/","en-US,en;q=0.9","67eaee55a9b4d89e82b8df37","6877649eabb845cf142cd221","6895ec3e9dc673cb746b9962","1","67eaee55a9b4d89e82b8df37","1","2025-08-08T12:31:37.256Z","","","","ControlQ","","","","","","","","","","","50","","","","","","","","","","","","","","","","","","","","","","","","","","",""
"2854","","<div style=""width:500px;"">
  <p>How would you describe your current emotional state?</p>
  </div>","2","html-slider-response","31","444003","0.0-7.0-3.3","239","1","2025-08-08 12:23:51","36c45c0696341be0efffe67d72a12abb","197.185.179.85","Mozilla/5.0 (Windows NT 10.0; Win64; x64) AppleWebKit/537.36 (KHTML, like Gecko) Chrome/138.0.0.0 Safari/537.36","WebKit","Chrome","138.0.0.0","Windows","10.0","https://app.prolific.com/","en-US,en;q=0.9","67eaee55a9b4d89e82b8df37","6877649eabb845cf142cd221","6895ec3e9dc673cb746b9962","1","67eaee55a9b4d89e82b8df37","1","2025-08-08T12:31:40.119Z","","","","StressQ","","","","","","","","","","","50","","","","","","","","","","","","","","","","","","","","","","","","","","",""
"3457","","<div style=""width:500px;"">
  <p>What best describes how you currently feel?</p>
  </div>","97","html-slider-response","32","447465","0.0-7.0-4.3","239","1","2025-08-08 12:23:51","36c45c0696341be0efffe67d72a12abb","197.185.179.85","Mozilla/5.0 (Windows NT 10.0; Win64; x64) AppleWebKit/537.36 (KHTML, like Gecko) Chrome/138.0.0.0 Safari/537.36","WebKit","Chrome","138.0.0.0","Windows","10.0","https://app.prolific.com/","en-US,en;q=0.9","67eaee55a9b4d89e82b8df37","6877649eabb845cf142cd221","6895ec3e9dc673cb746b9962","1","67eaee55a9b4d89e82b8df37","1","2025-08-08T12:31:43.581Z","","","","MotivationQ","","","","","","","","","","","50","","","","","","","","","","","","","","","","","","","","","","","","","","",""
"","","","","ctl-task-cpt","33","489229","0.0-7.0-0.4","239","1","2025-08-08 12:23:51","36c45c0696341be0efffe67d72a12abb","197.185.179.85","Mozilla/5.0 (Windows NT 10.0; Win64; x64) AppleWebKit/537.36 (KHTML, like Gecko) Chrome/138.0.0.0 Safari/537.36","WebKit","Chrome","138.0.0.0","Windows","10.0","https://app.prolific.com/","en-US,en;q=0.9","67eaee55a9b4d89e82b8df37","6877649eabb845cf142cd221","6895ec3e9dc673cb746b9962","1","67eaee55a9b4d89e82b8df37","1","2025-08-08T12:32:25.344Z","","","","","","","","","","","","","","","","win-only","0","g1:NW,g2:SE","0.6","5","0","465100","1915.9","6922.7","38736.5","1","4","8","6","2","8","8","29","21","0.2196969696969697","2634.1","3000","65","[""down"",""right""]","{""num_key_presses"":10,""num_perfect"":6,""num_errors"":0,""num_randdir"":4,""num_randdir_good_moves"":2,""num_whilered"":0,""num_whileblue"":0,""num_blue"":0,""num_good_moves"":8}","[293.22232142857143,297.12857142857143,0.2,293.22232142857143,297.12857142857143,107,293.22232142857143,297.12857142857143,209.1,293.22232142857143,297.12857142857143,317.1,293.22232142857143,297.12857142857143,420.3,293.22232142857143,297.12857142857143,528.9,293.22232142857143,297.12857142857143,633,293.22232142857143,297.12857142857143,738.1,293.22232142857143,297.12857142857143,841.9,293.22232142857143,297.12857142857143,948.4,293.22232142857143,297.12857142857143,1051,293.22232142857143,297.12857142857143,1162.9,293.22232142857143,297.12857142857143,1263.3,293.22232142857143,297.12857142857143,1367.6,293.22232142857143,297.12857142857143,1479.7,293.22232142857143,297.12857142857143,1583.5,293.22232142857143,297.12857142857143,1691.4,293.22232142857143,297.12857142857143,1800.7,317.22232142857143,294.12857142857143,1907.9,449.22232142857143,373.12857142857143,2012.1,553.2223214285714,543.1285714285714,2122.3,539.2223214285714,545.1285714285714,2238.5,534.2223214285714,544.1285714285714,2351.4,534.2223214285714,544.1285714285714,2457.3,534.2223214285714,544.1285714285714,2562.7,534.2223214285714,544.1285714285714,2670,534.2223214285714,544.1285714285714,2777.1,534.2223214285714,544.1285714285714,2879.6,534.2223214285714,544.1285714285714,2988.8,534.2223214285714,544.1285714285714,3099,534.2223214285714,544.1285714285714,3209,534.2223214285714,544.1285714285714,3322.3,534.2223214285714,544.1285714285714,3430.1,534.2223214285714,544.1285714285714,3533.6,534.2223214285714,544.1285714285714,3641.4,534.2223214285714,544.1285714285714,3747.3,534.2223214285714,544.1285714285714,3847.9,534.2223214285714,544.1285714285714,3962.5,534.2223214285714,544.1285714285714,4066.2,534.2223214285714,544.1285714285714,4170.3,534.2223214285714,544.1285714285714,4278.4,534.2223214285714,544.1285714285714,4379.2,534.2223214285714,544.1285714285714,4479.5,534.2223214285714,544.1285714285714,4584,534.2223214285714,544.1285714285714,4692.8,534.2223214285714,544.1285714285714,4794,534.2223214285714,544.1285714285714,4907.6]","[1522.9,1522.9,1000,0,523.6,""oops"",""right"",""down"",""good_move"",4202.9,2677,1695.2,1526,981.8,""smooth"",""right"",""right"",""good_move"",8858.7,4654.8,3998.3,4203.9,656.6,""oops"",""right"",""up"",""bad_move"",12523.4,3661.3,3220.5,8862.2,440.8,""smooth"",""down"",""down"",""good_move"",15929.1,3401,2087.6,12528.2,1313.3,""smooth"",""right"",""right"",""good_move"",18739.5,2807,2176.3,15932.5,630.7,""oops"",""right"",""up"",""bad_move"",21848.5,3105.7,2698.2,18742.8,407.9,""smooth"",""down"",""down"",""good_move"",24657.3,2802.8,2160.5,21854.5,642.3,""smooth"",""down"",""down"",""good_move"",28088.5,3427.8,2813.4,24660.8,614.3,""smooth"",""down"",""down"",""good_move"",31550.9,3458.6,2637.6,28092.3,821,""oops"",""right"",""right"",""good_move""]"
"3422","","<div style=""width:500px;"">
  <p>What determined the result of this run?</p>
  </div>","98","html-slider-response","34","492659","0.0-7.0-1.4","239","1","2025-08-08 12:23:51","36c45c0696341be0efffe67d72a12abb","197.185.179.85","Mozilla/5.0 (Windows NT 10.0; Win64; x64) AppleWebKit/537.36 (KHTML, like Gecko) Chrome/138.0.0.0 Safari/537.36","WebKit","Chrome","138.0.0.0","Windows","10.0","https://app.prolific.com/","en-US,en;q=0.9","67eaee55a9b4d89e82b8df37","6877649eabb845cf142cd221","6895ec3e9dc673cb746b9962","1","67eaee55a9b4d89e82b8df37","1","2025-08-08T12:32:28.775Z","","","","AttribQ","","","","","","","","","","","50","","","","","","","","","","","","","","","","","","","","","","","","","","",""
"4757","","<div style=""width:500px;"">
  <p>How much control did you have over the ball?</p>
  </div>","99","html-slider-response","35","497423","0.0-7.0-2.4","239","1","2025-08-08 12:23:51","36c45c0696341be0efffe67d72a12abb","197.185.179.85","Mozilla/5.0 (Windows NT 10.0; Win64; x64) AppleWebKit/537.36 (KHTML, like Gecko) Chrome/138.0.0.0 Safari/537.36","WebKit","Chrome","138.0.0.0","Windows","10.0","https://app.prolific.com/","en-US,en;q=0.9","67eaee55a9b4d89e82b8df37","6877649eabb845cf142cd221","6895ec3e9dc673cb746b9962","1","67eaee55a9b4d89e82b8df37","1","2025-08-08T12:32:33.539Z","","","","ControlQ","","","","","","","","","","","50","","","","","","","","","","","","","","","","","","","","","","","","","","",""
"3238","","<div style=""width:500px;"">
  <p>How would you describe your current emotional state?</p>
  </div>","0","html-slider-response","36","500668","0.0-7.0-3.4","239","1","2025-08-08 12:23:51","36c45c0696341be0efffe67d72a12abb","197.185.179.85","Mozilla/5.0 (Windows NT 10.0; Win64; x64) AppleWebKit/537.36 (KHTML, like Gecko) Chrome/138.0.0.0 Safari/537.36","WebKit","Chrome","138.0.0.0","Windows","10.0","https://app.prolific.com/","en-US,en;q=0.9","67eaee55a9b4d89e82b8df37","6877649eabb845cf142cd221","6895ec3e9dc673cb746b9962","1","67eaee55a9b4d89e82b8df37","1","2025-08-08T12:32:36.783Z","","","","StressQ","","","","","","","","","","","50","","","","","","","","","","","","","","","","","","","","","","","","","","",""
"3890","","<div style=""width:500px;"">
  <p>What best describes how you currently feel?</p>
  </div>","97","html-slider-response","37","504567","0.0-7.0-4.4","239","1","2025-08-08 12:23:51","36c45c0696341be0efffe67d72a12abb","197.185.179.85","Mozilla/5.0 (Windows NT 10.0; Win64; x64) AppleWebKit/537.36 (KHTML, like Gecko) Chrome/138.0.0.0 Safari/537.36","WebKit","Chrome","138.0.0.0","Windows","10.0","https://app.prolific.com/","en-US,en;q=0.9","67eaee55a9b4d89e82b8df37","6877649eabb845cf142cd221","6895ec3e9dc673cb746b9962","1","67eaee55a9b4d89e82b8df37","1","2025-08-08T12:32:40.683Z","","","","MotivationQ","","","","","","","","","","","50","","","","","","","","","","","","","","","","","","","","","","","","","","",""
"","","","","ctl-task-cpt","38","550015","0.0-7.0-0.5","239","1","2025-08-08 12:23:51","36c45c0696341be0efffe67d72a12abb","197.185.179.85","Mozilla/5.0 (Windows NT 10.0; Win64; x64) AppleWebKit/537.36 (KHTML, like Gecko) Chrome/138.0.0.0 Safari/537.36","WebKit","Chrome","138.0.0.0","Windows","10.0","https://app.prolific.com/","en-US,en;q=0.9","67eaee55a9b4d89e82b8df37","6877649eabb845cf142cd221","6895ec3e9dc673cb746b9962","1","67eaee55a9b4d89e82b8df37","1","2025-08-08T12:33:26.130Z","","","","","","","","","","","","","","","","win-only","3","g1:SW,g2:NE","0.5","6","0","522203.4","1632.6","6648.3","42409.9","1","4","4","6","2","4","4","33","29","0.25","4149.8","3000","805","[""up"",""right""]","{""num_key_presses"":10,""num_perfect"":5,""num_errors"":0,""num_randdir"":5,""num_randdir_good_moves"":3,""num_whilered"":0,""num_whileblue"":0,""num_blue"":1,""num_good_moves"":8}","[300.22232142857143,300.12857142857143,4.2,300.22232142857143,300.12857142857143,105.1,300.22232142857143,300.12857142857143,207.5,300.22232142857143,300.12857142857143,323.3,300.22232142857143,300.12857142857143,429.6,300.22232142857143,300.12857142857143,535.8,300.22232142857143,300.12857142857143,638.9,300.22232142857143,300.12857142857143,742.7,300.22232142857143,300.12857142857143,851.6,300.22232142857143,300.12857142857143,971.4,300.22232142857143,300.12857142857143,1072.7,300.22232142857143,300.12857142857143,1173.8,300.22232142857143,300.12857142857143,1281.7,300.22232142857143,300.12857142857143,1389.6,300.22232142857143,300.12857142857143,1498.9,300.22232142857143,300.12857142857143,1601.4,300.22232142857143,300.12857142857143,1707.6,301.22232142857143,293.12857142857143,1810.2,592.2223214285714,-13.871428571428574,1912.8,672.2223214285714,-34.871428571428574,2020.7,672.2223214285714,-34.871428571428574,2126.8,672.2223214285714,-34.871428571428574,2236.9,672.2223214285714,-34.871428571428574,2339.6,606.2223214285714,-9.871428571428574,2440,344.22232142857143,210.12857142857143,2542.2,308.22232142857143,270.12857142857143,2651.1,308.22232142857143,270.12857142857143,2756.6,308.22232142857143,270.12857142857143,2867.4,308.22232142857143,270.12857142857143,2987.3,382.22232142857143,212.12857142857143,3101,382.22232142857143,212.12857142857143,3204.2,382.22232142857143,212.12857142857143,3321.1,438.22232142857143,153.12857142857143,3440,472.22232142857143,134.12857142857143,3541.6,484.22232142857143,127.12857142857143,3664.1,512.2223214285714,99.12857142857143,3765.1,538.2223214285714,82.12857142857143,3882.8,538.2223214285714,82.12857142857143,3988.7,538.2223214285714,81.12857142857143,4101.1,538.2223214285714,81.12857142857143,4205.3,538.2223214285714,81.12857142857143,4315.6,538.2223214285714,81.12857142857143,4420.8,538.2223214285714,81.12857142857143,4522.4,538.2223214285714,82.12857142857143,4625,542.2223214285714,192.12857142857143,4744.6,533.2223214285714,244.12857142857143,4846.7,533.2223214285714,247.12857142857143,4956.9]","[1522.5,1522.5,1000,0,522.5,""oops"",""right"",""left"",""bad_move"",4556.6,3032.2,2339.5,1524.5,692.6,""oops"",""right"",""right"",""good_move"",7401.6,2840.3,2197.3,4561.3,643,""smooth"",""right"",""right"",""good_move"",10203.9,2798.9,2192.6,7405,606.3,""oops"",""right"",""right"",""good_move"",13455.8,3248.7,2633.5,10207.2,615.1,""smooth"",""right"",""right"",""good_move"",17180,3720.3,3093.1,13459.7,627.2,""oops"",""up"",""left"",""bad_move"",20972.7,3790.3,3280.8,17182.5,509.5,""smooth"",""up"",""up"",""good_move"",28128.4,7103.5,2730.9,24714.2,683.3,""smooth"",""up"",""up"",""good_move"",31897.1,3765.6,2436.4,28131.5,1329.3,""oops"",""up"",""up"",""good_move"",35465,3562.9,2413.3,31902.1,1149.6,""smooth"",""right"",""right"",""good_move""]"
"2411","","<div style=""width:500px;"">
  <p>What determined the result of this run?</p>
  </div>","98","html-slider-response","39","552436","0.0-7.0-1.5","239","1","2025-08-08 12:23:51","36c45c0696341be0efffe67d72a12abb","197.185.179.85","Mozilla/5.0 (Windows NT 10.0; Win64; x64) AppleWebKit/537.36 (KHTML, like Gecko) Chrome/138.0.0.0 Safari/537.36","WebKit","Chrome","138.0.0.0","Windows","10.0","https://app.prolific.com/","en-US,en;q=0.9","67eaee55a9b4d89e82b8df37","6877649eabb845cf142cd221","6895ec3e9dc673cb746b9962","1","67eaee55a9b4d89e82b8df37","1","2025-08-08T12:33:28.551Z","","","","AttribQ","","","","","","","","","","","50","","","","","","","","","","","","","","","","","","","","","","","","","","",""
"2584","","<div style=""width:500px;"">
  <p>How much control did you have over the ball?</p>
  </div>","96","html-slider-response","40","555030","0.0-7.0-2.5","239","1","2025-08-08 12:23:51","36c45c0696341be0efffe67d72a12abb","197.185.179.85","Mozilla/5.0 (Windows NT 10.0; Win64; x64) AppleWebKit/537.36 (KHTML, like Gecko) Chrome/138.0.0.0 Safari/537.36","WebKit","Chrome","138.0.0.0","Windows","10.0","https://app.prolific.com/","en-US,en;q=0.9","67eaee55a9b4d89e82b8df37","6877649eabb845cf142cd221","6895ec3e9dc673cb746b9962","1","67eaee55a9b4d89e82b8df37","1","2025-08-08T12:33:31.146Z","","","","ControlQ","","","","","","","","","","","50","","","","","","","","","","","","","","","","","","","","","","","","","","",""
"2620","","<div style=""width:500px;"">
  <p>How would you describe your current emotional state?</p>
  </div>","0","html-slider-response","41","557655","0.0-7.0-3.5","239","1","2025-08-08 12:23:51","36c45c0696341be0efffe67d72a12abb","197.185.179.85","Mozilla/5.0 (Windows NT 10.0; Win64; x64) AppleWebKit/537.36 (KHTML, like Gecko) Chrome/138.0.0.0 Safari/537.36","WebKit","Chrome","138.0.0.0","Windows","10.0","https://app.prolific.com/","en-US,en;q=0.9","67eaee55a9b4d89e82b8df37","6877649eabb845cf142cd221","6895ec3e9dc673cb746b9962","1","67eaee55a9b4d89e82b8df37","1","2025-08-08T12:33:33.771Z","","","","StressQ","","","","","","","","","","","50","","","","","","","","","","","","","","","","","","","","","","","","","","",""
"3092","","<div style=""width:500px;"">
  <p>What best describes how you currently feel?</p>
  </div>","98","html-slider-response","42","560756","0.0-7.0-4.5","239","1","2025-08-08 12:23:51","36c45c0696341be0efffe67d72a12abb","197.185.179.85","Mozilla/5.0 (Windows NT 10.0; Win64; x64) AppleWebKit/537.36 (KHTML, like Gecko) Chrome/138.0.0.0 Safari/537.36","WebKit","Chrome","138.0.0.0","Windows","10.0","https://app.prolific.com/","en-US,en;q=0.9","67eaee55a9b4d89e82b8df37","6877649eabb845cf142cd221","6895ec3e9dc673cb746b9962","1","67eaee55a9b4d89e82b8df37","1","2025-08-08T12:33:36.871Z","","","","MotivationQ","","","","","","","","","","","50","","","","","","","","","","","","","","","","","","","","","","","","","","",""
"","","","","ctl-task-cpt","43","613872","0.0-7.0-0.6","239","1","2025-08-08 12:23:51","36c45c0696341be0efffe67d72a12abb","197.185.179.85","Mozilla/5.0 (Windows NT 10.0; Win64; x64) AppleWebKit/537.36 (KHTML, like Gecko) Chrome/138.0.0.0 Safari/537.36","WebKit","Chrome","138.0.0.0","Windows","10.0","https://app.prolific.com/","en-US,en;q=0.9","67eaee55a9b4d89e82b8df37","6877649eabb845cf142cd221","6895ec3e9dc673cb746b9962","1","67eaee55a9b4d89e82b8df37","1","2025-08-08T12:34:29.988Z","","","","","","","","","","","","","","","","win-only","0","g1:NW,g2:SE","0.4","7","0","578389.4","1329","6351.7","50085.8","1","4","4","6","2","4","4","37","33","0.2803030303030303","2469","3000","315","[""down"",""right""]","{""num_key_presses"":8,""num_perfect"":4,""num_errors"":0,""num_randdir"":4,""num_randdir_good_moves"":3,""num_whilered"":0,""num_whileblue"":0,""num_blue"":5,""num_good_moves"":7}","[300.22232142857143,294.12857142857143,1.8,300.22232142857143,294.12857142857143,103,300.22232142857143,294.12857142857143,210.5,300.22232142857143,294.12857142857143,316.9,300.22232142857143,294.12857142857143,430.9,300.22232142857143,294.12857142857143,538.1,300.22232142857143,294.12857142857143,643.6,300.22232142857143,294.12857142857143,754.6,300.22232142857143,294.12857142857143,861.9,300.22232142857143,294.12857142857143,978,300.22232142857143,294.12857142857143,1084.8,300.22232142857143,294.12857142857143,1191.1,300.22232142857143,294.12857142857143,1299.4,300.22232142857143,294.12857142857143,1411.5,300.22232142857143,294.12857142857143,1517.1,300.22232142857143,294.12857142857143,1632.2,320.22232142857143,290.12857142857143,1736.9,573.2223214285714,486.12857142857143,1847.1,590.2223214285714,529.1285714285714,1952.5,572.2223214285714,549.1285714285714,2068.4,562.2223214285714,545.1285714285714,2179.4,561.2223214285714,545.1285714285714,2279.6,557.2223214285714,540.1285714285714,2385.7,560.2223214285714,545.1285714285714,2499.8,560.2223214285714,545.1285714285714,2617.4,560.2223214285714,545.1285714285714,2730.3,560.2223214285714,545.1285714285714,2832.2,560.2223214285714,545.1285714285714,2941.2,560.2223214285714,545.1285714285714,3069.2,560.2223214285714,545.1285714285714,3171.5,560.2223214285714,545.1285714285714,3282.9,560.2223214285714,545.1285714285714,3385.8,560.2223214285714,545.1285714285714,3491.7,560.2223214285714,545.1285714285714,3598.1,560.2223214285714,545.1285714285714,3703.9,560.2223214285714,545.1285714285714,3816.6,560.2223214285714,545.1285714285714,3918.7,560.2223214285714,545.1285714285714,4022.8,560.2223214285714,545.1285714285714,4128.5,560.2223214285714,545.1285714285714,4231.3,560.2223214285714,545.1285714285714,4341.4,560.2223214285714,545.1285714285714,4451.6,560.2223214285714,545.1285714285714,4552.5,560.2223214285714,545.1285714285714,4661.9,560.2223214285714,545.1285714285714,4771.7,560.2223214285714,545.1285714285714,4880.5,560.2223214285714,545.1285714285714,4984.3]","[4993.6,4993.6,2425.4,2015.4,552.8,""smooth"",""right"",""right"",""good_move"",8029.5,3031.3,2285.9,4998.2,745.4,""oops"",""right"",""up"",""bad_move"",11332.5,3295.9,2075.5,8036.6,1220.4,""smooth"",""down"",""down"",""good_move"",14831.5,3493.4,2298,11338.1,1195.4,""oops"",""down"",""down"",""good_move"",28867.5,14032.2,2567.8,25128.7,1171.1,""smooth"",""down"",""down"",""good_move"",32205.6,3336.7,1665.1,28869,1671.5,""smooth"",""down"",""down"",""good_move"",36092.8,3882.4,3077.5,32210.4,804.9,""oops"",""right"",""right"",""good_move"",43461.3,7364.9,2174.9,40161,1125.4,""oops"",""right"",""right"",""good_move""]"
"10147","","<div style=""width:500px;"">
  <p>What determined the result of this run?</p>
  </div>","96","html-slider-response","44","624023","0.0-7.0-1.6","239","1","2025-08-08 12:23:51","36c45c0696341be0efffe67d72a12abb","197.185.179.85","Mozilla/5.0 (Windows NT 10.0; Win64; x64) AppleWebKit/537.36 (KHTML, like Gecko) Chrome/138.0.0.0 Safari/537.36","WebKit","Chrome","138.0.0.0","Windows","10.0","https://app.prolific.com/","en-US,en;q=0.9","67eaee55a9b4d89e82b8df37","6877649eabb845cf142cd221","6895ec3e9dc673cb746b9962","1","67eaee55a9b4d89e82b8df37","1","2025-08-08T12:34:40.140Z","","","","AttribQ","","","","","","","","","","","50","","","","","","","","","","","","","","","","","","","","","","","","","","",""
"2769","","<div style=""width:500px;"">
  <p>How much control did you have over the ball?</p>
  </div>","91","html-slider-response","45","626800","0.0-7.0-2.6","239","1","2025-08-08 12:23:51","36c45c0696341be0efffe67d72a12abb","197.185.179.85","Mozilla/5.0 (Windows NT 10.0; Win64; x64) AppleWebKit/537.36 (KHTML, like Gecko) Chrome/138.0.0.0 Safari/537.36","WebKit","Chrome","138.0.0.0","Windows","10.0","https://app.prolific.com/","en-US,en;q=0.9","67eaee55a9b4d89e82b8df37","6877649eabb845cf142cd221","6895ec3e9dc673cb746b9962","1","67eaee55a9b4d89e82b8df37","1","2025-08-08T12:34:42.916Z","","","","ControlQ","","","","","","","","","","","50","","","","","","","","","","","","","","","","","","","","","","","","","","",""
"4862","","<div style=""width:500px;"">
  <p>How would you describe your current emotional state?</p>
  </div>","1","html-slider-response","46","631669","0.0-7.0-3.6","239","1","2025-08-08 12:23:51","36c45c0696341be0efffe67d72a12abb","197.185.179.85","Mozilla/5.0 (Windows NT 10.0; Win64; x64) AppleWebKit/537.36 (KHTML, like Gecko) Chrome/138.0.0.0 Safari/537.36","WebKit","Chrome","138.0.0.0","Windows","10.0","https://app.prolific.com/","en-US,en;q=0.9","67eaee55a9b4d89e82b8df37","6877649eabb845cf142cd221","6895ec3e9dc673cb746b9962","1","67eaee55a9b4d89e82b8df37","1","2025-08-08T12:34:47.785Z","","","","StressQ","","","","","","","","","","","50","","","","","","","","","","","","","","","","","","","","","","","","","","",""
"4443","","<div style=""width:500px;"">
  <p>What best describes how you currently feel?</p>
  </div>","98","html-slider-response","47","636116","0.0-7.0-4.6","239","1","2025-08-08 12:23:51","36c45c0696341be0efffe67d72a12abb","197.185.179.85","Mozilla/5.0 (Windows NT 10.0; Win64; x64) AppleWebKit/537.36 (KHTML, like Gecko) Chrome/138.0.0.0 Safari/537.36","WebKit","Chrome","138.0.0.0","Windows","10.0","https://app.prolific.com/","en-US,en;q=0.9","67eaee55a9b4d89e82b8df37","6877649eabb845cf142cd221","6895ec3e9dc673cb746b9962","1","67eaee55a9b4d89e82b8df37","1","2025-08-08T12:34:52.232Z","","","","MotivationQ","","","","","","","","","","","50","","","","","","","","","","","","","","","","","","","","","","","","","","",""
"","","","","ctl-task-cpt","48","710245","0.0-7.0-0.7","239","1","2025-08-08 12:23:51","36c45c0696341be0efffe67d72a12abb","197.185.179.85","Mozilla/5.0 (Windows NT 10.0; Win64; x64) AppleWebKit/537.36 (KHTML, like Gecko) Chrome/138.0.0.0 Safari/537.36","WebKit","Chrome","138.0.0.0","Windows","10.0","https://app.prolific.com/","en-US,en;q=0.9","67eaee55a9b4d89e82b8df37","6877649eabb845cf142cd221","6895ec3e9dc673cb746b9962","1","67eaee55a9b4d89e82b8df37","1","2025-08-08T12:36:06.360Z","","","","","","","","","","","","","","","","win-only","2","g1:SE,g2:NW","0.3","8","0","653750.6","1836.2","6839.6","71086.9","1","4","8","6","2","8","8","45","37","0.3409090909090909","2331.5","3000","15","[""left"",""up""]","{""num_key_presses"":12,""num_perfect"":4,""num_errors"":0,""num_randdir"":8,""num_randdir_good_moves"":5,""num_whilered"":0,""num_whileblue"":0,""num_blue"":6,""num_good_moves"":9}","[300.22232142857143,298.12857142857143,12.1,300.22232142857143,298.12857142857143,100.9,300.22232142857143,298.12857142857143,201,300.22232142857143,298.12857142857143,313.6,300.22232142857143,298.12857142857143,427.3,300.22232142857143,298.12857142857143,538.1,300.22232142857143,298.12857142857143,651.4,300.22232142857143,298.12857142857143,761.8,300.22232142857143,298.12857142857143,868.7,300.22232142857143,298.12857142857143,977.5,300.22232142857143,298.12857142857143,1079.2,300.22232142857143,298.12857142857143,1200,300.22232142857143,298.12857142857143,1309.9,300.22232142857143,298.12857142857143,1415,224.22232142857143,220.12857142857143,1527.6,51.222321428571426,13.128571428571426,1630.6,51.222321428571426,13.128571428571426,1731.3,51.222321428571426,13.128571428571426,1845.5,51.222321428571426,31.128571428571426,1945.5,52.222321428571426,48.128571428571426,2046.2,52.222321428571426,48.128571428571426,2167.1,52.222321428571426,48.128571428571426,2274.8,52.222321428571426,48.128571428571426,2395.1,52.222321428571426,48.128571428571426,2523.5,52.222321428571426,48.128571428571426,2631.1,52.222321428571426,48.128571428571426,2748.4,52.222321428571426,48.128571428571426,2856.2,52.222321428571426,48.128571428571426,2964.4,52.222321428571426,48.128571428571426,3066.3,52.222321428571426,48.128571428571426,3183.3,59.222321428571426,78.12857142857143,3294.1,90.22232142857143,127.12857142857143,3396.7,90.22232142857143,127.12857142857143,3524,90.22232142857143,127.12857142857143,3639.3,90.22232142857143,127.12857142857143,3752,90.22232142857143,127.12857142857143,3864.1,90.22232142857143,127.12857142857143,3974.3,90.22232142857143,127.12857142857143,4095.2,90.22232142857143,127.12857142857143,4201.1,90.22232142857143,127.12857142857143,4322.6,90.22232142857143,127.12857142857143,4447.2,90.22232142857143,127.12857142857143,4562.7,90.22232142857143,127.12857142857143,4665.5,90.22232142857143,127.12857142857143,4775.2,90.22232142857143,127.12857142857143,4902.2]","[2048.1,2048.2,1000,0,1048.2,""oops"",""up"",""up"",""good_move"",5708.3,3657.5,2235.7,2050.8,1421.8,""oops"",""up"",""left"",""good_move"",23437,17727.9,2200,20399.7,837.3,""oops"",""up"",""right"",""bad_move"",26316.9,2876.6,2318.5,23440.3,558.1,""smooth"",""up"",""up"",""good_move"",30090.8,3773.2,2681.6,26317.6,1091.6,""smooth"",""up"",""up"",""good_move"",33871.1,3773.1,2757.2,30098,1015.9,""oops"",""left"",""left"",""good_move"",38003.3,4127.3,2251.6,33876,1875.7,""smooth"",""left"",""left"",""good_move"",42076.8,4067.8,2148.8,38009,1919,""oops"",""left"",""right"",""bad_move"",49507.3,7428.2,2042.1,46192.9,1272.3,""oops"",""left"",""right"",""bad_move"",56933.6,7423.3,3028.2,52859.7,1045.7,""oops"",""left"",""left"",""good_move"",60421.8,3483.2,2435.9,56938.7,1047.3,""oops"",""left"",""left"",""good_move"",63906,3482.2,2917,60424.1,564.9,""smooth"",""left"",""left"",""good_move""]"
"4128","","<div style=""width:500px;"">
  <p>What determined the result of this run?</p>
  </div>","99","html-slider-response","49","714376","0.0-7.0-1.7","239","1","2025-08-08 12:23:51","36c45c0696341be0efffe67d72a12abb","197.185.179.85","Mozilla/5.0 (Windows NT 10.0; Win64; x64) AppleWebKit/537.36 (KHTML, like Gecko) Chrome/138.0.0.0 Safari/537.36","WebKit","Chrome","138.0.0.0","Windows","10.0","https://app.prolific.com/","en-US,en;q=0.9","67eaee55a9b4d89e82b8df37","6877649eabb845cf142cd221","6895ec3e9dc673cb746b9962","1","67eaee55a9b4d89e82b8df37","1","2025-08-08T12:36:10.492Z","","","","AttribQ","","","","","","","","","","","50","","","","","","","","","","","","","","","","","","","","","","","","","","",""
"2363","","<div style=""width:500px;"">
  <p>How much control did you have over the ball?</p>
  </div>","91","html-slider-response","50","716745","0.0-7.0-2.7","239","1","2025-08-08 12:23:51","36c45c0696341be0efffe67d72a12abb","197.185.179.85","Mozilla/5.0 (Windows NT 10.0; Win64; x64) AppleWebKit/537.36 (KHTML, like Gecko) Chrome/138.0.0.0 Safari/537.36","WebKit","Chrome","138.0.0.0","Windows","10.0","https://app.prolific.com/","en-US,en;q=0.9","67eaee55a9b4d89e82b8df37","6877649eabb845cf142cd221","6895ec3e9dc673cb746b9962","1","67eaee55a9b4d89e82b8df37","1","2025-08-08T12:36:12.861Z","","","","ControlQ","","","","","","","","","","","50","","","","","","","","","","","","","","","","","","","","","","","","","","",""
"3144","","<div style=""width:500px;"">
  <p>How would you describe your current emotional state?</p>
  </div>","2","html-slider-response","51","719894","0.0-7.0-3.7","239","1","2025-08-08 12:23:51","36c45c0696341be0efffe67d72a12abb","197.185.179.85","Mozilla/5.0 (Windows NT 10.0; Win64; x64) AppleWebKit/537.36 (KHTML, like Gecko) Chrome/138.0.0.0 Safari/537.36","WebKit","Chrome","138.0.0.0","Windows","10.0","https://app.prolific.com/","en-US,en;q=0.9","67eaee55a9b4d89e82b8df37","6877649eabb845cf142cd221","6895ec3e9dc673cb746b9962","1","67eaee55a9b4d89e82b8df37","1","2025-08-08T12:36:16.010Z","","","","StressQ","","","","","","","","","","","50","","","","","","","","","","","","","","","","","","","","","","","","","","",""
"4072","","<div style=""width:500px;"">
  <p>What best describes how you currently feel?</p>
  </div>","99","html-slider-response","52","723974","0.0-7.0-4.7","239","1","2025-08-08 12:23:51","36c45c0696341be0efffe67d72a12abb","197.185.179.85","Mozilla/5.0 (Windows NT 10.0; Win64; x64) AppleWebKit/537.36 (KHTML, like Gecko) Chrome/138.0.0.0 Safari/537.36","WebKit","Chrome","138.0.0.0","Windows","10.0","https://app.prolific.com/","en-US,en;q=0.9","67eaee55a9b4d89e82b8df37","6877649eabb845cf142cd221","6895ec3e9dc673cb746b9962","1","67eaee55a9b4d89e82b8df37","1","2025-08-08T12:36:20.090Z","","","","MotivationQ","","","","","","","","","","","50","","","","","","","","","","","","","","","","","","","","","","","","","","",""
"","","","","ctl-task-cpt","53","781149","0.0-7.0-0.8","239","1","2025-08-08 12:23:51","36c45c0696341be0efffe67d72a12abb","197.185.179.85","Mozilla/5.0 (Windows NT 10.0; Win64; x64) AppleWebKit/537.36 (KHTML, like Gecko) Chrome/138.0.0.0 Safari/537.36","WebKit","Chrome","138.0.0.0","Windows","10.0","https://app.prolific.com/","en-US,en;q=0.9","67eaee55a9b4d89e82b8df37","6877649eabb845cf142cd221","6895ec3e9dc673cb746b9962","1","67eaee55a9b4d89e82b8df37","1","2025-08-08T12:37:17.264Z","","","","","","","","","","","","","","","","win-only","2","g1:SE,g2:NW","0.4","9","0","741608.6","1577.2","6596","54140.5","1","4","8","6","2","-8","-8","37","45","0.2803030303030303","1704.4","3000","-810","[""left"",""up""]","{""num_key_presses"":9,""num_perfect"":4,""num_errors"":0,""num_randdir"":5,""num_randdir_good_moves"":1,""num_whilered"":0,""num_whileblue"":0,""num_blue"":3,""num_good_moves"":5}","[292.22232142857143,298.12857142857143,7.4,292.22232142857143,298.12857142857143,119.5,292.22232142857143,298.12857142857143,240.5,292.22232142857143,298.12857142857143,357.2,292.22232142857143,298.12857142857143,464.7,292.22232142857143,298.12857142857143,587.4,292.22232142857143,298.12857142857143,698.3,292.22232142857143,298.12857142857143,802.9,160.22232142857143,218.12857142857143,908.2,70.22232142857143,101.12857142857143,1030.6,70.22232142857143,101.12857142857143,1136.1,70.22232142857143,101.12857142857143,1251.5,56.222321428571426,88.12857142857143,1354.1,53.222321428571426,80.12857142857143,1456.8,53.222321428571426,80.12857142857143,1571.4,53.222321428571426,80.12857142857143,1686.2,53.222321428571426,80.12857142857143,1794.5,53.222321428571426,80.12857142857143,1916.2,53.222321428571426,80.12857142857143,2018.6,53.222321428571426,80.12857142857143,2134.4,53.222321428571426,80.12857142857143,2244,53.222321428571426,80.12857142857143,2350,53.222321428571426,80.12857142857143,2453.1,53.222321428571426,80.12857142857143,2567.6,53.222321428571426,80.12857142857143,2675.8,53.222321428571426,80.12857142857143,2788.8,53.222321428571426,80.12857142857143,2902.7,53.222321428571426,80.12857142857143,3018.7,53.222321428571426,80.12857142857143,3128.2,53.222321428571426,80.12857142857143,3241.5,53.222321428571426,80.12857142857143,3351.3,53.222321428571426,80.12857142857143,3463.2,53.222321428571426,80.12857142857143,3591.2,53.222321428571426,80.12857142857143,3708.9,53.222321428571426,80.12857142857143,3820.5,53.222321428571426,80.12857142857143,3935.2,53.222321428571426,80.12857142857143,4053,53.222321428571426,80.12857142857143,4156.1,53.222321428571426,80.12857142857143,4257.6,53.222321428571426,80.12857142857143,4366.4,53.222321428571426,80.12857142857143,4470.2,53.222321428571426,80.12857142857143,4588.8,53.222321428571426,80.12857142857143,4698.7,53.222321428571426,80.12857142857143,4808.3,53.222321428571426,80.12857142857143,4910.8]","[1504.1,1504.2,1000,0,504.2,""smooth"",""up"",""up"",""good_move"",8340.5,6834.6,1966.2,5673.1,701.2,""smooth"",""up"",""up"",""good_move"",12245.7,3903,1939.2,8342.8,1963.8,""smooth"",""up"",""up"",""good_move"",16340.3,4088.9,2197.7,12251.4,1891.2,""oops"",""left"",""right"",""bad_move"",20595.6,4250.6,1976.9,16345,2273.7,""smooth"",""left"",""left"",""good_move"",25009.2,4405.1,2544.5,20604.1,1860.6,""oops"",""left"",""down"",""bad_move"",28282.4,3267.7,2215.4,25014.8,1052.2,""oops"",""left"",""left"",""good_move"",32228.6,3943.2,2028.2,28285.4,1915,""oops"",""left"",""right"",""bad_move"",43247.6,11015,2674.9,39206.3,1366.4,""oops"",""left"",""right"",""bad_move""]"
"6247","","<div style=""width:500px;"">
  <p>What determined the result of this run?</p>
  </div>","94","html-slider-response","54","787398","0.0-7.0-1.8","239","1","2025-08-08 12:23:51","36c45c0696341be0efffe67d72a12abb","197.185.179.85","Mozilla/5.0 (Windows NT 10.0; Win64; x64) AppleWebKit/537.36 (KHTML, like Gecko) Chrome/138.0.0.0 Safari/537.36","WebKit","Chrome","138.0.0.0","Windows","10.0","https://app.prolific.com/","en-US,en;q=0.9","67eaee55a9b4d89e82b8df37","6877649eabb845cf142cd221","6895ec3e9dc673cb746b9962","1","67eaee55a9b4d89e82b8df37","1","2025-08-08T12:37:23.514Z","","","","AttribQ","","","","","","","","","","","50","","","","","","","","","","","","","","","","","","","","","","","","","","",""
"4528","","<div style=""width:500px;"">
  <p>How much control did you have over the ball?</p>
  </div>","98","html-slider-response","55","791930","0.0-7.0-2.8","239","1","2025-08-08 12:23:51","36c45c0696341be0efffe67d72a12abb","197.185.179.85","Mozilla/5.0 (Windows NT 10.0; Win64; x64) AppleWebKit/537.36 (KHTML, like Gecko) Chrome/138.0.0.0 Safari/537.36","WebKit","Chrome","138.0.0.0","Windows","10.0","https://app.prolific.com/","en-US,en;q=0.9","67eaee55a9b4d89e82b8df37","6877649eabb845cf142cd221","6895ec3e9dc673cb746b9962","1","67eaee55a9b4d89e82b8df37","1","2025-08-08T12:37:28.045Z","","","","ControlQ","","","","","","","","","","","50","","","","","","","","","","","","","","","","","","","","","","","","","","",""
"3763","","<div style=""width:500px;"">
  <p>How would you describe your current emotional state?</p>
  </div>","1","html-slider-response","56","795699","0.0-7.0-3.8","239","1","2025-08-08 12:23:51","36c45c0696341be0efffe67d72a12abb","197.185.179.85","Mozilla/5.0 (Windows NT 10.0; Win64; x64) AppleWebKit/537.36 (KHTML, like Gecko) Chrome/138.0.0.0 Safari/537.36","WebKit","Chrome","138.0.0.0","Windows","10.0","https://app.prolific.com/","en-US,en;q=0.9","67eaee55a9b4d89e82b8df37","6877649eabb845cf142cd221","6895ec3e9dc673cb746b9962","1","67eaee55a9b4d89e82b8df37","1","2025-08-08T12:37:31.815Z","","","","StressQ","","","","","","","","","","","50","","","","","","","","","","","","","","","","","","","","","","","","","","",""
"3234","","<div style=""width:500px;"">
  <p>What best describes how you currently feel?</p>
  </div>","97","html-slider-response","57","798939","0.0-7.0-4.8","239","1","2025-08-08 12:23:51","36c45c0696341be0efffe67d72a12abb","197.185.179.85","Mozilla/5.0 (Windows NT 10.0; Win64; x64) AppleWebKit/537.36 (KHTML, like Gecko) Chrome/138.0.0.0 Safari/537.36","WebKit","Chrome","138.0.0.0","Windows","10.0","https://app.prolific.com/","en-US,en;q=0.9","67eaee55a9b4d89e82b8df37","6877649eabb845cf142cd221","6895ec3e9dc673cb746b9962","1","67eaee55a9b4d89e82b8df37","1","2025-08-08T12:37:35.057Z","","","","MotivationQ","","","","","","","","","","","50","","","","","","","","","","","","","","","","","","","","","","","","","","",""
"","","","","ctl-task-cpt","58","844605","0.0-7.0-0.9","239","1","2025-08-08 12:23:51","36c45c0696341be0efffe67d72a12abb","197.185.179.85","Mozilla/5.0 (Windows NT 10.0; Win64; x64) AppleWebKit/537.36 (KHTML, like Gecko) Chrome/138.0.0.0 Safari/537.36","WebKit","Chrome","138.0.0.0","Windows","10.0","https://app.prolific.com/","en-US,en;q=0.9","67eaee55a9b4d89e82b8df37","6877649eabb845cf142cd221","6895ec3e9dc673cb746b9962","1","67eaee55a9b4d89e82b8df37","1","2025-08-08T12:38:20.720Z","","","","","","","","","","","","","","","","win-only","0","g1:NW,g2:SE","0.5","10","0","816576.3","1817.5","6822","42622.6","1","4","4","6","1","1","1","38","37","0.2878787878787879","2895.3","3000","1115","[""left"",""up""]","{""num_key_presses"":10,""num_perfect"":5,""num_errors"":0,""num_randdir"":5,""num_randdir_good_moves"":2,""num_whilered"":0,""num_whileblue"":0,""num_blue"":0,""num_good_moves"":7}","[295.22232142857143,290.12857142857143,1.2,295.22232142857143,290.12857142857143,114.9,295.22232142857143,290.12857142857143,218.7,295.22232142857143,290.12857142857143,326.2,295.22232142857143,290.12857142857143,443.6,295.22232142857143,290.12857142857143,551.2,295.22232142857143,290.12857142857143,660.9,295.22232142857143,290.12857142857143,783.4,295.22232142857143,290.12857142857143,884.3,295.22232142857143,290.12857142857143,984.5,295.22232142857143,290.12857142857143,1107.1,295.22232142857143,290.12857142857143,1210,295.22232142857143,290.12857142857143,1315,295.22232142857143,290.12857142857143,1426.8,260.22232142857143,273.12857142857143,1531,110.22232142857143,150.12857142857143,1636.4,102.22232142857143,96.12857142857143,1758.6,102.22232142857143,96.12857142857143,1862.4,94.22232142857143,88.12857142857143,1963.9,85.22232142857143,71.12857142857143,2067.4,85.22232142857143,71.12857142857143,2180.9,85.22232142857143,71.12857142857143,2292.2,85.22232142857143,71.12857142857143,2403.7,58.222321428571426,71.12857142857143,2515.7,56.222321428571426,72.12857142857143,2620.7,56.222321428571426,72.12857142857143,2738.6,55.222321428571426,72.12857142857143,2853.9,55.222321428571426,72.12857142857143,2962.8,55.222321428571426,72.12857142857143,3070.6,55.222321428571426,72.12857142857143,3179.8,55.222321428571426,72.12857142857143,3282.4,55.222321428571426,72.12857142857143,3397.1,55.222321428571426,72.12857142857143,3498.7,55.222321428571426,72.12857142857143,3611.7,55.222321428571426,72.12857142857143,3729.3,55.222321428571426,72.12857142857143,3831.8,55.222321428571426,72.12857142857143,3945,55.222321428571426,72.12857142857143,4046.5,55.222321428571426,72.12857142857143,4159.5,55.222321428571426,72.12857142857143,4261.5,55.222321428571426,72.12857142857143,4365.2,55.222321428571426,72.12857142857143,4474.4,55.222321428571426,72.12857142857143,4597.7,55.222321428571426,72.12857142857143,4698.9,55.222321428571426,72.12857142857143,4817.9,55.222321428571426,72.12857142857143,4945.6]","[1588.6,1588.6,1000,0,588.6,""oops"",""left"",""up"",""good_move"",5372.5,3780.2,2649.2,1592.4,1130.9,""oops"",""left"",""right"",""bad_move"",8780.5,3404.9,2686.3,5375.6,718.6,""oops"",""left"",""down"",""bad_move"",11950.9,3169.8,2776,8781.1,393.9,""smooth"",""up"",""up"",""good_move"",15761.5,3810,2258.8,11951.5,1551.2,""smooth"",""up"",""up"",""good_move"",20048.4,4286.7,2953,15761.7,1333.7,""oops"",""left"",""left"",""good_move"",24365.5,4314.9,2579.8,20050.6,1735.1,""smooth"",""left"",""left"",""good_move"",28371.6,4005.3,2601.5,24366.4,1403.7,""oops"",""left"",""down"",""bad_move"",30886.9,2514.1,1854.8,28372.8,659.3,""smooth"",""left"",""left"",""good_move"",35456.4,4562.8,2107.1,30893.6,2455.8,""smooth"",""up"",""up"",""good_move""]"
"3667","","<div style=""width:500px;"">
  <p>What determined the result of this run?</p>
  </div>","98","html-slider-response","59","848274","0.0-7.0-1.9","239","1","2025-08-08 12:23:51","36c45c0696341be0efffe67d72a12abb","197.185.179.85","Mozilla/5.0 (Windows NT 10.0; Win64; x64) AppleWebKit/537.36 (KHTML, like Gecko) Chrome/138.0.0.0 Safari/537.36","WebKit","Chrome","138.0.0.0","Windows","10.0","https://app.prolific.com/","en-US,en;q=0.9","67eaee55a9b4d89e82b8df37","6877649eabb845cf142cd221","6895ec3e9dc673cb746b9962","1","67eaee55a9b4d89e82b8df37","1","2025-08-08T12:38:24.389Z","","","","AttribQ","","","","","","","","","","","50","","","","","","","","","","","","","","","","","","","","","","","","","","",""
"3098","","<div style=""width:500px;"">
  <p>How much control did you have over the ball?</p>
  </div>","96","html-slider-response","60","851380","0.0-7.0-2.9","239","1","2025-08-08 12:23:51","36c45c0696341be0efffe67d72a12abb","197.185.179.85","Mozilla/5.0 (Windows NT 10.0; Win64; x64) AppleWebKit/537.36 (KHTML, like Gecko) Chrome/138.0.0.0 Safari/537.36","WebKit","Chrome","138.0.0.0","Windows","10.0","https://app.prolific.com/","en-US,en;q=0.9","67eaee55a9b4d89e82b8df37","6877649eabb845cf142cd221","6895ec3e9dc673cb746b9962","1","67eaee55a9b4d89e82b8df37","1","2025-08-08T12:38:27.495Z","","","","ControlQ","","","","","","","","","","","50","","","","","","","","","","","","","","","","","","","","","","","","","","",""
"3215","","<div style=""width:500px;"">
  <p>How would you describe your current emotional state?</p>
  </div>","1","html-slider-response","61","854602","0.0-7.0-3.9","239","1","2025-08-08 12:23:51","36c45c0696341be0efffe67d72a12abb","197.185.179.85","Mozilla/5.0 (Windows NT 10.0; Win64; x64) AppleWebKit/537.36 (KHTML, like Gecko) Chrome/138.0.0.0 Safari/537.36","WebKit","Chrome","138.0.0.0","Windows","10.0","https://app.prolific.com/","en-US,en;q=0.9","67eaee55a9b4d89e82b8df37","6877649eabb845cf142cd221","6895ec3e9dc673cb746b9962","1","67eaee55a9b4d89e82b8df37","1","2025-08-08T12:38:30.731Z","","","","StressQ","","","","","","","","","","","50","","","","","","","","","","","","","","","","","","","","","","","","","","",""
"5907","","<div style=""width:500px;"">
  <p>What best describes how you currently feel?</p>
  </div>","97","html-slider-response","62","860527","0.0-7.0-4.9","239","1","2025-08-08 12:23:51","36c45c0696341be0efffe67d72a12abb","197.185.179.85","Mozilla/5.0 (Windows NT 10.0; Win64; x64) AppleWebKit/537.36 (KHTML, like Gecko) Chrome/138.0.0.0 Safari/537.36","WebKit","Chrome","138.0.0.0","Windows","10.0","https://app.prolific.com/","en-US,en;q=0.9","67eaee55a9b4d89e82b8df37","6877649eabb845cf142cd221","6895ec3e9dc673cb746b9962","1","67eaee55a9b4d89e82b8df37","1","2025-08-08T12:38:36.643Z","","","","MotivationQ","","","","","","","","","","","50","","","","","","","","","","","","","","","","","","","","","","","","","","",""
"","","","","ctl-task-cpt","63","943470","0.0-7.0-0.10","239","1","2025-08-08 12:23:51","36c45c0696341be0efffe67d72a12abb","197.185.179.85","Mozilla/5.0 (Windows NT 10.0; Win64; x64) AppleWebKit/537.36 (KHTML, like Gecko) Chrome/138.0.0.0 Safari/537.36","WebKit","Chrome","138.0.0.0","Windows","10.0","https://app.prolific.com/","en-US,en;q=0.9","67eaee55a9b4d89e82b8df37","6877649eabb845cf142cd221","6895ec3e9dc673cb746b9962","1","67eaee55a9b4d89e82b8df37","1","2025-08-08T12:39:59.586Z","","","","","","","","","","","","","","","","win-only","1","g1:NE,g2:SW","0.6","11","0","878160.7","1965.7","6973.4","79900.5","1","4","4","6","2","4","4","42","38","0.3181818181818182","1701.2","3000","140","[""down"",""left""]","{""num_key_presses"":12,""num_perfect"":8,""num_errors"":0,""num_randdir"":4,""num_randdir_good_moves"":1,""num_whilered"":0,""num_whileblue"":0,""num_blue"":6,""num_good_moves"":9}","[297.22232142857143,296.12857142857143,1.1,297.22232142857143,296.12857142857143,113.9,297.22232142857143,296.12857142857143,222.2,297.22232142857143,296.12857142857143,332.4,297.22232142857143,296.12857142857143,444.3,297.22232142857143,296.12857142857143,564.8,297.22232142857143,296.12857142857143,676.2,297.22232142857143,296.12857142857143,784.5,271.22232142857143,323.12857142857143,907.9,183.22232142857143,463.12857142857143,1024,102.22232142857143,539.1285714285714,1141.8,57.222321428571426,557.1285714285714,1256.5,51.222321428571426,557.1285714285714,1382,51.222321428571426,557.1285714285714,1496.1,51.222321428571426,557.1285714285714,1618.6,51.222321428571426,557.1285714285714,1723.2,51.222321428571426,557.1285714285714,1859.2,51.222321428571426,557.1285714285714,1960.3,51.222321428571426,557.1285714285714,2063.6,51.222321428571426,557.1285714285714,2165.9,51.222321428571426,557.1285714285714,2270.5,51.222321428571426,557.1285714285714,2405.4,51.222321428571426,557.1285714285714,2513.1,51.222321428571426,557.1285714285714,2643.4,51.222321428571426,557.1285714285714,2743.9,51.222321428571426,557.1285714285714,2864.7,51.222321428571426,557.1285714285714,2990.9,51.222321428571426,557.1285714285714,3108.7,51.222321428571426,557.1285714285714,3209,51.222321428571426,557.1285714285714,3319.2,51.222321428571426,557.1285714285714,3427.5,51.222321428571426,557.1285714285714,3568.5,51.222321428571426,557.1285714285714,3675.9,51.222321428571426,557.1285714285714,3793.5,51.222321428571426,557.1285714285714,3905.7,51.222321428571426,557.1285714285714,4014.4,51.222321428571426,557.1285714285714,4130.9,51.222321428571426,557.1285714285714,4243.6,51.222321428571426,557.1285714285714,4361.2,51.222321428571426,557.1285714285714,4472.8,51.222321428571426,557.1285714285714,4584.5,51.222321428571426,557.1285714285714,4694.8,51.222321428571426,557.1285714285714,4810.3,51.222321428571426,557.1285714285714,4922.4]","[1531.3,1531.4,1000,0,531.4,""smooth"",""left"",""left"",""good_move"",9637.1,8101.1,3057.5,5943.8,636,""oops"",""left"",""left"",""good_move"",17928.1,8290.3,2968,14236.9,723.2,""oops"",""left"",""right"",""bad_move"",21736.4,3807.4,2331.9,17929,1475.5,""smooth"",""down"",""down"",""good_move"",26305.9,4566.1,2172.2,21739.8,2393.9,""smooth"",""down"",""down"",""good_move"",32975.8,6667.4,2258.5,29926.7,790.6,""oops"",""down"",""up"",""bad_move"",42933.4,9952.9,2893.8,37711.5,2328.2,""smooth"",""down"",""down"",""good_move"",47167.9,4230.2,2874.9,42937.8,1355.2,""smooth"",""down"",""down"",""good_move"",53962.6,6790.4,2439.9,50631.5,891.2,""smooth"",""left"",""left"",""good_move"",59735.3,5766,2786.7,53969.4,2979.2,""oops"",""left"",""up"",""bad_move"",64197.5,4458.5,2339.8,59739,2118.7,""smooth"",""left"",""left"",""good_move"",72477.7,8273.2,2311.5,69660.9,505.3,""smooth"",""down"",""down"",""good_move""]"
"7003","","<div style=""width:500px;"">
  <p>What determined the result of this run?</p>
  </div>","98","html-slider-response","64","950478","0.0-7.0-1.10","239","1","2025-08-08 12:23:51","36c45c0696341be0efffe67d72a12abb","197.185.179.85","Mozilla/5.0 (Windows NT 10.0; Win64; x64) AppleWebKit/537.36 (KHTML, like Gecko) Chrome/138.0.0.0 Safari/537.36","WebKit","Chrome","138.0.0.0","Windows","10.0","https://app.prolific.com/","en-US,en;q=0.9","67eaee55a9b4d89e82b8df37","6877649eabb845cf142cd221","6895ec3e9dc673cb746b9962","1","67eaee55a9b4d89e82b8df37","1","2025-08-08T12:40:06.594Z","","","","AttribQ","","","","","","","","","","","50","","","","","","","","","","","","","","","","","","","","","","","","","","",""
"2909","","<div style=""width:500px;"">
  <p>How much control did you have over the ball?</p>
  </div>","99","html-slider-response","65","953396","0.0-7.0-2.10","239","1","2025-08-08 12:23:51","36c45c0696341be0efffe67d72a12abb","197.185.179.85","Mozilla/5.0 (Windows NT 10.0; Win64; x64) AppleWebKit/537.36 (KHTML, like Gecko) Chrome/138.0.0.0 Safari/537.36","WebKit","Chrome","138.0.0.0","Windows","10.0","https://app.prolific.com/","en-US,en;q=0.9","67eaee55a9b4d89e82b8df37","6877649eabb845cf142cd221","6895ec3e9dc673cb746b9962","1","67eaee55a9b4d89e82b8df37","1","2025-08-08T12:40:09.512Z","","","","ControlQ","","","","","","","","","","","50","","","","","","","","","","","","","","","","","","","","","","","","","","",""
"5267","","<div style=""width:500px;"">
  <p>How would you describe your current emotional state?</p>
  </div>","1","html-slider-response","66","958668","0.0-7.0-3.10","239","1","2025-08-08 12:23:51","36c45c0696341be0efffe67d72a12abb","197.185.179.85","Mozilla/5.0 (Windows NT 10.0; Win64; x64) AppleWebKit/537.36 (KHTML, like Gecko) Chrome/138.0.0.0 Safari/537.36","WebKit","Chrome","138.0.0.0","Windows","10.0","https://app.prolific.com/","en-US,en;q=0.9","67eaee55a9b4d89e82b8df37","6877649eabb845cf142cd221","6895ec3e9dc673cb746b9962","1","67eaee55a9b4d89e82b8df37","1","2025-08-08T12:40:14.784Z","","","","StressQ","","","","","","","","","","","50","","","","","","","","","","","","","","","","","","","","","","","","","","",""
"4677","","<div style=""width:500px;"">
  <p>What best describes how you currently feel?</p>
  </div>","97","html-slider-response","67","963354","0.0-7.0-4.10","239","1","2025-08-08 12:23:51","36c45c0696341be0efffe67d72a12abb","197.185.179.85","Mozilla/5.0 (Windows NT 10.0; Win64; x64) AppleWebKit/537.36 (KHTML, like Gecko) Chrome/138.0.0.0 Safari/537.36","WebKit","Chrome","138.0.0.0","Windows","10.0","https://app.prolific.com/","en-US,en;q=0.9","67eaee55a9b4d89e82b8df37","6877649eabb845cf142cd221","6895ec3e9dc673cb746b9962","1","67eaee55a9b4d89e82b8df37","1","2025-08-08T12:40:19.470Z","","","","MotivationQ","","","","","","","","","","","50","","","","","","","","","","","","","","","","","","","","","","","","","","",""
"","","","","ctl-task-cpt","68","1008302","0.0-7.0-0.11","239","1","2025-08-08 12:23:51","36c45c0696341be0efffe67d72a12abb","197.185.179.85","Mozilla/5.0 (Windows NT 10.0; Win64; x64) AppleWebKit/537.36 (KHTML, like Gecko) Chrome/138.0.0.0 Safari/537.36","WebKit","Chrome","138.0.0.0","Windows","10.0","https://app.prolific.com/","en-US,en;q=0.9","67eaee55a9b4d89e82b8df37","6877649eabb845cf142cd221","6895ec3e9dc673cb746b9962","1","67eaee55a9b4d89e82b8df37","1","2025-08-08T12:41:04.418Z","","","","","","","","","","","","","","","","win-only","1","g1:NE,g2:SW","0.7","12","0","981018.9","1841.5","6854.3","41880.5","1","4","8","6","2","8","8","50","42","0.3787878787878788","1914.6","3000","1060","[""down"",""left""]","{""num_key_presses"":8,""num_perfect"":5,""num_errors"":0,""num_randdir"":3,""num_randdir_good_moves"":2,""num_whilered"":0,""num_whileblue"":0,""num_blue"":0,""num_good_moves"":7}","[290.22232142857143,297.12857142857143,18.9,290.22232142857143,297.12857142857143,106.2,290.22232142857143,297.12857142857143,234,290.22232142857143,297.12857142857143,334,290.22232142857143,297.12857142857143,446.3,290.22232142857143,297.12857142857143,555.2,290.22232142857143,297.12857142857143,668.1,290.22232142857143,297.12857142857143,778.4,290.22232142857143,297.12857142857143,900.2,290.22232142857143,297.12857142857143,1015.4,290.22232142857143,297.12857142857143,1130.8,286.22232142857143,297.12857142857143,1235,71.22232142857143,487.12857142857143,1348.1,25.222321428571426,525.1285714285714,1474.9,24.222321428571426,525.1285714285714,1582.2,24.222321428571426,525.1285714285714,1696.3,24.222321428571426,525.1285714285714,1802.8,24.222321428571426,525.1285714285714,1926.8,24.222321428571426,525.1285714285714,2036.2,24.222321428571426,525.1285714285714,2139.1,24.222321428571426,525.1285714285714,2246.3,24.222321428571426,525.1285714285714,2371.4,24.222321428571426,525.1285714285714,2481.2,24.222321428571426,525.1285714285714,2599.1,24.222321428571426,525.1285714285714,2705.3,24.222321428571426,525.1285714285714,2820.9,24.222321428571426,525.1285714285714,2945,24.222321428571426,525.1285714285714,3068,24.222321428571426,525.1285714285714,3182.3,24.222321428571426,525.1285714285714,3288,24.222321428571426,525.1285714285714,3411.2,24.222321428571426,525.1285714285714,3517.7,24.222321428571426,525.1285714285714,3642,24.222321428571426,525.1285714285714,3750.6,24.222321428571426,525.1285714285714,3868.3,24.222321428571426,525.1285714285714,3983,24.222321428571426,525.1285714285714,4095.9,24.222321428571426,525.1285714285714,4216.4,24.222321428571426,525.1285714285714,4329.1,24.222321428571426,525.1285714285714,4430.2,24.222321428571426,525.1285714285714,4537.2,24.222321428571426,525.1285714285714,4654.8,24.222321428571426,525.1285714285714,4764,24.222321428571426,525.1285714285714,4875.6,24.222321428571426,525.1285714285714,4979.4]","[1674.9,1674.9,1000,0,674.9,""smooth"",""left"",""left"",""good_move"",6472.3,4793,1938.1,1679.3,2854.9,""smooth"",""left"",""left"",""good_move"",11200.4,4724.2,2951.2,6476.2,1773,""smooth"",""left"",""left"",""good_move"",15807.2,4606.6,2486.7,11200.6,2119.9,""smooth"",""down"",""down"",""good_move"",19645,3835.1,2332.5,15810,1502.5,""oops"",""down"",""down"",""good_move"",24470.1,4821,2696.4,19649.1,2124.6,""oops"",""down"",""up"",""bad_move"",29857.7,5385.2,2977.3,24472.5,2407.9,""smooth"",""down"",""down"",""good_move"",34545.7,4686.7,3035.3,29859,1651.4,""oops"",""down"",""down"",""good_move""]"
"3985","","<div style=""width:500px;"">
  <p>What determined the result of this run?</p>
  </div>","98","html-slider-response","69","1012293","0.0-7.0-1.11","239","1","2025-08-08 12:23:51","36c45c0696341be0efffe67d72a12abb","197.185.179.85","Mozilla/5.0 (Windows NT 10.0; Win64; x64) AppleWebKit/537.36 (KHTML, like Gecko) Chrome/138.0.0.0 Safari/537.36","WebKit","Chrome","138.0.0.0","Windows","10.0","https://app.prolific.com/","en-US,en;q=0.9","67eaee55a9b4d89e82b8df37","6877649eabb845cf142cd221","6895ec3e9dc673cb746b9962","1","67eaee55a9b4d89e82b8df37","1","2025-08-08T12:41:08.408Z","","","","AttribQ","","","","","","","","","","","50","","","","","","","","","","","","","","","","","","","","","","","","","","",""
"3511","","<div style=""width:500px;"">
  <p>How much control did you have over the ball?</p>
  </div>","96","html-slider-response","70","1015811","0.0-7.0-2.11","239","1","2025-08-08 12:23:51","36c45c0696341be0efffe67d72a12abb","197.185.179.85","Mozilla/5.0 (Windows NT 10.0; Win64; x64) AppleWebKit/537.36 (KHTML, like Gecko) Chrome/138.0.0.0 Safari/537.36","WebKit","Chrome","138.0.0.0","Windows","10.0","https://app.prolific.com/","en-US,en;q=0.9","67eaee55a9b4d89e82b8df37","6877649eabb845cf142cd221","6895ec3e9dc673cb746b9962","1","67eaee55a9b4d89e82b8df37","1","2025-08-08T12:41:11.927Z","","","","ControlQ","","","","","","","","","","","50","","","","","","","","","","","","","","","","","","","","","","","","","","",""
"3027","","<div style=""width:500px;"">
  <p>How would you describe your current emotional state?</p>
  </div>","0","html-slider-response","71","1018844","0.0-7.0-3.11","239","1","2025-08-08 12:23:51","36c45c0696341be0efffe67d72a12abb","197.185.179.85","Mozilla/5.0 (Windows NT 10.0; Win64; x64) AppleWebKit/537.36 (KHTML, like Gecko) Chrome/138.0.0.0 Safari/537.36","WebKit","Chrome","138.0.0.0","Windows","10.0","https://app.prolific.com/","en-US,en;q=0.9","67eaee55a9b4d89e82b8df37","6877649eabb845cf142cd221","6895ec3e9dc673cb746b9962","1","67eaee55a9b4d89e82b8df37","1","2025-08-08T12:41:14.959Z","","","","StressQ","","","","","","","","","","","50","","","","","","","","","","","","","","","","","","","","","","","","","","",""
"3511","","<div style=""width:500px;"">
  <p>What best describes how you currently feel?</p>
  </div>","99","html-slider-response","72","1022360","0.0-7.0-4.11","239","1","2025-08-08 12:23:51","36c45c0696341be0efffe67d72a12abb","197.185.179.85","Mozilla/5.0 (Windows NT 10.0; Win64; x64) AppleWebKit/537.36 (KHTML, like Gecko) Chrome/138.0.0.0 Safari/537.36","WebKit","Chrome","138.0.0.0","Windows","10.0","https://app.prolific.com/","en-US,en;q=0.9","67eaee55a9b4d89e82b8df37","6877649eabb845cf142cd221","6895ec3e9dc673cb746b9962","1","67eaee55a9b4d89e82b8df37","1","2025-08-08T12:41:18.476Z","","","","MotivationQ","","","","","","","","","","","50","","","","","","","","","","","","","","","","","","","","","","","","","","",""
"","","","","ctl-task-cpt","73","1070997","0.0-7.0-0.12","239","1","2025-08-08 12:23:51","36c45c0696341be0efffe67d72a12abb","197.185.179.85","Mozilla/5.0 (Windows NT 10.0; Win64; x64) AppleWebKit/537.36 (KHTML, like Gecko) Chrome/138.0.0.0 Safari/537.36","WebKit","Chrome","138.0.0.0","Windows","10.0","https://app.prolific.com/","en-US,en;q=0.9","67eaee55a9b4d89e82b8df37","6877649eabb845cf142cd221","6895ec3e9dc673cb746b9962","1","67eaee55a9b4d89e82b8df37","1","2025-08-08T12:42:07.112Z","","","","","","","","","","","","","","","","win-only","0","g1:NW,g2:SE","0.8","13","0","1039994.7","2243.8","7284.4","45585.8","1","4","8","6","2","8","8","58","50","0.4393939393939394","2099.7","3000","1960","[""down"",""right""]","{""num_key_presses"":6,""num_perfect"":5,""num_errors"":0,""num_randdir"":1,""num_randdir_good_moves"":1,""num_whilered"":0,""num_whileblue"":0,""num_blue"":5,""num_good_moves"":6}","[296.22232142857143,295.12857142857143,4.2,296.22232142857143,295.12857142857143,113.7,296.22232142857143,295.12857142857143,230.8,296.22232142857143,295.12857142857143,351.7,296.22232142857143,295.12857142857143,455.9,296.22232142857143,295.12857142857143,574.3,296.22232142857143,295.12857142857143,697.2,296.22232142857143,295.12857142857143,799.1,296.22232142857143,295.12857142857143,918.7,296.22232142857143,295.12857142857143,1035.1,490.22232142857143,555.1285714285714,1140.4,533.2223214285714,627.1285714285714,1263.2,531.2223214285714,620.1285714285714,1367.3,530.2223214285714,612.1285714285714,1499.4,530.2223214285714,588.1285714285714,1618.1,530.2223214285714,578.1285714285714,1726,530.2223214285714,576.1285714285714,1834,530.2223214285714,576.1285714285714,1956.3,530.2223214285714,576.1285714285714,2084.3,530.2223214285714,576.1285714285714,2205.8,530.2223214285714,576.1285714285714,2318.6,530.2223214285714,576.1285714285714,2419.8,530.2223214285714,576.1285714285714,2520.5,530.2223214285714,576.1285714285714,2620.5,530.2223214285714,576.1285714285714,2740,530.2223214285714,576.1285714285714,2866.7,499.22232142857143,633.1285714285714,2992.9,488.22232142857143,659.1285714285714,3097.8,488.22232142857143,659.1285714285714,3198.8,488.22232142857143,659.1285714285714,3310.3,488.22232142857143,659.1285714285714,3462.6,488.22232142857143,659.1285714285714,3567.5,488.22232142857143,659.1285714285714,3670.4,488.22232142857143,659.1285714285714,3790.2,488.22232142857143,659.1285714285714,3897.5,488.22232142857143,659.1285714285714,4014.1,488.22232142857143,659.1285714285714,4139.4,488.22232142857143,659.1285714285714,4262.9,488.22232142857143,659.1285714285714,4376.6,488.22232142857143,659.1285714285714,4482.4,488.22232142857143,659.1285714285714,4593.3,488.22232142857143,659.1285714285714,4704,488.22232142857143,659.1285714285714,4823.6,488.22232142857143,659.1285714285714,4935.9]","[12243.1,12243.1,2727.1,9039.1,476.9,""smooth"",""down"",""down"",""good_move"",15380.5,3132.6,2421.3,12248,711.3,""smooth"",""down"",""down"",""good_move"",21822.3,6438.2,1848.2,19267.9,706.2,""smooth"",""right"",""right"",""good_move"",26302,4477.7,2782.4,21824.3,1695.7,""smooth"",""right"",""right"",""good_move"",33485.3,7178.4,2340.9,30264.7,879.8,""oops"",""right"",""right"",""good_move"",37824.4,4334.8,2812.3,33489.7,1522.5,""smooth"",""down"",""down"",""good_move""]"
"11764","","<div style=""width:500px;"">
  <p>What determined the result of this run?</p>
  </div>","99","html-slider-response","74","1082766","0.0-7.0-1.12","239","1","2025-08-08 12:23:51","36c45c0696341be0efffe67d72a12abb","197.185.179.85","Mozilla/5.0 (Windows NT 10.0; Win64; x64) AppleWebKit/537.36 (KHTML, like Gecko) Chrome/138.0.0.0 Safari/537.36","WebKit","Chrome","138.0.0.0","Windows","10.0","https://app.prolific.com/","en-US,en;q=0.9","67eaee55a9b4d89e82b8df37","6877649eabb845cf142cd221","6895ec3e9dc673cb746b9962","1","67eaee55a9b4d89e82b8df37","1","2025-08-08T12:42:18.881Z","","","","AttribQ","","","","","","","","","","","50","","","","","","","","","","","","","","","","","","","","","","","","","","",""
"2905","","<div style=""width:500px;"">
  <p>How much control did you have over the ball?</p>
  </div>","92","html-slider-response","75","1085687","0.0-7.0-2.12","239","1","2025-08-08 12:23:51","36c45c0696341be0efffe67d72a12abb","197.185.179.85","Mozilla/5.0 (Windows NT 10.0; Win64; x64) AppleWebKit/537.36 (KHTML, like Gecko) Chrome/138.0.0.0 Safari/537.36","WebKit","Chrome","138.0.0.0","Windows","10.0","https://app.prolific.com/","en-US,en;q=0.9","67eaee55a9b4d89e82b8df37","6877649eabb845cf142cd221","6895ec3e9dc673cb746b9962","1","67eaee55a9b4d89e82b8df37","1","2025-08-08T12:42:21.802Z","","","","ControlQ","","","","","","","","","","","50","","","","","","","","","","","","","","","","","","","","","","","","","","",""
"3410","","<div style=""width:500px;"">
  <p>How would you describe your current emotional state?</p>
  </div>","2","html-slider-response","76","1089104","0.0-7.0-3.12","239","1","2025-08-08 12:23:51","36c45c0696341be0efffe67d72a12abb","197.185.179.85","Mozilla/5.0 (Windows NT 10.0; Win64; x64) AppleWebKit/537.36 (KHTML, like Gecko) Chrome/138.0.0.0 Safari/537.36","WebKit","Chrome","138.0.0.0","Windows","10.0","https://app.prolific.com/","en-US,en;q=0.9","67eaee55a9b4d89e82b8df37","6877649eabb845cf142cd221","6895ec3e9dc673cb746b9962","1","67eaee55a9b4d89e82b8df37","1","2025-08-08T12:42:25.220Z","","","","StressQ","","","","","","","","","","","50","","","","","","","","","","","","","","","","","","","","","","","","","","",""
"3645","","<div style=""width:500px;"">
  <p>What best describes how you currently feel?</p>
  </div>","97","html-slider-response","77","1092799","0.0-7.0-4.12","239","1","2025-08-08 12:23:51","36c45c0696341be0efffe67d72a12abb","197.185.179.85","Mozilla/5.0 (Windows NT 10.0; Win64; x64) AppleWebKit/537.36 (KHTML, like Gecko) Chrome/138.0.0.0 Safari/537.36","WebKit","Chrome","138.0.0.0","Windows","10.0","https://app.prolific.com/","en-US,en;q=0.9","67eaee55a9b4d89e82b8df37","6877649eabb845cf142cd221","6895ec3e9dc673cb746b9962","1","67eaee55a9b4d89e82b8df37","1","2025-08-08T12:42:28.914Z","","","","MotivationQ","","","","","","","","","","","50","","","","","","","","","","","","","","","","","","","","","","","","","","",""
