"rt","response_timestamp","stimulus","response","trial_type","trial_index","time_elapsed","internal_node_id","run_id","condition","recorded_at","source_code_version","ip","user_agent","device","browser","browser_version","platform","platform_version","referer","accept_language","PROLIFIC_PID","STUDY_ID","SESSION_ID","BATCH","prolific_id","batch","realtime","success","question_order","question_id","eventType","responses","item_order","radio_event_ids","radio_event_times","key_event_times","mouse_event_times","straightlining","zigzagging","honeypot","view_history","slider_start","which_type","canvas_config","goals_layout","control_level","trial_number","tutorial_trial_number","trial_start_time","phase1_start_time","phase2_start_time","phase3_start_time","goal_1_value","goal_1_distance","goal_2_value","goal_2_distance","goal_selected","outcome","outcome_total","participant_final_score","participant_initial_score","participant_final_score_prop","goal_choice_rt","allocated_time","allocated_time_remaining","goal_direction","counts","mouse_movements","key_presses"
"7212","1753864897564","<p style='font-size:40px;line-height:1.25'><strong>Welcome to the experiment!</strong></p><p style='font-size:1.1em;line-height:1.25'>Thank you for participanting in our experiment again! You will be asked to play the Dysfunctional Ball Game again. We will briefly recap the rules before we start.</p><p style='font-size:1.1em;line-height:1.25'>Press <strong>Next</strong> to continue.</p>","0","custom-html-button-response","0","7214","0.0-0.0","35","1","2025-07-30 08:41:28","36c45c0696341be0efffe67d72a12abb","41.150.224.146","Mozilla/5.0 (Windows NT 10.0; Win64; x64) AppleWebKit/537.36 (KHTML, like Gecko) Chrome/138.0.0.0 Safari/537.36","WebKit","Chrome","138.0.0.0","Windows","10.0","https://app.prolific.com/","en-US,en;q=0.9","67f133dcba790167d0027963","687a360dabe5252b5ada7185","6889da753b9ff6182f3a59ed","0","67f133dcba790167d0027963","0","2025-07-30T08:41:37.566Z","","","","","","","","","","","","","","","","","","","","","","","","","","","","","","","","","","","","","","","","","",""
"14128","","","","fullscreen","1","22347","0.0-1.0","35","1","2025-07-30 08:41:28","36c45c0696341be0efffe67d72a12abb","41.150.224.146","Mozilla/5.0 (Windows NT 10.0; Win64; x64) AppleWebKit/537.36 (KHTML, like Gecko) Chrome/138.0.0.0 Safari/537.36","WebKit","Chrome","138.0.0.0","Windows","10.0","https://app.prolific.com/","en-US,en;q=0.9","67f133dcba790167d0027963","687a360dabe5252b5ada7185","6889da753b9ff6182f3a59ed","0","67f133dcba790167d0027963","0","","true","","","","","","","","","","","","","","","","","","","","","","","","","","","","","","","","","","","","","","","","",""
"12524","1753864925226"," <p style='font-size:1.1em;line-height:1.25'>Thank you for closing all other tabs.</p><p style='font-size:1.1em;line-height:1.25'>We will now invite you to fill in some questionnaires, before starting the game.<br>This will take about 5 minutes.<br></p><p style='font-size:1.1em;line-height:1.25'>Press the <strong>Next</strong> button to continue.</p>","0","custom-html-button-response","2","34876","0.0-2.0","35","1","2025-07-30 08:41:28","36c45c0696341be0efffe67d72a12abb","41.150.224.146","Mozilla/5.0 (Windows NT 10.0; Win64; x64) AppleWebKit/537.36 (KHTML, like Gecko) Chrome/138.0.0.0 Safari/537.36","WebKit","Chrome","138.0.0.0","Windows","10.0","https://app.prolific.com/","en-US,en;q=0.9","67f133dcba790167d0027963","687a360dabe5252b5ada7185","6889da753b9ff6182f3a59ed","0","67f133dcba790167d0027963","0","2025-07-30T08:42:05.227Z","","","","","","","","","","","","","","","","","","","","","","","","","","","","","","","","","","","","","","","","","",""
"7858","","","{""assigned_sex"":""female""}","survey-multi-choice","3","42736","0.0-3.0-0.0","35","1","2025-07-30 08:41:28","36c45c0696341be0efffe67d72a12abb","41.150.224.146","Mozilla/5.0 (Windows NT 10.0; Win64; x64) AppleWebKit/537.36 (KHTML, like Gecko) Chrome/138.0.0.0 Safari/537.36","WebKit","Chrome","138.0.0.0","Windows","10.0","https://app.prolific.com/","en-US,en;q=0.9","67f133dcba790167d0027963","687a360dabe5252b5ada7185","6889da753b9ff6182f3a59ed","0","67f133dcba790167d0027963","0","","","[0]","0","demographics","","","","","","","","","","","","","","","","","","","","","","","","","","","","","","","","","","","","","",""
"9644","1753864942731","<p style='font-size:1.1em;line-height:1.25'>In the following, we will perform a baseline assessment. This means that we will ask you a few questions relating to your experiences over the past month.<br></p><p style='font-size:1.1em;line-height:1.25'>Press the <strong>Next</strong> button to continue.</p>","0","custom-html-button-response","4","52381","0.0-4.0-0.0","35","1","2025-07-30 08:41:28","36c45c0696341be0efffe67d72a12abb","41.150.224.146","Mozilla/5.0 (Windows NT 10.0; Win64; x64) AppleWebKit/537.36 (KHTML, like Gecko) Chrome/138.0.0.0 Safari/537.36","WebKit","Chrome","138.0.0.0","Windows","10.0","https://app.prolific.com/","en-US,en;q=0.9","67f133dcba790167d0027963","687a360dabe5252b5ada7185","6889da753b9ff6182f3a59ed","0","67f133dcba790167d0027963","0","2025-07-30T08:42:22.732Z","","","","","","","","","","","","","","","","","","","","","","","","","","","","","","","","","","","","","","","","","",""
"98277.39999999851","","","","survey-template","5","150663","0.0-4.0-1.0","35","1","2025-07-30 08:41:28","36c45c0696341be0efffe67d72a12abb","41.150.224.146","Mozilla/5.0 (Windows NT 10.0; Win64; x64) AppleWebKit/537.36 (KHTML, like Gecko) Chrome/138.0.0.0 Safari/537.36","WebKit","Chrome","138.0.0.0","Windows","10.0","https://app.prolific.com/","en-US,en;q=0.9","67f133dcba790167d0027963","687a360dabe5252b5ada7185","6889da753b9ff6182f3a59ed","0","67f133dcba790167d0027963","0","2025-07-30T08:44:01.014Z","","","","pss","{""Q01"":""2"",""Q02"":""2"",""Q03"":""2"",""Q04"":""1"",""Q05"":""1"",""Q06"":""3"",""Q07"":""2"",""Q08"":""2"",""Q09"":""2"",""Q10"":""1""}","[0,1,2,3,4,5,6,7,8,9]","[""Q01"",""Q02"",""Q03"",""Q04"",""Q05"",""Q05"",""Q06"",""Q07"",""Q08"",""Q09"",""Q10""]","[15492.599999997765,20723.89999999851,25771.699999999255,33154.599999997765,42396.599999997765,44275.599999997765,54693.599999997765,65386.099999997765,76108.69999999925,84683.09999999776,95553.39999999851]","[]","[0.19999999925494194,15492.599999997765,20723.89999999851,24634.599999997765,25771.699999999255,33154.599999997765,42396.599999997765,44275.599999997765,54693.599999997765,65386.099999997765,76108.69999999925,84683.09999999776,95553.39999999851,98274.89999999851]","0.6","0.3333333333333333","0","","","","","","","","","","","","","","","","","","","","","","","","","","","","",""
"6442","1753865047457","<p style='font-size:1.1em;line-height:1.25'>Thank you for your answers! Now we will ask you a few more questions relating to your feelings in the last 24 hours.<br></p><p style='font-size:1.1em;line-height:1.25'>Press the <strong>Next</strong> button to continue.</p>","0","custom-html-button-response","6","157107","0.0-4.0-2.0","35","1","2025-07-30 08:41:28","36c45c0696341be0efffe67d72a12abb","41.150.224.146","Mozilla/5.0 (Windows NT 10.0; Win64; x64) AppleWebKit/537.36 (KHTML, like Gecko) Chrome/138.0.0.0 Safari/537.36","WebKit","Chrome","138.0.0.0","Windows","10.0","https://app.prolific.com/","en-US,en;q=0.9","67f133dcba790167d0027963","687a360dabe5252b5ada7185","6889da753b9ff6182f3a59ed","0","67f133dcba790167d0027963","0","2025-07-30T08:44:07.458Z","","","","","","","","","","","","","","","","","","","","","","","","","","","","","","","","","","","","","","","","","",""
"140998.6000000015","","","","survey-template","7","298110","0.0-4.0-3.0","35","1","2025-07-30 08:41:28","36c45c0696341be0efffe67d72a12abb","41.150.224.146","Mozilla/5.0 (Windows NT 10.0; Win64; x64) AppleWebKit/537.36 (KHTML, like Gecko) Chrome/138.0.0.0 Safari/537.36","WebKit","Chrome","138.0.0.0","Windows","10.0","https://app.prolific.com/","en-US,en;q=0.9","67f133dcba790167d0027963","687a360dabe5252b5ada7185","6889da753b9ff6182f3a59ed","0","67f133dcba790167d0027963","0","2025-07-30T08:46:28.461Z","","","","drsp","{""Q01"":""0"",""Q02"":""0"",""Q03"":""0"",""Q04"":""0"",""Q05"":""0"",""Q06"":""0"",""Q07"":""0"",""Q08"":""0"",""Q09"":""3"",""Q10"":""3"",""Q11"":""3"",""Q12"":""3"",""Q13"":""5"",""Q14"":""3"",""Q15"":""0"",""Q16"":""3"",""Q17"":""2"",""Q18"":""3"",""Q19"":""1"",""Q20"":""0"",""Q21"":""0"",""Q22"":""0""}","[0,1,2,3,4,5,6,7,8,9,10,11,12,13,14,15,16,17,18,19,20,21]","[""Q01"",""Q02"",""Q03"",""Q04"",""Q05"",""Q06"",""Q07"",""Q08"",""Q09"",""Q10"",""Q11"",""Q12"",""Q13"",""Q14"",""Q15"",""Q16"",""Q17"",""Q18"",""Q19"",""Q19"",""Q20"",""Q21"",""Q22""]","[3499.60000000149,4931,6616.60000000149,9875.800000000745,12140.199999999255,15451.400000002235,16527.800000000745,18792.400000002235,31071,33517.5,35680.5,37833,43712.199999999255,97574.30000000075,101057,104622.10000000149,108176.69999999925,123987.19999999925,127561.30000000075,129277.40000000224,134840.80000000075,136902.1000000015,139501.69999999925]","[]","[0.10000000149011612,3499.60000000149,4931,6616.60000000149,9043.199999999255,9875.800000000745,12140.199999999255,14344.199999999255,15451.400000002235,16527.800000000745,18792.400000002235,30227.5,31071,33517.5,35680.5,37833,42250.199999999255,43712.199999999255,97574.30000000075,101057,104622.10000000149,107191.40000000224,108176.69999999925,123987.19999999925,127561.30000000075,129277.40000000224,134840.80000000075,136902.1000000015,138801.19999999925,139501.69999999925,140994.6000000015]","0.5454545454545454","0.14285714285714285","0","","","","","","","","","","","","","","","","","","","","","","","","","","","","",""
"51611.300000000745","","","","survey-template","8","349723","0.0-4.0-4.0","35","1","2025-07-30 08:41:28","36c45c0696341be0efffe67d72a12abb","41.150.224.146","Mozilla/5.0 (Windows NT 10.0; Win64; x64) AppleWebKit/537.36 (KHTML, like Gecko) Chrome/138.0.0.0 Safari/537.36","WebKit","Chrome","138.0.0.0","Windows","10.0","https://app.prolific.com/","en-US,en;q=0.9","67f133dcba790167d0027963","687a360dabe5252b5ada7185","6889da753b9ff6182f3a59ed","0","67f133dcba790167d0027963","0","2025-07-30T08:47:20.074Z","","","","stress","{""Q01"":""2"",""Q02"":""2"",""Q03"":""1""}","[0,1,2]","[""Q01"",""Q02"",""Q01"",""Q03""]","[11303.39999999851,32938.39999999851,37436.5,45711.199999999255]","[]","[11303.39999999851,32938.39999999851,37436.5,45711.199999999255,51610.39999999851]","0.3333333333333333","0.5","0","","","","","","","","","","","","","","","","","","","","","","","","","","","","",""
"20965","","","","instructions","9","370689","0.0-5.0-0.0","35","1","2025-07-30 08:41:28","36c45c0696341be0efffe67d72a12abb","41.150.224.146","Mozilla/5.0 (Windows NT 10.0; Win64; x64) AppleWebKit/537.36 (KHTML, like Gecko) Chrome/138.0.0.0 Safari/537.36","WebKit","Chrome","138.0.0.0","Windows","10.0","https://app.prolific.com/","en-US,en;q=0.9","67f133dcba790167d0027963","687a360dabe5252b5ada7185","6889da753b9ff6182f3a59ed","0","67f133dcba790167d0027963","0","","","","","","","","","","","","","","","[{""page_index"":0,""viewing_time"":20965}]","","","","","","","","","","","","","","","","","","","","","","","","","","","",""
"25345","","<p>Before you start with this game please answer the following three questions yourself. </p>
  <p>Through this game, we measure several aspects of your cognitive performance, such as reaction times, multi-tasking capabilities </p>
  <p>and the ability to assess the situation you are in.</p>
  <p></p>
  <p><b>How good do you usually are in such tasks?</b></p>","88","html-slider-response","10","396036","0.0-6.0-0.0","35","1","2025-07-30 08:41:28","36c45c0696341be0efffe67d72a12abb","41.150.224.146","Mozilla/5.0 (Windows NT 10.0; Win64; x64) AppleWebKit/537.36 (KHTML, like Gecko) Chrome/138.0.0.0 Safari/537.36","WebKit","Chrome","138.0.0.0","Windows","10.0","https://app.prolific.com/","en-US,en;q=0.9","67f133dcba790167d0027963","687a360dabe5252b5ada7185","6889da753b9ff6182f3a59ed","0","67f133dcba790167d0027963","0","2025-07-30T08:48:06.387Z","","","","PreSkillQ","","","","","","","","","","","50","","","","","","","","","","","","","","","","","","","","","","","","","","",""
"5696","","<div style=""width:500px;"">
  <p>How well do you think you will perform in this task compared to other participants?</p>
  </div>","87","html-slider-response","11","401734","0.0-6.0-1.0","35","1","2025-07-30 08:41:28","36c45c0696341be0efffe67d72a12abb","41.150.224.146","Mozilla/5.0 (Windows NT 10.0; Win64; x64) AppleWebKit/537.36 (KHTML, like Gecko) Chrome/138.0.0.0 Safari/537.36","WebKit","Chrome","138.0.0.0","Windows","10.0","https://app.prolific.com/","en-US,en;q=0.9","67f133dcba790167d0027963","687a360dabe5252b5ada7185","6889da753b9ff6182f3a59ed","0","67f133dcba790167d0027963","0","2025-07-30T08:48:12.085Z","","","","PrePerfQ","","","","","","","","","","","50","","","","","","","","","","","","","","","","","","","","","","","","","","",""
"5116","","<div style=""width:500px;"">
  <p>What best describes how you currently feel?</p>
  </div>","100","html-slider-response","12","406850","0.0-6.0-2.0","35","1","2025-07-30 08:41:28","36c45c0696341be0efffe67d72a12abb","41.150.224.146","Mozilla/5.0 (Windows NT 10.0; Win64; x64) AppleWebKit/537.36 (KHTML, like Gecko) Chrome/138.0.0.0 Safari/537.36","WebKit","Chrome","138.0.0.0","Windows","10.0","https://app.prolific.com/","en-US,en;q=0.9","67f133dcba790167d0027963","687a360dabe5252b5ada7185","6889da753b9ff6182f3a59ed","0","67f133dcba790167d0027963","0","2025-07-30T08:48:17.201Z","","","","PreMotivationQ","","","","","","","","","","","50","","","","","","","","","","","","","","","","","","","","","","","","","","",""
"","","","","ctl-task-cpt","13","453229","0.0-7.0-0.0","35","1","2025-07-30 08:41:28","36c45c0696341be0efffe67d72a12abb","41.150.224.146","Mozilla/5.0 (Windows NT 10.0; Win64; x64) AppleWebKit/537.36 (KHTML, like Gecko) Chrome/138.0.0.0 Safari/537.36","WebKit","Chrome","138.0.0.0","Windows","10.0","https://app.prolific.com/","en-US,en;q=0.9","67f133dcba790167d0027963","687a360dabe5252b5ada7185","6889da753b9ff6182f3a59ed","0","67f133dcba790167d0027963","0","2025-07-30T08:49:03.580Z","","","","","","","","","","","","","","","","win-only","2","g1:SE,g2:NW","1","1","0","410035.6","3868.1","8871.7","43369.1","1","4","8","6","2","8","5","5","0","0.03787878787878788","1099.3","3000","365","[""left"",""up""]","{""num_key_presses"":11,""num_perfect"":8,""num_errors"":3,""num_randdir"":0,""num_randdir_good_moves"":0,""num_whilered"":0,""num_whileblue"":2,""num_blue"":3,""num_good_moves"":8}","[297.22232142857143,293.12857142857143,0.4,297.22232142857143,293.12857142857143,103.3,297.22232142857143,293.12857142857143,208.4,297.22232142857143,293.12857142857143,313.3,297.22232142857143,293.12857142857143,418.4,255.22232142857143,243.12857142857143,522.7,124.22232142857143,94.12857142857143,623.1,124.22232142857143,94.12857142857143,727.5,93.22232142857143,76.12857142857143,828.8,49.222321428571426,55.128571428571426,929.5,49.222321428571426,55.128571428571426,1030.5,49.222321428571426,55.128571428571426,1133.1,49.222321428571426,55.128571428571426,1237.5,49.222321428571426,55.128571428571426,1338.2,49.222321428571426,55.128571428571426,1442.6,148.22232142857143,163.12857142857143,1543.4,395.22232142857143,388.12857142857143,1647.8,395.22232142857143,388.12857142857143,1748.5,380.22232142857143,379.12857142857143,1849.9,365.22232142857143,371.12857142857143,1953.1,363.22232142857143,369.12857142857143,2058.4,356.22232142857143,362.12857142857143,2163.5,350.22232142857143,351.12857142857143,2267.9,349.22232142857143,350.12857142857143,2373.1,349.22232142857143,350.12857142857143,2473.4,349.22232142857143,350.12857142857143,2578.2,349.22232142857143,350.12857142857143,2678.4,349.22232142857143,350.12857142857143,2782.7,349.22232142857143,350.12857142857143,2883.5,349.22232142857143,350.12857142857143,2987.4,349.22232142857143,350.12857142857143,3087.9,349.22232142857143,350.12857142857143,3188.1,349.22232142857143,350.12857142857143,3293.2,349.22232142857143,350.12857142857143,3398.9,349.22232142857143,349.12857142857143,3502.8,349.22232142857143,349.12857142857143,3603.7,349.22232142857143,349.12857142857143,3704.2,349.22232142857143,349.12857142857143,3808.9,347.22232142857143,357.12857142857143,3913,347.22232142857143,365.12857142857143,4013.2,347.22232142857143,372.12857142857143,4117.9,346.22232142857143,375.12857142857143,4219,346.22232142857143,375.12857142857143,4322.5,346.22232142857143,375.12857142857143,4423.4,346.22232142857143,374.12857142857143,4527.7,346.22232142857143,364.12857142857143,4629.5,345.22232142857143,359.12857142857143,4733,345.22232142857143,358.12857142857143,4833.8,345.22232142857143,358.12857142857143,4938]","[3686.3,3686.3,3320.2,2004.3,-1638.2,""error"",""-"",""-"",""no_move"",7563.8,3877.1,2294.7,4689.7,579.4,""while_blue"",""left"",""right"",""bad_move"",11624.2,4060,3719.2,7564.3,340.8,""smooth"",""up"",""up"",""good_move"",14402.3,2777.1,2408.4,11625.2,368.7,""smooth"",""left"",""left"",""good_move"",17006.8,2603.9,2246.3,14403,357.6,""while_blue"",""left"",""right"",""bad_move"",19790.6,2783.3,2358.1,17007.3,425.2,""smooth"",""left"",""left"",""good_move"",22257.9,2466.9,2116.2,19791.1,350.6,""smooth"",""left"",""left"",""good_move"",24863.1,2604.7,2295.8,22258.4,308.9,""smooth"",""left"",""left"",""good_move"",27657.2,2793.9,2450.2,24863.4,343.7,""smooth"",""left"",""left"",""good_move"",30707.3,3049.7,2669.5,27657.7,380.2,""smooth"",""up"",""up"",""good_move"",34394.1,3686.3,3371.2,30707.9,315,""smooth"",""up"",""up"",""good_move""]"
"6399","","<div style=""width:500px;"">
  <p>What determined the result of this run?</p>
  </div>","100","html-slider-response","14","459629","0.0-7.0-1.0","35","1","2025-07-30 08:41:28","36c45c0696341be0efffe67d72a12abb","41.150.224.146","Mozilla/5.0 (Windows NT 10.0; Win64; x64) AppleWebKit/537.36 (KHTML, like Gecko) Chrome/138.0.0.0 Safari/537.36","WebKit","Chrome","138.0.0.0","Windows","10.0","https://app.prolific.com/","en-US,en;q=0.9","67f133dcba790167d0027963","687a360dabe5252b5ada7185","6889da753b9ff6182f3a59ed","0","67f133dcba790167d0027963","0","2025-07-30T08:49:09.980Z","","","","AttribQ","","","","","","","","","","","50","","","","","","","","","","","","","","","","","","","","","","","","","","",""
"3269","","<div style=""width:500px;"">
  <p>How much control did you have over the ball?</p>
  </div>","100","html-slider-response","15","462899","0.0-7.0-2.0","35","1","2025-07-30 08:41:28","36c45c0696341be0efffe67d72a12abb","41.150.224.146","Mozilla/5.0 (Windows NT 10.0; Win64; x64) AppleWebKit/537.36 (KHTML, like Gecko) Chrome/138.0.0.0 Safari/537.36","WebKit","Chrome","138.0.0.0","Windows","10.0","https://app.prolific.com/","en-US,en;q=0.9","67f133dcba790167d0027963","687a360dabe5252b5ada7185","6889da753b9ff6182f3a59ed","0","67f133dcba790167d0027963","0","2025-07-30T08:49:13.250Z","","","","ControlQ","","","","","","","","","","","50","","","","","","","","","","","","","","","","","","","","","","","","","","",""
"5116","","<div style=""width:500px;"">
  <p>How would you describe your current emotional state?</p>
  </div>","4","html-slider-response","16","468016","0.0-7.0-3.0","35","1","2025-07-30 08:41:28","36c45c0696341be0efffe67d72a12abb","41.150.224.146","Mozilla/5.0 (Windows NT 10.0; Win64; x64) AppleWebKit/537.36 (KHTML, like Gecko) Chrome/138.0.0.0 Safari/537.36","WebKit","Chrome","138.0.0.0","Windows","10.0","https://app.prolific.com/","en-US,en;q=0.9","67f133dcba790167d0027963","687a360dabe5252b5ada7185","6889da753b9ff6182f3a59ed","0","67f133dcba790167d0027963","0","2025-07-30T08:49:18.367Z","","","","StressQ","","","","","","","","","","","50","","","","","","","","","","","","","","","","","","","","","","","","","","",""
"4639","","<div style=""width:500px;"">
  <p>What best describes how you currently feel?</p>
  </div>","100","html-slider-response","17","472656","0.0-7.0-4.0","35","1","2025-07-30 08:41:28","36c45c0696341be0efffe67d72a12abb","41.150.224.146","Mozilla/5.0 (Windows NT 10.0; Win64; x64) AppleWebKit/537.36 (KHTML, like Gecko) Chrome/138.0.0.0 Safari/537.36","WebKit","Chrome","138.0.0.0","Windows","10.0","https://app.prolific.com/","en-US,en;q=0.9","67f133dcba790167d0027963","687a360dabe5252b5ada7185","6889da753b9ff6182f3a59ed","0","67f133dcba790167d0027963","0","2025-07-30T08:49:23.007Z","","","","MotivationQ","","","","","","","","","","","50","","","","","","","","","","","","","","","","","","","","","","","","","","",""
"","","","","ctl-task-cpt","18","514501","0.0-7.0-0.1","35","1","2025-07-30 08:41:28","36c45c0696341be0efffe67d72a12abb","41.150.224.146","Mozilla/5.0 (Windows NT 10.0; Win64; x64) AppleWebKit/537.36 (KHTML, like Gecko) Chrome/138.0.0.0 Safari/537.36","WebKit","Chrome","138.0.0.0","Windows","10.0","https://app.prolific.com/","en-US,en;q=0.9","67f133dcba790167d0027963","687a360dabe5252b5ada7185","6889da753b9ff6182f3a59ed","0","67f133dcba790167d0027963","0","2025-07-30T08:50:04.852Z","","","","","","","","","","","","","","","","win-only","1","g1:NE,g2:SW","0.9","2","0","475840.2","1553.7","6556","38835.4","1","4","4","6","2","4","4","9","5","0.06818181818181818","1280.7","3000","40","[""down"",""left""]","{""num_key_presses"":8,""num_perfect"":7,""num_errors"":0,""num_randdir"":1,""num_randdir_good_moves"":0,""num_whilered"":0,""num_whileblue"":0,""num_blue"":3,""num_good_moves"":7}","[302.22232142857143,300.12857142857143,0.3,302.22232142857143,300.12857142857143,101.7,302.22232142857143,300.12857142857143,202.2,302.22232142857143,300.12857142857143,302.2,302.22232142857143,300.12857142857143,407.4,302.22232142857143,300.12857142857143,508,302.22232142857143,300.12857142857143,612.5,119.22232142857143,465.12857142857143,713.7,79.22232142857143,500.12857142857143,814.5,79.22232142857143,500.12857142857143,915.1,72.22232142857143,516.1285714285714,1015.2,54.222321428571426,544.1285714285714,1115.3,54.222321428571426,544.1285714285714,1217.8,54.222321428571426,544.1285714285714,1321.7,54.222321428571426,544.1285714285714,1422.6,54.222321428571426,544.1285714285714,1531.3,54.222321428571426,544.1285714285714,1632.5,54.222321428571426,544.1285714285714,1738.3,54.222321428571426,544.1285714285714,1846.5,54.222321428571426,544.1285714285714,1947.3,54.222321428571426,544.1285714285714,2051.7,54.222321428571426,544.1285714285714,2153,61.222321428571426,518.1285714285714,2253,249.22232142857143,324.12857142857143,2357.8,322.22232142857143,276.12857142857143,2457.8,330.22232142857143,272.12857142857143,2557.9,330.22232142857143,272.12857142857143,2663.1,330.22232142857143,272.12857142857143,2766.3,330.22232142857143,272.12857142857143,2866.7,330.22232142857143,272.12857142857143,2967.4,330.22232142857143,272.12857142857143,3067.5,330.22232142857143,272.12857142857143,3172.2,330.22232142857143,272.12857142857143,3272.5,330.22232142857143,272.12857142857143,3379.3,330.22232142857143,272.12857142857143,3483,330.22232142857143,272.12857142857143,3588.4,330.22232142857143,272.12857142857143,3696,330.22232142857143,272.12857142857143,3797.5,330.22232142857143,272.12857142857143,3898.5,330.22232142857143,272.12857142857143,4002.5,330.22232142857143,272.12857142857143,4112,330.22232142857143,272.12857142857143,4212.1,330.22232142857143,272.12857142857143,4312.2,330.22232142857143,272.12857142857143,4417.9,330.22232142857143,272.12857142857143,4522.2,330.22232142857143,272.12857142857143,4622.6,330.22232142857143,272.12857142857143,4729.2,330.22232142857143,272.12857142857143,4831.9,330.22232142857143,272.12857142857143,4937.7]","[1585.1,1585.1,1000,0,585.1,""smooth"",""left"",""left"",""good_move"",7448.6,5863,2257.8,4815.1,375.7,""smooth"",""down"",""down"",""good_move"",10806.9,3357.8,2877.4,7449.1,480.4,""smooth"",""down"",""down"",""good_move"",13840.4,3033.2,2625.9,10807.2,407.3,""smooth"",""down"",""down"",""good_move"",16291.8,2450.8,2052.1,13841.1,398.6,""smooth"",""left"",""left"",""good_move"",19859.6,3567.5,3120.4,16292.1,447.1,""oops"",""left"",""up"",""bad_move"",25913.8,6053.7,2411.9,23160.8,341.1,""smooth"",""left"",""left"",""good_move"",32186.4,6272.3,1919.3,29945.1,322,""smooth"",""down"",""down"",""good_move""]"
"3537","","<div style=""width:500px;"">
  <p>What determined the result of this run?</p>
  </div>","100","html-slider-response","19","518039","0.0-7.0-1.1","35","1","2025-07-30 08:41:28","36c45c0696341be0efffe67d72a12abb","41.150.224.146","Mozilla/5.0 (Windows NT 10.0; Win64; x64) AppleWebKit/537.36 (KHTML, like Gecko) Chrome/138.0.0.0 Safari/537.36","WebKit","Chrome","138.0.0.0","Windows","10.0","https://app.prolific.com/","en-US,en;q=0.9","67f133dcba790167d0027963","687a360dabe5252b5ada7185","6889da753b9ff6182f3a59ed","0","67f133dcba790167d0027963","0","2025-07-30T08:50:08.391Z","","","","AttribQ","","","","","","","","","","","50","","","","","","","","","","","","","","","","","","","","","","","","","","",""
"3025","","<div style=""width:500px;"">
  <p>How much control did you have over the ball?</p>
  </div>","100","html-slider-response","20","521065","0.0-7.0-2.1","35","1","2025-07-30 08:41:28","36c45c0696341be0efffe67d72a12abb","41.150.224.146","Mozilla/5.0 (Windows NT 10.0; Win64; x64) AppleWebKit/537.36 (KHTML, like Gecko) Chrome/138.0.0.0 Safari/537.36","WebKit","Chrome","138.0.0.0","Windows","10.0","https://app.prolific.com/","en-US,en;q=0.9","67f133dcba790167d0027963","687a360dabe5252b5ada7185","6889da753b9ff6182f3a59ed","0","67f133dcba790167d0027963","0","2025-07-30T08:50:11.417Z","","","","ControlQ","","","","","","","","","","","50","","","","","","","","","","","","","","","","","","","","","","","","","","",""
"4496","","<div style=""width:500px;"">
  <p>How would you describe your current emotional state?</p>
  </div>","0","html-slider-response","21","525563","0.0-7.0-3.1","35","1","2025-07-30 08:41:28","36c45c0696341be0efffe67d72a12abb","41.150.224.146","Mozilla/5.0 (Windows NT 10.0; Win64; x64) AppleWebKit/537.36 (KHTML, like Gecko) Chrome/138.0.0.0 Safari/537.36","WebKit","Chrome","138.0.0.0","Windows","10.0","https://app.prolific.com/","en-US,en;q=0.9","67f133dcba790167d0027963","687a360dabe5252b5ada7185","6889da753b9ff6182f3a59ed","0","67f133dcba790167d0027963","0","2025-07-30T08:50:15.914Z","","","","StressQ","","","","","","","","","","","50","","","","","","","","","","","","","","","","","","","","","","","","","","",""
"2640","","<div style=""width:500px;"">
  <p>What best describes how you currently feel?</p>
  </div>","100","html-slider-response","22","528204","0.0-7.0-4.1","35","1","2025-07-30 08:41:28","36c45c0696341be0efffe67d72a12abb","41.150.224.146","Mozilla/5.0 (Windows NT 10.0; Win64; x64) AppleWebKit/537.36 (KHTML, like Gecko) Chrome/138.0.0.0 Safari/537.36","WebKit","Chrome","138.0.0.0","Windows","10.0","https://app.prolific.com/","en-US,en;q=0.9","67f133dcba790167d0027963","687a360dabe5252b5ada7185","6889da753b9ff6182f3a59ed","0","67f133dcba790167d0027963","0","2025-07-30T08:50:18.555Z","","","","MotivationQ","","","","","","","","","","","50","","","","","","","","","","","","","","","","","","","","","","","","","","",""
"","","","","ctl-task-cpt","23","548432","0.0-7.0-0.2","35","1","2025-07-30 08:41:28","36c45c0696341be0efffe67d72a12abb","41.150.224.146","Mozilla/5.0 (Windows NT 10.0; Win64; x64) AppleWebKit/537.36 (KHTML, like Gecko) Chrome/138.0.0.0 Safari/537.36","WebKit","Chrome","138.0.0.0","Windows","10.0","https://app.prolific.com/","en-US,en;q=0.9","67f133dcba790167d0027963","687a360dabe5252b5ada7185","6889da753b9ff6182f3a59ed","0","67f133dcba790167d0027963","0","2025-07-30T08:50:38.784Z","","","","","","","","","","","","","","","","win-only","2","g1:SE,g2:NW","0.8","3","0","531389.3","1328.5","6332.1","17222.6","1","4","8","6","1","1","0","9","9","0.06818181818181818","1708.6","3000","1825","[""down"",""right""]","{""num_key_presses"":4,""num_perfect"":3,""num_errors"":1,""num_randdir"":0,""num_randdir_good_moves"":0,""num_whilered"":0,""num_whileblue"":1,""num_blue"":1,""num_good_moves"":4}","[288.22232142857143,300.12857142857143,1,288.22232142857143,300.12857142857143,102.6,288.22232142857143,300.12857142857143,206.9,288.22232142857143,300.12857142857143,307.8,288.22232142857143,300.12857142857143,409.4,288.22232142857143,300.12857142857143,509.4,251.22232142857143,242.12857142857143,611.3,160.22232142857143,106.12857142857143,711.4,160.22232142857143,106.12857142857143,813,160.22232142857143,106.12857142857143,913.5,238.22232142857143,176.12857142857143,1017.2,456.22232142857143,403.12857142857143,1117.3,475.22232142857143,422.12857142857143,1222.2,475.22232142857143,422.12857142857143,1322.7,490.22232142857143,449.12857142857143,1423.4,531.2223214285714,504.12857142857143,1533.8,531.2223214285714,504.12857142857143,1637.3,531.2223214285714,504.12857142857143,1737.8,531.2223214285714,504.12857142857143,1842.3,531.2223214285714,504.12857142857143,1944.5,531.2223214285714,504.12857142857143,2047.3,531.2223214285714,504.12857142857143,2147.4,531.2223214285714,504.12857142857143,2248.2,531.2223214285714,504.12857142857143,2352.7,531.2223214285714,504.12857142857143,2454,531.2223214285714,504.12857142857143,2556.9,531.2223214285714,504.12857142857143,2660.8,531.2223214285714,504.12857142857143,2763,531.2223214285714,504.12857142857143,2867.1,531.2223214285714,504.12857142857143,2972.5,531.2223214285714,504.12857142857143,3073.3,531.2223214285714,504.12857142857143,3177.5,531.2223214285714,504.12857142857143,3279.2,531.2223214285714,504.12857142857143,3382.4,531.2223214285714,504.12857142857143,3483.9,531.2223214285714,504.12857142857143,3587.5,531.2223214285714,504.12857142857143,3693.4,531.2223214285714,504.12857142857143,3793.4,531.2223214285714,504.12857142857143,3893.9,531.2223214285714,504.12857142857143,3994,531.2223214285714,504.12857142857143,4097.3,531.2223214285714,504.12857142857143,4197.5,531.2223214285714,504.12857142857143,4302.2,531.2223214285714,504.12857142857143,4403.2,531.2223214285714,504.12857142857143,4507.7,531.2223214285714,504.12857142857143,4613.9,531.2223214285714,504.12857142857143,4717.3,531.2223214285714,504.12857142857143,4817.7,531.2223214285714,504.12857142857143,4918.5]","[1454.2,1454.2,1000,0,454.2,""smooth"",""down"",""down"",""good_move"",4942.2,3487.2,3076.8,1455,410.4,""smooth"",""down"",""down"",""good_move"",7988.3,3045.8,2690.9,4942.5,354.9,""while_blue"",""right"",""right"",""good_move"",10789.5,2800,2338.5,7989.5,461.5,""smooth"",""right"",""right"",""good_move""]"
"3257","","<div style=""width:500px;"">
  <p>What determined the result of this run?</p>
  </div>","100","html-slider-response","24","551691","0.0-7.0-1.2","35","1","2025-07-30 08:41:28","36c45c0696341be0efffe67d72a12abb","41.150.224.146","Mozilla/5.0 (Windows NT 10.0; Win64; x64) AppleWebKit/537.36 (KHTML, like Gecko) Chrome/138.0.0.0 Safari/537.36","WebKit","Chrome","138.0.0.0","Windows","10.0","https://app.prolific.com/","en-US,en;q=0.9","67f133dcba790167d0027963","687a360dabe5252b5ada7185","6889da753b9ff6182f3a59ed","0","67f133dcba790167d0027963","0","2025-07-30T08:50:42.042Z","","","","AttribQ","","","","","","","","","","","50","","","","","","","","","","","","","","","","","","","","","","","","","","",""
"3533","","<div style=""width:500px;"">
  <p>How much control did you have over the ball?</p>
  </div>","99","html-slider-response","25","555225","0.0-7.0-2.2","35","1","2025-07-30 08:41:28","36c45c0696341be0efffe67d72a12abb","41.150.224.146","Mozilla/5.0 (Windows NT 10.0; Win64; x64) AppleWebKit/537.36 (KHTML, like Gecko) Chrome/138.0.0.0 Safari/537.36","WebKit","Chrome","138.0.0.0","Windows","10.0","https://app.prolific.com/","en-US,en;q=0.9","67f133dcba790167d0027963","687a360dabe5252b5ada7185","6889da753b9ff6182f3a59ed","0","67f133dcba790167d0027963","0","2025-07-30T08:50:45.576Z","","","","ControlQ","","","","","","","","","","","50","","","","","","","","","","","","","","","","","","","","","","","","","","",""
"2446","","<div style=""width:500px;"">
  <p>How would you describe your current emotional state?</p>
  </div>","6","html-slider-response","26","557672","0.0-7.0-3.2","35","1","2025-07-30 08:41:28","36c45c0696341be0efffe67d72a12abb","41.150.224.146","Mozilla/5.0 (Windows NT 10.0; Win64; x64) AppleWebKit/537.36 (KHTML, like Gecko) Chrome/138.0.0.0 Safari/537.36","WebKit","Chrome","138.0.0.0","Windows","10.0","https://app.prolific.com/","en-US,en;q=0.9","67f133dcba790167d0027963","687a360dabe5252b5ada7185","6889da753b9ff6182f3a59ed","0","67f133dcba790167d0027963","0","2025-07-30T08:50:48.024Z","","","","StressQ","","","","","","","","","","","50","","","","","","","","","","","","","","","","","","","","","","","","","","",""
"5940","","<div style=""width:500px;"">
  <p>What best describes how you currently feel?</p>
  </div>","100","html-slider-response","27","563614","0.0-7.0-4.2","35","1","2025-07-30 08:41:28","36c45c0696341be0efffe67d72a12abb","41.150.224.146","Mozilla/5.0 (Windows NT 10.0; Win64; x64) AppleWebKit/537.36 (KHTML, like Gecko) Chrome/138.0.0.0 Safari/537.36","WebKit","Chrome","138.0.0.0","Windows","10.0","https://app.prolific.com/","en-US,en;q=0.9","67f133dcba790167d0027963","687a360dabe5252b5ada7185","6889da753b9ff6182f3a59ed","0","67f133dcba790167d0027963","0","2025-07-30T08:50:53.965Z","","","","MotivationQ","","","","","","","","","","","50","","","","","","","","","","","","","","","","","","","","","","","","","","",""
"","","","","ctl-task-cpt","28","603151","0.0-7.0-0.3","35","1","2025-07-30 08:41:28","36c45c0696341be0efffe67d72a12abb","41.150.224.146","Mozilla/5.0 (Windows NT 10.0; Win64; x64) AppleWebKit/537.36 (KHTML, like Gecko) Chrome/138.0.0.0 Safari/537.36","WebKit","Chrome","138.0.0.0","Windows","10.0","https://app.prolific.com/","en-US,en;q=0.9","67f133dcba790167d0027963","687a360dabe5252b5ada7185","6889da753b9ff6182f3a59ed","0","67f133dcba790167d0027963","0","2025-07-30T08:51:33.502Z","","","","","","","","","","","","","","","","win-only","0","g1:NW,g2:SE","0.7","4","0","566798.9","1360.5","6361","36526.2","1","4","4","6","2","4","4","13","9","0.09848484848484848","1572.9","3000","340","[""down"",""right""]","{""num_key_presses"":8,""num_perfect"":6,""num_errors"":0,""num_randdir"":2,""num_randdir_good_moves"":1,""num_whilered"":0,""num_whileblue"":0,""num_blue"":2,""num_good_moves"":7}","[299.22232142857143,300.12857142857143,0.3,299.22232142857143,300.12857142857143,101.4,299.22232142857143,300.12857142857143,204.8,299.22232142857143,300.12857142857143,305.3,299.22232142857143,300.12857142857143,405.4,299.22232142857143,300.12857142857143,516.5,299.22232142857143,300.12857142857143,618.7,299.22232142857143,300.12857142857143,720.8,299.22232142857143,300.12857142857143,825.1,413.22232142857143,400.12857142857143,933.3,649.2223214285714,611.1285714285714,1036.1,649.2223214285714,611.1285714285714,1136.5,616.2223214285714,594.1285714285714,1236.9,536.2223214285714,551.1285714285714,1340.6,535.2223214285714,551.1285714285714,1440.9,535.2223214285714,551.1285714285714,1545.4,535.2223214285714,551.1285714285714,1645.6,535.2223214285714,551.1285714285714,1749.7,535.2223214285714,551.1285714285714,1850,535.2223214285714,551.1285714285714,1950.3,535.2223214285714,551.1285714285714,2051.1,535.2223214285714,551.1285714285714,2151.2,535.2223214285714,551.1285714285714,2255.4,535.2223214285714,551.1285714285714,2364.5,535.2223214285714,551.1285714285714,2466.1,535.2223214285714,551.1285714285714,2566.4,535.2223214285714,551.1285714285714,2667,535.2223214285714,551.1285714285714,2768.4,535.2223214285714,551.1285714285714,2871,535.2223214285714,551.1285714285714,2983.1,535.2223214285714,551.1285714285714,3083.9,535.2223214285714,551.1285714285714,3185,535.2223214285714,551.1285714285714,3285.1,535.2223214285714,551.1285714285714,3385.4,535.2223214285714,551.1285714285714,3486.4,535.2223214285714,551.1285714285714,3586.4,535.2223214285714,551.1285714285714,3689.8,535.2223214285714,551.1285714285714,3791.2,535.2223214285714,551.1285714285714,3900.1,535.2223214285714,551.1285714285714,4001.6,535.2223214285714,551.1285714285714,4104.8,535.2223214285714,551.1285714285714,4205.3,535.2223214285714,551.1285714285714,4316.3,535.2223214285714,551.1285714285714,4421,535.2223214285714,551.1285714285714,4534,535.2223214285714,551.1285714285714,4635.6,535.2223214285714,551.1285714285714,4735.7,535.2223214285714,551.1285714285714,4840,535.2223214285714,551.1285714285714,4951.3]","[1409.2,1409.2,1000,0,409.2,""smooth"",""down"",""down"",""good_move"",4526.4,3116.2,2686.6,1410.2,429.6,""smooth"",""down"",""down"",""good_move"",7757.8,3231.2,2873.5,4526.7,357.7,""oops"",""down"",""down"",""good_move"",14896.6,7138.3,2714.4,11859.1,323.1,""oops"",""right"",""up"",""bad_move"",22035.9,7138.4,2224.9,19473.3,337.7,""smooth"",""right"",""right"",""good_move"",24575.1,2538.4,2008.9,22036.7,529.5,""smooth"",""down"",""down"",""good_move"",27446.4,2870.5,2502.1,24575.9,368.4,""smooth"",""right"",""right"",""good_move"",30060.5,2613.5,2310.7,27447,302.8,""smooth"",""right"",""right"",""good_move""]"
"4076","","<div style=""width:500px;"">
  <p>What determined the result of this run?</p>
  </div>","99","html-slider-response","29","607228","0.0-7.0-1.3","35","1","2025-07-30 08:41:28","36c45c0696341be0efffe67d72a12abb","41.150.224.146","Mozilla/5.0 (Windows NT 10.0; Win64; x64) AppleWebKit/537.36 (KHTML, like Gecko) Chrome/138.0.0.0 Safari/537.36","WebKit","Chrome","138.0.0.0","Windows","10.0","https://app.prolific.com/","en-US,en;q=0.9","67f133dcba790167d0027963","687a360dabe5252b5ada7185","6889da753b9ff6182f3a59ed","0","67f133dcba790167d0027963","0","2025-07-30T08:51:37.579Z","","","","AttribQ","","","","","","","","","","","50","","","","","","","","","","","","","","","","","","","","","","","","","","",""
"3351","","<div style=""width:500px;"">
  <p>How much control did you have over the ball?</p>
  </div>","98","html-slider-response","30","610581","0.0-7.0-2.3","35","1","2025-07-30 08:41:28","36c45c0696341be0efffe67d72a12abb","41.150.224.146","Mozilla/5.0 (Windows NT 10.0; Win64; x64) AppleWebKit/537.36 (KHTML, like Gecko) Chrome/138.0.0.0 Safari/537.36","WebKit","Chrome","138.0.0.0","Windows","10.0","https://app.prolific.com/","en-US,en;q=0.9","67f133dcba790167d0027963","687a360dabe5252b5ada7185","6889da753b9ff6182f3a59ed","0","67f133dcba790167d0027963","0","2025-07-30T08:51:40.932Z","","","","ControlQ","","","","","","","","","","","50","","","","","","","","","","","","","","","","","","","","","","","","","","",""
"3763","","<div style=""width:500px;"">
  <p>How would you describe your current emotional state?</p>
  </div>","13","html-slider-response","31","614346","0.0-7.0-3.3","35","1","2025-07-30 08:41:28","36c45c0696341be0efffe67d72a12abb","41.150.224.146","Mozilla/5.0 (Windows NT 10.0; Win64; x64) AppleWebKit/537.36 (KHTML, like Gecko) Chrome/138.0.0.0 Safari/537.36","WebKit","Chrome","138.0.0.0","Windows","10.0","https://app.prolific.com/","en-US,en;q=0.9","67f133dcba790167d0027963","687a360dabe5252b5ada7185","6889da753b9ff6182f3a59ed","0","67f133dcba790167d0027963","0","2025-07-30T08:51:44.697Z","","","","StressQ","","","","","","","","","","","50","","","","","","","","","","","","","","","","","","","","","","","","","","",""
"2944","","<div style=""width:500px;"">
  <p>What best describes how you currently feel?</p>
  </div>","100","html-slider-response","32","617291","0.0-7.0-4.3","35","1","2025-07-30 08:41:28","36c45c0696341be0efffe67d72a12abb","41.150.224.146","Mozilla/5.0 (Windows NT 10.0; Win64; x64) AppleWebKit/537.36 (KHTML, like Gecko) Chrome/138.0.0.0 Safari/537.36","WebKit","Chrome","138.0.0.0","Windows","10.0","https://app.prolific.com/","en-US,en;q=0.9","67f133dcba790167d0027963","687a360dabe5252b5ada7185","6889da753b9ff6182f3a59ed","0","67f133dcba790167d0027963","0","2025-07-30T08:51:47.642Z","","","","MotivationQ","","","","","","","","","","","50","","","","","","","","","","","","","","","","","","","","","","","","","","",""
"","","","","ctl-task-cpt","33","656279","0.0-7.0-0.4","35","1","2025-07-30 08:41:28","36c45c0696341be0efffe67d72a12abb","41.150.224.146","Mozilla/5.0 (Windows NT 10.0; Win64; x64) AppleWebKit/537.36 (KHTML, like Gecko) Chrome/138.0.0.0 Safari/537.36","WebKit","Chrome","138.0.0.0","Windows","10.0","https://app.prolific.com/","en-US,en;q=0.9","67f133dcba790167d0027963","687a360dabe5252b5ada7185","6889da753b9ff6182f3a59ed","0","67f133dcba790167d0027963","0","2025-07-30T08:52:26.630Z","","","","","","","","","","","","","","","","win-only","1","g1:NE,g2:SW","0.6","5","0","620477.2","1805.7","6806.3","35966","1","4","8","6","2","8","6","19","13","0.14393939393939395","1310.3","3000","1005","[""down"",""left""]","{""num_key_presses"":8,""num_perfect"":4,""num_errors"":2,""num_randdir"":2,""num_randdir_good_moves"":1,""num_whilered"":0,""num_whileblue"":2,""num_blue"":4,""num_good_moves"":7}","[290.22232142857143,290.12857142857143,0.3,290.22232142857143,290.12857142857143,101.9,290.22232142857143,290.12857142857143,205.3,290.22232142857143,290.12857142857143,311,290.22232142857143,290.12857142857143,411,175.22232142857143,389.12857142857143,512.5,91.22232142857143,460.12857142857143,613,92.22232142857143,471.12857142857143,713.6,100.22232142857143,483.12857142857143,815.2,100.22232142857143,483.12857142857143,920.3,49.222321428571426,539.1285714285714,1029.7,33.222321428571426,548.1285714285714,1130.8,33.222321428571426,548.1285714285714,1231.8,33.222321428571426,548.1285714285714,1335.5,33.222321428571426,548.1285714285714,1443.3,33.222321428571426,548.1285714285714,1544.2,33.222321428571426,548.1285714285714,1644.7,33.222321428571426,548.1285714285714,1745.1,33.222321428571426,548.1285714285714,1845.6,33.222321428571426,548.1285714285714,1950.3,33.222321428571426,548.1285714285714,2055.4,33.222321428571426,548.1285714285714,2155.4,33.222321428571426,548.1285714285714,2260.2,33.222321428571426,548.1285714285714,2360.5,33.222321428571426,548.1285714285714,2462.6,33.222321428571426,548.1285714285714,2573.4,33.222321428571426,548.1285714285714,2675.3,33.222321428571426,548.1285714285714,2778.8,33.222321428571426,548.1285714285714,2880,33.222321428571426,548.1285714285714,2980,33.222321428571426,548.1285714285714,3081,33.222321428571426,548.1285714285714,3186.1,33.222321428571426,548.1285714285714,3292.2,33.222321428571426,548.1285714285714,3394,33.222321428571426,548.1285714285714,3494.6,33.222321428571426,548.1285714285714,3595.3,33.222321428571426,548.1285714285714,3699.9,33.222321428571426,548.1285714285714,3805.6,33.222321428571426,548.1285714285714,3910.4,33.222321428571426,548.1285714285714,4017.4,33.222321428571426,548.1285714285714,4119.9,33.222321428571426,548.1285714285714,4221,33.222321428571426,548.1285714285714,4331.5,33.222321428571426,548.1285714285714,4435.4,33.222321428571426,548.1285714285714,4535.6,33.222321428571426,548.1285714285714,4644.9,33.222321428571426,548.1285714285714,4745,33.222321428571426,548.1285714285714,4850.2,33.222321428571426,548.1285714285714,4960.7]","[1467.9,1467.9,1000,0,467.9,""oops"",""down"",""right"",""bad_move"",4367.4,2898.6,2561.1,1468.8,337.5,""smooth"",""down"",""down"",""good_move"",7023.7,2655.4,2301.6,4368.3,353.8,""while_blue"",""left"",""down"",""good_move"",10206.2,3181.9,2499.5,7024.3,682.4,""while_blue"",""down"",""down"",""good_move"",12911.9,2705,2283.6,10207,421.3,""smooth"",""left"",""left"",""good_move"",16010.1,3097.5,2735.4,12912.6,362.1,""oops"",""left"",""left"",""good_move"",18425.7,2414.5,1957.4,16011.2,457.1,""smooth"",""left"",""left"",""good_move"",29051.9,10625.4,2863.5,25814.6,373.8,""smooth"",""left"",""left"",""good_move""]"
"3709","","<div style=""width:500px;"">
  <p>What determined the result of this run?</p>
  </div>","100","html-slider-response","34","659989","0.0-7.0-1.4","35","1","2025-07-30 08:41:28","36c45c0696341be0efffe67d72a12abb","41.150.224.146","Mozilla/5.0 (Windows NT 10.0; Win64; x64) AppleWebKit/537.36 (KHTML, like Gecko) Chrome/138.0.0.0 Safari/537.36","WebKit","Chrome","138.0.0.0","Windows","10.0","https://app.prolific.com/","en-US,en;q=0.9","67f133dcba790167d0027963","687a360dabe5252b5ada7185","6889da753b9ff6182f3a59ed","0","67f133dcba790167d0027963","0","2025-07-30T08:52:30.340Z","","","","AttribQ","","","","","","","","","","","50","","","","","","","","","","","","","","","","","","","","","","","","","","",""
"2608","","<div style=""width:500px;"">
  <p>How much control did you have over the ball?</p>
  </div>","100","html-slider-response","35","662598","0.0-7.0-2.4","35","1","2025-07-30 08:41:28","36c45c0696341be0efffe67d72a12abb","41.150.224.146","Mozilla/5.0 (Windows NT 10.0; Win64; x64) AppleWebKit/537.36 (KHTML, like Gecko) Chrome/138.0.0.0 Safari/537.36","WebKit","Chrome","138.0.0.0","Windows","10.0","https://app.prolific.com/","en-US,en;q=0.9","67f133dcba790167d0027963","687a360dabe5252b5ada7185","6889da753b9ff6182f3a59ed","0","67f133dcba790167d0027963","0","2025-07-30T08:52:32.949Z","","","","ControlQ","","","","","","","","","","","50","","","","","","","","","","","","","","","","","","","","","","","","","","",""
"4294","","<div style=""width:500px;"">
  <p>How would you describe your current emotional state?</p>
  </div>","0","html-slider-response","36","666894","0.0-7.0-3.4","35","1","2025-07-30 08:41:28","36c45c0696341be0efffe67d72a12abb","41.150.224.146","Mozilla/5.0 (Windows NT 10.0; Win64; x64) AppleWebKit/537.36 (KHTML, like Gecko) Chrome/138.0.0.0 Safari/537.36","WebKit","Chrome","138.0.0.0","Windows","10.0","https://app.prolific.com/","en-US,en;q=0.9","67f133dcba790167d0027963","687a360dabe5252b5ada7185","6889da753b9ff6182f3a59ed","0","67f133dcba790167d0027963","0","2025-07-30T08:52:37.245Z","","","","StressQ","","","","","","","","","","","50","","","","","","","","","","","","","","","","","","","","","","","","","","",""
"7248","","<div style=""width:500px;"">
  <p>What best describes how you currently feel?</p>
  </div>","100","html-slider-response","37","674143","0.0-7.0-4.4","35","1","2025-07-30 08:41:28","36c45c0696341be0efffe67d72a12abb","41.150.224.146","Mozilla/5.0 (Windows NT 10.0; Win64; x64) AppleWebKit/537.36 (KHTML, like Gecko) Chrome/138.0.0.0 Safari/537.36","WebKit","Chrome","138.0.0.0","Windows","10.0","https://app.prolific.com/","en-US,en;q=0.9","67f133dcba790167d0027963","687a360dabe5252b5ada7185","6889da753b9ff6182f3a59ed","0","67f133dcba790167d0027963","0","2025-07-30T08:52:44.494Z","","","","MotivationQ","","","","","","","","","","","50","","","","","","","","","","","","","","","","","","","","","","","","","","",""
"","","","","ctl-task-cpt","38","715201","0.0-7.0-0.5","35","1","2025-07-30 08:41:28","36c45c0696341be0efffe67d72a12abb","41.150.224.146","Mozilla/5.0 (Windows NT 10.0; Win64; x64) AppleWebKit/537.36 (KHTML, like Gecko) Chrome/138.0.0.0 Safari/537.36","WebKit","Chrome","138.0.0.0","Windows","10.0","https://app.prolific.com/","en-US,en;q=0.9","67f133dcba790167d0027963","687a360dabe5252b5ada7185","6889da753b9ff6182f3a59ed","0","67f133dcba790167d0027963","0","2025-07-30T08:53:25.552Z","","","","","","","","","","","","","","","","win-only","1","g1:NE,g2:SW","0.5","6","0","677329.7","1988.9","6992.2","38036.9","1","4","4","6","2","-4","-4","15","19","0.11363636363636363","1270.8","3000","-2455","[""down"",""left""]","{""num_key_presses"":9,""num_perfect"":4,""num_errors"":0,""num_randdir"":5,""num_randdir_good_moves"":1,""num_whilered"":0,""num_whileblue"":0,""num_blue"":1,""num_good_moves"":5}","[293.22232142857143,296.12857142857143,1.4,293.22232142857143,296.12857142857143,115.8,293.22232142857143,296.12857142857143,217.6,293.22232142857143,296.12857142857143,330.6,293.22232142857143,296.12857142857143,431.2,293.22232142857143,296.12857142857143,533.6,209.22232142857143,378.12857142857143,634.5,116.22232142857143,493.12857142857143,738.1,116.22232142857143,493.12857142857143,851.3,107.22232142857143,495.12857142857143,959.5,57.222321428571426,542.1285714285714,1060.7,57.222321428571426,542.1285714285714,1172.2,57.222321428571426,542.1285714285714,1276,57.222321428571426,542.1285714285714,1377.8,57.222321428571426,542.1285714285714,1482.3,57.222321428571426,542.1285714285714,1587.1,57.222321428571426,542.1285714285714,1694.7,57.222321428571426,542.1285714285714,1805.9,57.222321428571426,542.1285714285714,1907.6,57.222321428571426,542.1285714285714,2015,57.222321428571426,542.1285714285714,2118.8,57.222321428571426,542.1285714285714,2221.4,57.222321428571426,542.1285714285714,2322.1,57.222321428571426,542.1285714285714,2422.5,57.222321428571426,542.1285714285714,2543.1,57.222321428571426,542.1285714285714,2643.1,57.222321428571426,542.1285714285714,2750.5,57.222321428571426,542.1285714285714,2858.5,57.222321428571426,542.1285714285714,2962.4,57.222321428571426,542.1285714285714,3069.6,57.222321428571426,542.1285714285714,3171.5,57.222321428571426,542.1285714285714,3272.9,57.222321428571426,542.1285714285714,3372.9,57.222321428571426,542.1285714285714,3473.3,57.222321428571426,542.1285714285714,3574.7,57.222321428571426,542.1285714285714,3677.8,57.222321428571426,542.1285714285714,3788.6,57.222321428571426,542.1285714285714,3889.5,57.222321428571426,542.1285714285714,3992.3,57.222321428571426,542.1285714285714,4092.5,57.222321428571426,542.1285714285714,4197.3,57.222321428571426,542.1285714285714,4301.7,57.222321428571426,542.1285714285714,4405,57.222321428571426,542.1285714285714,4506.3,57.222321428571426,542.1285714285714,4607.1,57.222321428571426,542.1285714285714,4723.6,57.222321428571426,542.1285714285714,4823.9,57.222321428571426,542.1285714285714,4927.2]","[5670.4,5670.4,3222.8,2003.7,443.9,""smooth"",""down"",""down"",""good_move"",8014.1,2343.1,1913.3,5671,429.8,""oops"",""down"",""up"",""bad_move"",11109.2,3094.7,2691.4,8014.5,403.3,""oops"",""down"",""down"",""good_move"",13880.1,2770.5,2354.4,11109.6,416.1,""smooth"",""down"",""down"",""good_move"",16839.9,2959.5,2575.4,13880.4,384.1,""oops"",""down"",""right"",""bad_move"",19521.2,2680.3,2256.8,16841,423.5,""smooth"",""down"",""down"",""good_move"",22697.1,3174.7,2824.6,19522.4,350.1,""smooth"",""left"",""left"",""good_move"",25600.9,2902.3,2542.2,22698.7,360,""oops"",""left"",""right"",""bad_move"",29045.5,3443.5,3035.5,25602.1,408,""oops"",""left"",""up"",""bad_move""]"
"5673","","<div style=""width:500px;"">
  <p>What determined the result of this run?</p>
  </div>","0","html-slider-response","39","720876","0.0-7.0-1.5","35","1","2025-07-30 08:41:28","36c45c0696341be0efffe67d72a12abb","41.150.224.146","Mozilla/5.0 (Windows NT 10.0; Win64; x64) AppleWebKit/537.36 (KHTML, like Gecko) Chrome/138.0.0.0 Safari/537.36","WebKit","Chrome","138.0.0.0","Windows","10.0","https://app.prolific.com/","en-US,en;q=0.9","67f133dcba790167d0027963","687a360dabe5252b5ada7185","6889da753b9ff6182f3a59ed","0","67f133dcba790167d0027963","0","2025-07-30T08:53:31.227Z","","","","AttribQ","","","","","","","","","","","50","","","","","","","","","","","","","","","","","","","","","","","","","","",""
"3247","","<div style=""width:500px;"">
  <p>How much control did you have over the ball?</p>
  </div>","0","html-slider-response","40","724125","0.0-7.0-2.5","35","1","2025-07-30 08:41:28","36c45c0696341be0efffe67d72a12abb","41.150.224.146","Mozilla/5.0 (Windows NT 10.0; Win64; x64) AppleWebKit/537.36 (KHTML, like Gecko) Chrome/138.0.0.0 Safari/537.36","WebKit","Chrome","138.0.0.0","Windows","10.0","https://app.prolific.com/","en-US,en;q=0.9","67f133dcba790167d0027963","687a360dabe5252b5ada7185","6889da753b9ff6182f3a59ed","0","67f133dcba790167d0027963","0","2025-07-30T08:53:34.476Z","","","","ControlQ","","","","","","","","","","","50","","","","","","","","","","","","","","","","","","","","","","","","","","",""
"4425","","<div style=""width:500px;"">
  <p>How would you describe your current emotional state?</p>
  </div>","98","html-slider-response","41","728552","0.0-7.0-3.5","35","1","2025-07-30 08:41:28","36c45c0696341be0efffe67d72a12abb","41.150.224.146","Mozilla/5.0 (Windows NT 10.0; Win64; x64) AppleWebKit/537.36 (KHTML, like Gecko) Chrome/138.0.0.0 Safari/537.36","WebKit","Chrome","138.0.0.0","Windows","10.0","https://app.prolific.com/","en-US,en;q=0.9","67f133dcba790167d0027963","687a360dabe5252b5ada7185","6889da753b9ff6182f3a59ed","0","67f133dcba790167d0027963","0","2025-07-30T08:53:38.903Z","","","","StressQ","","","","","","","","","","","50","","","","","","","","","","","","","","","","","","","","","","","","","","",""
"3023","","<div style=""width:500px;"">
  <p>What best describes how you currently feel?</p>
  </div>","1","html-slider-response","42","731576","0.0-7.0-4.5","35","1","2025-07-30 08:41:28","36c45c0696341be0efffe67d72a12abb","41.150.224.146","Mozilla/5.0 (Windows NT 10.0; Win64; x64) AppleWebKit/537.36 (KHTML, like Gecko) Chrome/138.0.0.0 Safari/537.36","WebKit","Chrome","138.0.0.0","Windows","10.0","https://app.prolific.com/","en-US,en;q=0.9","67f133dcba790167d0027963","687a360dabe5252b5ada7185","6889da753b9ff6182f3a59ed","0","67f133dcba790167d0027963","0","2025-07-30T08:53:41.928Z","","","","MotivationQ","","","","","","","","","","","50","","","","","","","","","","","","","","","","","","","","","","","","","","",""
"","","","","ctl-task-cpt","43","768689","0.0-7.0-0.6","35","1","2025-07-30 08:41:28","36c45c0696341be0efffe67d72a12abb","41.150.224.146","Mozilla/5.0 (Windows NT 10.0; Win64; x64) AppleWebKit/537.36 (KHTML, like Gecko) Chrome/138.0.0.0 Safari/537.36","WebKit","Chrome","138.0.0.0","Windows","10.0","https://app.prolific.com/","en-US,en;q=0.9","67f133dcba790167d0027963","687a360dabe5252b5ada7185","6889da753b9ff6182f3a59ed","0","67f133dcba790167d0027963","0","2025-07-30T08:54:19.040Z","","","","","","","","","","","","","","","","win-only","1","g1:NE,g2:SW","0.4","7","0","734761.9","11930.2","16931.5","34089.4","1","4","8","6","2","8","8","23","15","0.17424242424242425","2283.2","3000","785","[""down"",""left""]","{""num_key_presses"":6,""num_perfect"":3,""num_errors"":0,""num_randdir"":3,""num_randdir_good_moves"":3,""num_whilered"":0,""num_whileblue"":0,""num_blue"":0,""num_good_moves"":6}","[297.22232142857143,297.12857142857143,0.4,297.22232142857143,297.12857142857143,100.5,297.22232142857143,297.12857142857143,200.8,297.22232142857143,297.12857142857143,301.3,297.22232142857143,297.12857142857143,401.6,297.22232142857143,297.12857142857143,503.7,297.22232142857143,297.12857142857143,610.5,297.22232142857143,297.12857142857143,710.7,299.22232142857143,295.12857142857143,811.1,362.22232142857143,261.12857142857143,912.6,370.22232142857143,256.12857142857143,1014.9,371.22232142857143,255.12857142857143,1115.3,364.22232142857143,260.12857142857143,1215.9,324.22232142857143,280.12857142857143,1316.3,325.22232142857143,277.12857142857143,1421.5,325.22232142857143,275.12857142857143,1538,49.222321428571426,472.12857142857143,1644.7,-14.777678571428574,521.1285714285714,1756.2,-14.777678571428574,521.1285714285714,1856.8,9.222321428571426,528.1285714285714,1961.3,55.222321428571426,551.1285714285714,2075.3,55.222321428571426,551.1285714285714,2185.1,55.222321428571426,551.1285714285714,2289.1,55.222321428571426,551.1285714285714,2403.4,55.222321428571426,551.1285714285714,2515.3,55.222321428571426,551.1285714285714,2619.5,55.222321428571426,551.1285714285714,2720,55.222321428571426,551.1285714285714,2820.8,55.222321428571426,551.1285714285714,2920.8,55.222321428571426,551.1285714285714,3021.7,55.222321428571426,551.1285714285714,3135.1,55.222321428571426,551.1285714285714,3235.9,55.222321428571426,551.1285714285714,3335.9,55.222321428571426,551.1285714285714,3443,55.222321428571426,551.1285714285714,3543.7,55.222321428571426,551.1285714285714,3646.7,55.222321428571426,551.1285714285714,3752.7,55.222321428571426,551.1285714285714,3854.9,55.222321428571426,551.1285714285714,3955.1,55.222321428571426,551.1285714285714,4061.6,55.222321428571426,551.1285714285714,4163.8,55.222321428571426,551.1285714285714,4265.4,55.222321428571426,551.1285714285714,4366.1,55.222321428571426,551.1285714285714,4470,55.222321428571426,551.1285714285714,4570.8,55.222321428571426,551.1285714285714,4676,55.222321428571426,551.1285714285714,4782.3,55.222321428571426,551.1285714285714,4885.9,55.222321428571426,551.1285714285714,4986.8]","[1480.5,1480.5,1000,0,480.5,""smooth"",""down"",""down"",""good_move"",5096.5,3615.3,2921.4,1481.2,693.9,""oops"",""down"",""down"",""good_move"",8114.9,3018,2339.4,5096.9,678.6,""smooth"",""down"",""down"",""good_move"",10698.8,2583.5,2237.8,8115.3,345.7,""smooth"",""left"",""left"",""good_move"",13519.9,2820.2,2409.2,10699.7,411,""oops"",""left"",""left"",""good_move"",17051.7,3531.2,3143,13520.5,388.2,""oops"",""left"",""left"",""good_move""]"
"10787","","<div style=""width:500px;"">
  <p>What determined the result of this run?</p>
  </div>","100","html-slider-response","44","779478","0.0-7.0-1.6","35","1","2025-07-30 08:41:28","36c45c0696341be0efffe67d72a12abb","41.150.224.146","Mozilla/5.0 (Windows NT 10.0; Win64; x64) AppleWebKit/537.36 (KHTML, like Gecko) Chrome/138.0.0.0 Safari/537.36","WebKit","Chrome","138.0.0.0","Windows","10.0","https://app.prolific.com/","en-US,en;q=0.9","67f133dcba790167d0027963","687a360dabe5252b5ada7185","6889da753b9ff6182f3a59ed","0","67f133dcba790167d0027963","0","2025-07-30T08:54:29.829Z","","","","AttribQ","","","","","","","","","","","50","","","","","","","","","","","","","","","","","","","","","","","","","","",""
"3684","","<div style=""width:500px;"">
  <p>How much control did you have over the ball?</p>
  </div>","78","html-slider-response","45","783164","0.0-7.0-2.6","35","1","2025-07-30 08:41:28","36c45c0696341be0efffe67d72a12abb","41.150.224.146","Mozilla/5.0 (Windows NT 10.0; Win64; x64) AppleWebKit/537.36 (KHTML, like Gecko) Chrome/138.0.0.0 Safari/537.36","WebKit","Chrome","138.0.0.0","Windows","10.0","https://app.prolific.com/","en-US,en;q=0.9","67f133dcba790167d0027963","687a360dabe5252b5ada7185","6889da753b9ff6182f3a59ed","0","67f133dcba790167d0027963","0","2025-07-30T08:54:33.515Z","","","","ControlQ","","","","","","","","","","","50","","","","","","","","","","","","","","","","","","","","","","","","","","",""
"8810","","<div style=""width:500px;"">
  <p>How would you describe your current emotional state?</p>
  </div>","10","html-slider-response","46","791976","0.0-7.0-3.6","35","1","2025-07-30 08:41:28","36c45c0696341be0efffe67d72a12abb","41.150.224.146","Mozilla/5.0 (Windows NT 10.0; Win64; x64) AppleWebKit/537.36 (KHTML, like Gecko) Chrome/138.0.0.0 Safari/537.36","WebKit","Chrome","138.0.0.0","Windows","10.0","https://app.prolific.com/","en-US,en;q=0.9","67f133dcba790167d0027963","687a360dabe5252b5ada7185","6889da753b9ff6182f3a59ed","0","67f133dcba790167d0027963","0","2025-07-30T08:54:42.327Z","","","","StressQ","","","","","","","","","","","50","","","","","","","","","","","","","","","","","","","","","","","","","","",""
"3572","","<div style=""width:500px;"">
  <p>What best describes how you currently feel?</p>
  </div>","85","html-slider-response","47","795550","0.0-7.0-4.6","35","1","2025-07-30 08:41:28","36c45c0696341be0efffe67d72a12abb","41.150.224.146","Mozilla/5.0 (Windows NT 10.0; Win64; x64) AppleWebKit/537.36 (KHTML, like Gecko) Chrome/138.0.0.0 Safari/537.36","WebKit","Chrome","138.0.0.0","Windows","10.0","https://app.prolific.com/","en-US,en;q=0.9","67f133dcba790167d0027963","687a360dabe5252b5ada7185","6889da753b9ff6182f3a59ed","0","67f133dcba790167d0027963","0","2025-07-30T08:54:45.901Z","","","","MotivationQ","","","","","","","","","","","50","","","","","","","","","","","","","","","","","","","","","","","","","","",""
"","","","","ctl-task-cpt","48","858937","0.0-7.0-0.7","35","1","2025-07-30 08:41:28","36c45c0696341be0efffe67d72a12abb","41.150.224.146","Mozilla/5.0 (Windows NT 10.0; Win64; x64) AppleWebKit/537.36 (KHTML, like Gecko) Chrome/138.0.0.0 Safari/537.36","WebKit","Chrome","138.0.0.0","Windows","10.0","https://app.prolific.com/","en-US,en;q=0.9","67f133dcba790167d0027963","687a360dabe5252b5ada7185","6889da753b9ff6182f3a59ed","0","67f133dcba790167d0027963","0","2025-07-30T08:55:49.288Z","","","","","","","","","","","","","","","","win-only","0","g1:NW,g2:SE","0.3","8","0","798735.3","5415","10416.7","60367.3","1","4","4","6","1","-1","-5","18","23","0.13636363636363635","2373.1","3000","-2070","[""left"",""up""]","{""num_key_presses"":16,""num_perfect"":3,""num_errors"":4,""num_randdir"":9,""num_randdir_good_moves"":3,""num_whilered"":0,""num_whileblue"":3,""num_blue"":3,""num_good_moves"":7}","[294.22232142857143,292.12857142857143,0.8,294.22232142857143,292.12857142857143,102.2,294.22232142857143,292.12857142857143,207.4,294.22232142857143,292.12857142857143,310.8,294.22232142857143,292.12857142857143,417.2,294.22232142857143,292.12857142857143,522.7,291.22232142857143,345.12857142857143,625.5,339.22232142857143,439.12857142857143,737.2,339.22232142857143,439.12857142857143,853.4,339.22232142857143,439.12857142857143,971.3,354.22232142857143,447.12857142857143,1082.9,458.22232142857143,518.1285714285714,1183.2,532.2223214285714,564.1285714285714,1307.8,531.2223214285714,563.1285714285714,1407.8,530.2223214285714,561.1285714285714,1508.3,460.22232142857143,513.1285714285714,1609.9,199.22232142857143,187.12857142857143,1712.5,194.22232142857143,163.12857142857143,1818.1,194.22232142857143,163.12857142857143,1939.6,76.22232142857143,80.12857142857143,2058.1,38.222321428571426,45.128571428571426,2158.8,38.222321428571426,45.128571428571426,2271.2,38.222321428571426,45.128571428571426,2381.5,38.222321428571426,45.128571428571426,2490.3,38.222321428571426,45.128571428571426,2591.7,38.222321428571426,45.128571428571426,2694.8,38.222321428571426,45.128571428571426,2795.9,38.222321428571426,45.128571428571426,2899.3,38.222321428571426,45.128571428571426,3001.5,38.222321428571426,45.128571428571426,3106.4,38.222321428571426,45.128571428571426,3222.6,38.222321428571426,45.128571428571426,3327.9,38.222321428571426,45.128571428571426,3431.9,38.222321428571426,45.128571428571426,3532.5,38.222321428571426,45.128571428571426,3633.6,38.222321428571426,45.128571428571426,3738.1,38.222321428571426,45.128571428571426,3840.7,38.222321428571426,45.128571428571426,3941.1,38.222321428571426,45.128571428571426,4042.9,38.222321428571426,45.128571428571426,4146.1,38.222321428571426,45.128571428571426,4256.9,38.222321428571426,45.128571428571426,4369,38.222321428571426,45.128571428571426,4483.7,38.222321428571426,45.128571428571426,4600.4,38.222321428571426,45.128571428571426,4701.1,38.222321428571426,45.128571428571426,4810.9,38.222321428571426,45.128571428571426,4918.1]","[1420.3,1420.3,1000,0,420.3,""oops"",""left"",""down"",""bad_move"",4873.3,3451.9,3105.9,1421.4,346,""oops"",""up"",""up"",""good_move"",7581.9,2707.6,2359.9,4874.3,347.7,""smooth"",""up"",""up"",""good_move"",10757.2,3174.7,2835.5,7582.5,339.3,""smooth"",""left"",""left"",""good_move"",13375.9,2618.4,2317,10757.6,301.4,""while_blue"",""up"",""left"",""good_move"",15887.6,2511.1,2135.7,13376.6,375.3,""oops"",""up"",""down"",""bad_move"",18826.5,2937.4,2637.2,15889.1,300.2,""oops"",""up"",""down"",""bad_move"",21826.7,2999.6,2271.7,18827.2,727.9,""while_blue"",""right"",""down"",""bad_move"",24781,2953.7,2644.5,21827.3,309.2,""smooth"",""up"",""up"",""good_move"",28299.8,3517.9,3172,24781.9,345.9,""oops"",""up"",""down"",""bad_move"",30269.1,1968.6,3485.7,28300.5,-1517.1,""error"",""-"",""-"",""no_move"",34139.8,3870.2,2458,31281.5,400.3,""while_blue"",""right"",""down"",""bad_move"",37165.6,3025.1,2647,34140.5,378.1,""oops"",""up"",""right"",""bad_move"",40313.5,3147.1,2832.9,37166.4,314.2,""oops"",""up"",""left"",""good_move"",43279.5,2965.2,2609.6,40314.3,355.6,""oops"",""up"",""up"",""good_move"",46055.6,2775.4,2442.3,43280.2,333.1,""oops"",""up"",""right"",""bad_move""]"
"8829","","<div style=""width:500px;"">
  <p>What determined the result of this run?</p>
  </div>","0","html-slider-response","49","867767","0.0-7.0-1.7","35","1","2025-07-30 08:41:28","36c45c0696341be0efffe67d72a12abb","41.150.224.146","Mozilla/5.0 (Windows NT 10.0; Win64; x64) AppleWebKit/537.36 (KHTML, like Gecko) Chrome/138.0.0.0 Safari/537.36","WebKit","Chrome","138.0.0.0","Windows","10.0","https://app.prolific.com/","en-US,en;q=0.9","67f133dcba790167d0027963","687a360dabe5252b5ada7185","6889da753b9ff6182f3a59ed","0","67f133dcba790167d0027963","0","2025-07-30T08:55:58.118Z","","","","AttribQ","","","","","","","","","","","50","","","","","","","","","","","","","","","","","","","","","","","","","","",""
"3217","","<div style=""width:500px;"">
  <p>How much control did you have over the ball?</p>
  </div>","0","html-slider-response","50","870986","0.0-7.0-2.7","35","1","2025-07-30 08:41:28","36c45c0696341be0efffe67d72a12abb","41.150.224.146","Mozilla/5.0 (Windows NT 10.0; Win64; x64) AppleWebKit/537.36 (KHTML, like Gecko) Chrome/138.0.0.0 Safari/537.36","WebKit","Chrome","138.0.0.0","Windows","10.0","https://app.prolific.com/","en-US,en;q=0.9","67f133dcba790167d0027963","687a360dabe5252b5ada7185","6889da753b9ff6182f3a59ed","0","67f133dcba790167d0027963","0","2025-07-30T08:56:01.338Z","","","","ControlQ","","","","","","","","","","","50","","","","","","","","","","","","","","","","","","","","","","","","","","",""
"4791","","<div style=""width:500px;"">
  <p>How would you describe your current emotional state?</p>
  </div>","100","html-slider-response","51","875779","0.0-7.0-3.7","35","1","2025-07-30 08:41:28","36c45c0696341be0efffe67d72a12abb","41.150.224.146","Mozilla/5.0 (Windows NT 10.0; Win64; x64) AppleWebKit/537.36 (KHTML, like Gecko) Chrome/138.0.0.0 Safari/537.36","WebKit","Chrome","138.0.0.0","Windows","10.0","https://app.prolific.com/","en-US,en;q=0.9","67f133dcba790167d0027963","687a360dabe5252b5ada7185","6889da753b9ff6182f3a59ed","0","67f133dcba790167d0027963","0","2025-07-30T08:56:06.130Z","","","","StressQ","","","","","","","","","","","50","","","","","","","","","","","","","","","","","","","","","","","","","","",""
"3522","","<div style=""width:500px;"">
  <p>What best describes how you currently feel?</p>
  </div>","3","html-slider-response","52","879302","0.0-7.0-4.7","35","1","2025-07-30 08:41:28","36c45c0696341be0efffe67d72a12abb","41.150.224.146","Mozilla/5.0 (Windows NT 10.0; Win64; x64) AppleWebKit/537.36 (KHTML, like Gecko) Chrome/138.0.0.0 Safari/537.36","WebKit","Chrome","138.0.0.0","Windows","10.0","https://app.prolific.com/","en-US,en;q=0.9","67f133dcba790167d0027963","687a360dabe5252b5ada7185","6889da753b9ff6182f3a59ed","0","67f133dcba790167d0027963","0","2025-07-30T08:56:09.654Z","","","","MotivationQ","","","","","","","","","","","50","","","","","","","","","","","","","","","","","","","","","","","","","","",""
"","","","","ctl-task-cpt","53","944499","0.0-7.0-0.8","35","1","2025-07-30 08:41:28","36c45c0696341be0efffe67d72a12abb","41.150.224.146","Mozilla/5.0 (Windows NT 10.0; Win64; x64) AppleWebKit/537.36 (KHTML, like Gecko) Chrome/138.0.0.0 Safari/537.36","WebKit","Chrome","138.0.0.0","Windows","10.0","https://app.prolific.com/","en-US,en;q=0.9","67f133dcba790167d0027963","687a360dabe5252b5ada7185","6889da753b9ff6182f3a59ed","0","67f133dcba790167d0027963","0","2025-07-30T08:57:14.850Z","","","","","","","","","","","","","","","","win-only","2","g1:SE,g2:NW","0.4","9","0","882487.8","15659.7","20664.6","62176.1","1","4","8","6","1","1","-4","14","18","0.10606060606060606","2901.7","3000","475","[""down"",""right""]","{""num_key_presses"":14,""num_perfect"":3,""num_errors"":5,""num_randdir"":6,""num_randdir_good_moves"":4,""num_whilered"":0,""num_whileblue"":5,""num_blue"":5,""num_good_moves"":9}","[298.22232142857143,298.12857142857143,0.5,298.22232142857143,298.12857142857143,109.3,298.22232142857143,298.12857142857143,210.8,298.22232142857143,298.12857142857143,311.3,298.22232142857143,298.12857142857143,412.5,298.22232142857143,298.12857142857143,517.3,298.22232142857143,298.12857142857143,625.7,298.22232142857143,298.12857142857143,726.9,298.22232142857143,298.12857142857143,827.9,285.22232142857143,277.12857142857143,932.8,222.22232142857143,195.12857142857143,1040.8,222.22232142857143,195.12857142857143,1142.7,222.22232142857143,195.12857142857143,1253.7,163.22232142857143,140.12857142857143,1372.9,131.22232142857143,103.12857142857143,1476.5,131.22232142857143,103.12857142857143,1578,131.22232142857143,103.12857142857143,1681,128.22232142857143,100.12857142857143,1783.9,320.22232142857143,291.12857142857143,1885.7,320.22232142857143,291.12857142857143,1990.7,320.22232142857143,291.12857142857143,2091,322.22232142857143,292.12857142857143,2192.7,553.2223214285714,532.1285714285714,2293.3,560.2223214285714,545.1285714285714,2395.2,560.2223214285714,545.1285714285714,2505.7,551.2223214285714,542.1285714285714,2606,539.2223214285714,536.1285714285714,2719.5,539.2223214285714,536.1285714285714,2834.3,539.2223214285714,536.1285714285714,2957.3,539.2223214285714,536.1285714285714,3069.3,539.2223214285714,536.1285714285714,3181.5,539.2223214285714,536.1285714285714,3281.9,539.2223214285714,536.1285714285714,3396.6,539.2223214285714,536.1285714285714,3497.3,539.2223214285714,536.1285714285714,3600.9,539.2223214285714,536.1285714285714,3702.9,539.2223214285714,536.1285714285714,3806.4,539.2223214285714,536.1285714285714,3918.2,539.2223214285714,536.1285714285714,4020.8,539.2223214285714,536.1285714285714,4135,539.2223214285714,536.1285714285714,4236.6,539.2223214285714,536.1285714285714,4336.9,539.2223214285714,536.1285714285714,4440.2,539.2223214285714,536.1285714285714,4554.4,539.2223214285714,536.1285714285714,4674.8,539.2223214285714,536.1285714285714,4775.6,539.2223214285714,536.1285714285714,4883.2,539.2223214285714,536.1285714285714,4985.8]","[1500.1,1500.1,1000,0,500.1,""oops"",""down"",""left"",""bad_move"",4964.7,3464.1,2574.1,1500.6,890,""oops"",""down"",""right"",""good_move"",7419.4,2453.1,2105.2,4966.3,347.9,""while_blue"",""down"",""right"",""good_move"",10205.7,2785.2,2488.9,7420.5,296.3,""oops"",""down"",""up"",""bad_move"",12566,2359.6,1806.2,10206.4,553.4,""oops"",""right"",""right"",""good_move"",15680.2,3112.8,2873.7,12567.4,239.1,""while_blue"",""down"",""left"",""bad_move"",18321.4,2640.4,2290.6,15681.1,349.7,""oops"",""down"",""down"",""good_move"",21113.3,2791.3,2436.5,18322.2,354.7,""smooth"",""down"",""down"",""good_move"",23945.9,2832,2522.1,21114,309.8,""while_blue"",""down"",""up"",""bad_move"",27462.1,3515.1,3089.8,23947,425.3,""smooth"",""down"",""down"",""good_move"",30710.9,3248.5,2520,27462.4,728.5,""while_blue"",""down"",""left"",""bad_move"",34579.6,3868,3181.4,30711.6,686.6,""while_blue"",""down"",""right"",""good_move"",38337.3,3756.6,3354.7,34580.7,401.9,""smooth"",""down"",""down"",""good_move"",41364.5,3026.8,2747.7,38337.8,279.1,""oops"",""right"",""right"",""good_move""]"
"5987","","<div style=""width:500px;"">
  <p>What determined the result of this run?</p>
  </div>","1","html-slider-response","54","950487","0.0-7.0-1.8","35","1","2025-07-30 08:41:28","36c45c0696341be0efffe67d72a12abb","41.150.224.146","Mozilla/5.0 (Windows NT 10.0; Win64; x64) AppleWebKit/537.36 (KHTML, like Gecko) Chrome/138.0.0.0 Safari/537.36","WebKit","Chrome","138.0.0.0","Windows","10.0","https://app.prolific.com/","en-US,en;q=0.9","67f133dcba790167d0027963","687a360dabe5252b5ada7185","6889da753b9ff6182f3a59ed","0","67f133dcba790167d0027963","0","2025-07-30T08:57:20.838Z","","","","AttribQ","","","","","","","","","","","50","","","","","","","","","","","","","","","","","","","","","","","","","","",""
"3410","","<div style=""width:500px;"">
  <p>How much control did you have over the ball?</p>
  </div>","0","html-slider-response","55","953898","0.0-7.0-2.8","35","1","2025-07-30 08:41:28","36c45c0696341be0efffe67d72a12abb","41.150.224.146","Mozilla/5.0 (Windows NT 10.0; Win64; x64) AppleWebKit/537.36 (KHTML, like Gecko) Chrome/138.0.0.0 Safari/537.36","WebKit","Chrome","138.0.0.0","Windows","10.0","https://app.prolific.com/","en-US,en;q=0.9","67f133dcba790167d0027963","687a360dabe5252b5ada7185","6889da753b9ff6182f3a59ed","0","67f133dcba790167d0027963","0","2025-07-30T08:57:24.250Z","","","","ControlQ","","","","","","","","","","","50","","","","","","","","","","","","","","","","","","","","","","","","","","",""
"7718","","<div style=""width:500px;"">
  <p>How would you describe your current emotional state?</p>
  </div>","99","html-slider-response","56","961618","0.0-7.0-3.8","35","1","2025-07-30 08:41:28","36c45c0696341be0efffe67d72a12abb","41.150.224.146","Mozilla/5.0 (Windows NT 10.0; Win64; x64) AppleWebKit/537.36 (KHTML, like Gecko) Chrome/138.0.0.0 Safari/537.36","WebKit","Chrome","138.0.0.0","Windows","10.0","https://app.prolific.com/","en-US,en;q=0.9","67f133dcba790167d0027963","687a360dabe5252b5ada7185","6889da753b9ff6182f3a59ed","0","67f133dcba790167d0027963","0","2025-07-30T08:57:31.969Z","","","","StressQ","","","","","","","","","","","50","","","","","","","","","","","","","","","","","","","","","","","","","","",""
"14936","","<div style=""width:500px;"">
  <p>What best describes how you currently feel?</p>
  </div>","1","html-slider-response","57","976556","0.0-7.0-4.8","35","1","2025-07-30 08:41:28","36c45c0696341be0efffe67d72a12abb","41.150.224.146","Mozilla/5.0 (Windows NT 10.0; Win64; x64) AppleWebKit/537.36 (KHTML, like Gecko) Chrome/138.0.0.0 Safari/537.36","WebKit","Chrome","138.0.0.0","Windows","10.0","https://app.prolific.com/","en-US,en;q=0.9","67f133dcba790167d0027963","687a360dabe5252b5ada7185","6889da753b9ff6182f3a59ed","0","67f133dcba790167d0027963","0","2025-07-30T08:57:46.907Z","","","","MotivationQ","","","","","","","","","","","50","","","","","","","","","","","","","","","","","","","","","","","","","","",""
"","","","","ctl-task-cpt","58","1044813","0.0-7.0-0.9","35","1","2025-07-30 08:41:28","36c45c0696341be0efffe67d72a12abb","41.150.224.146","Mozilla/5.0 (Windows NT 10.0; Win64; x64) AppleWebKit/537.36 (KHTML, like Gecko) Chrome/138.0.0.0 Safari/537.36","WebKit","Chrome","138.0.0.0","Windows","10.0","https://app.prolific.com/","en-US,en;q=0.9","67f133dcba790167d0027963","687a360dabe5252b5ada7185","6889da753b9ff6182f3a59ed","0","67f133dcba790167d0027963","0","2025-07-30T08:58:55.164Z","","","","","","","","","","","","","","","","win-only","3","g1:SW,g2:NE","0.5","10","0","979741.2","19794.4","24798.8","65226.7","1","4","4","6","2","4","2","16","14","0.12121212121212122","1726.5","3000","970","[""up"",""right""]","{""num_key_presses"":12,""num_perfect"":5,""num_errors"":2,""num_randdir"":5,""num_randdir_good_moves"":3,""num_whilered"":0,""num_whileblue"":2,""num_blue"":4,""num_good_moves"":9}","[292.22232142857143,292.12857142857143,0.4,292.22232142857143,292.12857142857143,104.5,292.22232142857143,292.12857142857143,206.2,292.22232142857143,292.12857142857143,322.2,292.22232142857143,292.12857142857143,422.7,292.22232142857143,292.12857142857143,526.5,292.22232142857143,292.12857142857143,641.2,266.22232142857143,328.12857142857143,743.1,211.22232142857143,377.12857142857143,848.7,237.22232142857143,335.12857142857143,968.6,383.22232142857143,170.12857142857143,1072.8,389.22232142857143,163.12857142857143,1188.5,395.22232142857143,156.12857142857143,1297.5,517.2223214285714,77.12857142857143,1409.2,533.2223214285714,66.12857142857143,1532.5,533.2223214285714,66.12857142857143,1658.1,533.2223214285714,66.12857142857143,1761.9,533.2223214285714,66.12857142857143,1872.1,533.2223214285714,66.12857142857143,1977.4,533.2223214285714,66.12857142857143,2079.2,533.2223214285714,66.12857142857143,2180.6,533.2223214285714,66.12857142857143,2281.9,533.2223214285714,66.12857142857143,2387.2,533.2223214285714,66.12857142857143,2491.5,533.2223214285714,66.12857142857143,2592.3,533.2223214285714,66.12857142857143,2706.8,533.2223214285714,66.12857142857143,2809.1,533.2223214285714,66.12857142857143,2911,533.2223214285714,66.12857142857143,3021.9,533.2223214285714,66.12857142857143,3122.1,533.2223214285714,66.12857142857143,3222.1,533.2223214285714,66.12857142857143,3328.8,533.2223214285714,66.12857142857143,3433.1,533.2223214285714,66.12857142857143,3536.1,533.2223214285714,66.12857142857143,3648,533.2223214285714,66.12857142857143,3760.4,533.2223214285714,66.12857142857143,3867.5,533.2223214285714,66.12857142857143,3977.8,533.2223214285714,66.12857142857143,4078.8,533.2223214285714,66.12857142857143,4182,533.2223214285714,66.12857142857143,4300.1,533.2223214285714,66.12857142857143,4400.7,533.2223214285714,66.12857142857143,4501.4,533.2223214285714,66.12857142857143,4616.1,533.2223214285714,66.12857142857143,4719.4,533.2223214285714,66.12857142857143,4822.9,533.2223214285714,66.12857142857143,4928.5]","[1427.2,1427.2,1000,0,427.2,""oops"",""right"",""up"",""good_move"",3942,2513.5,2138.2,1428.5,375.3,""oops"",""up"",""left"",""bad_move"",6887.6,2944.9,2628.6,3942.7,316.3,""smooth"",""right"",""right"",""good_move"",9514.3,2625.9,2372.2,6888.4,253.7,""smooth"",""right"",""right"",""good_move"",12422.1,2907.1,2663,9515,244.1,""smooth"",""right"",""right"",""good_move"",19016.5,6593.9,3019.6,15663.1,333.8,""while_blue"",""up"",""left"",""bad_move"",22163.1,3145.4,2422.5,19017.7,722.9,""while_blue"",""right"",""right"",""good_move"",25002.6,2838.5,2373.9,22164.1,464.6,""smooth"",""up"",""up"",""good_move"",27556.5,2553,2206.3,25003.5,346.7,""oops"",""right"",""up"",""good_move"",30747.8,3190.7,2812.4,27557.1,378.3,""oops"",""right"",""left"",""bad_move"",37740.2,6991.4,3192.9,34203,344.3,""smooth"",""right"",""right"",""good_move"",40285.3,2544.2,2197.8,37741.1,346.4,""oops"",""right"",""right"",""good_move""]"
"5650","","<div style=""width:500px;"">
  <p>What determined the result of this run?</p>
  </div>","68","html-slider-response","59","1050465","0.0-7.0-1.9","35","1","2025-07-30 08:41:28","36c45c0696341be0efffe67d72a12abb","41.150.224.146","Mozilla/5.0 (Windows NT 10.0; Win64; x64) AppleWebKit/537.36 (KHTML, like Gecko) Chrome/138.0.0.0 Safari/537.36","WebKit","Chrome","138.0.0.0","Windows","10.0","https://app.prolific.com/","en-US,en;q=0.9","67f133dcba790167d0027963","687a360dabe5252b5ada7185","6889da753b9ff6182f3a59ed","0","67f133dcba790167d0027963","0","2025-07-30T08:59:00.816Z","","","","AttribQ","","","","","","","","","","","50","","","","","","","","","","","","","","","","","","","","","","","","","","",""
"5033","","<div style=""width:500px;"">
  <p>How much control did you have over the ball?</p>
  </div>","61","html-slider-response","60","1055499","0.0-7.0-2.9","35","1","2025-07-30 08:41:28","36c45c0696341be0efffe67d72a12abb","41.150.224.146","Mozilla/5.0 (Windows NT 10.0; Win64; x64) AppleWebKit/537.36 (KHTML, like Gecko) Chrome/138.0.0.0 Safari/537.36","WebKit","Chrome","138.0.0.0","Windows","10.0","https://app.prolific.com/","en-US,en;q=0.9","67f133dcba790167d0027963","687a360dabe5252b5ada7185","6889da753b9ff6182f3a59ed","0","67f133dcba790167d0027963","0","2025-07-30T08:59:05.850Z","","","","ControlQ","","","","","","","","","","","50","","","","","","","","","","","","","","","","","","","","","","","","","","",""
"5219","","<div style=""width:500px;"">
  <p>How would you describe your current emotional state?</p>
  </div>","66","html-slider-response","61","1060720","0.0-7.0-3.9","35","1","2025-07-30 08:41:28","36c45c0696341be0efffe67d72a12abb","41.150.224.146","Mozilla/5.0 (Windows NT 10.0; Win64; x64) AppleWebKit/537.36 (KHTML, like Gecko) Chrome/138.0.0.0 Safari/537.36","WebKit","Chrome","138.0.0.0","Windows","10.0","https://app.prolific.com/","en-US,en;q=0.9","67f133dcba790167d0027963","687a360dabe5252b5ada7185","6889da753b9ff6182f3a59ed","0","67f133dcba790167d0027963","0","2025-07-30T08:59:11.071Z","","","","StressQ","","","","","","","","","","","50","","","","","","","","","","","","","","","","","","","","","","","","","","",""
"3513","","<div style=""width:500px;"">
  <p>What best describes how you currently feel?</p>
  </div>","73","html-slider-response","62","1064235","0.0-7.0-4.9","35","1","2025-07-30 08:41:28","36c45c0696341be0efffe67d72a12abb","41.150.224.146","Mozilla/5.0 (Windows NT 10.0; Win64; x64) AppleWebKit/537.36 (KHTML, like Gecko) Chrome/138.0.0.0 Safari/537.36","WebKit","Chrome","138.0.0.0","Windows","10.0","https://app.prolific.com/","en-US,en;q=0.9","67f133dcba790167d0027963","687a360dabe5252b5ada7185","6889da753b9ff6182f3a59ed","0","67f133dcba790167d0027963","0","2025-07-30T08:59:14.586Z","","","","MotivationQ","","","","","","","","","","","50","","","","","","","","","","","","","","","","","","","","","","","","","","",""
"","","","","ctl-task-cpt","63","1128705","0.0-7.0-0.10","35","1","2025-07-30 08:41:28","36c45c0696341be0efffe67d72a12abb","41.150.224.146","Mozilla/5.0 (Windows NT 10.0; Win64; x64) AppleWebKit/537.36 (KHTML, like Gecko) Chrome/138.0.0.0 Safari/537.36","WebKit","Chrome","138.0.0.0","Windows","10.0","https://app.prolific.com/","en-US,en;q=0.9","67f133dcba790167d0027963","687a360dabe5252b5ada7185","6889da753b9ff6182f3a59ed","0","67f133dcba790167d0027963","0","2025-07-30T09:00:19.057Z","","","","","","","","","","","","","","","","win-only","0","g1:NW,g2:SE","0.6","11","0","1067420.8","11974.6","16981.3","61446.9","1","4","4","6","1","1","-1","15","16","0.11363636363636363","2527.1","3000","180","[""left"",""up""]","{""num_key_presses"":14,""num_perfect"":7,""num_errors"":2,""num_randdir"":5,""num_randdir_good_moves"":2,""num_whilered"":0,""num_whileblue"":2,""num_blue"":4,""num_good_moves"":9}","[293.22232142857143,293.12857142857143,0.4,293.22232142857143,293.12857142857143,102.2,293.22232142857143,293.12857142857143,208.5,293.22232142857143,293.12857142857143,308.9,293.22232142857143,293.12857142857143,412.9,293.22232142857143,293.12857142857143,514,293.22232142857143,293.12857142857143,618.4,293.22232142857143,293.12857142857143,723.8,295.22232142857143,294.12857142857143,843,401.22232142857143,447.12857142857143,946,497.22232142857143,552.1285714285714,1048,497.22232142857143,552.1285714285714,1148.5,500.22232142857143,554.1285714285714,1277.7,519.2223214285714,565.1285714285714,1383.9,521.2223214285714,564.1285714285714,1489.2,524.2223214285714,556.1285714285714,1595.1,524.2223214285714,555.1285714285714,1707.2,524.2223214285714,555.1285714285714,1809.8,413.22232142857143,417.12857142857143,1911.6,92.22232142857143,89.12857142857143,2025.6,92.22232142857143,89.12857142857143,2130,89.22232142857143,84.12857142857143,2234.9,76.22232142857143,65.12857142857143,2338.4,76.22232142857143,65.12857142857143,2464.9,76.22232142857143,65.12857142857143,2577.3,76.22232142857143,65.12857142857143,2694.2,76.22232142857143,65.12857142857143,2797.5,76.22232142857143,65.12857142857143,2914.7,76.22232142857143,65.12857142857143,3017.2,76.22232142857143,65.12857142857143,3136.5,76.22232142857143,65.12857142857143,3239.5,76.22232142857143,65.12857142857143,3342.8,76.22232142857143,65.12857142857143,3449.4,76.22232142857143,65.12857142857143,3575.9,76.22232142857143,65.12857142857143,3677.3,76.22232142857143,65.12857142857143,3789.4,76.22232142857143,65.12857142857143,3891.6,76.22232142857143,65.12857142857143,3992.5,76.22232142857143,65.12857142857143,4093.1,76.22232142857143,65.12857142857143,4197.5,76.22232142857143,65.12857142857143,4309,76.22232142857143,65.12857142857143,4428.3,76.22232142857143,65.12857142857143,4535.7,76.22232142857143,65.12857142857143,4656.2,76.22232142857143,65.12857142857143,4767.2,76.22232142857143,65.12857142857143,4896.8]","[1365.4,1365.5,1000,0,365.5,""smooth"",""left"",""left"",""good_move"",3903.9,2537.2,2215.7,1366.7,321.5,""oops"",""up"",""right"",""bad_move"",6429.3,2524.5,2117.4,3904.8,407.1,""smooth"",""up"",""up"",""good_move"",9032.4,2602,1840.6,6430.4,761.4,""while_blue"",""left"",""right"",""bad_move"",15053.8,6020.6,2596.8,12081.2,375.8,""smooth"",""up"",""up"",""good_move"",18011.5,2957,2229.3,15054.5,727.7,""while_blue"",""left"",""down"",""bad_move"",21089.2,3077,2379.2,18012.2,697.8,""oops"",""up"",""up"",""good_move"",24022.4,2932.5,2310.5,21089.9,622,""smooth"",""left"",""left"",""good_move"",26562.2,2538.9,2055.6,24023.4,483.2,""smooth"",""left"",""left"",""good_move"",29348.8,2785.9,2348.3,26563,437.5,""oops"",""left"",""down"",""bad_move"",32759.3,3409.5,3017.5,29349.8,392,""smooth"",""left"",""left"",""good_move"",35840.8,3080.8,2576.1,32760,504.7,""oops"",""up"",""right"",""bad_move"",42099.4,6258.1,2617.1,39084.8,397.5,""oops"",""up"",""left"",""good_move"",44299.6,2199.7,1717.1,42100,482.5,""smooth"",""up"",""up"",""good_move""]"
"4575","","<div style=""width:500px;"">
  <p>What determined the result of this run?</p>
  </div>","74","html-slider-response","64","1133282","0.0-7.0-1.10","35","1","2025-07-30 08:41:28","36c45c0696341be0efffe67d72a12abb","41.150.224.146","Mozilla/5.0 (Windows NT 10.0; Win64; x64) AppleWebKit/537.36 (KHTML, like Gecko) Chrome/138.0.0.0 Safari/537.36","WebKit","Chrome","138.0.0.0","Windows","10.0","https://app.prolific.com/","en-US,en;q=0.9","67f133dcba790167d0027963","687a360dabe5252b5ada7185","6889da753b9ff6182f3a59ed","0","67f133dcba790167d0027963","0","2025-07-30T09:00:23.633Z","","","","AttribQ","","","","","","","","","","","50","","","","","","","","","","","","","","","","","","","","","","","","","","",""
"3003","","<div style=""width:500px;"">
  <p>How much control did you have over the ball?</p>
  </div>","69","html-slider-response","65","1136287","0.0-7.0-2.10","35","1","2025-07-30 08:41:28","36c45c0696341be0efffe67d72a12abb","41.150.224.146","Mozilla/5.0 (Windows NT 10.0; Win64; x64) AppleWebKit/537.36 (KHTML, like Gecko) Chrome/138.0.0.0 Safari/537.36","WebKit","Chrome","138.0.0.0","Windows","10.0","https://app.prolific.com/","en-US,en;q=0.9","67f133dcba790167d0027963","687a360dabe5252b5ada7185","6889da753b9ff6182f3a59ed","0","67f133dcba790167d0027963","0","2025-07-30T09:00:26.638Z","","","","ControlQ","","","","","","","","","","","50","","","","","","","","","","","","","","","","","","","","","","","","","","",""
"2200","","<div style=""width:500px;"">
  <p>How would you describe your current emotional state?</p>
  </div>","74","html-slider-response","66","1138489","0.0-7.0-3.10","35","1","2025-07-30 08:41:28","36c45c0696341be0efffe67d72a12abb","41.150.224.146","Mozilla/5.0 (Windows NT 10.0; Win64; x64) AppleWebKit/537.36 (KHTML, like Gecko) Chrome/138.0.0.0 Safari/537.36","WebKit","Chrome","138.0.0.0","Windows","10.0","https://app.prolific.com/","en-US,en;q=0.9","67f133dcba790167d0027963","687a360dabe5252b5ada7185","6889da753b9ff6182f3a59ed","0","67f133dcba790167d0027963","0","2025-07-30T09:00:28.840Z","","","","StressQ","","","","","","","","","","","50","","","","","","","","","","","","","","","","","","","","","","","","","","",""
"3256","","<div style=""width:500px;"">
  <p>What best describes how you currently feel?</p>
  </div>","60","html-slider-response","67","1141746","0.0-7.0-4.10","35","1","2025-07-30 08:41:28","36c45c0696341be0efffe67d72a12abb","41.150.224.146","Mozilla/5.0 (Windows NT 10.0; Win64; x64) AppleWebKit/537.36 (KHTML, like Gecko) Chrome/138.0.0.0 Safari/537.36","WebKit","Chrome","138.0.0.0","Windows","10.0","https://app.prolific.com/","en-US,en;q=0.9","67f133dcba790167d0027963","687a360dabe5252b5ada7185","6889da753b9ff6182f3a59ed","0","67f133dcba790167d0027963","0","2025-07-30T09:00:32.098Z","","","","MotivationQ","","","","","","","","","","","50","","","","","","","","","","","","","","","","","","","","","","","","","","",""
"","","","","ctl-task-cpt","68","1174777","0.0-7.0-0.11","35","1","2025-07-30 08:41:28","36c45c0696341be0efffe67d72a12abb","41.150.224.146","Mozilla/5.0 (Windows NT 10.0; Win64; x64) AppleWebKit/537.36 (KHTML, like Gecko) Chrome/138.0.0.0 Safari/537.36","WebKit","Chrome","138.0.0.0","Windows","10.0","https://app.prolific.com/","en-US,en;q=0.9","67f133dcba790167d0027963","687a360dabe5252b5ada7185","6889da753b9ff6182f3a59ed","0","67f133dcba790167d0027963","0","2025-07-30T09:01:05.128Z","","","","","","","","","","","","","","","","win-only","2","g1:SE,g2:NW","0.7","12","0","1144932.2","15681.7","20688.3","30012.5","1","4","8","6","1","1","0","15","15","0.11363636363636363","1574.3","3000","2445","[""down"",""right""]","{""num_key_presses"":4,""num_perfect"":3,""num_errors"":1,""num_randdir"":0,""num_randdir_good_moves"":0,""num_whilered"":0,""num_whileblue"":1,""num_blue"":1,""num_good_moves"":4}","[297.22232142857143,296.12857142857143,2.2,297.22232142857143,296.12857142857143,100.4,297.22232142857143,296.12857142857143,219.8,297.22232142857143,296.12857142857143,321.7,297.22232142857143,296.12857142857143,425.3,297.22232142857143,296.12857142857143,530.7,306.22232142857143,305.12857142857143,659.7,374.22232142857143,353.12857142857143,762.3,405.22232142857143,385.12857142857143,866.4,405.22232142857143,385.12857142857143,970,405.22232142857143,385.12857142857143,1086.9,534.2223214285714,540.1285714285714,1190.4,564.2223214285714,580.1285714285714,1313.4,564.2223214285714,580.1285714285714,1416.4,564.2223214285714,580.1285714285714,1553.6,564.2223214285714,580.1285714285714,1670.2,564.2223214285714,580.1285714285714,1771.9,564.2223214285714,580.1285714285714,1874.4,564.2223214285714,580.1285714285714,1977.2,564.2223214285714,580.1285714285714,2079.5,564.2223214285714,580.1285714285714,2183,564.2223214285714,580.1285714285714,2285.9,564.2223214285714,580.1285714285714,2388.1,564.2223214285714,580.1285714285714,2503.8,564.2223214285714,580.1285714285714,2621,564.2223214285714,580.1285714285714,2732.6,564.2223214285714,580.1285714285714,2865.9,564.2223214285714,580.1285714285714,2965.9,564.2223214285714,580.1285714285714,3085.8,564.2223214285714,580.1285714285714,3206.5,564.2223214285714,580.1285714285714,3328.8,564.2223214285714,580.1285714285714,3437.1,564.2223214285714,580.1285714285714,3545.3,564.2223214285714,580.1285714285714,3647.6,564.2223214285714,580.1285714285714,3748.5,564.2223214285714,580.1285714285714,3852.7,564.2223214285714,580.1285714285714,3956.5,564.2223214285714,580.1285714285714,4057.1,564.2223214285714,580.1285714285714,4162.1,564.2223214285714,580.1285714285714,4264,564.2223214285714,580.1285714285714,4367.9,564.2223214285714,580.1285714285714,4491.3,564.2223214285714,580.1285714285714,4592.4,564.2223214285714,580.1285714285714,4699.4,564.2223214285714,580.1285714285714,4806.6,564.2223214285714,580.1285714285714,4925.6]","[1418.8,1418.8,1000,0,418.8,""smooth"",""down"",""down"",""good_move"",4180.9,2761.2,2392.2,1419.8,369,""smooth"",""down"",""down"",""good_move"",6678.7,2497.1,2109.4,4181.6,387.7,""smooth"",""right"",""right"",""good_move"",9108.2,2428.5,2091.2,6679.7,337.3,""while_blue"",""right"",""right"",""good_move""]"
"4101","","<div style=""width:500px;"">
  <p>What determined the result of this run?</p>
  </div>","100","html-slider-response","69","1178882","0.0-7.0-1.11","35","1","2025-07-30 08:41:28","36c45c0696341be0efffe67d72a12abb","41.150.224.146","Mozilla/5.0 (Windows NT 10.0; Win64; x64) AppleWebKit/537.36 (KHTML, like Gecko) Chrome/138.0.0.0 Safari/537.36","WebKit","Chrome","138.0.0.0","Windows","10.0","https://app.prolific.com/","en-US,en;q=0.9","67f133dcba790167d0027963","687a360dabe5252b5ada7185","6889da753b9ff6182f3a59ed","0","67f133dcba790167d0027963","0","2025-07-30T09:01:09.233Z","","","","AttribQ","","","","","","","","","","","50","","","","","","","","","","","","","","","","","","","","","","","","","","",""
"2344","","<div style=""width:500px;"">
  <p>How much control did you have over the ball?</p>
  </div>","98","html-slider-response","70","1181228","0.0-7.0-2.11","35","1","2025-07-30 08:41:28","36c45c0696341be0efffe67d72a12abb","41.150.224.146","Mozilla/5.0 (Windows NT 10.0; Win64; x64) AppleWebKit/537.36 (KHTML, like Gecko) Chrome/138.0.0.0 Safari/537.36","WebKit","Chrome","138.0.0.0","Windows","10.0","https://app.prolific.com/","en-US,en;q=0.9","67f133dcba790167d0027963","687a360dabe5252b5ada7185","6889da753b9ff6182f3a59ed","0","67f133dcba790167d0027963","0","2025-07-30T09:01:11.579Z","","","","ControlQ","","","","","","","","","","","50","","","","","","","","","","","","","","","","","","","","","","","","","","",""
"3978","","<div style=""width:500px;"">
  <p>How would you describe your current emotional state?</p>
  </div>","100","html-slider-response","71","1185208","0.0-7.0-3.11","35","1","2025-07-30 08:41:28","36c45c0696341be0efffe67d72a12abb","41.150.224.146","Mozilla/5.0 (Windows NT 10.0; Win64; x64) AppleWebKit/537.36 (KHTML, like Gecko) Chrome/138.0.0.0 Safari/537.36","WebKit","Chrome","138.0.0.0","Windows","10.0","https://app.prolific.com/","en-US,en;q=0.9","67f133dcba790167d0027963","687a360dabe5252b5ada7185","6889da753b9ff6182f3a59ed","0","67f133dcba790167d0027963","0","2025-07-30T09:01:15.559Z","","","","StressQ","","","","","","","","","","","50","","","","","","","","","","","","","","","","","","","","","","","","","","",""
"2562","","<div style=""width:500px;"">
  <p>What best describes how you currently feel?</p>
  </div>","79","html-slider-response","72","1187774","0.0-7.0-4.11","35","1","2025-07-30 08:41:28","36c45c0696341be0efffe67d72a12abb","41.150.224.146","Mozilla/5.0 (Windows NT 10.0; Win64; x64) AppleWebKit/537.36 (KHTML, like Gecko) Chrome/138.0.0.0 Safari/537.36","WebKit","Chrome","138.0.0.0","Windows","10.0","https://app.prolific.com/","en-US,en;q=0.9","67f133dcba790167d0027963","687a360dabe5252b5ada7185","6889da753b9ff6182f3a59ed","0","67f133dcba790167d0027963","0","2025-07-30T09:01:18.125Z","","","","MotivationQ","","","","","","","","","","","50","","","","","","","","","","","","","","","","","","","","","","","","","","",""
"","","","","ctl-task-cpt","73","1214426","0.0-7.0-0.12","35","1","2025-07-30 08:41:28","36c45c0696341be0efffe67d72a12abb","41.150.224.146","Mozilla/5.0 (Windows NT 10.0; Win64; x64) AppleWebKit/537.36 (KHTML, like Gecko) Chrome/138.0.0.0 Safari/537.36","WebKit","Chrome","138.0.0.0","Windows","10.0","https://app.prolific.com/","en-US,en;q=0.9","67f133dcba790167d0027963","687a360dabe5252b5ada7185","6889da753b9ff6182f3a59ed","0","67f133dcba790167d0027963","0","2025-07-30T09:01:44.777Z","","","","","","","","","","","","","","","","win-only","0","g1:NW,g2:SE","0.8","13","0","1190960.6","2972.1","7973.1","23612.9","1","4","8","6","2","8","7","22","15","0.16666666666666666","1595.8","3000","2560","[""down"",""right""]","{""num_key_presses"":6,""num_perfect"":4,""num_errors"":1,""num_randdir"":1,""num_randdir_good_moves"":1,""num_whilered"":0,""num_whileblue"":1,""num_blue"":1,""num_good_moves"":6}","[296.22232142857143,298.12857142857143,0.6,296.22232142857143,298.12857142857143,125.8,296.22232142857143,298.12857142857143,234.9,296.22232142857143,298.12857142857143,344.7,296.22232142857143,298.12857142857143,453.3,296.22232142857143,298.12857142857143,559.5,296.22232142857143,298.12857142857143,669.1,296.22232142857143,298.12857142857143,769.7,305.22232142857143,307.12857142857143,882.3,575.2223214285714,543.1285714285714,1011.9,602.2223214285714,571.1285714285714,1133,602.2223214285714,571.1285714285714,1244.8,563.2223214285714,559.1285714285714,1366.4,562.2223214285714,558.1285714285714,1478.3,562.2223214285714,558.1285714285714,1620.1,562.2223214285714,558.1285714285714,1732.7,562.2223214285714,558.1285714285714,1847.5,562.2223214285714,558.1285714285714,1956.9,562.2223214285714,558.1285714285714,2059.7,562.2223214285714,558.1285714285714,2174.6,562.2223214285714,558.1285714285714,2282.9,562.2223214285714,558.1285714285714,2388.2,562.2223214285714,558.1285714285714,2495.7,562.2223214285714,558.1285714285714,2602.6,562.2223214285714,558.1285714285714,2707.7,562.2223214285714,558.1285714285714,2811.4,562.2223214285714,558.1285714285714,2915.5,562.2223214285714,558.1285714285714,3024.8,562.2223214285714,558.1285714285714,3133.4,562.2223214285714,558.1285714285714,3241.5,562.2223214285714,558.1285714285714,3349.2,562.2223214285714,558.1285714285714,3449.4,562.2223214285714,558.1285714285714,3558.9,562.2223214285714,558.1285714285714,3663.7,562.2223214285714,558.1285714285714,3767.9,562.2223214285714,558.1285714285714,3872.5,562.2223214285714,558.1285714285714,3981.8,562.2223214285714,558.1285714285714,4089,562.2223214285714,558.1285714285714,4200.9,562.2223214285714,558.1285714285714,4307.2,562.2223214285714,558.1285714285714,4414.9,562.2223214285714,558.1285714285714,4521,562.2223214285714,558.1285714285714,4628.3,562.2223214285714,558.1285714285714,4733.7,562.2223214285714,558.1285714285714,4840.7,562.2223214285714,558.1285714285714,4948.6]","[1389.1,1389.1,1000,0,389.1,""smooth"",""down"",""down"",""good_move"",3575.8,2186,1746.6,1389.8,439.4,""smooth"",""down"",""down"",""good_move"",6540.5,2964.4,2586.4,3576.2,377.9,""while_blue"",""down"",""right"",""good_move"",9172.7,2631.7,1977.6,6541,654.1,""smooth"",""down"",""down"",""good_move"",11545.3,2372.4,1686.7,9172.9,685.7,""oops"",""right"",""right"",""good_move"",15091.5,3545.9,3131.5,11545.6,414.4,""smooth"",""right"",""right"",""good_move""]"
"4066","","<div style=""width:500px;"">
  <p>What determined the result of this run?</p>
  </div>","100","html-slider-response","74","1218495","0.0-7.0-1.12","35","1","2025-07-30 08:41:28","36c45c0696341be0efffe67d72a12abb","41.150.224.146","Mozilla/5.0 (Windows NT 10.0; Win64; x64) AppleWebKit/537.36 (KHTML, like Gecko) Chrome/138.0.0.0 Safari/537.36","WebKit","Chrome","138.0.0.0","Windows","10.0","https://app.prolific.com/","en-US,en;q=0.9","67f133dcba790167d0027963","687a360dabe5252b5ada7185","6889da753b9ff6182f3a59ed","0","67f133dcba790167d0027963","0","2025-07-30T09:01:48.846Z","","","","AttribQ","","","","","","","","","","","50","","","","","","","","","","","","","","","","","","","","","","","","","","",""
"4373","","<div style=""width:500px;"">
  <p>How much control did you have over the ball?</p>
  </div>","71","html-slider-response","75","1222871","0.0-7.0-2.12","35","1","2025-07-30 08:41:28","36c45c0696341be0efffe67d72a12abb","41.150.224.146","Mozilla/5.0 (Windows NT 10.0; Win64; x64) AppleWebKit/537.36 (KHTML, like Gecko) Chrome/138.0.0.0 Safari/537.36","WebKit","Chrome","138.0.0.0","Windows","10.0","https://app.prolific.com/","en-US,en;q=0.9","67f133dcba790167d0027963","687a360dabe5252b5ada7185","6889da753b9ff6182f3a59ed","0","67f133dcba790167d0027963","0","2025-07-30T09:01:53.222Z","","","","ControlQ","","","","","","","","","","","50","","","","","","","","","","","","","","","","","","","","","","","","","","",""
"3489","","<div style=""width:500px;"">
  <p>How would you describe your current emotional state?</p>
  </div>","30","html-slider-response","76","1226363","0.0-7.0-3.12","35","1","2025-07-30 08:41:28","36c45c0696341be0efffe67d72a12abb","41.150.224.146","Mozilla/5.0 (Windows NT 10.0; Win64; x64) AppleWebKit/537.36 (KHTML, like Gecko) Chrome/138.0.0.0 Safari/537.36","WebKit","Chrome","138.0.0.0","Windows","10.0","https://app.prolific.com/","en-US,en;q=0.9","67f133dcba790167d0027963","687a360dabe5252b5ada7185","6889da753b9ff6182f3a59ed","0","67f133dcba790167d0027963","0","2025-07-30T09:01:56.715Z","","","","StressQ","","","","","","","","","","","50","","","","","","","","","","","","","","","","","","","","","","","","","","",""
"2595","","<div style=""width:500px;"">
  <p>What best describes how you currently feel?</p>
  </div>","84","html-slider-response","77","1228962","0.0-7.0-4.12","35","1","2025-07-30 08:41:28","36c45c0696341be0efffe67d72a12abb","41.150.224.146","Mozilla/5.0 (Windows NT 10.0; Win64; x64) AppleWebKit/537.36 (KHTML, like Gecko) Chrome/138.0.0.0 Safari/537.36","WebKit","Chrome","138.0.0.0","Windows","10.0","https://app.prolific.com/","en-US,en;q=0.9","67f133dcba790167d0027963","687a360dabe5252b5ada7185","6889da753b9ff6182f3a59ed","0","67f133dcba790167d0027963","0","2025-07-30T09:01:59.314Z","","","","MotivationQ","","","","","","","","","","","50","","","","","","","","","","","","","","","","","","","","","","","","","","",""
