"rt","response_timestamp","stimulus","response","trial_type","trial_index","time_elapsed","internal_node_id","run_id","condition","recorded_at","source_code_version","ip","user_agent","device","browser","browser_version","platform","platform_version","referer","accept_language","PROLIFIC_PID","STUDY_ID","SESSION_ID","BATCH","prolific_id","batch","realtime","success","question_order","question_id","eventType","responses","item_order","radio_event_ids","radio_event_times","key_event_times","mouse_event_times","straightlining","zigzagging","honeypot","view_history","slider_start","which_type","canvas_config","goals_layout","control_level","trial_number","tutorial_trial_number","trial_start_time","phase1_start_time","phase2_start_time","phase3_start_time","goal_1_value","goal_1_distance","goal_2_value","goal_2_distance","goal_selected","outcome","outcome_total","participant_final_score","participant_initial_score","participant_final_score_prop","goal_choice_rt","allocated_time","allocated_time_remaining","goal_direction","counts","mouse_movements","key_presses"
"37432","1754470459581","<p style='font-size:40px;line-height:1.25'><strong>Welcome to the experiment!</strong></p><p style='font-size:1.1em;line-height:1.25'>Thank you for participanting in our experiment again! You will be asked to play the Dysfunctional Ball Game again. We will briefly recap the rules before we start.</p><p style='font-size:1.1em;line-height:1.25'>Press <strong>Next</strong> to continue.</p>","0","custom-html-button-response","0","37436","0.0-0.0","123","1","2025-08-06 08:49:52","36c45c0696341be0efffe67d72a12abb","41.150.35.66","Mozilla/5.0 (Windows NT 10.0; Win64; x64) AppleWebKit/537.36 (KHTML, like Gecko) Chrome/138.0.0.0 Safari/537.36","WebKit","Chrome","138.0.0.0","Windows","10.0","https://app.prolific.com/","en-ZA,en-GB;q=0.9,en-US;q=0.8,en;q=0.7","67f14975a8c12321ab2d0e61","6877649eabb845cf142cd221","689316ebdaebc50ec5fbb5fc","1","67f14975a8c12321ab2d0e61","1","2025-08-06T08:54:19.582Z","","","","","","","","","","","","","","","","","","","","","","","","","","","","","","","","","","","","","","","","","",""
"2927","","","","fullscreen","1","41382","0.0-1.0","123","1","2025-08-06 08:49:52","36c45c0696341be0efffe67d72a12abb","41.150.35.66","Mozilla/5.0 (Windows NT 10.0; Win64; x64) AppleWebKit/537.36 (KHTML, like Gecko) Chrome/138.0.0.0 Safari/537.36","WebKit","Chrome","138.0.0.0","Windows","10.0","https://app.prolific.com/","en-ZA,en-GB;q=0.9,en-US;q=0.8,en;q=0.7","67f14975a8c12321ab2d0e61","6877649eabb845cf142cd221","689316ebdaebc50ec5fbb5fc","1","67f14975a8c12321ab2d0e61","1","","true","","","","","","","","","","","","","","","","","","","","","","","","","","","","","","","","","","","","","","","","",""
"15268","1754470478797"," <p style='font-size:1.1em;line-height:1.25'>Thank you for closing all other tabs.</p><p style='font-size:1.1em;line-height:1.25'>We will now invite you to fill in some questionnaires, before starting the game.<br>This will take about 5 minutes.<br></p><p style='font-size:1.1em;line-height:1.25'>Press the <strong>Next</strong> button to continue.</p>","0","custom-html-button-response","2","56652","0.0-2.0","123","1","2025-08-06 08:49:52","36c45c0696341be0efffe67d72a12abb","41.150.35.66","Mozilla/5.0 (Windows NT 10.0; Win64; x64) AppleWebKit/537.36 (KHTML, like Gecko) Chrome/138.0.0.0 Safari/537.36","WebKit","Chrome","138.0.0.0","Windows","10.0","https://app.prolific.com/","en-ZA,en-GB;q=0.9,en-US;q=0.8,en;q=0.7","67f14975a8c12321ab2d0e61","6877649eabb845cf142cd221","689316ebdaebc50ec5fbb5fc","1","67f14975a8c12321ab2d0e61","1","2025-08-06T08:54:38.798Z","","","","","","","","","","","","","","","","","","","","","","","","","","","","","","","","","","","","","","","","","",""
"9833","","","{""assigned_sex"":""female""}","survey-multi-choice","3","66491","0.0-3.0-0.0","123","1","2025-08-06 08:49:52","36c45c0696341be0efffe67d72a12abb","41.150.35.66","Mozilla/5.0 (Windows NT 10.0; Win64; x64) AppleWebKit/537.36 (KHTML, like Gecko) Chrome/138.0.0.0 Safari/537.36","WebKit","Chrome","138.0.0.0","Windows","10.0","https://app.prolific.com/","en-ZA,en-GB;q=0.9,en-US;q=0.8,en;q=0.7","67f14975a8c12321ab2d0e61","6877649eabb845cf142cd221","689316ebdaebc50ec5fbb5fc","1","67f14975a8c12321ab2d0e61","1","","","[0]","0","demographics","","","","","","","","","","","","","","","","","","","","","","","","","","","","","","","","","","","","","",""
"16325","1754470504963","<p style='font-size:1.1em;line-height:1.25'>In the following, we will perform a baseline assessment. This means that we will ask you a few questions relating to your experiences over the past month.<br></p><p style='font-size:1.1em;line-height:1.25'>Press the <strong>Next</strong> button to continue.</p>","0","custom-html-button-response","4","82818","0.0-4.0-0.0","123","1","2025-08-06 08:49:52","36c45c0696341be0efffe67d72a12abb","41.150.35.66","Mozilla/5.0 (Windows NT 10.0; Win64; x64) AppleWebKit/537.36 (KHTML, like Gecko) Chrome/138.0.0.0 Safari/537.36","WebKit","Chrome","138.0.0.0","Windows","10.0","https://app.prolific.com/","en-ZA,en-GB;q=0.9,en-US;q=0.8,en;q=0.7","67f14975a8c12321ab2d0e61","6877649eabb845cf142cd221","689316ebdaebc50ec5fbb5fc","1","67f14975a8c12321ab2d0e61","1","2025-08-06T08:55:04.964Z","","","","","","","","","","","","","","","","","","","","","","","","","","","","","","","","","","","","","","","","","",""
"125881.5","","","","survey-template","5","208722","0.0-4.0-1.0","123","1","2025-08-06 08:49:52","36c45c0696341be0efffe67d72a12abb","41.150.35.66","Mozilla/5.0 (Windows NT 10.0; Win64; x64) AppleWebKit/537.36 (KHTML, like Gecko) Chrome/138.0.0.0 Safari/537.36","WebKit","Chrome","138.0.0.0","Windows","10.0","https://app.prolific.com/","en-ZA,en-GB;q=0.9,en-US;q=0.8,en;q=0.7","67f14975a8c12321ab2d0e61","6877649eabb845cf142cd221","689316ebdaebc50ec5fbb5fc","1","67f14975a8c12321ab2d0e61","1","2025-08-06T08:57:10.868Z","","","","pss","{""Q01"":""3"",""Q02"":""2"",""Q03"":""2"",""Q04"":""0"",""Q05"":""1"",""Q06"":""2"",""Q07"":""1"",""Q08"":""1"",""Q09"":""2"",""Q10"":""3""}","[0,1,2,3,4,5,6,7,8,9]","[""Q01"",""Q02"",""Q03"",""Q04"",""Q05"",""Q06"",""Q07"",""Q08"",""Q08"",""Q09"",""Q10""]","[11913.899999856949,22041.5,29561.099999904633,42279.700000047684,58941.299999952316,73040.29999995232,83040.89999985695,97147,98740.5,112793.39999985695,124655.79999995232]","[]","[0.20000004768371582,10913.700000047684,11913.899999856949,21051.099999904633,22041.5,29561.099999904633,42279.700000047684,57482.799999952316,58941.299999952316,73040.29999995232,83040.89999985695,97147,98740.5,111129.20000004768,112793.39999985695,123431.20000004768,124655.79999995232,125878]","0.5","0.6666666666666666","0","","","","","","","","","","","","","","","","","","","","","","","","","","","","",""
"11656","1754470642542","<p style='font-size:1.1em;line-height:1.25'>Thank you for your answers! Now we will ask you a few more questions relating to your feelings in the last 24 hours.<br></p><p style='font-size:1.1em;line-height:1.25'>Press the <strong>Next</strong> button to continue.</p>","0","custom-html-button-response","6","220397","0.0-4.0-2.0","123","1","2025-08-06 08:49:52","36c45c0696341be0efffe67d72a12abb","41.150.35.66","Mozilla/5.0 (Windows NT 10.0; Win64; x64) AppleWebKit/537.36 (KHTML, like Gecko) Chrome/138.0.0.0 Safari/537.36","WebKit","Chrome","138.0.0.0","Windows","10.0","https://app.prolific.com/","en-ZA,en-GB;q=0.9,en-US;q=0.8,en;q=0.7","67f14975a8c12321ab2d0e61","6877649eabb845cf142cd221","689316ebdaebc50ec5fbb5fc","1","67f14975a8c12321ab2d0e61","1","2025-08-06T08:57:22.543Z","","","","","","","","","","","","","","","","","","","","","","","","","","","","","","","","","","","","","","","","","",""
"99078.90000009537","","","","survey-template","7","319484","0.0-4.0-3.0","123","1","2025-08-06 08:49:52","36c45c0696341be0efffe67d72a12abb","41.150.35.66","Mozilla/5.0 (Windows NT 10.0; Win64; x64) AppleWebKit/537.36 (KHTML, like Gecko) Chrome/138.0.0.0 Safari/537.36","WebKit","Chrome","138.0.0.0","Windows","10.0","https://app.prolific.com/","en-ZA,en-GB;q=0.9,en-US;q=0.8,en;q=0.7","67f14975a8c12321ab2d0e61","6877649eabb845cf142cd221","689316ebdaebc50ec5fbb5fc","1","67f14975a8c12321ab2d0e61","1","2025-08-06T08:59:01.630Z","","","","drsp","{""Q01"":""1"",""Q02"":""0"",""Q03"":""0"",""Q04"":""0"",""Q05"":""3"",""Q06"":""4"",""Q07"":""3"",""Q08"":""3"",""Q09"":""4"",""Q10"":""2"",""Q11"":""1"",""Q12"":""0"",""Q13"":""5"",""Q14"":""2"",""Q15"":""1"",""Q16"":""1"",""Q17"":""0"",""Q18"":""0"",""Q19"":""0"",""Q20"":""1"",""Q21"":""2"",""Q22"":""2""}","[0,1,2,3,4,5,6,7,8,9,10,11,12,13,14,15,16,17,18,19,20,21]","[""Q01"",""Q02"",""Q03"",""Q04"",""Q05"",""Q06"",""Q07"",""Q08"",""Q09"",""Q10"",""Q11"",""Q12"",""Q13"",""Q14"",""Q15"",""Q16"",""Q17"",""Q18"",""Q19"",""Q20"",""Q21"",""Q22""]","[3058.2000000476837,7387.200000047684,8903,12729.5,15158.299999952316,19330,25425.799999952316,29191,32879.90000009537,36865.5,39978.299999952316,43176.60000014305,45673.90000009537,57309.90000009537,61362.799999952316,63995.299999952316,65956.29999995232,68574.70000004768,71438.20000004768,75180.70000004768,78193.79999995232,83623]","[]","[0,3058.2000000476837,4259.100000143051,6304.200000047684,7387.200000047684,8903,12729.5,15158.299999952316,19330,25425.799999952316,29191,32879.90000009537,35597.799999952316,36865.5,39978.299999952316,43176.60000014305,45673.90000009537,57309.90000009537,61362.799999952316,63995.299999952316,65956.29999995232,68574.70000004768,71438.20000004768,75180.70000004768,78193.79999995232,83623,99073.5]","0.3181818181818182","0.5238095238095238","0","","","","","","","","","","","","","","","","","","","","","","","","","","","","",""
"15368.900000095367","","","","survey-template","8","334857","0.0-4.0-4.0","123","1","2025-08-06 08:49:52","36c45c0696341be0efffe67d72a12abb","41.150.35.66","Mozilla/5.0 (Windows NT 10.0; Win64; x64) AppleWebKit/537.36 (KHTML, like Gecko) Chrome/138.0.0.0 Safari/537.36","WebKit","Chrome","138.0.0.0","Windows","10.0","https://app.prolific.com/","en-ZA,en-GB;q=0.9,en-US;q=0.8,en;q=0.7","67f14975a8c12321ab2d0e61","6877649eabb845cf142cd221","689316ebdaebc50ec5fbb5fc","1","67f14975a8c12321ab2d0e61","1","2025-08-06T08:59:17.003Z","","","","stress","{""Q01"":""1"",""Q02"":""0"",""Q03"":""0""}","[0,1,2]","[""Q01"",""Q02"",""Q03""]","[5824.400000095367,8732.100000143051,14150.5]","[]","[4107.100000143051,5824.400000095367,8732.100000143051,14150.5,15368.100000143051]","0.3333333333333333","0.5","0","","","","","","","","","","","","","","","","","","","","","","","","","","","","",""
"52843","","","","instructions","9","387701","0.0-5.0-0.0","123","1","2025-08-06 08:49:52","36c45c0696341be0efffe67d72a12abb","41.150.35.66","Mozilla/5.0 (Windows NT 10.0; Win64; x64) AppleWebKit/537.36 (KHTML, like Gecko) Chrome/138.0.0.0 Safari/537.36","WebKit","Chrome","138.0.0.0","Windows","10.0","https://app.prolific.com/","en-ZA,en-GB;q=0.9,en-US;q=0.8,en;q=0.7","67f14975a8c12321ab2d0e61","6877649eabb845cf142cd221","689316ebdaebc50ec5fbb5fc","1","67f14975a8c12321ab2d0e61","1","","","","","","","","","","","","","","","[{""page_index"":0,""viewing_time"":52842}]","","","","","","","","","","","","","","","","","","","","","","","","","","","",""
"4596","","<p>Before you start with this game please answer the following three questions yourself. </p>
  <p>Through this game, we measure several aspects of your cognitive performance, such as reaction times, multi-tasking capabilities </p>
  <p>and the ability to assess the situation you are in.</p>
  <p></p>
  <p><b>How good do you usually are in such tasks?</b></p>","91","html-slider-response","10","392317","0.0-6.0-0.0","123","1","2025-08-06 08:49:52","36c45c0696341be0efffe67d72a12abb","41.150.35.66","Mozilla/5.0 (Windows NT 10.0; Win64; x64) AppleWebKit/537.36 (KHTML, like Gecko) Chrome/138.0.0.0 Safari/537.36","WebKit","Chrome","138.0.0.0","Windows","10.0","https://app.prolific.com/","en-ZA,en-GB;q=0.9,en-US;q=0.8,en;q=0.7","67f14975a8c12321ab2d0e61","6877649eabb845cf142cd221","689316ebdaebc50ec5fbb5fc","1","67f14975a8c12321ab2d0e61","1","2025-08-06T09:00:14.463Z","","","","PreSkillQ","","","","","","","","","","","50","","","","","","","","","","","","","","","","","","","","","","","","","","",""
"3680","","<div style=""width:500px;"">
  <p>How well do you think you will perform in this task compared to other participants?</p>
  </div>","84","html-slider-response","11","395998","0.0-6.0-1.0","123","1","2025-08-06 08:49:52","36c45c0696341be0efffe67d72a12abb","41.150.35.66","Mozilla/5.0 (Windows NT 10.0; Win64; x64) AppleWebKit/537.36 (KHTML, like Gecko) Chrome/138.0.0.0 Safari/537.36","WebKit","Chrome","138.0.0.0","Windows","10.0","https://app.prolific.com/","en-ZA,en-GB;q=0.9,en-US;q=0.8,en;q=0.7","67f14975a8c12321ab2d0e61","6877649eabb845cf142cd221","689316ebdaebc50ec5fbb5fc","1","67f14975a8c12321ab2d0e61","1","2025-08-06T09:00:18.144Z","","","","PrePerfQ","","","","","","","","","","","50","","","","","","","","","","","","","","","","","","","","","","","","","","",""
"4436","","<div style=""width:500px;"">
  <p>What best describes how you currently feel?</p>
  </div>","100","html-slider-response","12","400435","0.0-6.0-2.0","123","1","2025-08-06 08:49:52","36c45c0696341be0efffe67d72a12abb","41.150.35.66","Mozilla/5.0 (Windows NT 10.0; Win64; x64) AppleWebKit/537.36 (KHTML, like Gecko) Chrome/138.0.0.0 Safari/537.36","WebKit","Chrome","138.0.0.0","Windows","10.0","https://app.prolific.com/","en-ZA,en-GB;q=0.9,en-US;q=0.8,en;q=0.7","67f14975a8c12321ab2d0e61","6877649eabb845cf142cd221","689316ebdaebc50ec5fbb5fc","1","67f14975a8c12321ab2d0e61","1","2025-08-06T09:00:22.581Z","","","","PreMotivationQ","","","","","","","","","","","50","","","","","","","","","","","","","","","","","","","","","","","","","","",""
"","","","","ctl-task-cpt","13","450089","0.0-7.0-0.0","123","1","2025-08-06 08:49:52","36c45c0696341be0efffe67d72a12abb","41.150.35.66","Mozilla/5.0 (Windows NT 10.0; Win64; x64) AppleWebKit/537.36 (KHTML, like Gecko) Chrome/138.0.0.0 Safari/537.36","WebKit","Chrome","138.0.0.0","Windows","10.0","https://app.prolific.com/","en-ZA,en-GB;q=0.9,en-US;q=0.8,en;q=0.7","67f14975a8c12321ab2d0e61","6877649eabb845cf142cd221","689316ebdaebc50ec5fbb5fc","1","67f14975a8c12321ab2d0e61","1","2025-08-06T09:01:12.236Z","","","","","","","","","","","","","","","","win-only","1","g1:NE,g2:SW","1","1","0","409572.4","1402.5","6410.3","46617.7","1","4","4","6","2","4","4","4","0","0.030303030303030304","1036.1","3000","1205","[""down"",""left""]","{""num_key_presses"":6,""num_perfect"":6,""num_errors"":0,""num_randdir"":0,""num_randdir_good_moves"":0,""num_whilered"":0,""num_whileblue"":0,""num_blue"":7,""num_good_moves"":6}","[291.22232142857143,295.12857142857143,0.3,291.22232142857143,295.12857142857143,106.5,291.22232142857143,295.12857142857143,212.6,291.22232142857143,295.12857142857143,314,275.22232142857143,308.12857142857143,419.6,175.22232142857143,379.12857142857143,527.6,107.22232142857143,477.12857142857143,639,85.22232142857143,541.1285714285714,739.7,83.22232142857143,543.1285714285714,843.8,83.22232142857143,543.1285714285714,948.7,83.22232142857143,543.1285714285714,1049.5,83.22232142857143,543.1285714285714,1155.7,83.22232142857143,543.1285714285714,1259.2,83.22232142857143,543.1285714285714,1362.6,83.22232142857143,543.1285714285714,1467.6,83.22232142857143,543.1285714285714,1571.9,83.22232142857143,543.1285714285714,1672.1,83.22232142857143,543.1285714285714,1777.3,83.22232142857143,543.1285714285714,1880.9,83.22232142857143,543.1285714285714,1983.1,83.22232142857143,543.1285714285714,2087.3,83.22232142857143,543.1285714285714,2188.5,83.22232142857143,543.1285714285714,2295.1,83.22232142857143,543.1285714285714,2399.3,83.22232142857143,543.1285714285714,2508.7,83.22232142857143,543.1285714285714,2612.1,83.22232142857143,543.1285714285714,2714,83.22232142857143,543.1285714285714,2818.2,83.22232142857143,543.1285714285714,2922.4,83.22232142857143,543.1285714285714,3027.3,83.22232142857143,543.1285714285714,3132.9,83.22232142857143,543.1285714285714,3240,83.22232142857143,543.1285714285714,3340.4,83.22232142857143,543.1285714285714,3447.6,83.22232142857143,543.1285714285714,3548.1,83.22232142857143,543.1285714285714,3650.8,83.22232142857143,543.1285714285714,3761.8,83.22232142857143,543.1285714285714,3863.6,83.22232142857143,543.1285714285714,3963.9,83.22232142857143,543.1285714285714,4068.1,83.22232142857143,543.1285714285714,4175.5,83.22232142857143,543.1285714285714,4282.1,83.22232142857143,543.1285714285714,4391.3,83.22232142857143,543.1285714285714,4500.4,83.22232142857143,543.1285714285714,4607.3,83.22232142857143,543.1285714285714,4707.6,83.22232142857143,543.1285714285714,4814.5,83.22232142857143,543.1285714285714,4916.1]","[1335.7,1335.8,1000,0,335.8,""smooth"",""down"",""down"",""good_move"",12019.3,10683.3,2596.6,9010.4,412.3,""smooth"",""down"",""down"",""good_move"",29285.8,17266.5,2917.2,26026.2,342.5,""smooth"",""down"",""down"",""good_move"",35464.5,6178.4,2040.8,32843.1,580.6,""smooth"",""left"",""left"",""good_move"",38010.5,2545.8,2150.9,35464.8,394.9,""smooth"",""left"",""left"",""good_move"",40084.6,2073.7,1606.8,38010.9,466.9,""smooth"",""left"",""left"",""good_move""]"
"3808","","<div style=""width:500px;"">
  <p>What determined the result of this run?</p>
  </div>","91","html-slider-response","14","453899","0.0-7.0-1.0","123","1","2025-08-06 08:49:52","36c45c0696341be0efffe67d72a12abb","41.150.35.66","Mozilla/5.0 (Windows NT 10.0; Win64; x64) AppleWebKit/537.36 (KHTML, like Gecko) Chrome/138.0.0.0 Safari/537.36","WebKit","Chrome","138.0.0.0","Windows","10.0","https://app.prolific.com/","en-ZA,en-GB;q=0.9,en-US;q=0.8,en;q=0.7","67f14975a8c12321ab2d0e61","6877649eabb845cf142cd221","689316ebdaebc50ec5fbb5fc","1","67f14975a8c12321ab2d0e61","1","2025-08-06T09:01:16.046Z","","","","AttribQ","","","","","","","","","","","50","","","","","","","","","","","","","","","","","","","","","","","","","","",""
"2941","","<div style=""width:500px;"">
  <p>How much control did you have over the ball?</p>
  </div>","100","html-slider-response","15","456842","0.0-7.0-2.0","123","1","2025-08-06 08:49:52","36c45c0696341be0efffe67d72a12abb","41.150.35.66","Mozilla/5.0 (Windows NT 10.0; Win64; x64) AppleWebKit/537.36 (KHTML, like Gecko) Chrome/138.0.0.0 Safari/537.36","WebKit","Chrome","138.0.0.0","Windows","10.0","https://app.prolific.com/","en-ZA,en-GB;q=0.9,en-US;q=0.8,en;q=0.7","67f14975a8c12321ab2d0e61","6877649eabb845cf142cd221","689316ebdaebc50ec5fbb5fc","1","67f14975a8c12321ab2d0e61","1","2025-08-06T09:01:18.988Z","","","","ControlQ","","","","","","","","","","","50","","","","","","","","","","","","","","","","","","","","","","","","","","",""
"2949","","<div style=""width:500px;"">
  <p>How would you describe your current emotional state?</p>
  </div>","0","html-slider-response","16","459793","0.0-7.0-3.0","123","1","2025-08-06 08:49:52","36c45c0696341be0efffe67d72a12abb","41.150.35.66","Mozilla/5.0 (Windows NT 10.0; Win64; x64) AppleWebKit/537.36 (KHTML, like Gecko) Chrome/138.0.0.0 Safari/537.36","WebKit","Chrome","138.0.0.0","Windows","10.0","https://app.prolific.com/","en-ZA,en-GB;q=0.9,en-US;q=0.8,en;q=0.7","67f14975a8c12321ab2d0e61","6877649eabb845cf142cd221","689316ebdaebc50ec5fbb5fc","1","67f14975a8c12321ab2d0e61","1","2025-08-06T09:01:21.939Z","","","","StressQ","","","","","","","","","","","50","","","","","","","","","","","","","","","","","","","","","","","","","","",""
"3284","","<div style=""width:500px;"">
  <p>What best describes how you currently feel?</p>
  </div>","100","html-slider-response","17","463079","0.0-7.0-4.0","123","1","2025-08-06 08:49:52","36c45c0696341be0efffe67d72a12abb","41.150.35.66","Mozilla/5.0 (Windows NT 10.0; Win64; x64) AppleWebKit/537.36 (KHTML, like Gecko) Chrome/138.0.0.0 Safari/537.36","WebKit","Chrome","138.0.0.0","Windows","10.0","https://app.prolific.com/","en-ZA,en-GB;q=0.9,en-US;q=0.8,en;q=0.7","67f14975a8c12321ab2d0e61","6877649eabb845cf142cd221","689316ebdaebc50ec5fbb5fc","1","67f14975a8c12321ab2d0e61","1","2025-08-06T09:01:25.225Z","","","","MotivationQ","","","","","","","","","","","50","","","","","","","","","","","","","","","","","","","","","","","","","","",""
"","","","","ctl-task-cpt","18","502410","0.0-7.0-0.1","123","1","2025-08-06 08:49:52","36c45c0696341be0efffe67d72a12abb","41.150.35.66","Mozilla/5.0 (Windows NT 10.0; Win64; x64) AppleWebKit/537.36 (KHTML, like Gecko) Chrome/138.0.0.0 Safari/537.36","WebKit","Chrome","138.0.0.0","Windows","10.0","https://app.prolific.com/","en-ZA,en-GB;q=0.9,en-US;q=0.8,en;q=0.7","67f14975a8c12321ab2d0e61","6877649eabb845cf142cd221","689316ebdaebc50ec5fbb5fc","1","67f14975a8c12321ab2d0e61","1","2025-08-06T09:02:04.556Z","","","","","","","","","","","","","","","","win-only","1","g1:NE,g2:SW","0.9","2","0","472196","1293.7","6301.1","36325.7","1","4","8","6","2","8","8","12","4","0.09090909090909091","1212.1","3000","750","[""down"",""left""]","{""num_key_presses"":8,""num_perfect"":7,""num_errors"":0,""num_randdir"":1,""num_randdir_good_moves"":0,""num_whilered"":0,""num_whileblue"":0,""num_blue"":3,""num_good_moves"":7}","[299.22232142857143,297.12857142857143,0.7,299.22232142857143,297.12857142857143,104.8,299.22232142857143,297.12857142857143,212.4,299.22232142857143,297.12857142857143,315.6,299.22232142857143,297.12857142857143,416,299.22232142857143,297.12857142857143,523.5,226.22232142857143,341.12857142857143,624,134.22232142857143,412.12857142857143,729.9,104.22232142857143,449.12857142857143,829.9,87.22232142857143,498.12857142857143,930.3,74.22232142857143,521.1285714285714,1033.3,74.22232142857143,521.1285714285714,1134.1,74.22232142857143,521.1285714285714,1235.7,74.22232142857143,521.1285714285714,1337.3,74.22232142857143,521.1285714285714,1440.2,74.22232142857143,521.1285714285714,1540.4,74.22232142857143,521.1285714285714,1649.3,74.22232142857143,521.1285714285714,1757.2,74.22232142857143,521.1285714285714,1863.7,74.22232142857143,521.1285714285714,1965.9,74.22232142857143,521.1285714285714,2066.7,74.22232142857143,521.1285714285714,2173.9,74.22232142857143,521.1285714285714,2281.1,74.22232142857143,521.1285714285714,2384.3,74.22232142857143,521.1285714285714,2489.6,74.22232142857143,521.1285714285714,2590.1,74.22232142857143,521.1285714285714,2695.2,74.22232142857143,521.1285714285714,2796.1,74.22232142857143,521.1285714285714,2901.1,74.22232142857143,521.1285714285714,3007.5,74.22232142857143,521.1285714285714,3113.1,74.22232142857143,521.1285714285714,3215.2,74.22232142857143,521.1285714285714,3315.9,74.22232142857143,521.1285714285714,3422.2,74.22232142857143,521.1285714285714,3522.8,74.22232142857143,521.1285714285714,3623.9,74.22232142857143,521.1285714285714,3724.5,74.22232142857143,521.1285714285714,3829.7,74.22232142857143,521.1285714285714,3932.1,74.22232142857143,521.1285714285714,4034.8,74.22232142857143,521.1285714285714,4145.2,74.22232142857143,521.1285714285714,4249,74.22232142857143,521.1285714285714,4357.2,74.22232142857143,521.1285714285714,4463.1,74.22232142857143,521.1285714285714,4567.3,74.22232142857143,521.1285714285714,4675.7,74.22232142857143,521.1285714285714,4776.4,74.22232142857143,521.1285714285714,4879.2,74.22232142857143,521.1285714285714,4979.2]","[1359.5,1359.5,1000,0,359.5,""smooth"",""down"",""down"",""good_move"",3964.1,2604.3,2224.8,1359.9,379.4,""smooth"",""down"",""down"",""good_move"",6829,2864.7,2481.4,3964.3,383.3,""oops"",""down"",""right"",""bad_move"",12275.4,5445.9,1904.1,10063.1,308.2,""smooth"",""down"",""down"",""good_move"",22209.4,9933.6,1905.4,19907.4,396.6,""smooth"",""left"",""left"",""good_move"",24916,2706.4,2332.9,22209.6,373.5,""smooth"",""left"",""left"",""good_move"",27928.2,3012,2632,24916.2,380,""smooth"",""left"",""left"",""good_move"",29900.2,1971.8,1524.4,27928.4,447.4,""smooth"",""left"",""left"",""good_move""]"
"3240","","<div style=""width:500px;"">
  <p>What determined the result of this run?</p>
  </div>","100","html-slider-response","19","505652","0.0-7.0-1.1","123","1","2025-08-06 08:49:52","36c45c0696341be0efffe67d72a12abb","41.150.35.66","Mozilla/5.0 (Windows NT 10.0; Win64; x64) AppleWebKit/537.36 (KHTML, like Gecko) Chrome/138.0.0.0 Safari/537.36","WebKit","Chrome","138.0.0.0","Windows","10.0","https://app.prolific.com/","en-ZA,en-GB;q=0.9,en-US;q=0.8,en;q=0.7","67f14975a8c12321ab2d0e61","6877649eabb845cf142cd221","689316ebdaebc50ec5fbb5fc","1","67f14975a8c12321ab2d0e61","1","2025-08-06T09:02:07.798Z","","","","AttribQ","","","","","","","","","","","50","","","","","","","","","","","","","","","","","","","","","","","","","","",""
"4327","","<div style=""width:500px;"">
  <p>How much control did you have over the ball?</p>
  </div>","97","html-slider-response","20","509980","0.0-7.0-2.1","123","1","2025-08-06 08:49:52","36c45c0696341be0efffe67d72a12abb","41.150.35.66","Mozilla/5.0 (Windows NT 10.0; Win64; x64) AppleWebKit/537.36 (KHTML, like Gecko) Chrome/138.0.0.0 Safari/537.36","WebKit","Chrome","138.0.0.0","Windows","10.0","https://app.prolific.com/","en-ZA,en-GB;q=0.9,en-US;q=0.8,en;q=0.7","67f14975a8c12321ab2d0e61","6877649eabb845cf142cd221","689316ebdaebc50ec5fbb5fc","1","67f14975a8c12321ab2d0e61","1","2025-08-06T09:02:12.126Z","","","","ControlQ","","","","","","","","","","","50","","","","","","","","","","","","","","","","","","","","","","","","","","",""
"3352","","<div style=""width:500px;"">
  <p>How would you describe your current emotional state?</p>
  </div>","2","html-slider-response","21","513333","0.0-7.0-3.1","123","1","2025-08-06 08:49:52","36c45c0696341be0efffe67d72a12abb","41.150.35.66","Mozilla/5.0 (Windows NT 10.0; Win64; x64) AppleWebKit/537.36 (KHTML, like Gecko) Chrome/138.0.0.0 Safari/537.36","WebKit","Chrome","138.0.0.0","Windows","10.0","https://app.prolific.com/","en-ZA,en-GB;q=0.9,en-US;q=0.8,en;q=0.7","67f14975a8c12321ab2d0e61","6877649eabb845cf142cd221","689316ebdaebc50ec5fbb5fc","1","67f14975a8c12321ab2d0e61","1","2025-08-06T09:02:15.479Z","","","","StressQ","","","","","","","","","","","50","","","","","","","","","","","","","","","","","","","","","","","","","","",""
"2681","","<div style=""width:500px;"">
  <p>What best describes how you currently feel?</p>
  </div>","100","html-slider-response","22","516016","0.0-7.0-4.1","123","1","2025-08-06 08:49:52","36c45c0696341be0efffe67d72a12abb","41.150.35.66","Mozilla/5.0 (Windows NT 10.0; Win64; x64) AppleWebKit/537.36 (KHTML, like Gecko) Chrome/138.0.0.0 Safari/537.36","WebKit","Chrome","138.0.0.0","Windows","10.0","https://app.prolific.com/","en-ZA,en-GB;q=0.9,en-US;q=0.8,en;q=0.7","67f14975a8c12321ab2d0e61","6877649eabb845cf142cd221","689316ebdaebc50ec5fbb5fc","1","67f14975a8c12321ab2d0e61","1","2025-08-06T09:02:18.162Z","","","","MotivationQ","","","","","","","","","","","50","","","","","","","","","","","","","","","","","","","","","","","","","","",""
"","","","","ctl-task-cpt","23","538840","0.0-7.0-0.2","123","1","2025-08-06 08:49:52","36c45c0696341be0efffe67d72a12abb","41.150.35.66","Mozilla/5.0 (Windows NT 10.0; Win64; x64) AppleWebKit/537.36 (KHTML, like Gecko) Chrome/138.0.0.0 Safari/537.36","WebKit","Chrome","138.0.0.0","Windows","10.0","https://app.prolific.com/","en-ZA,en-GB;q=0.9,en-US;q=0.8,en;q=0.7","67f14975a8c12321ab2d0e61","6877649eabb845cf142cd221","689316ebdaebc50ec5fbb5fc","1","67f14975a8c12321ab2d0e61","1","2025-08-06T09:02:40.986Z","","","","","","","","","","","","","","","","win-only","0","g1:NW,g2:SE","0.8","3","0","525134.5","1096.1","6097.5","19805.1","1","4","8","6","2","8","8","20","12","0.15151515151515152","937.5","3000","1515","[""down"",""right""]","{""num_key_presses"":6,""num_perfect"":5,""num_errors"":0,""num_randdir"":1,""num_randdir_good_moves"":1,""num_whilered"":0,""num_whileblue"":0,""num_blue"":0,""num_good_moves"":6}","[296.22232142857143,289.12857142857143,0.2,296.22232142857143,289.12857142857143,100.3,296.22232142857143,289.12857142857143,208.4,296.22232142857143,289.12857142857143,314.1,296.22232142857143,289.12857142857143,417.1,512.2223214285714,475.12857142857143,519.6,537.2223214285714,504.12857142857143,622.8,569.2223214285714,538.1285714285714,727.7,569.2223214285714,538.1285714285714,831.1,569.2223214285714,538.1285714285714,932.1,569.2223214285714,538.1285714285714,1032.4,569.2223214285714,538.1285714285714,1136.6,569.2223214285714,538.1285714285714,1240.4,569.2223214285714,538.1285714285714,1347.4,569.2223214285714,538.1285714285714,1447.4,569.2223214285714,538.1285714285714,1548.9,569.2223214285714,538.1285714285714,1649.4,569.2223214285714,538.1285714285714,1751.8,569.2223214285714,538.1285714285714,1855.8,569.2223214285714,538.1285714285714,1957.3,569.2223214285714,538.1285714285714,2059.3,569.2223214285714,538.1285714285714,2159.8,569.2223214285714,538.1285714285714,2260.6,569.2223214285714,538.1285714285714,2365,569.2223214285714,538.1285714285714,2470.6,569.2223214285714,538.1285714285714,2571.8,569.2223214285714,538.1285714285714,2682.5,569.2223214285714,538.1285714285714,2785.8,569.2223214285714,538.1285714285714,2890.8,569.2223214285714,538.1285714285714,2993.2,569.2223214285714,538.1285714285714,3099.9,569.2223214285714,538.1285714285714,3208.3,569.2223214285714,538.1285714285714,3308.3,569.2223214285714,538.1285714285714,3409.3,569.2223214285714,538.1285714285714,3510.6,569.2223214285714,538.1285714285714,3619.2,569.2223214285714,538.1285714285714,3719.4,569.2223214285714,538.1285714285714,3829.7,569.2223214285714,538.1285714285714,3937.4,569.2223214285714,538.1285714285714,4039.5,569.2223214285714,538.1285714285714,4146.5,569.2223214285714,538.1285714285714,4249.6,569.2223214285714,538.1285714285714,4350.5,569.2223214285714,538.1285714285714,4451.9,569.2223214285714,538.1285714285714,4558.5,569.2223214285714,538.1285714285714,4665.4,569.2223214285714,538.1285714285714,4769.2,569.2223214285714,538.1285714285714,4869.5,569.2223214285714,538.1285714285714,4975.7]","[1334.7,1334.7,1000,0,334.7,""smooth"",""right"",""right"",""good_move"",3868.5,2533.2,2202.4,1335.3,330.8,""smooth"",""right"",""right"",""good_move"",6285.2,2416.3,2080.3,3868.9,336,""smooth"",""right"",""right"",""good_move"",8991.8,2706.2,2368.5,6285.6,337.7,""smooth"",""down"",""down"",""good_move"",11523.9,2531.8,2201.7,8992.2,330.1,""smooth"",""down"",""down"",""good_move"",13578,2053.8,1626.9,11524.2,426.9,""oops"",""down"",""down"",""good_move""]"
"2948","","<div style=""width:500px;"">
  <p>What determined the result of this run?</p>
  </div>","100","html-slider-response","24","541789","0.0-7.0-1.2","123","1","2025-08-06 08:49:52","36c45c0696341be0efffe67d72a12abb","41.150.35.66","Mozilla/5.0 (Windows NT 10.0; Win64; x64) AppleWebKit/537.36 (KHTML, like Gecko) Chrome/138.0.0.0 Safari/537.36","WebKit","Chrome","138.0.0.0","Windows","10.0","https://app.prolific.com/","en-ZA,en-GB;q=0.9,en-US;q=0.8,en;q=0.7","67f14975a8c12321ab2d0e61","6877649eabb845cf142cd221","689316ebdaebc50ec5fbb5fc","1","67f14975a8c12321ab2d0e61","1","2025-08-06T09:02:43.935Z","","","","AttribQ","","","","","","","","","","","50","","","","","","","","","","","","","","","","","","","","","","","","","","",""
"3262","","<div style=""width:500px;"">
  <p>How much control did you have over the ball?</p>
  </div>","100","html-slider-response","25","545052","0.0-7.0-2.2","123","1","2025-08-06 08:49:52","36c45c0696341be0efffe67d72a12abb","41.150.35.66","Mozilla/5.0 (Windows NT 10.0; Win64; x64) AppleWebKit/537.36 (KHTML, like Gecko) Chrome/138.0.0.0 Safari/537.36","WebKit","Chrome","138.0.0.0","Windows","10.0","https://app.prolific.com/","en-ZA,en-GB;q=0.9,en-US;q=0.8,en;q=0.7","67f14975a8c12321ab2d0e61","6877649eabb845cf142cd221","689316ebdaebc50ec5fbb5fc","1","67f14975a8c12321ab2d0e61","1","2025-08-06T09:02:47.199Z","","","","ControlQ","","","","","","","","","","","50","","","","","","","","","","","","","","","","","","","","","","","","","","",""
"2579","","<div style=""width:500px;"">
  <p>How would you describe your current emotional state?</p>
  </div>","0","html-slider-response","26","547633","0.0-7.0-3.2","123","1","2025-08-06 08:49:52","36c45c0696341be0efffe67d72a12abb","41.150.35.66","Mozilla/5.0 (Windows NT 10.0; Win64; x64) AppleWebKit/537.36 (KHTML, like Gecko) Chrome/138.0.0.0 Safari/537.36","WebKit","Chrome","138.0.0.0","Windows","10.0","https://app.prolific.com/","en-ZA,en-GB;q=0.9,en-US;q=0.8,en;q=0.7","67f14975a8c12321ab2d0e61","6877649eabb845cf142cd221","689316ebdaebc50ec5fbb5fc","1","67f14975a8c12321ab2d0e61","1","2025-08-06T09:02:49.779Z","","","","StressQ","","","","","","","","","","","50","","","","","","","","","","","","","","","","","","","","","","","","","","",""
"2389","","<div style=""width:500px;"">
  <p>What best describes how you currently feel?</p>
  </div>","100","html-slider-response","27","550025","0.0-7.0-4.2","123","1","2025-08-06 08:49:52","36c45c0696341be0efffe67d72a12abb","41.150.35.66","Mozilla/5.0 (Windows NT 10.0; Win64; x64) AppleWebKit/537.36 (KHTML, like Gecko) Chrome/138.0.0.0 Safari/537.36","WebKit","Chrome","138.0.0.0","Windows","10.0","https://app.prolific.com/","en-ZA,en-GB;q=0.9,en-US;q=0.8,en;q=0.7","67f14975a8c12321ab2d0e61","6877649eabb845cf142cd221","689316ebdaebc50ec5fbb5fc","1","67f14975a8c12321ab2d0e61","1","2025-08-06T09:02:52.171Z","","","","MotivationQ","","","","","","","","","","","50","","","","","","","","","","","","","","","","","","","","","","","","","","",""
"","","","","ctl-task-cpt","28","594345","0.0-7.0-0.3","123","1","2025-08-06 08:49:52","36c45c0696341be0efffe67d72a12abb","41.150.35.66","Mozilla/5.0 (Windows NT 10.0; Win64; x64) AppleWebKit/537.36 (KHTML, like Gecko) Chrome/138.0.0.0 Safari/537.36","WebKit","Chrome","138.0.0.0","Windows","10.0","https://app.prolific.com/","en-ZA,en-GB;q=0.9,en-US;q=0.8,en;q=0.7","67f14975a8c12321ab2d0e61","6877649eabb845cf142cd221","689316ebdaebc50ec5fbb5fc","1","67f14975a8c12321ab2d0e61","1","2025-08-06T09:03:36.491Z","","","","","","","","","","","","","","","","win-only","1","g1:NE,g2:SW","0.7","4","0","559144.1","1337.1","6344.3","41310.5","1","4","4","6","2","4","4","24","20","0.18181818181818182","1000","3000","455","[""down"",""left""]","{""num_key_presses"":10,""num_perfect"":7,""num_errors"":0,""num_randdir"":3,""num_randdir_good_moves"":1,""num_whilered"":0,""num_whileblue"":0,""num_blue"":2,""num_good_moves"":8}","[295.22232142857143,296.12857142857143,0.7,295.22232142857143,296.12857142857143,104.2,295.22232142857143,296.12857142857143,212.3,295.22232142857143,296.12857142857143,314.4,274.22232142857143,314.12857142857143,416.4,154.22232142857143,405.12857142857143,523.3,97.22232142857143,457.12857142857143,623.4,85.22232142857143,489.12857142857143,732,76.22232142857143,509.12857142857143,834.8,76.22232142857143,509.12857142857143,940.5,76.22232142857143,509.12857142857143,1040.6,76.22232142857143,509.12857142857143,1148.2,76.22232142857143,509.12857142857143,1250.2,76.22232142857143,509.12857142857143,1351.2,76.22232142857143,509.12857142857143,1451.4,76.22232142857143,509.12857142857143,1555.3,76.22232142857143,509.12857142857143,1655.4,76.22232142857143,509.12857142857143,1758.3,76.22232142857143,509.12857142857143,1865.5,76.22232142857143,509.12857142857143,1973.4,76.22232142857143,509.12857142857143,2078.8,76.22232142857143,509.12857142857143,2178.9,76.22232142857143,509.12857142857143,2280.1,76.22232142857143,509.12857142857143,2387.8,76.22232142857143,509.12857142857143,2488.4,76.22232142857143,509.12857142857143,2590.4,76.22232142857143,509.12857142857143,2697.2,76.22232142857143,509.12857142857143,2804.3,76.22232142857143,509.12857142857143,2912.2,76.22232142857143,509.12857142857143,3013,76.22232142857143,509.12857142857143,3116,76.22232142857143,509.12857142857143,3218.7,76.22232142857143,509.12857142857143,3319.8,76.22232142857143,509.12857142857143,3424.3,76.22232142857143,509.12857142857143,3534.3,76.22232142857143,509.12857142857143,3638,76.22232142857143,509.12857142857143,3738.4,76.22232142857143,509.12857142857143,3839,76.22232142857143,509.12857142857143,3947.6,76.22232142857143,509.12857142857143,4048.2,76.22232142857143,509.12857142857143,4153.1,76.22232142857143,509.12857142857143,4253.8,76.22232142857143,509.12857142857143,4354.5,76.22232142857143,509.12857142857143,4463.5,76.22232142857143,509.12857142857143,4566.5,76.22232142857143,509.12857142857143,4668.6,76.22232142857143,509.12857142857143,4770,76.22232142857143,509.12857142857143,4880.4,76.22232142857143,509.12857142857143,4982.9]","[4548.8,4548.8,2119.7,2009.8,419.3,""oops"",""down"",""up"",""bad_move"",7333.6,2784.3,2460.5,4549.3,323.8,""smooth"",""down"",""down"",""good_move"",10894.9,3560.8,3243.3,7334.1,317.5,""smooth"",""down"",""down"",""good_move"",13276.3,2381.2,2041.6,10895.2,339.5,""smooth"",""down"",""down"",""good_move"",16215,2938.3,2642.9,13276.7,295.4,""smooth"",""down"",""down"",""good_move"",19077.6,2862.4,2538.2,16215.2,324.2,""oops"",""left"",""right"",""bad_move"",22562.3,3484.1,3209.9,19078.2,274.2,""smooth"",""left"",""left"",""good_move"",25150.5,2587.2,2317.7,22563.3,269.5,""smooth"",""left"",""left"",""good_move"",31500.4,6349.7,3183.3,27940.5,376.6,""smooth"",""left"",""left"",""good_move"",34830.8,3330.2,2827.5,31500.7,502.6,""oops"",""left"",""left"",""good_move""]"
"4644","","<div style=""width:500px;"">
  <p>What determined the result of this run?</p>
  </div>","96","html-slider-response","29","598991","0.0-7.0-1.3","123","1","2025-08-06 08:49:52","36c45c0696341be0efffe67d72a12abb","41.150.35.66","Mozilla/5.0 (Windows NT 10.0; Win64; x64) AppleWebKit/537.36 (KHTML, like Gecko) Chrome/138.0.0.0 Safari/537.36","WebKit","Chrome","138.0.0.0","Windows","10.0","https://app.prolific.com/","en-ZA,en-GB;q=0.9,en-US;q=0.8,en;q=0.7","67f14975a8c12321ab2d0e61","6877649eabb845cf142cd221","689316ebdaebc50ec5fbb5fc","1","67f14975a8c12321ab2d0e61","1","2025-08-06T09:03:41.137Z","","","","AttribQ","","","","","","","","","","","50","","","","","","","","","","","","","","","","","","","","","","","","","","",""
"4077","","<div style=""width:500px;"">
  <p>How much control did you have over the ball?</p>
  </div>","95","html-slider-response","30","603070","0.0-7.0-2.3","123","1","2025-08-06 08:49:52","36c45c0696341be0efffe67d72a12abb","41.150.35.66","Mozilla/5.0 (Windows NT 10.0; Win64; x64) AppleWebKit/537.36 (KHTML, like Gecko) Chrome/138.0.0.0 Safari/537.36","WebKit","Chrome","138.0.0.0","Windows","10.0","https://app.prolific.com/","en-ZA,en-GB;q=0.9,en-US;q=0.8,en;q=0.7","67f14975a8c12321ab2d0e61","6877649eabb845cf142cd221","689316ebdaebc50ec5fbb5fc","1","67f14975a8c12321ab2d0e61","1","2025-08-06T09:03:45.216Z","","","","ControlQ","","","","","","","","","","","50","","","","","","","","","","","","","","","","","","","","","","","","","","",""
"2471","","<div style=""width:500px;"">
  <p>How would you describe your current emotional state?</p>
  </div>","0","html-slider-response","31","605543","0.0-7.0-3.3","123","1","2025-08-06 08:49:52","36c45c0696341be0efffe67d72a12abb","41.150.35.66","Mozilla/5.0 (Windows NT 10.0; Win64; x64) AppleWebKit/537.36 (KHTML, like Gecko) Chrome/138.0.0.0 Safari/537.36","WebKit","Chrome","138.0.0.0","Windows","10.0","https://app.prolific.com/","en-ZA,en-GB;q=0.9,en-US;q=0.8,en;q=0.7","67f14975a8c12321ab2d0e61","6877649eabb845cf142cd221","689316ebdaebc50ec5fbb5fc","1","67f14975a8c12321ab2d0e61","1","2025-08-06T09:03:47.689Z","","","","StressQ","","","","","","","","","","","50","","","","","","","","","","","","","","","","","","","","","","","","","","",""
"4199","","<div style=""width:500px;"">
  <p>What best describes how you currently feel?</p>
  </div>","87","html-slider-response","32","609744","0.0-7.0-4.3","123","1","2025-08-06 08:49:52","36c45c0696341be0efffe67d72a12abb","41.150.35.66","Mozilla/5.0 (Windows NT 10.0; Win64; x64) AppleWebKit/537.36 (KHTML, like Gecko) Chrome/138.0.0.0 Safari/537.36","WebKit","Chrome","138.0.0.0","Windows","10.0","https://app.prolific.com/","en-ZA,en-GB;q=0.9,en-US;q=0.8,en;q=0.7","67f14975a8c12321ab2d0e61","6877649eabb845cf142cd221","689316ebdaebc50ec5fbb5fc","1","67f14975a8c12321ab2d0e61","1","2025-08-06T09:03:51.890Z","","","","MotivationQ","","","","","","","","","","","50","","","","","","","","","","","","","","","","","","","","","","","","","","",""
"","","","","ctl-task-cpt","33","655431","0.0-7.0-0.4","123","1","2025-08-06 08:49:52","36c45c0696341be0efffe67d72a12abb","41.150.35.66","Mozilla/5.0 (Windows NT 10.0; Win64; x64) AppleWebKit/537.36 (KHTML, like Gecko) Chrome/138.0.0.0 Safari/537.36","WebKit","Chrome","138.0.0.0","Windows","10.0","https://app.prolific.com/","en-ZA,en-GB;q=0.9,en-US;q=0.8,en;q=0.7","67f14975a8c12321ab2d0e61","6877649eabb845cf142cd221","689316ebdaebc50ec5fbb5fc","1","67f14975a8c12321ab2d0e61","1","2025-08-06T09:04:37.578Z","","","","","","","","","","","","","","","","win-only","1","g1:NE,g2:SW","0.6","5","0","618862.4","1121.8","6129.4","42677.3","1","4","8","6","2","-8","-9","15","24","0.11363636363636363","945.6","3000","-2215","[""down"",""left""]","{""num_key_presses"":11,""num_perfect"":6,""num_errors"":1,""num_randdir"":4,""num_randdir_good_moves"":0,""num_whilered"":0,""num_whileblue"":1,""num_blue"":2,""num_good_moves"":7}","[290.22232142857143,292.12857142857143,0.2,290.22232142857143,292.12857142857143,100.5,290.22232142857143,292.12857142857143,207.5,290.22232142857143,292.12857142857143,310.3,290.22232142857143,292.12857142857143,412.6,104.22232142857143,429.12857142857143,513.8,53.222321428571426,524.1285714285714,615.9,31.222321428571426,542.1285714285714,719.5,31.222321428571426,542.1285714285714,823.7,31.222321428571426,542.1285714285714,928.9,31.222321428571426,542.1285714285714,1029.4,31.222321428571426,542.1285714285714,1135.8,31.222321428571426,542.1285714285714,1244.1,31.222321428571426,542.1285714285714,1344.4,31.222321428571426,542.1285714285714,1447.8,31.222321428571426,542.1285714285714,1552.4,31.222321428571426,542.1285714285714,1660.3,31.222321428571426,542.1285714285714,1765.3,31.222321428571426,542.1285714285714,1868.7,31.222321428571426,542.1285714285714,1969.7,31.222321428571426,542.1285714285714,2073.9,31.222321428571426,542.1285714285714,2179.4,31.222321428571426,542.1285714285714,2284.9,31.222321428571426,542.1285714285714,2392.3,31.222321428571426,542.1285714285714,2493,31.222321428571426,542.1285714285714,2594.7,31.222321428571426,542.1285714285714,2700.5,31.222321428571426,542.1285714285714,2800.5,31.222321428571426,542.1285714285714,2901,31.222321428571426,542.1285714285714,3006.7,31.222321428571426,542.1285714285714,3106.9,31.222321428571426,542.1285714285714,3211.7,31.222321428571426,542.1285714285714,3320.9,31.222321428571426,542.1285714285714,3421.4,31.222321428571426,542.1285714285714,3527.4,31.222321428571426,542.1285714285714,3627.7,31.222321428571426,542.1285714285714,3735.3,31.222321428571426,542.1285714285714,3843.8,31.222321428571426,542.1285714285714,3948,31.222321428571426,542.1285714285714,4048.2,31.222321428571426,542.1285714285714,4149.8,31.222321428571426,542.1285714285714,4256.4,31.222321428571426,542.1285714285714,4361.3,31.222321428571426,542.1285714285714,4465.2,31.222321428571426,542.1285714285714,4574,31.222321428571426,542.1285714285714,4678.7,31.222321428571426,542.1285714285714,4781.6,31.222321428571426,542.1285714285714,4889.5,31.222321428571426,542.1285714285714,4989.6]","[1369.7,1369.8,1000,0,369.8,""smooth"",""down"",""down"",""good_move"",4399.4,3028.9,2721.6,1370.5,307.3,""smooth"",""down"",""down"",""good_move"",7440.1,3040.5,2558.3,4399.6,482.2,""smooth"",""down"",""down"",""good_move"",10411.6,2971.1,2670.7,7440.5,300.4,""oops"",""left"",""right"",""bad_move"",12906.9,2494.8,2158,10412.1,336.8,""oops"",""left"",""right"",""bad_move"",19312.6,6405.3,2370.7,16542.6,399.3,""while_blue"",""left"",""left"",""good_move"",22038.2,2725,2246.5,19313.3,478.5,""smooth"",""left"",""left"",""good_move"",25760.9,3722.3,3331.5,22038.6,390.8,""smooth"",""left"",""left"",""good_move"",28074.7,2313.6,1709.9,25761.2,603.6,""smooth"",""left"",""left"",""good_move"",30685.9,2610.9,2187.4,28075,423.5,""oops"",""left"",""right"",""bad_move"",34507,3820.7,3483.2,30686.4,337.4,""oops"",""left"",""right"",""bad_move""]"
"16129","","<div style=""width:500px;"">
  <p>What determined the result of this run?</p>
  </div>","100","html-slider-response","34","671562","0.0-7.0-1.4","123","1","2025-08-06 08:49:52","36c45c0696341be0efffe67d72a12abb","41.150.35.66","Mozilla/5.0 (Windows NT 10.0; Win64; x64) AppleWebKit/537.36 (KHTML, like Gecko) Chrome/138.0.0.0 Safari/537.36","WebKit","Chrome","138.0.0.0","Windows","10.0","https://app.prolific.com/","en-ZA,en-GB;q=0.9,en-US;q=0.8,en;q=0.7","67f14975a8c12321ab2d0e61","6877649eabb845cf142cd221","689316ebdaebc50ec5fbb5fc","1","67f14975a8c12321ab2d0e61","1","2025-08-06T09:04:53.708Z","","","","AttribQ","","","","","","","","","","","50","","","","","","","","","","","","","","","","","","","","","","","","","","",""
"4745","","<div style=""width:500px;"">
  <p>How much control did you have over the ball?</p>
  </div>","80","html-slider-response","35","676308","0.0-7.0-2.4","123","1","2025-08-06 08:49:52","36c45c0696341be0efffe67d72a12abb","41.150.35.66","Mozilla/5.0 (Windows NT 10.0; Win64; x64) AppleWebKit/537.36 (KHTML, like Gecko) Chrome/138.0.0.0 Safari/537.36","WebKit","Chrome","138.0.0.0","Windows","10.0","https://app.prolific.com/","en-ZA,en-GB;q=0.9,en-US;q=0.8,en;q=0.7","67f14975a8c12321ab2d0e61","6877649eabb845cf142cd221","689316ebdaebc50ec5fbb5fc","1","67f14975a8c12321ab2d0e61","1","2025-08-06T09:04:58.455Z","","","","ControlQ","","","","","","","","","","","50","","","","","","","","","","","","","","","","","","","","","","","","","","",""
"3380","","<div style=""width:500px;"">
  <p>How would you describe your current emotional state?</p>
  </div>","26","html-slider-response","36","679690","0.0-7.0-3.4","123","1","2025-08-06 08:49:52","36c45c0696341be0efffe67d72a12abb","41.150.35.66","Mozilla/5.0 (Windows NT 10.0; Win64; x64) AppleWebKit/537.36 (KHTML, like Gecko) Chrome/138.0.0.0 Safari/537.36","WebKit","Chrome","138.0.0.0","Windows","10.0","https://app.prolific.com/","en-ZA,en-GB;q=0.9,en-US;q=0.8,en;q=0.7","67f14975a8c12321ab2d0e61","6877649eabb845cf142cd221","689316ebdaebc50ec5fbb5fc","1","67f14975a8c12321ab2d0e61","1","2025-08-06T09:05:01.836Z","","","","StressQ","","","","","","","","","","","50","","","","","","","","","","","","","","","","","","","","","","","","","","",""
"2616","","<div style=""width:500px;"">
  <p>What best describes how you currently feel?</p>
  </div>","100","html-slider-response","37","682307","0.0-7.0-4.4","123","1","2025-08-06 08:49:52","36c45c0696341be0efffe67d72a12abb","41.150.35.66","Mozilla/5.0 (Windows NT 10.0; Win64; x64) AppleWebKit/537.36 (KHTML, like Gecko) Chrome/138.0.0.0 Safari/537.36","WebKit","Chrome","138.0.0.0","Windows","10.0","https://app.prolific.com/","en-ZA,en-GB;q=0.9,en-US;q=0.8,en;q=0.7","67f14975a8c12321ab2d0e61","6877649eabb845cf142cd221","689316ebdaebc50ec5fbb5fc","1","67f14975a8c12321ab2d0e61","1","2025-08-06T09:05:04.453Z","","","","MotivationQ","","","","","","","","","","","50","","","","","","","","","","","","","","","","","","","","","","","","","","",""
"","","","","ctl-task-cpt","38","743662","0.0-7.0-0.5","123","1","2025-08-06 08:49:52","36c45c0696341be0efffe67d72a12abb","41.150.35.66","Mozilla/5.0 (Windows NT 10.0; Win64; x64) AppleWebKit/537.36 (KHTML, like Gecko) Chrome/138.0.0.0 Safari/537.36","WebKit","Chrome","138.0.0.0","Windows","10.0","https://app.prolific.com/","en-ZA,en-GB;q=0.9,en-US;q=0.8,en;q=0.7","67f14975a8c12321ab2d0e61","6877649eabb845cf142cd221","689316ebdaebc50ec5fbb5fc","1","67f14975a8c12321ab2d0e61","1","2025-08-06T09:06:05.808Z","","","","","","","","","","","","","","","","win-only","2","g1:SE,g2:NW","0.5","6","0","691425.4","1057.6","6062.7","58337.3","1","4","4","6","2","4","4","19","15","0.14393939393939395","1079.7","3000","60","[""left"",""up""]","{""num_key_presses"":12,""num_perfect"":7,""num_errors"":0,""num_randdir"":5,""num_randdir_good_moves"":2,""num_whilered"":0,""num_whileblue"":0,""num_blue"":5,""num_good_moves"":9}","[292.22232142857143,299.12857142857143,0.3,292.22232142857143,299.12857142857143,100,292.22232142857143,299.12857142857143,200,292.22232142857143,299.12857142857143,308.7,225.22232142857143,243.12857142857143,416,27.222321428571426,106.12857142857143,519,2.2223214285714263,74.12857142857143,619.5,7.222321428571426,68.12857142857143,725,36.222321428571426,68.12857142857143,825.9,41.222321428571426,65.12857142857143,931.5,41.222321428571426,65.12857142857143,1033.5,41.222321428571426,65.12857142857143,1136,41.222321428571426,65.12857142857143,1241.6,41.222321428571426,65.12857142857143,1343.4,41.222321428571426,65.12857142857143,1450,41.222321428571426,65.12857142857143,1554.2,41.222321428571426,65.12857142857143,1655.6,41.222321428571426,65.12857142857143,1759.4,41.222321428571426,65.12857142857143,1861.1,41.222321428571426,65.12857142857143,1963,41.222321428571426,65.12857142857143,2065.2,41.222321428571426,65.12857142857143,2165.9,41.222321428571426,65.12857142857143,2274.9,41.222321428571426,65.12857142857143,2381.8,41.222321428571426,65.12857142857143,2488.7,41.222321428571426,65.12857142857143,2589.3,41.222321428571426,65.12857142857143,2697,41.222321428571426,65.12857142857143,2798.8,41.222321428571426,65.12857142857143,2903,41.222321428571426,65.12857142857143,3005.3,41.222321428571426,65.12857142857143,3109.5,41.222321428571426,65.12857142857143,3209.8,41.222321428571426,65.12857142857143,3312.4,41.222321428571426,65.12857142857143,3415.4,41.222321428571426,65.12857142857143,3524.2,41.222321428571426,65.12857142857143,3631,41.222321428571426,65.12857142857143,3739.3,41.222321428571426,65.12857142857143,3845.6,41.222321428571426,65.12857142857143,3955.3,41.222321428571426,65.12857142857143,4060.2,41.222321428571426,65.12857142857143,4163.5,41.222321428571426,65.12857142857143,4264.6,41.222321428571426,65.12857142857143,4364.7,41.222321428571426,65.12857142857143,4470.6,41.222321428571426,65.12857142857143,4573,41.222321428571426,65.12857142857143,4680.8,41.222321428571426,65.12857142857143,4788.6,41.222321428571426,65.12857142857143,4892.9,41.222321428571426,65.12857142857143,4996.3]","[1306.9,1306.9,1000,0,306.9,""smooth"",""up"",""up"",""good_move"",4360.9,3053.4,2744.4,1307.5,309,""smooth"",""up"",""up"",""good_move"",7227.1,2865.9,2520.1,4361.2,345.8,""oops"",""up"",""left"",""good_move"",10770.8,3543.1,3197.9,7227.7,345.2,""oops"",""up"",""right"",""bad_move"",17244.1,6472.7,2701,14226.6,316.5,""smooth"",""up"",""up"",""good_move"",19830.3,2585.7,2192.5,17244.7,393.2,""oops"",""left"",""right"",""bad_move"",26303.6,6473,2414.9,23506.5,382.3,""smooth"",""left"",""left"",""good_move"",29025,2720.7,2405.7,26304.3,315,""oops"",""left"",""right"",""bad_move"",35612.2,6586.7,2453.5,32807.3,351.4,""oops"",""left"",""left"",""good_move"",39031.2,3418.8,3094.6,35612.4,324.2,""smooth"",""left"",""left"",""good_move"",45448.4,6416.9,2497.7,42535.3,415.4,""smooth"",""left"",""left"",""good_move"",52147.1,6698.5,2488.5,49399.5,259.1,""smooth"",""left"",""left"",""good_move""]"
"3556","","<div style=""width:500px;"">
  <p>What determined the result of this run?</p>
  </div>","97","html-slider-response","39","747219","0.0-7.0-1.5","123","1","2025-08-06 08:49:52","36c45c0696341be0efffe67d72a12abb","41.150.35.66","Mozilla/5.0 (Windows NT 10.0; Win64; x64) AppleWebKit/537.36 (KHTML, like Gecko) Chrome/138.0.0.0 Safari/537.36","WebKit","Chrome","138.0.0.0","Windows","10.0","https://app.prolific.com/","en-ZA,en-GB;q=0.9,en-US;q=0.8,en;q=0.7","67f14975a8c12321ab2d0e61","6877649eabb845cf142cd221","689316ebdaebc50ec5fbb5fc","1","67f14975a8c12321ab2d0e61","1","2025-08-06T09:06:09.365Z","","","","AttribQ","","","","","","","","","","","50","","","","","","","","","","","","","","","","","","","","","","","","","","",""
"2709","","<div style=""width:500px;"">
  <p>How much control did you have over the ball?</p>
  </div>","86","html-slider-response","40","749930","0.0-7.0-2.5","123","1","2025-08-06 08:49:52","36c45c0696341be0efffe67d72a12abb","41.150.35.66","Mozilla/5.0 (Windows NT 10.0; Win64; x64) AppleWebKit/537.36 (KHTML, like Gecko) Chrome/138.0.0.0 Safari/537.36","WebKit","Chrome","138.0.0.0","Windows","10.0","https://app.prolific.com/","en-ZA,en-GB;q=0.9,en-US;q=0.8,en;q=0.7","67f14975a8c12321ab2d0e61","6877649eabb845cf142cd221","689316ebdaebc50ec5fbb5fc","1","67f14975a8c12321ab2d0e61","1","2025-08-06T09:06:12.076Z","","","","ControlQ","","","","","","","","","","","50","","","","","","","","","","","","","","","","","","","","","","","","","","",""
"3437","","<div style=""width:500px;"">
  <p>How would you describe your current emotional state?</p>
  </div>","26","html-slider-response","41","753368","0.0-7.0-3.5","123","1","2025-08-06 08:49:52","36c45c0696341be0efffe67d72a12abb","41.150.35.66","Mozilla/5.0 (Windows NT 10.0; Win64; x64) AppleWebKit/537.36 (KHTML, like Gecko) Chrome/138.0.0.0 Safari/537.36","WebKit","Chrome","138.0.0.0","Windows","10.0","https://app.prolific.com/","en-ZA,en-GB;q=0.9,en-US;q=0.8,en;q=0.7","67f14975a8c12321ab2d0e61","6877649eabb845cf142cd221","689316ebdaebc50ec5fbb5fc","1","67f14975a8c12321ab2d0e61","1","2025-08-06T09:06:15.514Z","","","","StressQ","","","","","","","","","","","50","","","","","","","","","","","","","","","","","","","","","","","","","","",""
"3312","","<div style=""width:500px;"">
  <p>What best describes how you currently feel?</p>
  </div>","98","html-slider-response","42","756682","0.0-7.0-4.5","123","1","2025-08-06 08:49:52","36c45c0696341be0efffe67d72a12abb","41.150.35.66","Mozilla/5.0 (Windows NT 10.0; Win64; x64) AppleWebKit/537.36 (KHTML, like Gecko) Chrome/138.0.0.0 Safari/537.36","WebKit","Chrome","138.0.0.0","Windows","10.0","https://app.prolific.com/","en-ZA,en-GB;q=0.9,en-US;q=0.8,en;q=0.7","67f14975a8c12321ab2d0e61","6877649eabb845cf142cd221","689316ebdaebc50ec5fbb5fc","1","67f14975a8c12321ab2d0e61","1","2025-08-06T09:06:18.828Z","","","","MotivationQ","","","","","","","","","","","50","","","","","","","","","","","","","","","","","","","","","","","","","","",""
"","","","","ctl-task-cpt","43","808587","0.0-7.0-0.6","123","1","2025-08-06 08:49:52","36c45c0696341be0efffe67d72a12abb","41.150.35.66","Mozilla/5.0 (Windows NT 10.0; Win64; x64) AppleWebKit/537.36 (KHTML, like Gecko) Chrome/138.0.0.0 Safari/537.36","WebKit","Chrome","138.0.0.0","Windows","10.0","https://app.prolific.com/","en-ZA,en-GB;q=0.9,en-US;q=0.8,en;q=0.7","67f14975a8c12321ab2d0e61","6877649eabb845cf142cd221","689316ebdaebc50ec5fbb5fc","1","67f14975a8c12321ab2d0e61","1","2025-08-06T09:07:10.733Z","","","","","","","","","","","","","","","","win-only","1","g1:NE,g2:SW","0.4","7","0","765800.1","1396.1","6405.5","48891.8","1","4","4","6","2","-4","-4","15","19","0.11363636363636363","994","3000","-2330","[""down"",""left""]","{""num_key_presses"":12,""num_perfect"":5,""num_errors"":0,""num_randdir"":7,""num_randdir_good_moves"":2,""num_whilered"":0,""num_whileblue"":0,""num_blue"":2,""num_good_moves"":7}","[297.22232142857143,290.12857142857143,0.3,297.22232142857143,290.12857142857143,100.3,297.22232142857143,290.12857142857143,209.7,297.22232142857143,290.12857142857143,310.1,251.22232142857143,313.12857142857143,418.9,172.22232142857143,391.12857142857143,519.5,106.22232142857143,467.12857142857143,622.3,96.22232142857143,524.1285714285714,726.3,96.22232142857143,525.1285714285714,829.6,96.22232142857143,525.1285714285714,929.9,96.22232142857143,525.1285714285714,1038,96.22232142857143,525.1285714285714,1139.5,96.22232142857143,525.1285714285714,1241.3,96.22232142857143,525.1285714285714,1348.6,96.22232142857143,525.1285714285714,1449.4,96.22232142857143,525.1285714285714,1554,96.22232142857143,525.1285714285714,1655.8,96.22232142857143,525.1285714285714,1765.4,96.22232142857143,525.1285714285714,1871,96.22232142857143,525.1285714285714,1971.2,96.22232142857143,525.1285714285714,2077.3,96.22232142857143,525.1285714285714,2179.1,96.22232142857143,525.1285714285714,2282.4,96.22232142857143,525.1285714285714,2387.5,96.22232142857143,525.1285714285714,2490,96.22232142857143,525.1285714285714,2590.8,96.22232142857143,525.1285714285714,2692.3,96.22232142857143,525.1285714285714,2795.4,96.22232142857143,525.1285714285714,2899.3,96.22232142857143,525.1285714285714,2999.3,96.22232142857143,525.1285714285714,3100.6,96.22232142857143,525.1285714285714,3209,96.22232142857143,525.1285714285714,3310.3,96.22232142857143,525.1285714285714,3418.4,96.22232142857143,525.1285714285714,3523.5,96.22232142857143,525.1285714285714,3626.6,96.22232142857143,525.1285714285714,3737.8,96.22232142857143,525.1285714285714,3841,96.22232142857143,525.1285714285714,3941.5,96.22232142857143,525.1285714285714,4042.3,96.22232142857143,525.1285714285714,4144.8,96.22232142857143,525.1285714285714,4250.4,96.22232142857143,525.1285714285714,4356.4,96.22232142857143,525.1285714285714,4459.4,96.22232142857143,525.1285714285714,4563.3,96.22232142857143,525.1285714285714,4665.4,96.22232142857143,525.1285714285714,4774,96.22232142857143,525.1285714285714,4875.5,96.22232142857143,525.1285714285714,4982.4]","[1302.3,1302.3,1000,0,302.3,""smooth"",""down"",""down"",""good_move"",4016.9,2714,2357.1,1302.9,356.9,""oops"",""down"",""right"",""bad_move"",6773.5,2756.2,2460.1,4017.3,296.1,""oops"",""down"",""up"",""bad_move"",10317.5,3543.5,3257.2,6774,286.3,""smooth"",""down"",""down"",""good_move"",13052,2734.2,2461.4,10317.8,272.8,""oops"",""down"",""left"",""good_move"",16183.6,3131.2,2798,13052.4,333.2,""oops"",""down"",""right"",""bad_move"",19091.5,2907.2,2600,16184.3,307.2,""oops"",""down"",""right"",""bad_move"",22201.6,3109.7,2786.8,19091.9,322.9,""oops"",""down"",""down"",""good_move"",28357.3,6155.2,2773.2,25259.2,324.9,""smooth"",""down"",""down"",""good_move"",31293.1,2935.5,2650.1,28357.6,285.4,""smooth"",""left"",""left"",""good_move"",37403.3,6109.6,2972.1,34035.4,395.9,""oops"",""left"",""right"",""bad_move"",39966.5,2562.6,2170.5,37403.9,392.1,""smooth"",""left"",""left"",""good_move""]"
"3243","","<div style=""width:500px;"">
  <p>What determined the result of this run?</p>
  </div>","100","html-slider-response","44","811831","0.0-7.0-1.6","123","1","2025-08-06 08:49:52","36c45c0696341be0efffe67d72a12abb","41.150.35.66","Mozilla/5.0 (Windows NT 10.0; Win64; x64) AppleWebKit/537.36 (KHTML, like Gecko) Chrome/138.0.0.0 Safari/537.36","WebKit","Chrome","138.0.0.0","Windows","10.0","https://app.prolific.com/","en-ZA,en-GB;q=0.9,en-US;q=0.8,en;q=0.7","67f14975a8c12321ab2d0e61","6877649eabb845cf142cd221","689316ebdaebc50ec5fbb5fc","1","67f14975a8c12321ab2d0e61","1","2025-08-06T09:07:13.978Z","","","","AttribQ","","","","","","","","","","","50","","","","","","","","","","","","","","","","","","","","","","","","","","",""
"2497","","<div style=""width:500px;"">
  <p>How much control did you have over the ball?</p>
  </div>","69","html-slider-response","45","814330","0.0-7.0-2.6","123","1","2025-08-06 08:49:52","36c45c0696341be0efffe67d72a12abb","41.150.35.66","Mozilla/5.0 (Windows NT 10.0; Win64; x64) AppleWebKit/537.36 (KHTML, like Gecko) Chrome/138.0.0.0 Safari/537.36","WebKit","Chrome","138.0.0.0","Windows","10.0","https://app.prolific.com/","en-ZA,en-GB;q=0.9,en-US;q=0.8,en;q=0.7","67f14975a8c12321ab2d0e61","6877649eabb845cf142cd221","689316ebdaebc50ec5fbb5fc","1","67f14975a8c12321ab2d0e61","1","2025-08-06T09:07:16.477Z","","","","ControlQ","","","","","","","","","","","50","","","","","","","","","","","","","","","","","","","","","","","","","","",""
"2697","","<div style=""width:500px;"">
  <p>How would you describe your current emotional state?</p>
  </div>","38","html-slider-response","46","817029","0.0-7.0-3.6","123","1","2025-08-06 08:49:52","36c45c0696341be0efffe67d72a12abb","41.150.35.66","Mozilla/5.0 (Windows NT 10.0; Win64; x64) AppleWebKit/537.36 (KHTML, like Gecko) Chrome/138.0.0.0 Safari/537.36","WebKit","Chrome","138.0.0.0","Windows","10.0","https://app.prolific.com/","en-ZA,en-GB;q=0.9,en-US;q=0.8,en;q=0.7","67f14975a8c12321ab2d0e61","6877649eabb845cf142cd221","689316ebdaebc50ec5fbb5fc","1","67f14975a8c12321ab2d0e61","1","2025-08-06T09:07:19.175Z","","","","StressQ","","","","","","","","","","","50","","","","","","","","","","","","","","","","","","","","","","","","","","",""
"4479","","<div style=""width:500px;"">
  <p>What best describes how you currently feel?</p>
  </div>","100","html-slider-response","47","821509","0.0-7.0-4.6","123","1","2025-08-06 08:49:52","36c45c0696341be0efffe67d72a12abb","41.150.35.66","Mozilla/5.0 (Windows NT 10.0; Win64; x64) AppleWebKit/537.36 (KHTML, like Gecko) Chrome/138.0.0.0 Safari/537.36","WebKit","Chrome","138.0.0.0","Windows","10.0","https://app.prolific.com/","en-ZA,en-GB;q=0.9,en-US;q=0.8,en;q=0.7","67f14975a8c12321ab2d0e61","6877649eabb845cf142cd221","689316ebdaebc50ec5fbb5fc","1","67f14975a8c12321ab2d0e61","1","2025-08-06T09:07:23.656Z","","","","MotivationQ","","","","","","","","","","","50","","","","","","","","","","","","","","","","","","","","","","","","","","",""
"","","","","ctl-task-cpt","48","871987","0.0-7.0-0.7","123","1","2025-08-06 08:49:52","36c45c0696341be0efffe67d72a12abb","41.150.35.66","Mozilla/5.0 (Windows NT 10.0; Win64; x64) AppleWebKit/537.36 (KHTML, like Gecko) Chrome/138.0.0.0 Safari/537.36","WebKit","Chrome","138.0.0.0","Windows","10.0","https://app.prolific.com/","en-ZA,en-GB;q=0.9,en-US;q=0.8,en;q=0.7","67f14975a8c12321ab2d0e61","6877649eabb845cf142cd221","689316ebdaebc50ec5fbb5fc","1","67f14975a8c12321ab2d0e61","1","2025-08-06T09:08:14.133Z","","","","","","","","","","","","","","","","win-only","2","g1:SE,g2:NW","0.3","8","0","830627.9","947.7","5949.4","47460.8","1","4","8","6","2","-8","-8","7","15","0.05303030303030303","1216.7","3000","-2120","[""left"",""up""]","{""num_key_presses"":13,""num_perfect"":3,""num_errors"":0,""num_randdir"":10,""num_randdir_good_moves"":4,""num_whilered"":0,""num_whileblue"":0,""num_blue"":1,""num_good_moves"":7}","[298.22232142857143,295.12857142857143,0.2,298.22232142857143,295.12857142857143,104.4,298.22232142857143,295.12857142857143,208.3,298.22232142857143,295.12857142857143,315.1,286.22232142857143,292.12857142857143,416.1,137.22232142857143,72.12857142857143,526.9,1.2223214285714263,-52.871428571428574,630.7,1.2223214285714263,-53.871428571428574,738.1,9.222321428571426,-25.871428571428574,839.7,45.222321428571426,20.128571428571426,944.8,58.222321428571426,37.128571428571426,1045.2,58.222321428571426,37.128571428571426,1145.6,58.222321428571426,37.128571428571426,1246.8,58.222321428571426,37.128571428571426,1348.9,58.222321428571426,37.128571428571426,1454.2,58.222321428571426,37.128571428571426,1562.5,58.222321428571426,37.128571428571426,1666.9,58.222321428571426,37.128571428571426,1773.8,58.222321428571426,37.128571428571426,1877.2,58.222321428571426,37.128571428571426,1977.7,58.222321428571426,37.128571428571426,2078.1,58.222321428571426,37.128571428571426,2180.7,58.222321428571426,37.128571428571426,2283.6,58.222321428571426,37.128571428571426,2384.8,58.222321428571426,37.128571428571426,2487.6,58.222321428571426,37.128571428571426,2594.1,58.222321428571426,37.128571428571426,2694.5,58.222321428571426,37.128571428571426,2797.2,58.222321428571426,37.128571428571426,2897.9,58.222321428571426,37.128571428571426,2998.8,58.222321428571426,37.128571428571426,3105.7,58.222321428571426,37.128571428571426,3205.7,58.222321428571426,37.128571428571426,3310.5,58.222321428571426,37.128571428571426,3415,58.222321428571426,37.128571428571426,3526,58.222321428571426,37.128571428571426,3628,58.222321428571426,37.128571428571426,3734.1,58.222321428571426,37.128571428571426,3841.6,58.222321428571426,37.128571428571426,3944.4,58.222321428571426,37.128571428571426,4047.7,58.222321428571426,37.128571428571426,4151.6,58.222321428571426,37.128571428571426,4254.5,58.222321428571426,37.128571428571426,4358,58.222321428571426,37.128571428571426,4459.4,58.222321428571426,37.128571428571426,4567.5,58.222321428571426,37.128571428571426,4669,58.222321428571426,37.128571428571426,4776.4,58.222321428571426,37.128571428571426,4878.5,58.222321428571426,37.128571428571426,4979.1]","[1358,1358,1000,0,358,""smooth"",""up"",""up"",""good_move"",4856.6,3498.1,3234.8,1358.5,263.3,""smooth"",""up"",""up"",""good_move"",7749.6,2892.8,2612.1,4856.8,280.7,""oops"",""up"",""right"",""bad_move"",10357.9,2607.7,2316.4,7750.2,291.3,""oops"",""up"",""down"",""bad_move"",13427.2,3069,2819.5,10358.3,249.5,""oops"",""up"",""right"",""bad_move"",15789.5,2361.9,2031.9,13427.6,330,""oops"",""up"",""up"",""good_move"",18185.6,2395.2,2077.9,15790.4,317.3,""smooth"",""up"",""up"",""good_move"",21725.2,3539.3,3256.1,18185.9,283.2,""oops"",""left"",""down"",""bad_move"",27188.6,5462.8,2322.3,24472.8,393.5,""oops"",""left"",""up"",""good_move"",29991.9,2802.8,2431.3,27189.1,371.5,""oops"",""left"",""left"",""good_move"",33110.5,3118.1,2797.9,29992.4,320.2,""oops"",""left"",""right"",""bad_move"",35406.3,2295.3,1956.4,33111,338.9,""oops"",""left"",""left"",""good_move"",38911.1,3504.4,3057.8,35406.7,446.6,""oops"",""left"",""down"",""bad_move""]"
"3817","","<div style=""width:500px;"">
  <p>What determined the result of this run?</p>
  </div>","100","html-slider-response","49","875806","0.0-7.0-1.7","123","1","2025-08-06 08:49:52","36c45c0696341be0efffe67d72a12abb","41.150.35.66","Mozilla/5.0 (Windows NT 10.0; Win64; x64) AppleWebKit/537.36 (KHTML, like Gecko) Chrome/138.0.0.0 Safari/537.36","WebKit","Chrome","138.0.0.0","Windows","10.0","https://app.prolific.com/","en-ZA,en-GB;q=0.9,en-US;q=0.8,en;q=0.7","67f14975a8c12321ab2d0e61","6877649eabb845cf142cd221","689316ebdaebc50ec5fbb5fc","1","67f14975a8c12321ab2d0e61","1","2025-08-06T09:08:17.952Z","","","","AttribQ","","","","","","","","","","","50","","","","","","","","","","","","","","","","","","","","","","","","","","",""
"3422","","<div style=""width:500px;"">
  <p>How much control did you have over the ball?</p>
  </div>","58","html-slider-response","50","879230","0.0-7.0-2.7","123","1","2025-08-06 08:49:52","36c45c0696341be0efffe67d72a12abb","41.150.35.66","Mozilla/5.0 (Windows NT 10.0; Win64; x64) AppleWebKit/537.36 (KHTML, like Gecko) Chrome/138.0.0.0 Safari/537.36","WebKit","Chrome","138.0.0.0","Windows","10.0","https://app.prolific.com/","en-ZA,en-GB;q=0.9,en-US;q=0.8,en;q=0.7","67f14975a8c12321ab2d0e61","6877649eabb845cf142cd221","689316ebdaebc50ec5fbb5fc","1","67f14975a8c12321ab2d0e61","1","2025-08-06T09:08:21.376Z","","","","ControlQ","","","","","","","","","","","50","","","","","","","","","","","","","","","","","","","","","","","","","","",""
"4094","","<div style=""width:500px;"">
  <p>How would you describe your current emotional state?</p>
  </div>","52","html-slider-response","51","883326","0.0-7.0-3.7","123","1","2025-08-06 08:49:52","36c45c0696341be0efffe67d72a12abb","41.150.35.66","Mozilla/5.0 (Windows NT 10.0; Win64; x64) AppleWebKit/537.36 (KHTML, like Gecko) Chrome/138.0.0.0 Safari/537.36","WebKit","Chrome","138.0.0.0","Windows","10.0","https://app.prolific.com/","en-ZA,en-GB;q=0.9,en-US;q=0.8,en;q=0.7","67f14975a8c12321ab2d0e61","6877649eabb845cf142cd221","689316ebdaebc50ec5fbb5fc","1","67f14975a8c12321ab2d0e61","1","2025-08-06T09:08:25.472Z","","","","StressQ","","","","","","","","","","","50","","","","","","","","","","","","","","","","","","","","","","","","","","",""
"5561","","<div style=""width:500px;"">
  <p>What best describes how you currently feel?</p>
  </div>","52","html-slider-response","52","888890","0.0-7.0-4.7","123","1","2025-08-06 08:49:52","36c45c0696341be0efffe67d72a12abb","41.150.35.66","Mozilla/5.0 (Windows NT 10.0; Win64; x64) AppleWebKit/537.36 (KHTML, like Gecko) Chrome/138.0.0.0 Safari/537.36","WebKit","Chrome","138.0.0.0","Windows","10.0","https://app.prolific.com/","en-ZA,en-GB;q=0.9,en-US;q=0.8,en;q=0.7","67f14975a8c12321ab2d0e61","6877649eabb845cf142cd221","689316ebdaebc50ec5fbb5fc","1","67f14975a8c12321ab2d0e61","1","2025-08-06T09:08:31.037Z","","","","MotivationQ","","","","","","","","","","","50","","","","","","","","","","","","","","","","","","","","","","","","","","",""
"","","","","ctl-task-cpt","53","938067","0.0-7.0-0.8","123","1","2025-08-06 08:49:52","36c45c0696341be0efffe67d72a12abb","41.150.35.66","Mozilla/5.0 (Windows NT 10.0; Win64; x64) AppleWebKit/537.36 (KHTML, like Gecko) Chrome/138.0.0.0 Safari/537.36","WebKit","Chrome","138.0.0.0","Windows","10.0","https://app.prolific.com/","en-ZA,en-GB;q=0.9,en-US;q=0.8,en;q=0.7","67f14975a8c12321ab2d0e61","6877649eabb845cf142cd221","689316ebdaebc50ec5fbb5fc","1","67f14975a8c12321ab2d0e61","1","2025-08-06T09:09:20.213Z","","","","","","","","","","","","","","","","win-only","1","g1:NE,g2:SW","0.4","9","0","898008.5","1334.8","6335.9","46150","1","4","8","6","2","-8","-8","0","7","0","1049.6","3000","-2130","[""down"",""left""]","{""num_key_presses"":11,""num_perfect"":4,""num_errors"":0,""num_randdir"":7,""num_randdir_good_moves"":3,""num_whilered"":0,""num_whileblue"":0,""num_blue"":2,""num_good_moves"":7}","[297.22232142857143,301.12857142857143,0.3,297.22232142857143,301.12857142857143,101.6,297.22232142857143,301.12857142857143,209.3,297.22232142857143,301.12857142857143,320.1,281.22232142857143,310.12857142857143,427.9,209.22232142857143,393.12857142857143,530.6,139.22232142857143,452.12857142857143,631.5,112.22232142857143,476.12857142857143,733.5,68.22232142857143,509.12857142857143,833.9,66.22232142857143,512.1285714285714,944,66.22232142857143,512.1285714285714,1044.9,66.22232142857143,512.1285714285714,1146.9,66.22232142857143,512.1285714285714,1251.3,66.22232142857143,512.1285714285714,1353.6,66.22232142857143,512.1285714285714,1456.2,66.22232142857143,512.1285714285714,1556.4,66.22232142857143,512.1285714285714,1661.3,66.22232142857143,512.1285714285714,1762.1,66.22232142857143,512.1285714285714,1868.4,66.22232142857143,512.1285714285714,1976.8,66.22232142857143,512.1285714285714,2081.7,66.22232142857143,512.1285714285714,2182.9,66.22232142857143,512.1285714285714,2286.8,66.22232142857143,512.1285714285714,2393.5,66.22232142857143,512.1285714285714,2493.6,66.22232142857143,512.1285714285714,2600.6,66.22232142857143,512.1285714285714,2709.5,66.22232142857143,512.1285714285714,2812.2,66.22232142857143,512.1285714285714,2922.6,66.22232142857143,512.1285714285714,3030.6,66.22232142857143,512.1285714285714,3134.5,66.22232142857143,512.1285714285714,3237.4,66.22232142857143,512.1285714285714,3339.8,66.22232142857143,512.1285714285714,3444.2,66.22232142857143,512.1285714285714,3545.7,66.22232142857143,512.1285714285714,3653.5,66.22232142857143,512.1285714285714,3755.1,66.22232142857143,512.1285714285714,3855.7,66.22232142857143,512.1285714285714,3961.7,66.22232142857143,512.1285714285714,4069.3,66.22232142857143,512.1285714285714,4176.1,66.22232142857143,512.1285714285714,4280.9,66.22232142857143,512.1285714285714,4383,66.22232142857143,512.1285714285714,4485,66.22232142857143,512.1285714285714,4586,66.22232142857143,512.1285714285714,4689.4,66.22232142857143,512.1285714285714,4795.4,66.22232142857143,512.1285714285714,4896.2]","[4462.3,4462.3,2026,2006.9,429.4,""smooth"",""down"",""down"",""good_move"",6940.2,2477.4,2113.7,4462.8,363.7,""smooth"",""down"",""down"",""good_move"",10164.9,3224.3,2852.9,6940.7,371.4,""oops"",""down"",""left"",""good_move"",16835.4,6670,2762.3,13661,412.1,""oops"",""down"",""down"",""good_move"",18938.6,2102.6,1675.2,16836,427.4,""oops"",""left"",""right"",""bad_move"",22005.8,3066.7,2707.2,18939.1,359.5,""smooth"",""left"",""left"",""good_move"",25008.3,3001.9,2563.7,22006.4,438.2,""oops"",""left"",""up"",""bad_move"",27587.9,2579.1,2143.8,25008.8,435.3,""oops"",""left"",""down"",""good_move"",30056.4,2467.9,2110.9,27588.5,357,""smooth"",""left"",""left"",""good_move"",32337.2,2280.4,1938.5,30056.8,341.9,""oops"",""left"",""right"",""bad_move"",36126.8,3789.1,3499.3,32337.7,289.8,""oops"",""left"",""right"",""bad_move""]"
"6240","","<div style=""width:500px;"">
  <p>What determined the result of this run?</p>
  </div>","76","html-slider-response","54","944309","0.0-7.0-1.8","123","1","2025-08-06 08:49:52","36c45c0696341be0efffe67d72a12abb","41.150.35.66","Mozilla/5.0 (Windows NT 10.0; Win64; x64) AppleWebKit/537.36 (KHTML, like Gecko) Chrome/138.0.0.0 Safari/537.36","WebKit","Chrome","138.0.0.0","Windows","10.0","https://app.prolific.com/","en-ZA,en-GB;q=0.9,en-US;q=0.8,en;q=0.7","67f14975a8c12321ab2d0e61","6877649eabb845cf142cd221","689316ebdaebc50ec5fbb5fc","1","67f14975a8c12321ab2d0e61","1","2025-08-06T09:09:26.455Z","","","","AttribQ","","","","","","","","","","","50","","","","","","","","","","","","","","","","","","","","","","","","","","",""
"3815","","<div style=""width:500px;"">
  <p>How much control did you have over the ball?</p>
  </div>","62","html-slider-response","55","948126","0.0-7.0-2.8","123","1","2025-08-06 08:49:52","36c45c0696341be0efffe67d72a12abb","41.150.35.66","Mozilla/5.0 (Windows NT 10.0; Win64; x64) AppleWebKit/537.36 (KHTML, like Gecko) Chrome/138.0.0.0 Safari/537.36","WebKit","Chrome","138.0.0.0","Windows","10.0","https://app.prolific.com/","en-ZA,en-GB;q=0.9,en-US;q=0.8,en;q=0.7","67f14975a8c12321ab2d0e61","6877649eabb845cf142cd221","689316ebdaebc50ec5fbb5fc","1","67f14975a8c12321ab2d0e61","1","2025-08-06T09:09:30.272Z","","","","ControlQ","","","","","","","","","","","50","","","","","","","","","","","","","","","","","","","","","","","","","","",""
"3780","","<div style=""width:500px;"">
  <p>How would you describe your current emotional state?</p>
  </div>","55","html-slider-response","56","951908","0.0-7.0-3.8","123","1","2025-08-06 08:49:52","36c45c0696341be0efffe67d72a12abb","41.150.35.66","Mozilla/5.0 (Windows NT 10.0; Win64; x64) AppleWebKit/537.36 (KHTML, like Gecko) Chrome/138.0.0.0 Safari/537.36","WebKit","Chrome","138.0.0.0","Windows","10.0","https://app.prolific.com/","en-ZA,en-GB;q=0.9,en-US;q=0.8,en;q=0.7","67f14975a8c12321ab2d0e61","6877649eabb845cf142cd221","689316ebdaebc50ec5fbb5fc","1","67f14975a8c12321ab2d0e61","1","2025-08-06T09:09:34.054Z","","","","StressQ","","","","","","","","","","","50","","","","","","","","","","","","","","","","","","","","","","","","","","",""
"3312","","<div style=""width:500px;"">
  <p>What best describes how you currently feel?</p>
  </div>","82","html-slider-response","57","955221","0.0-7.0-4.8","123","1","2025-08-06 08:49:52","36c45c0696341be0efffe67d72a12abb","41.150.35.66","Mozilla/5.0 (Windows NT 10.0; Win64; x64) AppleWebKit/537.36 (KHTML, like Gecko) Chrome/138.0.0.0 Safari/537.36","WebKit","Chrome","138.0.0.0","Windows","10.0","https://app.prolific.com/","en-ZA,en-GB;q=0.9,en-US;q=0.8,en;q=0.7","67f14975a8c12321ab2d0e61","6877649eabb845cf142cd221","689316ebdaebc50ec5fbb5fc","1","67f14975a8c12321ab2d0e61","1","2025-08-06T09:09:37.367Z","","","","MotivationQ","","","","","","","","","","","50","","","","","","","","","","","","","","","","","","","","","","","","","","",""
"","","","","ctl-task-cpt","58","1001228","0.0-7.0-0.9","123","1","2025-08-06 08:49:52","36c45c0696341be0efffe67d72a12abb","41.150.35.66","Mozilla/5.0 (Windows NT 10.0; Win64; x64) AppleWebKit/537.36 (KHTML, like Gecko) Chrome/138.0.0.0 Safari/537.36","WebKit","Chrome","138.0.0.0","Windows","10.0","https://app.prolific.com/","en-ZA,en-GB;q=0.9,en-US;q=0.8,en;q=0.7","67f14975a8c12321ab2d0e61","6877649eabb845cf142cd221","689316ebdaebc50ec5fbb5fc","1","67f14975a8c12321ab2d0e61","1","2025-08-06T09:10:23.374Z","","","","","","","","","","","","","","","","win-only","0","g1:NW,g2:SE","0.5","10","0","964339.7","1131.2","6135.1","42999.7","1","4","4","6","2","-4","-4","0","0","0","959.2","3000","-2065","[""down"",""right""]","{""num_key_presses"":11,""num_perfect"":6,""num_errors"":0,""num_randdir"":5,""num_randdir_good_moves"":1,""num_whilered"":0,""num_whileblue"":0,""num_blue"":1,""num_good_moves"":7}","[297.22232142857143,300.12857142857143,0.2,297.22232142857143,300.12857142857143,105,297.22232142857143,300.12857142857143,206.7,297.22232142857143,300.12857142857143,309.2,282.22232142857143,301.12857142857143,409.5,492.22232142857143,495.12857142857143,512.3,509.22232142857143,508.12857142857143,612.3,509.22232142857143,508.12857142857143,720.4,509.22232142857143,508.12857142857143,827.2,509.22232142857143,508.12857142857143,931.8,509.22232142857143,508.12857142857143,1037.7,509.22232142857143,508.12857142857143,1139.1,509.22232142857143,508.12857142857143,1240.1,509.22232142857143,508.12857142857143,1341.3,509.22232142857143,508.12857142857143,1444.3,509.22232142857143,508.12857142857143,1544.5,509.22232142857143,508.12857142857143,1647.8,509.22232142857143,508.12857142857143,1752,509.22232142857143,508.12857142857143,1855.8,509.22232142857143,508.12857142857143,1964.6,509.22232142857143,508.12857142857143,2065,509.22232142857143,508.12857142857143,2165.5,509.22232142857143,508.12857142857143,2266.9,509.22232142857143,508.12857142857143,2373.5,509.22232142857143,508.12857142857143,2478,509.22232142857143,508.12857142857143,2583.2,509.22232142857143,508.12857142857143,2685,509.22232142857143,508.12857142857143,2790.2,509.22232142857143,508.12857142857143,2891.3,509.22232142857143,508.12857142857143,3001,509.22232142857143,508.12857142857143,3108.3,509.22232142857143,508.12857142857143,3208.7,509.22232142857143,508.12857142857143,3309.3,509.22232142857143,508.12857142857143,3412.4,509.22232142857143,508.12857142857143,3518.6,509.22232142857143,508.12857142857143,3625.2,509.22232142857143,508.12857142857143,3729.5,509.22232142857143,508.12857142857143,3831.2,509.22232142857143,508.12857142857143,3931.2,509.22232142857143,508.12857142857143,4031.6,509.22232142857143,508.12857142857143,4131.9,509.22232142857143,508.12857142857143,4235.2,509.22232142857143,508.12857142857143,4340.8,509.22232142857143,508.12857142857143,4448,509.22232142857143,508.12857142857143,4549.2,509.22232142857143,508.12857142857143,4655,509.22232142857143,508.12857142857143,4759.8,509.22232142857143,508.12857142857143,4872.9,509.22232142857143,508.12857142857143,4974.1]","[1311.7,1311.8,1000,0,311.8,""smooth"",""right"",""right"",""good_move"",4238.2,2926,2584.5,1312.2,341.5,""oops"",""right"",""down"",""good_move"",7115.9,2877,2469.5,4238.9,407.5,""smooth"",""right"",""right"",""good_move"",9353,2236.8,1885.3,7116.2,351.5,""smooth"",""right"",""right"",""good_move"",12770.4,3417.1,3081.3,9353.3,335.8,""smooth"",""down"",""down"",""good_move"",15405.9,2635.1,2326,12770.8,309.1,""oops"",""down"",""up"",""bad_move"",18340.1,2933.7,2565,15406.4,368.7,""smooth"",""down"",""down"",""good_move"",25521.5,7181.1,2799.5,22343,379,""oops"",""down"",""left"",""bad_move"",28206,2684.1,2202.1,25522,482,""oops"",""down"",""left"",""bad_move"",31598.3,3392,3035.6,28206.3,356.4,""oops"",""right"",""up"",""bad_move"",34554.4,2955.4,2537.8,31599,417.6,""smooth"",""right"",""right"",""good_move""]"
"3935","","<div style=""width:500px;"">
  <p>What determined the result of this run?</p>
  </div>","64","html-slider-response","59","1005165","0.0-7.0-1.9","123","1","2025-08-06 08:49:52","36c45c0696341be0efffe67d72a12abb","41.150.35.66","Mozilla/5.0 (Windows NT 10.0; Win64; x64) AppleWebKit/537.36 (KHTML, like Gecko) Chrome/138.0.0.0 Safari/537.36","WebKit","Chrome","138.0.0.0","Windows","10.0","https://app.prolific.com/","en-ZA,en-GB;q=0.9,en-US;q=0.8,en;q=0.7","67f14975a8c12321ab2d0e61","6877649eabb845cf142cd221","689316ebdaebc50ec5fbb5fc","1","67f14975a8c12321ab2d0e61","1","2025-08-06T09:10:27.311Z","","","","AttribQ","","","","","","","","","","","50","","","","","","","","","","","","","","","","","","","","","","","","","","",""
"3529","","<div style=""width:500px;"">
  <p>How much control did you have over the ball?</p>
  </div>","46","html-slider-response","60","1008695","0.0-7.0-2.9","123","1","2025-08-06 08:49:52","36c45c0696341be0efffe67d72a12abb","41.150.35.66","Mozilla/5.0 (Windows NT 10.0; Win64; x64) AppleWebKit/537.36 (KHTML, like Gecko) Chrome/138.0.0.0 Safari/537.36","WebKit","Chrome","138.0.0.0","Windows","10.0","https://app.prolific.com/","en-ZA,en-GB;q=0.9,en-US;q=0.8,en;q=0.7","67f14975a8c12321ab2d0e61","6877649eabb845cf142cd221","689316ebdaebc50ec5fbb5fc","1","67f14975a8c12321ab2d0e61","1","2025-08-06T09:10:30.841Z","","","","ControlQ","","","","","","","","","","","50","","","","","","","","","","","","","","","","","","","","","","","","","","",""
"3407","","<div style=""width:500px;"">
  <p>How would you describe your current emotional state?</p>
  </div>","46","html-slider-response","61","1012104","0.0-7.0-3.9","123","1","2025-08-06 08:49:52","36c45c0696341be0efffe67d72a12abb","41.150.35.66","Mozilla/5.0 (Windows NT 10.0; Win64; x64) AppleWebKit/537.36 (KHTML, like Gecko) Chrome/138.0.0.0 Safari/537.36","WebKit","Chrome","138.0.0.0","Windows","10.0","https://app.prolific.com/","en-ZA,en-GB;q=0.9,en-US;q=0.8,en;q=0.7","67f14975a8c12321ab2d0e61","6877649eabb845cf142cd221","689316ebdaebc50ec5fbb5fc","1","67f14975a8c12321ab2d0e61","1","2025-08-06T09:10:34.250Z","","","","StressQ","","","","","","","","","","","50","","","","","","","","","","","","","","","","","","","","","","","","","","",""
"2536","","<div style=""width:500px;"">
  <p>What best describes how you currently feel?</p>
  </div>","97","html-slider-response","62","1014642","0.0-7.0-4.9","123","1","2025-08-06 08:49:52","36c45c0696341be0efffe67d72a12abb","41.150.35.66","Mozilla/5.0 (Windows NT 10.0; Win64; x64) AppleWebKit/537.36 (KHTML, like Gecko) Chrome/138.0.0.0 Safari/537.36","WebKit","Chrome","138.0.0.0","Windows","10.0","https://app.prolific.com/","en-ZA,en-GB;q=0.9,en-US;q=0.8,en;q=0.7","67f14975a8c12321ab2d0e61","6877649eabb845cf142cd221","689316ebdaebc50ec5fbb5fc","1","67f14975a8c12321ab2d0e61","1","2025-08-06T09:10:36.788Z","","","","MotivationQ","","","","","","","","","","","50","","","","","","","","","","","","","","","","","","","","","","","","","","",""
"","","","","ctl-task-cpt","63","1068853","0.0-7.0-0.10","123","1","2025-08-06 08:49:52","36c45c0696341be0efffe67d72a12abb","41.150.35.66","Mozilla/5.0 (Windows NT 10.0; Win64; x64) AppleWebKit/537.36 (KHTML, like Gecko) Chrome/138.0.0.0 Safari/537.36","WebKit","Chrome","138.0.0.0","Windows","10.0","https://app.prolific.com/","en-ZA,en-GB;q=0.9,en-US;q=0.8,en;q=0.7","67f14975a8c12321ab2d0e61","6877649eabb845cf142cd221","689316ebdaebc50ec5fbb5fc","1","67f14975a8c12321ab2d0e61","1","2025-08-06T09:11:30.999Z","","","","","","","","","","","","","","","","win-only","1","g1:NE,g2:SW","0.6","11","0","1023759.9","14219","19222.6","51206","1","4","8","6","2","8","8","8","0","0.06060606060606061","1006.8","3000","950","[""down"",""left""]","{""num_key_presses"":8,""num_perfect"":5,""num_errors"":0,""num_randdir"":3,""num_randdir_good_moves"":2,""num_whilered"":0,""num_whileblue"":0,""num_blue"":3,""num_good_moves"":7}","[300.22232142857143,291.12857142857143,0.4,300.22232142857143,291.12857142857143,100.6,300.22232142857143,291.12857142857143,208.3,300.22232142857143,291.12857142857143,313.5,247.22232142857143,329.12857142857143,415.1,120.22232142857143,452.12857142857143,517.1,94.22232142857143,489.12857142857143,622.4,77.22232142857143,501.12857142857143,736.4,53.222321428571426,525.1285714285714,841.9,53.222321428571426,525.1285714285714,946.3,53.222321428571426,525.1285714285714,1067.8,53.222321428571426,525.1285714285714,1168.8,53.222321428571426,525.1285714285714,1269.4,53.222321428571426,525.1285714285714,1371.9,53.222321428571426,525.1285714285714,1482.8,53.222321428571426,525.1285714285714,1586,53.222321428571426,525.1285714285714,1687.3,53.222321428571426,525.1285714285714,1789.7,53.222321428571426,525.1285714285714,1892,53.222321428571426,525.1285714285714,1996.2,53.222321428571426,525.1285714285714,2096.8,53.222321428571426,525.1285714285714,2207.1,53.222321428571426,525.1285714285714,2307.8,53.222321428571426,525.1285714285714,2413.8,53.222321428571426,525.1285714285714,2519.1,53.222321428571426,525.1285714285714,2621.6,53.222321428571426,525.1285714285714,2723.1,53.222321428571426,525.1285714285714,2828,53.222321428571426,525.1285714285714,2929.4,53.222321428571426,525.1285714285714,3030.3,53.222321428571426,525.1285714285714,3138.8,53.222321428571426,525.1285714285714,3243,53.222321428571426,525.1285714285714,3346.5,53.222321428571426,525.1285714285714,3447.5,53.222321428571426,525.1285714285714,3553.3,53.222321428571426,525.1285714285714,3661.1,53.222321428571426,525.1285714285714,3764.4,53.222321428571426,525.1285714285714,3868,53.222321428571426,525.1285714285714,3969.8,53.222321428571426,525.1285714285714,4078.7,53.222321428571426,525.1285714285714,4186,53.222321428571426,525.1285714285714,4287.3,53.222321428571426,525.1285714285714,4392.5,53.222321428571426,525.1285714285714,4502.6,53.222321428571426,525.1285714285714,4608.9,53.222321428571426,525.1285714285714,4712.6,53.222321428571426,525.1285714285714,4815,53.222321428571426,525.1285714285714,4918.7]","[1355,1355,1000,0,355,""smooth"",""down"",""down"",""good_move"",4878.5,3523,3202.4,1355.5,320.6,""smooth"",""down"",""down"",""good_move"",7669.9,2791.1,2388.6,4878.8,402.5,""smooth"",""down"",""down"",""good_move"",13961.8,6291.6,2582.1,10926.9,452.8,""oops"",""left"",""right"",""bad_move"",16791.2,2828.9,2429.4,13962.3,399.5,""smooth"",""left"",""left"",""good_move"",22331.1,5539.5,1982,20019.4,329.7,""smooth"",""left"",""left"",""good_move"",25330.5,2999.1,2660.1,22331.4,339,""oops"",""left"",""left"",""good_move"",31842.9,6512,2639.8,28740.5,462.6,""oops"",""left"",""left"",""good_move""]"
"4611","","<div style=""width:500px;"">
  <p>What determined the result of this run?</p>
  </div>","62","html-slider-response","64","1073466","0.0-7.0-1.10","123","1","2025-08-06 08:49:52","36c45c0696341be0efffe67d72a12abb","41.150.35.66","Mozilla/5.0 (Windows NT 10.0; Win64; x64) AppleWebKit/537.36 (KHTML, like Gecko) Chrome/138.0.0.0 Safari/537.36","WebKit","Chrome","138.0.0.0","Windows","10.0","https://app.prolific.com/","en-ZA,en-GB;q=0.9,en-US;q=0.8,en;q=0.7","67f14975a8c12321ab2d0e61","6877649eabb845cf142cd221","689316ebdaebc50ec5fbb5fc","1","67f14975a8c12321ab2d0e61","1","2025-08-06T09:11:35.612Z","","","","AttribQ","","","","","","","","","","","50","","","","","","","","","","","","","","","","","","","","","","","","","","",""
"5165","","<div style=""width:500px;"">
  <p>How much control did you have over the ball?</p>
  </div>","45","html-slider-response","65","1078632","0.0-7.0-2.10","123","1","2025-08-06 08:49:52","36c45c0696341be0efffe67d72a12abb","41.150.35.66","Mozilla/5.0 (Windows NT 10.0; Win64; x64) AppleWebKit/537.36 (KHTML, like Gecko) Chrome/138.0.0.0 Safari/537.36","WebKit","Chrome","138.0.0.0","Windows","10.0","https://app.prolific.com/","en-ZA,en-GB;q=0.9,en-US;q=0.8,en;q=0.7","67f14975a8c12321ab2d0e61","6877649eabb845cf142cd221","689316ebdaebc50ec5fbb5fc","1","67f14975a8c12321ab2d0e61","1","2025-08-06T09:11:40.778Z","","","","ControlQ","","","","","","","","","","","50","","","","","","","","","","","","","","","","","","","","","","","","","","",""
"3809","","<div style=""width:500px;"">
  <p>How would you describe your current emotional state?</p>
  </div>","59","html-slider-response","66","1082443","0.0-7.0-3.10","123","1","2025-08-06 08:49:52","36c45c0696341be0efffe67d72a12abb","41.150.35.66","Mozilla/5.0 (Windows NT 10.0; Win64; x64) AppleWebKit/537.36 (KHTML, like Gecko) Chrome/138.0.0.0 Safari/537.36","WebKit","Chrome","138.0.0.0","Windows","10.0","https://app.prolific.com/","en-ZA,en-GB;q=0.9,en-US;q=0.8,en;q=0.7","67f14975a8c12321ab2d0e61","6877649eabb845cf142cd221","689316ebdaebc50ec5fbb5fc","1","67f14975a8c12321ab2d0e61","1","2025-08-06T09:11:44.589Z","","","","StressQ","","","","","","","","","","","50","","","","","","","","","","","","","","","","","","","","","","","","","","",""
"2905","","<div style=""width:500px;"">
  <p>What best describes how you currently feel?</p>
  </div>","98","html-slider-response","67","1085350","0.0-7.0-4.10","123","1","2025-08-06 08:49:52","36c45c0696341be0efffe67d72a12abb","41.150.35.66","Mozilla/5.0 (Windows NT 10.0; Win64; x64) AppleWebKit/537.36 (KHTML, like Gecko) Chrome/138.0.0.0 Safari/537.36","WebKit","Chrome","138.0.0.0","Windows","10.0","https://app.prolific.com/","en-ZA,en-GB;q=0.9,en-US;q=0.8,en;q=0.7","67f14975a8c12321ab2d0e61","6877649eabb845cf142cd221","689316ebdaebc50ec5fbb5fc","1","67f14975a8c12321ab2d0e61","1","2025-08-06T09:11:47.496Z","","","","MotivationQ","","","","","","","","","","","50","","","","","","","","","","","","","","","","","","","","","","","","","","",""
"","","","","ctl-task-cpt","68","1136605","0.0-7.0-0.11","123","1","2025-08-06 08:49:52","36c45c0696341be0efffe67d72a12abb","41.150.35.66","Mozilla/5.0 (Windows NT 10.0; Win64; x64) AppleWebKit/537.36 (KHTML, like Gecko) Chrome/138.0.0.0 Safari/537.36","WebKit","Chrome","138.0.0.0","Windows","10.0","https://app.prolific.com/","en-ZA,en-GB;q=0.9,en-US;q=0.8,en;q=0.7","67f14975a8c12321ab2d0e61","6877649eabb845cf142cd221","689316ebdaebc50ec5fbb5fc","1","67f14975a8c12321ab2d0e61","1","2025-08-06T09:12:38.751Z","","","","","","","","","","","","","","","","win-only","3","g1:SW,g2:NE","0.7","12","0","1094468.4","1360.9","6366","48235.6","1","4","4","6","2","4","3","11","8","0.08333333333333333","1711","3000","75","[""up"",""right""]","{""num_key_presses"":12,""num_perfect"":8,""num_errors"":1,""num_randdir"":3,""num_randdir_good_moves"":1,""num_whilered"":0,""num_whileblue"":1,""num_blue"":3,""num_good_moves"":9}","[296.22232142857143,295.12857142857143,0.4,296.22232142857143,295.12857142857143,112.4,296.22232142857143,295.12857142857143,215.4,296.22232142857143,295.12857142857143,321.3,251.22232142857143,332.12857142857143,427.1,170.22232142857143,419.12857142857143,532.3,185.22232142857143,431.12857142857143,634.7,315.22232142857143,297.12857142857143,739.3,444.22232142857143,135.12857142857143,842,476.22232142857143,56.128571428571426,943.6,490.22232142857143,36.128571428571426,1047.8,491.22232142857143,36.128571428571426,1148.4,491.22232142857143,36.128571428571426,1256.1,491.22232142857143,36.128571428571426,1360.3,533.2223214285714,48.128571428571426,1461.4,533.2223214285714,48.128571428571426,1561.7,533.2223214285714,48.128571428571426,1664.5,533.2223214285714,48.128571428571426,1766.7,533.2223214285714,48.128571428571426,1875.7,533.2223214285714,48.128571428571426,1979.1,533.2223214285714,48.128571428571426,2082.1,533.2223214285714,48.128571428571426,2192.2,533.2223214285714,48.128571428571426,2293,533.2223214285714,48.128571428571426,2403,533.2223214285714,48.128571428571426,2504.5,533.2223214285714,48.128571428571426,2606.3,533.2223214285714,48.128571428571426,2716.9,533.2223214285714,48.128571428571426,2816.9,533.2223214285714,48.128571428571426,2916.9,533.2223214285714,48.128571428571426,3028.6,533.2223214285714,48.128571428571426,3133.1,533.2223214285714,48.128571428571426,3238,533.2223214285714,48.128571428571426,3343.2,533.2223214285714,48.128571428571426,3448.7,533.2223214285714,48.128571428571426,3548.8,533.2223214285714,48.128571428571426,3649.7,533.2223214285714,48.128571428571426,3756.8,533.2223214285714,48.128571428571426,3865.3,533.2223214285714,48.128571428571426,3977.2,533.2223214285714,48.128571428571426,4083.2,533.2223214285714,48.128571428571426,4194.6,533.2223214285714,48.128571428571426,4298.8,533.2223214285714,48.128571428571426,4399,533.2223214285714,48.128571428571426,4499.3,533.2223214285714,48.128571428571426,4603.7,533.2223214285714,48.128571428571426,4705.7,533.2223214285714,48.128571428571426,4807.5,533.2223214285714,48.128571428571426,4913.7]","[1308.2,1308.2,1000,0,308.2,""smooth"",""right"",""right"",""good_move"",3972.6,2663.9,2313.9,1308.7,350,""oops"",""right"",""right"",""good_move"",6964,2991,2700.6,3973,290.4,""smooth"",""right"",""right"",""good_move"",10082,3117.8,2742.1,6964.3,375.7,""smooth"",""up"",""up"",""good_move"",12918.2,2835.8,2473.3,10082.4,362.5,""smooth"",""up"",""up"",""good_move"",15955.7,3037.2,2747,12918.5,290.2,""while_blue"",""up"",""left"",""bad_move"",22990,7032.8,3102.1,19225.7,662.3,""oops"",""up"",""left"",""bad_move"",30053.6,7063,2511.6,27092,450,""smooth"",""right"",""right"",""good_move"",33126.7,3072.6,2647.3,30054.1,425.3,""smooth"",""right"",""right"",""good_move"",36148,3021.1,2614.2,33126.9,406.9,""oops"",""up"",""down"",""bad_move"",39283.8,3135.3,2817.6,36148.5,317.7,""smooth"",""up"",""up"",""good_move"",41761.3,2476.7,2129.1,39284.6,347.6,""smooth"",""up"",""up"",""good_move""]"
"2371","","<div style=""width:500px;"">
  <p>What determined the result of this run?</p>
  </div>","42","html-slider-response","69","1138977","0.0-7.0-1.11","123","1","2025-08-06 08:49:52","36c45c0696341be0efffe67d72a12abb","41.150.35.66","Mozilla/5.0 (Windows NT 10.0; Win64; x64) AppleWebKit/537.36 (KHTML, like Gecko) Chrome/138.0.0.0 Safari/537.36","WebKit","Chrome","138.0.0.0","Windows","10.0","https://app.prolific.com/","en-ZA,en-GB;q=0.9,en-US;q=0.8,en;q=0.7","67f14975a8c12321ab2d0e61","6877649eabb845cf142cd221","689316ebdaebc50ec5fbb5fc","1","67f14975a8c12321ab2d0e61","1","2025-08-06T09:12:41.123Z","","","","AttribQ","","","","","","","","","","","50","","","","","","","","","","","","","","","","","","","","","","","","","","",""
"3566","","<div style=""width:500px;"">
  <p>How much control did you have over the ball?</p>
  </div>","43","html-slider-response","70","1142544","0.0-7.0-2.11","123","1","2025-08-06 08:49:52","36c45c0696341be0efffe67d72a12abb","41.150.35.66","Mozilla/5.0 (Windows NT 10.0; Win64; x64) AppleWebKit/537.36 (KHTML, like Gecko) Chrome/138.0.0.0 Safari/537.36","WebKit","Chrome","138.0.0.0","Windows","10.0","https://app.prolific.com/","en-ZA,en-GB;q=0.9,en-US;q=0.8,en;q=0.7","67f14975a8c12321ab2d0e61","6877649eabb845cf142cd221","689316ebdaebc50ec5fbb5fc","1","67f14975a8c12321ab2d0e61","1","2025-08-06T09:12:44.690Z","","","","ControlQ","","","","","","","","","","","50","","","","","","","","","","","","","","","","","","","","","","","","","","",""
"2599","","<div style=""width:500px;"">
  <p>How would you describe your current emotional state?</p>
  </div>","57","html-slider-response","71","1145145","0.0-7.0-3.11","123","1","2025-08-06 08:49:52","36c45c0696341be0efffe67d72a12abb","41.150.35.66","Mozilla/5.0 (Windows NT 10.0; Win64; x64) AppleWebKit/537.36 (KHTML, like Gecko) Chrome/138.0.0.0 Safari/537.36","WebKit","Chrome","138.0.0.0","Windows","10.0","https://app.prolific.com/","en-ZA,en-GB;q=0.9,en-US;q=0.8,en;q=0.7","67f14975a8c12321ab2d0e61","6877649eabb845cf142cd221","689316ebdaebc50ec5fbb5fc","1","67f14975a8c12321ab2d0e61","1","2025-08-06T09:12:47.291Z","","","","StressQ","","","","","","","","","","","50","","","","","","","","","","","","","","","","","","","","","","","","","","",""
"2841","","<div style=""width:500px;"">
  <p>What best describes how you currently feel?</p>
  </div>","95","html-slider-response","72","1147988","0.0-7.0-4.11","123","1","2025-08-06 08:49:52","36c45c0696341be0efffe67d72a12abb","41.150.35.66","Mozilla/5.0 (Windows NT 10.0; Win64; x64) AppleWebKit/537.36 (KHTML, like Gecko) Chrome/138.0.0.0 Safari/537.36","WebKit","Chrome","138.0.0.0","Windows","10.0","https://app.prolific.com/","en-ZA,en-GB;q=0.9,en-US;q=0.8,en;q=0.7","67f14975a8c12321ab2d0e61","6877649eabb845cf142cd221","689316ebdaebc50ec5fbb5fc","1","67f14975a8c12321ab2d0e61","1","2025-08-06T09:12:50.134Z","","","","MotivationQ","","","","","","","","","","","50","","","","","","","","","","","","","","","","","","","","","","","","","","",""
"","","","","ctl-task-cpt","73","1177457","0.0-7.0-0.12","123","1","2025-08-06 08:49:52","36c45c0696341be0efffe67d72a12abb","41.150.35.66","Mozilla/5.0 (Windows NT 10.0; Win64; x64) AppleWebKit/537.36 (KHTML, like Gecko) Chrome/138.0.0.0 Safari/537.36","WebKit","Chrome","138.0.0.0","Windows","10.0","https://app.prolific.com/","en-ZA,en-GB;q=0.9,en-US;q=0.8,en;q=0.7","67f14975a8c12321ab2d0e61","6877649eabb845cf142cd221","689316ebdaebc50ec5fbb5fc","1","67f14975a8c12321ab2d0e61","1","2025-08-06T09:13:19.603Z","","","","","","","","","","","","","","","","win-only","1","g1:NE,g2:SW","0.8","13","0","1157108.3","2037.9","7043.9","26448.6","1","4","4","6","2","4","4","15","11","0.11363636363636363","958.6","3000","1600","[""down"",""left""]","{""num_key_presses"":6,""num_perfect"":5,""num_errors"":0,""num_randdir"":1,""num_randdir_good_moves"":1,""num_whilered"":0,""num_whileblue"":0,""num_blue"":1,""num_good_moves"":6}","[300.22232142857143,294.12857142857143,0.4,300.22232142857143,294.12857142857143,105,300.22232142857143,294.12857142857143,209.4,300.22232142857143,294.12857142857143,320.9,246.22232142857143,333.12857142857143,423.4,130.22232142857143,463.12857142857143,532.9,90.22232142857143,510.12857142857143,639.3,80.22232142857143,538.1285714285714,740.4,79.22232142857143,540.1285714285714,841,79.22232142857143,540.1285714285714,943.5,79.22232142857143,540.1285714285714,1044.5,79.22232142857143,540.1285714285714,1155.2,79.22232142857143,540.1285714285714,1257.8,79.22232142857143,540.1285714285714,1363.6,79.22232142857143,540.1285714285714,1465.1,79.22232142857143,540.1285714285714,1574.6,79.22232142857143,540.1285714285714,1678.4,79.22232142857143,540.1285714285714,1781,79.22232142857143,540.1285714285714,1883.1,79.22232142857143,540.1285714285714,1985.7,79.22232142857143,540.1285714285714,2094.4,79.22232142857143,540.1285714285714,2195.2,79.22232142857143,540.1285714285714,2303.7,79.22232142857143,540.1285714285714,2409.9,79.22232142857143,540.1285714285714,2521.6,79.22232142857143,540.1285714285714,2624.7,79.22232142857143,540.1285714285714,2732.9,79.22232142857143,540.1285714285714,2832.9,79.22232142857143,540.1285714285714,2934.3,79.22232142857143,540.1285714285714,3039.7,79.22232142857143,540.1285714285714,3139.7,79.22232142857143,540.1285714285714,3248.7,79.22232142857143,540.1285714285714,3354,79.22232142857143,540.1285714285714,3456,79.22232142857143,540.1285714285714,3561.3,79.22232142857143,540.1285714285714,3673,79.22232142857143,540.1285714285714,3779.2,79.22232142857143,540.1285714285714,3889.5,79.22232142857143,540.1285714285714,3990.8,79.22232142857143,540.1285714285714,4095.5,79.22232142857143,540.1285714285714,4199.3,79.22232142857143,540.1285714285714,4300,79.22232142857143,540.1285714285714,4403.9,79.22232142857143,540.1285714285714,4503.9,79.22232142857143,540.1285714285714,4610.9,79.22232142857143,540.1285714285714,4712.4,79.22232142857143,540.1285714285714,4814.1,79.22232142857143,540.1285714285714,4922.2]","[1309,1309.1,1000,0,309.1,""smooth"",""down"",""down"",""good_move"",3969.4,2659.7,2292.9,1309.7,366.8,""oops"",""down"",""left"",""good_move"",7370.1,3400.4,2999.6,3969.8,400.7,""smooth"",""down"",""down"",""good_move"",10225.3,2854.9,2485.4,7370.4,369.5,""smooth"",""down"",""down"",""good_move"",13451.3,3225.6,2875,10225.7,350.6,""smooth"",""left"",""left"",""good_move"",19285.4,5833.4,1868.8,17044.6,372,""smooth"",""left"",""left"",""good_move""]"
"5268","","<div style=""width:500px;"">
  <p>What determined the result of this run?</p>
  </div>","51","html-slider-response","74","1182726","0.0-7.0-1.12","123","1","2025-08-06 08:49:52","36c45c0696341be0efffe67d72a12abb","41.150.35.66","Mozilla/5.0 (Windows NT 10.0; Win64; x64) AppleWebKit/537.36 (KHTML, like Gecko) Chrome/138.0.0.0 Safari/537.36","WebKit","Chrome","138.0.0.0","Windows","10.0","https://app.prolific.com/","en-ZA,en-GB;q=0.9,en-US;q=0.8,en;q=0.7","67f14975a8c12321ab2d0e61","6877649eabb845cf142cd221","689316ebdaebc50ec5fbb5fc","1","67f14975a8c12321ab2d0e61","1","2025-08-06T09:13:24.873Z","","","","AttribQ","","","","","","","","","","","50","","","","","","","","","","","","","","","","","","","","","","","","","","",""
"3319","","<div style=""width:500px;"">
  <p>How much control did you have over the ball?</p>
