"rt","response_timestamp","stimulus","response","trial_type","trial_index","time_elapsed","internal_node_id","run_id","condition","recorded_at","source_code_version","ip","user_agent","device","browser","browser_version","platform","platform_version","referer","accept_language","PROLIFIC_PID","STUDY_ID","SESSION_ID","BATCH","prolific_id","batch","realtime","success","question_order","question_id","eventType","responses","item_order","radio_event_ids","radio_event_times","key_event_times","mouse_event_times","straightlining","zigzagging","honeypot","view_history","slider_start","which_type","canvas_config","goals_layout","control_level","trial_number","tutorial_trial_number","trial_start_time","phase1_start_time","phase2_start_time","phase3_start_time","goal_1_value","goal_1_distance","goal_2_value","goal_2_distance","goal_selected","outcome","outcome_total","participant_final_score","participant_initial_score","participant_final_score_prop","goal_choice_rt","allocated_time","allocated_time_remaining","goal_direction","counts","mouse_movements","key_presses"
"13765","1753865068299","<p style='font-size:40px;line-height:1.25'><strong>Welcome to the experiment!</strong></p><p style='font-size:1.1em;line-height:1.25'>Thank you for participanting in our experiment again! You will be asked to play the Dysfunctional Ball Game again. We will briefly recap the rules before we start.</p><p style='font-size:1.1em;line-height:1.25'>Press <strong>Next</strong> to continue.</p>","0","custom-html-button-response","0","13777","0.0-0.0","46","1","2025-07-30 08:44:10","36c45c0696341be0efffe67d72a12abb","41.150.216.44","Mozilla/5.0 (Windows NT 10.0; Win64; x64) AppleWebKit/537.36 (KHTML, like Gecko) Chrome/138.0.0.0 Safari/537.36 Edg/138.0.0.0","WebKit","Edge","138.0.0.0","Windows","10.0","https://app.prolific.com/","en-US,en;q=0.9,en-ZA;q=0.8","67f38b0b1f5fe0543c6e66ed","687a19d2168e237449fb8af4","6889da377ff026f365ce83df","0","67f38b0b1f5fe0543c6e66ed","0","2025-07-30T08:44:28.305Z","","","","","","","","","","","","","","","","","","","","","","","","","","","","","","","","","","","","","","","","","",""
"2364","","","","fullscreen","1","17157","0.0-1.0","46","1","2025-07-30 08:44:10","36c45c0696341be0efffe67d72a12abb","41.150.216.44","Mozilla/5.0 (Windows NT 10.0; Win64; x64) AppleWebKit/537.36 (KHTML, like Gecko) Chrome/138.0.0.0 Safari/537.36 Edg/138.0.0.0","WebKit","Edge","138.0.0.0","Windows","10.0","https://app.prolific.com/","en-US,en;q=0.9,en-ZA;q=0.8","67f38b0b1f5fe0543c6e66ed","687a19d2168e237449fb8af4","6889da377ff026f365ce83df","0","67f38b0b1f5fe0543c6e66ed","0","","true","","","","","","","","","","","","","","","","","","","","","","","","","","","","","","","","","","","","","","","","",""
"2423","1753865074108"," <p style='font-size:1.1em;line-height:1.25'>Thank you for closing all other tabs.</p><p style='font-size:1.1em;line-height:1.25'>We will now invite you to fill in some questionnaires, before starting the game.<br>This will take about 5 minutes.<br></p><p style='font-size:1.1em;line-height:1.25'>Press the <strong>Next</strong> button to continue.</p>","0","custom-html-button-response","2","19583","0.0-2.0","46","1","2025-07-30 08:44:10","36c45c0696341be0efffe67d72a12abb","41.150.216.44","Mozilla/5.0 (Windows NT 10.0; Win64; x64) AppleWebKit/537.36 (KHTML, like Gecko) Chrome/138.0.0.0 Safari/537.36 Edg/138.0.0.0","WebKit","Edge","138.0.0.0","Windows","10.0","https://app.prolific.com/","en-US,en;q=0.9,en-ZA;q=0.8","67f38b0b1f5fe0543c6e66ed","687a19d2168e237449fb8af4","6889da377ff026f365ce83df","0","67f38b0b1f5fe0543c6e66ed","0","2025-07-30T08:44:34.110Z","","","","","","","","","","","","","","","","","","","","","","","","","","","","","","","","","","","","","","","","","",""
"5218","","","{""assigned_sex"":""male""}","survey-multi-choice","3","24812","0.0-3.0-0.0","46","1","2025-07-30 08:44:10","36c45c0696341be0efffe67d72a12abb","41.150.216.44","Mozilla/5.0 (Windows NT 10.0; Win64; x64) AppleWebKit/537.36 (KHTML, like Gecko) Chrome/138.0.0.0 Safari/537.36 Edg/138.0.0.0","WebKit","Edge","138.0.0.0","Windows","10.0","https://app.prolific.com/","en-US,en;q=0.9,en-ZA;q=0.8","67f38b0b1f5fe0543c6e66ed","687a19d2168e237449fb8af4","6889da377ff026f365ce83df","0","67f38b0b1f5fe0543c6e66ed","0","","","[0]","0","demographics","","","","","","","","","","","","","","","","","","","","","","","","","","","","","","","","","","","","","",""
"2107","1753865081447","<p style='font-size:1.1em;line-height:1.25'>In the following, we will perform a baseline assessment. This means that we will ask you a few questions relating to your experiences over the past month.<br></p><p style='font-size:1.1em;line-height:1.25'>Press the <strong>Next</strong> button to continue.</p>","0","custom-html-button-response","4","26924","0.0-4.0-0.0","46","1","2025-07-30 08:44:10","36c45c0696341be0efffe67d72a12abb","41.150.216.44","Mozilla/5.0 (Windows NT 10.0; Win64; x64) AppleWebKit/537.36 (KHTML, like Gecko) Chrome/138.0.0.0 Safari/537.36 Edg/138.0.0.0","WebKit","Edge","138.0.0.0","Windows","10.0","https://app.prolific.com/","en-US,en;q=0.9,en-ZA;q=0.8","67f38b0b1f5fe0543c6e66ed","687a19d2168e237449fb8af4","6889da377ff026f365ce83df","0","67f38b0b1f5fe0543c6e66ed","0","2025-07-30T08:44:41.451Z","","","","","","","","","","","","","","","","","","","","","","","","","","","","","","","","","","","","","","","","","",""
"164054.69999998808","","","","survey-template","5","190996","0.0-4.0-1.0","46","1","2025-07-30 08:44:10","36c45c0696341be0efffe67d72a12abb","41.150.216.44","Mozilla/5.0 (Windows NT 10.0; Win64; x64) AppleWebKit/537.36 (KHTML, like Gecko) Chrome/138.0.0.0 Safari/537.36 Edg/138.0.0.0","WebKit","Edge","138.0.0.0","Windows","10.0","https://app.prolific.com/","en-US,en;q=0.9,en-ZA;q=0.8","67f38b0b1f5fe0543c6e66ed","687a19d2168e237449fb8af4","6889da377ff026f365ce83df","0","67f38b0b1f5fe0543c6e66ed","0","2025-07-30T08:47:25.524Z","","","","pss","{""Q01"":""4"",""Q02"":""3"",""Q03"":""4"",""Q04"":""0"",""Q05"":""0"",""Q06"":""1"",""Q07"":""1"",""Q08"":""0"",""Q09"":""3"",""Q10"":""4""}","[0,1,2,3,4,5,6,7,8,9]","[""Q01"",""Q02"",""Q03"",""Q04"",""Q05"",""Q06"",""Q07"",""Q08"",""Q09"",""Q10""]","[37602.29999998212,56156.90000000596,66496.29999998212,89224.79999998212,91061.09999999404,99061.69999998808,109334,118720.29999998212,154871.09999999404,161307.09999999404]","[]","[0.4000000059604645,37602.29999998212,56156.90000000596,59778.79999998212,66496.29999998212,67963.09999999404,89224.79999998212,91061.09999999404,99061.69999998808,100430.79999998212,109334,116319.79999998212,118720.29999998212,154871.09999999404,161307.09999999404,164041.29999998212]","0.6","0.5555555555555556","0","","","","","","","","","","","","","","","","","","","","","","","","","","","","",""
"3979","1753865249506","<p style='font-size:1.1em;line-height:1.25'>Thank you for your answers! Now we will ask you a few more questions relating to your feelings in the last 24 hours.<br></p><p style='font-size:1.1em;line-height:1.25'>Press the <strong>Next</strong> button to continue.</p>","0","custom-html-button-response","6","194982","0.0-4.0-2.0","46","1","2025-07-30 08:44:10","36c45c0696341be0efffe67d72a12abb","41.150.216.44","Mozilla/5.0 (Windows NT 10.0; Win64; x64) AppleWebKit/537.36 (KHTML, like Gecko) Chrome/138.0.0.0 Safari/537.36 Edg/138.0.0.0","WebKit","Edge","138.0.0.0","Windows","10.0","https://app.prolific.com/","en-US,en;q=0.9,en-ZA;q=0.8","67f38b0b1f5fe0543c6e66ed","687a19d2168e237449fb8af4","6889da377ff026f365ce83df","0","67f38b0b1f5fe0543c6e66ed","0","2025-07-30T08:47:29.509Z","","","","","","","","","","","","","","","","","","","","","","","","","","","","","","","","","","","","","","","","","",""
"206658.19999998808","","","","survey-template","7","401656","0.0-4.0-3.0","46","1","2025-07-30 08:44:10","36c45c0696341be0efffe67d72a12abb","41.150.216.44","Mozilla/5.0 (Windows NT 10.0; Win64; x64) AppleWebKit/537.36 (KHTML, like Gecko) Chrome/138.0.0.0 Safari/537.36 Edg/138.0.0.0","WebKit","Edge","138.0.0.0","Windows","10.0","https://app.prolific.com/","en-US,en;q=0.9,en-ZA;q=0.8","67f38b0b1f5fe0543c6e66ed","687a19d2168e237449fb8af4","6889da377ff026f365ce83df","0","67f38b0b1f5fe0543c6e66ed","0","2025-07-30T08:50:56.183Z","","","","drsp","{""Q01"":""3"",""Q02"":""2"",""Q03"":""1"",""Q04"":""1"",""Q05"":""3"",""Q06"":""3"",""Q07"":""2"",""Q08"":""4"",""Q09"":""4"",""Q10"":""3"",""Q11"":""3"",""Q12"":""2"",""Q13"":""5"",""Q14"":""5"",""Q15"":""4"",""Q16"":""3"",""Q17"":""4"",""Q18"":""4"",""Q19"":""1"",""Q20"":""2"",""Q21"":""3"",""Q22"":""4""}","[0,1,2,3,4,5,6,7,8,9,10,11,12,13,14,15,16,17,18,19,20,21]","[""Q01"",""Q02"",""Q03"",""Q04"",""Q05"",""Q06"",""Q07"",""Q08"",""Q09"",""Q10"",""Q11"",""Q12"",""Q13"",""Q14"",""Q15"",""Q16"",""Q17"",""Q18"",""Q19"",""Q20"",""Q21"",""Q22""]","[74869.19999998808,76553.59999999404,87591.69999998808,89373.89999997616,91242.89999997616,96676.89999997616,98329,106349.69999998808,107949.89999997616,109565.19999998808,113099.59999999404,115069.5,120870.69999998808,135563.39999997616,139595.69999998808,142747.39999997616,149149,151085,165442.5,188269.89999997616,190705.09999999404,204945.29999998212]","[]","[0.19999998807907104,71981.69999998808,74869.19999998808,76553.59999999404,84766.39999997616,87591.69999998808,89373.89999997616,91242.89999997616,92677,94996,96676.89999997616,98329,99781.29999998212,106349.69999998808,107949.89999997616,109565.19999998808,113099.59999999404,115069.5,120870.69999998808,125239.59999999404,133342.19999998808,135563.39999997616,138089.19999998808,138550.39999997616,139595.69999998808,142747.39999997616,144448.39999997616,149149,151085,152786.09999999404,165442.5,188269.89999997616,190705.09999999404,203461.69999998808,204945.29999998212,206642.89999997616]","0.3181818181818182","0.5238095238095238","0","","","","","","","","","","","","","","","","","","","","","","","","","","","","",""
"31830.59999999404","","","","survey-template","8","433490","0.0-4.0-4.0","46","1","2025-07-30 08:44:10","36c45c0696341be0efffe67d72a12abb","41.150.216.44","Mozilla/5.0 (Windows NT 10.0; Win64; x64) AppleWebKit/537.36 (KHTML, like Gecko) Chrome/138.0.0.0 Safari/537.36 Edg/138.0.0.0","WebKit","Edge","138.0.0.0","Windows","10.0","https://app.prolific.com/","en-US,en;q=0.9,en-ZA;q=0.8","67f38b0b1f5fe0543c6e66ed","687a19d2168e237449fb8af4","6889da377ff026f365ce83df","0","67f38b0b1f5fe0543c6e66ed","0","2025-07-30T08:51:28.017Z","","","","stress","{""Q01"":""3"",""Q02"":""1"",""Q03"":""4""}","[0,1,2]","[""Q01"",""Q02"",""Q03""]","[8349.90000000596,20872.80000001192,30244]","[]","[5232,6965.800000011921,8349.90000000596,20872.80000001192,27677.40000000596,30244,31828.80000001192]","0.6666666666666666","0.5","0","","","","","","","","","","","","","","","","","","","","","","","","","","","","",""
"100401","","","","instructions","9","533894","0.0-5.0-0.0","46","1","2025-07-30 08:44:10","36c45c0696341be0efffe67d72a12abb","41.150.216.44","Mozilla/5.0 (Windows NT 10.0; Win64; x64) AppleWebKit/537.36 (KHTML, like Gecko) Chrome/138.0.0.0 Safari/537.36 Edg/138.0.0.0","WebKit","Edge","138.0.0.0","Windows","10.0","https://app.prolific.com/","en-US,en;q=0.9,en-ZA;q=0.8","67f38b0b1f5fe0543c6e66ed","687a19d2168e237449fb8af4","6889da377ff026f365ce83df","0","67f38b0b1f5fe0543c6e66ed","0","","","","","","","","","","","","","","","[{""page_index"":0,""viewing_time"":100390}]","","","","","","","","","","","","","","","","","","","","","","","","","","","",""
"9553","","<p>Before you start with this game please answer the following three questions yourself. </p>
  <p>Through this game, we measure several aspects of your cognitive performance, such as reaction times, multi-tasking capabilities </p>
  <p>and the ability to assess the situation you are in.</p>
  <p></p>
  <p><b>How good do you usually are in such tasks?</b></p>","100","html-slider-response","10","543456","0.0-6.0-0.0","46","1","2025-07-30 08:44:10","36c45c0696341be0efffe67d72a12abb","41.150.216.44","Mozilla/5.0 (Windows NT 10.0; Win64; x64) AppleWebKit/537.36 (KHTML, like Gecko) Chrome/138.0.0.0 Safari/537.36 Edg/138.0.0.0","WebKit","Edge","138.0.0.0","Windows","10.0","https://app.prolific.com/","en-US,en;q=0.9,en-ZA;q=0.8","67f38b0b1f5fe0543c6e66ed","687a19d2168e237449fb8af4","6889da377ff026f365ce83df","0","67f38b0b1f5fe0543c6e66ed","0","2025-07-30T08:53:17.983Z","","","","PreSkillQ","","","","","","","","","","","50","","","","","","","","","","","","","","","","","","","","","","","","","","",""
"8128","","<div style=""width:500px;"">
  <p>How well do you think you will perform in this task compared to other participants?</p>
  </div>","100","html-slider-response","11","551593","0.0-6.0-1.0","46","1","2025-07-30 08:44:10","36c45c0696341be0efffe67d72a12abb","41.150.216.44","Mozilla/5.0 (Windows NT 10.0; Win64; x64) AppleWebKit/537.36 (KHTML, like Gecko) Chrome/138.0.0.0 Safari/537.36 Edg/138.0.0.0","WebKit","Edge","138.0.0.0","Windows","10.0","https://app.prolific.com/","en-US,en;q=0.9,en-ZA;q=0.8","67f38b0b1f5fe0543c6e66ed","687a19d2168e237449fb8af4","6889da377ff026f365ce83df","0","67f38b0b1f5fe0543c6e66ed","0","2025-07-30T08:53:26.121Z","","","","PrePerfQ","","","","","","","","","","","50","","","","","","","","","","","","","","","","","","","","","","","","","","",""
"7561","","<div style=""width:500px;"">
  <p>What best describes how you currently feel?</p>
  </div>","100","html-slider-response","12","559163","0.0-6.0-2.0","46","1","2025-07-30 08:44:10","36c45c0696341be0efffe67d72a12abb","41.150.216.44","Mozilla/5.0 (Windows NT 10.0; Win64; x64) AppleWebKit/537.36 (KHTML, like Gecko) Chrome/138.0.0.0 Safari/537.36 Edg/138.0.0.0","WebKit","Edge","138.0.0.0","Windows","10.0","https://app.prolific.com/","en-US,en;q=0.9,en-ZA;q=0.8","67f38b0b1f5fe0543c6e66ed","687a19d2168e237449fb8af4","6889da377ff026f365ce83df","0","67f38b0b1f5fe0543c6e66ed","0","2025-07-30T08:53:33.691Z","","","","PreMotivationQ","","","","","","","","","","","50","","","","","","","","","","","","","","","","","","","","","","","","","","",""
"","","","","ctl-task-cpt","13","585409","0.0-7.0-0.0","46","1","2025-07-30 08:44:10","36c45c0696341be0efffe67d72a12abb","41.150.216.44","Mozilla/5.0 (Windows NT 10.0; Win64; x64) AppleWebKit/537.36 (KHTML, like Gecko) Chrome/138.0.0.0 Safari/537.36 Edg/138.0.0.0","WebKit","Edge","138.0.0.0","Windows","10.0","https://app.prolific.com/","en-US,en;q=0.9,en-ZA;q=0.8","67f38b0b1f5fe0543c6e66ed","687a19d2168e237449fb8af4","6889da377ff026f365ce83df","0","67f38b0b1f5fe0543c6e66ed","0","2025-07-30T08:53:59.936Z","","","","","","","","","","","","","","","","win-only","1","g1:NE,g2:SW","1","1","0","564230.2","4851.2","9855.5","23166","1","4","4","6","1","-1","-1","0","0","0","5004.2","3000","-3000","[""up"",""right""]","{""num_key_presses"":3,""num_perfect"":3,""num_errors"":0,""num_randdir"":0,""num_randdir_good_moves"":0,""num_whilered"":0,""num_whileblue"":0,""num_blue"":0,""num_good_moves"":3}","[296.22232142857143,298.12857142857143,1,296.22232142857143,298.12857142857143,119.2,296.22232142857143,298.12857142857143,220.5,296.22232142857143,298.12857142857143,320.8,296.22232142857143,298.12857142857143,425.2,296.22232142857143,298.12857142857143,525.2,296.22232142857143,298.12857142857143,633.8,296.22232142857143,298.12857142857143,734.9,296.22232142857143,298.12857142857143,834.9,326.22232142857143,273.12857142857143,935.7,344.22232142857143,257.12857142857143,1040.5,349.22232142857143,254.12857142857143,1140.7,341.22232142857143,254.12857142857143,1251.1,340.22232142857143,253.12857142857143,1354.8,340.22232142857143,253.12857142857143,1455.2,340.22232142857143,253.12857142857143,1560,340.22232142857143,253.12857142857143,1667.8,340.22232142857143,253.12857142857143,1770,340.22232142857143,253.12857142857143,1870.2,340.22232142857143,253.12857142857143,1975.8,340.22232142857143,253.12857142857143,2084.6,340.22232142857143,253.12857142857143,2189.7,340.22232142857143,253.12857142857143,2290.6,340.22232142857143,253.12857142857143,2396.1,340.22232142857143,253.12857142857143,2499.7,340.22232142857143,253.12857142857143,2601.6,340.22232142857143,253.12857142857143,2706.1,340.22232142857143,253.12857142857143,2810.5,340.22232142857143,253.12857142857143,2910.5,340.22232142857143,253.12857142857143,3018.3,340.22232142857143,253.12857142857143,3118.5,340.22232142857143,253.12857142857143,3220.4,340.22232142857143,253.12857142857143,3325.4,340.22232142857143,253.12857142857143,3435.1,340.22232142857143,253.12857142857143,3535.6,340.22232142857143,253.12857142857143,3640.6,340.22232142857143,253.12857142857143,3746.5,340.22232142857143,253.12857142857143,3852,340.22232142857143,253.12857142857143,3952.2,340.22232142857143,253.12857142857143,4055.3,340.22232142857143,253.12857142857143,4159.9,340.22232142857143,253.12857142857143,4260.2,340.22232142857143,253.12857142857143,4360.3,340.22232142857143,253.12857142857143,4460.5,340.22232142857143,253.12857142857143,4569.1,340.22232142857143,253.12857142857143,4669.2,340.22232142857143,253.12857142857143,4769.9,340.22232142857143,253.12857142857143,4874.7,340.22232142857143,253.12857142857143,4974.7]","[3084.2,3084.2,1000,0,2084.2,""smooth"",""right"",""right"",""good_move"",6966.9,3880,3047.9,3086.9,832.1,""smooth"",""right"",""right"",""good_move"",10167.4,3199.1,2777.8,6968.4,421.2,""smooth"",""up"",""up"",""good_move""]"
"13351","","<div style=""width:500px;"">
  <p>What determined the result of this run?</p>
  </div>","100","html-slider-response","14","598762","0.0-7.0-1.0","46","1","2025-07-30 08:44:10","36c45c0696341be0efffe67d72a12abb","41.150.216.44","Mozilla/5.0 (Windows NT 10.0; Win64; x64) AppleWebKit/537.36 (KHTML, like Gecko) Chrome/138.0.0.0 Safari/537.36 Edg/138.0.0.0","WebKit","Edge","138.0.0.0","Windows","10.0","https://app.prolific.com/","en-US,en;q=0.9,en-ZA;q=0.8","67f38b0b1f5fe0543c6e66ed","687a19d2168e237449fb8af4","6889da377ff026f365ce83df","0","67f38b0b1f5fe0543c6e66ed","0","2025-07-30T08:54:13.289Z","","","","AttribQ","","","","","","","","","","","50","","","","","","","","","","","","","","","","","","","","","","","","","","",""
"4677","","<div style=""width:500px;"">
  <p>How much control did you have over the ball?</p>
  </div>","100","html-slider-response","15","603442","0.0-7.0-2.0","46","1","2025-07-30 08:44:10","36c45c0696341be0efffe67d72a12abb","41.150.216.44","Mozilla/5.0 (Windows NT 10.0; Win64; x64) AppleWebKit/537.36 (KHTML, like Gecko) Chrome/138.0.0.0 Safari/537.36 Edg/138.0.0.0","WebKit","Edge","138.0.0.0","Windows","10.0","https://app.prolific.com/","en-US,en;q=0.9,en-ZA;q=0.8","67f38b0b1f5fe0543c6e66ed","687a19d2168e237449fb8af4","6889da377ff026f365ce83df","0","67f38b0b1f5fe0543c6e66ed","0","2025-07-30T08:54:17.969Z","","","","ControlQ","","","","","","","","","","","50","","","","","","","","","","","","","","","","","","","","","","","","","","",""
"9398","","<div style=""width:500px;"">
  <p>How would you describe your current emotional state?</p>
  </div>","0","html-slider-response","16","612843","0.0-7.0-3.0","46","1","2025-07-30 08:44:10","36c45c0696341be0efffe67d72a12abb","41.150.216.44","Mozilla/5.0 (Windows NT 10.0; Win64; x64) AppleWebKit/537.36 (KHTML, like Gecko) Chrome/138.0.0.0 Safari/537.36 Edg/138.0.0.0","WebKit","Edge","138.0.0.0","Windows","10.0","https://app.prolific.com/","en-US,en;q=0.9,en-ZA;q=0.8","67f38b0b1f5fe0543c6e66ed","687a19d2168e237449fb8af4","6889da377ff026f365ce83df","0","67f38b0b1f5fe0543c6e66ed","0","2025-07-30T08:54:27.370Z","","","","StressQ","","","","","","","","","","","50","","","","","","","","","","","","","","","","","","","","","","","","","","",""
"5575","","<div style=""width:500px;"">
  <p>What best describes how you currently feel?</p>
  </div>","100","html-slider-response","17","618420","0.0-7.0-4.0","46","1","2025-07-30 08:44:10","36c45c0696341be0efffe67d72a12abb","41.150.216.44","Mozilla/5.0 (Windows NT 10.0; Win64; x64) AppleWebKit/537.36 (KHTML, like Gecko) Chrome/138.0.0.0 Safari/537.36 Edg/138.0.0.0","WebKit","Edge","138.0.0.0","Windows","10.0","https://app.prolific.com/","en-US,en;q=0.9,en-ZA;q=0.8","67f38b0b1f5fe0543c6e66ed","687a19d2168e237449fb8af4","6889da377ff026f365ce83df","0","67f38b0b1f5fe0543c6e66ed","0","2025-07-30T08:54:32.947Z","","","","MotivationQ","","","","","","","","","","","50","","","","","","","","","","","","","","","","","","","","","","","","","","",""
"","","","","ctl-task-cpt","18","640307","0.0-7.0-0.1","46","1","2025-07-30 08:44:10","36c45c0696341be0efffe67d72a12abb","41.150.216.44","Mozilla/5.0 (Windows NT 10.0; Win64; x64) AppleWebKit/537.36 (KHTML, like Gecko) Chrome/138.0.0.0 Safari/537.36 Edg/138.0.0.0","WebKit","Edge","138.0.0.0","Windows","10.0","https://app.prolific.com/","en-US,en;q=0.9,en-ZA;q=0.8","67f38b0b1f5fe0543c6e66ed","687a19d2168e237449fb8af4","6889da377ff026f365ce83df","0","67f38b0b1f5fe0543c6e66ed","0","2025-07-30T08:54:54.834Z","","","","","","","","","","","","","","","","win-only","2","g1:SE,g2:NW","0.9","2","0","623417","2149.8","7151.5","18855.1","1","4","8","6","1","1","1","1","0","0.007575757575757576","5001.7","3000","1100","[""down"",""right""]","{""num_key_presses"":4,""num_perfect"":3,""num_errors"":0,""num_randdir"":1,""num_randdir_good_moves"":1,""num_whilered"":0,""num_whileblue"":0,""num_blue"":0,""num_good_moves"":4}","[237.21428571428572,236.62053571428572,0.8,237.21428571428572,236.62053571428572,123.7,237.21428571428572,236.62053571428572,225.1,237.21428571428572,236.62053571428572,329.4,237.21428571428572,236.62053571428572,430.1,237.21428571428572,236.62053571428572,531.8,237.21428571428572,236.62053571428572,636.3,237.21428571428572,236.62053571428572,736.9,273.2142857142857,275.6205357142857,844.5,279.2142857142857,279.6205357142857,947.1,281.2142857142857,281.6205357142857,1051,277.2142857142857,281.6205357142857,1154.9,277.2142857142857,281.6205357142857,1257.6,277.2142857142857,281.6205357142857,1361.7,277.2142857142857,281.6205357142857,1465.9,277.2142857142857,281.6205357142857,1566.7,277.2142857142857,281.6205357142857,1666.7,277.2142857142857,281.6205357142857,1774.3,277.2142857142857,281.6205357142857,1874.3,277.2142857142857,281.6205357142857,1976.7,277.2142857142857,281.6205357142857,2077.2,277.2142857142857,281.6205357142857,2181.3,277.2142857142857,281.6205357142857,2281.5,277.2142857142857,281.6205357142857,3275.3,277.2142857142857,281.6205357142857,3379.3,277.2142857142857,281.6205357142857,3481.2,277.2142857142857,281.6205357142857,3581.7,277.2142857142857,281.6205357142857,3689.3,277.2142857142857,281.6205357142857,3796.7,277.2142857142857,281.6205357142857,3897.9,277.2142857142857,281.6205357142857,4001.7,277.2142857142857,281.6205357142857,4102,277.2142857142857,281.6205357142857,4208.6,277.2142857142857,281.6205357142857,4309,277.2142857142857,281.6205357142857,4413.3,277.2142857142857,281.6205357142857,4516.1,277.2142857142857,281.6205357142857,4617.6,277.2142857142857,281.6205357142857,4724.2,277.2142857142857,281.6205357142857,4825.3,277.2142857142857,281.6205357142857,4927.9]","[1657,1657.3,1000,0,657.3,""smooth"",""down"",""down"",""good_move"",5096.2,3437.8,2635.9,1658.4,801.9,""smooth"",""down"",""down"",""good_move"",8521.6,3423.4,3041.4,5098.2,382.1,""smooth"",""right"",""right"",""good_move"",11529.2,3001.4,2504.6,8527.8,496.8,""oops"",""right"",""right"",""good_move""]"
"39195","","<div style=""width:500px;"">
  <p>What determined the result of this run?</p>
  </div>","100","html-slider-response","19","679505","0.0-7.0-1.1","46","1","2025-07-30 08:44:10","36c45c0696341be0efffe67d72a12abb","41.150.216.44","Mozilla/5.0 (Windows NT 10.0; Win64; x64) AppleWebKit/537.36 (KHTML, like Gecko) Chrome/138.0.0.0 Safari/537.36 Edg/138.0.0.0","WebKit","Edge","138.0.0.0","Windows","10.0","https://app.prolific.com/","en-US,en;q=0.9,en-ZA;q=0.8","67f38b0b1f5fe0543c6e66ed","687a19d2168e237449fb8af4","6889da377ff026f365ce83df","0","67f38b0b1f5fe0543c6e66ed","0","2025-07-30T08:55:34.032Z","","","","AttribQ","","","","","","","","","","","50","","","","","","","","","","","","","","","","","","","","","","","","","","",""
"11944","","<div style=""width:500px;"">
  <p>How much control did you have over the ball?</p>
  </div>","99","html-slider-response","20","691452","0.0-7.0-2.1","46","1","2025-07-30 08:44:10","36c45c0696341be0efffe67d72a12abb","41.150.216.44","Mozilla/5.0 (Windows NT 10.0; Win64; x64) AppleWebKit/537.36 (KHTML, like Gecko) Chrome/138.0.0.0 Safari/537.36 Edg/138.0.0.0","WebKit","Edge","138.0.0.0","Windows","10.0","https://app.prolific.com/","en-US,en;q=0.9,en-ZA;q=0.8","67f38b0b1f5fe0543c6e66ed","687a19d2168e237449fb8af4","6889da377ff026f365ce83df","0","67f38b0b1f5fe0543c6e66ed","0","2025-07-30T08:55:45.980Z","","","","ControlQ","","","","","","","","","","","50","","","","","","","","","","","","","","","","","","","","","","","","","","",""
"5745","","<div style=""width:500px;"">
  <p>How would you describe your current emotional state?</p>
  </div>","0","html-slider-response","21","697203","0.0-7.0-3.1","46","1","2025-07-30 08:44:10","36c45c0696341be0efffe67d72a12abb","41.150.216.44","Mozilla/5.0 (Windows NT 10.0; Win64; x64) AppleWebKit/537.36 (KHTML, like Gecko) Chrome/138.0.0.0 Safari/537.36 Edg/138.0.0.0","WebKit","Edge","138.0.0.0","Windows","10.0","https://app.prolific.com/","en-US,en;q=0.9,en-ZA;q=0.8","67f38b0b1f5fe0543c6e66ed","687a19d2168e237449fb8af4","6889da377ff026f365ce83df","0","67f38b0b1f5fe0543c6e66ed","0","2025-07-30T08:55:51.731Z","","","","StressQ","","","","","","","","","","","50","","","","","","","","","","","","","","","","","","","","","","","","","","",""
"13304","","<div style=""width:500px;"">
  <p>What best describes how you currently feel?</p>
  </div>","100","html-slider-response","22","710510","0.0-7.0-4.1","46","1","2025-07-30 08:44:10","36c45c0696341be0efffe67d72a12abb","41.150.216.44","Mozilla/5.0 (Windows NT 10.0; Win64; x64) AppleWebKit/537.36 (KHTML, like Gecko) Chrome/138.0.0.0 Safari/537.36 Edg/138.0.0.0","WebKit","Edge","138.0.0.0","Windows","10.0","https://app.prolific.com/","en-US,en;q=0.9,en-ZA;q=0.8","67f38b0b1f5fe0543c6e66ed","687a19d2168e237449fb8af4","6889da377ff026f365ce83df","0","67f38b0b1f5fe0543c6e66ed","0","2025-07-30T08:56:05.037Z","","","","MotivationQ","","","","","","","","","","","50","","","","","","","","","","","","","","","","","","","","","","","","","","",""
"","","","","ctl-task-cpt","23","804165","0.0-7.0-0.2","46","1","2025-07-30 08:44:10","36c45c0696341be0efffe67d72a12abb","41.150.216.44","Mozilla/5.0 (Windows NT 10.0; Win64; x64) AppleWebKit/537.36 (KHTML, like Gecko) Chrome/138.0.0.0 Safari/537.36 Edg/138.0.0.0","WebKit","Edge","138.0.0.0","Windows","10.0","https://app.prolific.com/","en-US,en;q=0.9,en-ZA;q=0.8","67f38b0b1f5fe0543c6e66ed","687a19d2168e237449fb8af4","6889da377ff026f365ce83df","0","67f38b0b1f5fe0543c6e66ed","0","2025-07-30T08:57:38.692Z","","","","","","","","","","","","","","","","win-only","2","g1:SE,g2:NW","0.8","3","0","715506.2","72093.6","77097.6","90615.3","1","4","4","6","1","1","1","2","1","0.015151515151515152","5004","3000","1465","[""down"",""right""]","{""num_key_presses"":4,""num_perfect"":4,""num_errors"":0,""num_randdir"":0,""num_randdir_good_moves"":0,""num_whilered"":0,""num_whileblue"":0,""num_blue"":1,""num_good_moves"":4}","[234.21428571428572,233.62053571428572,1.5,234.21428571428572,233.62053571428572,110.5,234.21428571428572,233.62053571428572,212.4,234.21428571428572,233.62053571428572,313.3,234.21428571428572,233.62053571428572,425,234.21428571428572,233.62053571428572,545.4,234.21428571428572,233.62053571428572,645.4,271.2142857142857,267.6205357142857,749.5,288.2142857142857,283.6205357142857,856.3,290.2142857142857,283.6205357142857,962.4,286.2142857142857,284.6205357142857,1065.1,271.2142857142857,280.6205357142857,1184.4,272.2142857142857,279.6205357142857,1287.2,275.2142857142857,279.6205357142857,1387.4,275.2142857142857,279.6205357142857,1493.5,275.2142857142857,279.6205357142857,1602.2,275.2142857142857,279.6205357142857,1706.3,275.2142857142857,279.6205357142857,1810.6,275.2142857142857,279.6205357142857,1923.5,275.2142857142857,279.6205357142857,2030.8,275.2142857142857,279.6205357142857,2131.9,275.2142857142857,279.6205357142857,2233.4,275.2142857142857,279.6205357142857,2338.2,275.2142857142857,279.6205357142857,2448.4,275.2142857142857,279.6205357142857,2553,275.2142857142857,279.6205357142857,2661.5,275.2142857142857,279.6205357142857,2762.6,275.2142857142857,279.6205357142857,2868.7,275.2142857142857,279.6205357142857,2972.5,275.2142857142857,279.6205357142857,3072.7,275.2142857142857,279.6205357142857,3181.2,275.2142857142857,279.6205357142857,3295.1,275.2142857142857,279.6205357142857,3397.3,275.2142857142857,279.6205357142857,3498.7,275.2142857142857,279.6205357142857,3602.4,275.2142857142857,279.6205357142857,3702.6,275.2142857142857,279.6205357142857,3803.1,275.2142857142857,279.6205357142857,3910.8,275.2142857142857,279.6205357142857,4030.7,275.2142857142857,279.6205357142857,4146.7,275.2142857142857,279.6205357142857,4266.9,275.2142857142857,279.6205357142857,4380.2,275.2142857142857,279.6205357142857,4481.8,275.2142857142857,279.6205357142857,4582.3,275.2142857142857,279.6205357142857,4690.3,275.2142857142857,279.6205357142857,4799.6,275.2142857142857,279.6205357142857,4902.2]","[1420,1420,1000,0,420,""smooth"",""down"",""down"",""good_move"",7435.8,6014.2,2473.1,4568.5,394.2,""smooth"",""right"",""right"",""good_move"",10392.4,2955.3,2205.9,7437.2,749.3,""smooth"",""right"",""right"",""good_move"",13374.2,2975.3,2549.7,10398.9,425.6,""smooth"",""down"",""down"",""good_move""]"
"5936","","<div style=""width:500px;"">
  <p>What determined the result of this run?</p>
  </div>","100","html-slider-response","24","810104","0.0-7.0-1.2","46","1","2025-07-30 08:44:10","36c45c0696341be0efffe67d72a12abb","41.150.216.44","Mozilla/5.0 (Windows NT 10.0; Win64; x64) AppleWebKit/537.36 (KHTML, like Gecko) Chrome/138.0.0.0 Safari/537.36 Edg/138.0.0.0","WebKit","Edge","138.0.0.0","Windows","10.0","https://app.prolific.com/","en-US,en;q=0.9,en-ZA;q=0.8","67f38b0b1f5fe0543c6e66ed","687a19d2168e237449fb8af4","6889da377ff026f365ce83df","0","67f38b0b1f5fe0543c6e66ed","0","2025-07-30T08:57:44.631Z","","","","AttribQ","","","","","","","","","","","50","","","","","","","","","","","","","","","","","","","","","","","","","","",""
"4516","","<div style=""width:500px;"">
  <p>How much control did you have over the ball?</p>
  </div>","100","html-slider-response","25","814623","0.0-7.0-2.2","46","1","2025-07-30 08:44:10","36c45c0696341be0efffe67d72a12abb","41.150.216.44","Mozilla/5.0 (Windows NT 10.0; Win64; x64) AppleWebKit/537.36 (KHTML, like Gecko) Chrome/138.0.0.0 Safari/537.36 Edg/138.0.0.0","WebKit","Edge","138.0.0.0","Windows","10.0","https://app.prolific.com/","en-US,en;q=0.9,en-ZA;q=0.8","67f38b0b1f5fe0543c6e66ed","687a19d2168e237449fb8af4","6889da377ff026f365ce83df","0","67f38b0b1f5fe0543c6e66ed","0","2025-07-30T08:57:49.150Z","","","","ControlQ","","","","","","","","","","","50","","","","","","","","","","","","","","","","","","","","","","","","","","",""
"4448","","<div style=""width:500px;"">
  <p>How would you describe your current emotional state?</p>
  </div>","0","html-slider-response","26","819074","0.0-7.0-3.2","46","1","2025-07-30 08:44:10","36c45c0696341be0efffe67d72a12abb","41.150.216.44","Mozilla/5.0 (Windows NT 10.0; Win64; x64) AppleWebKit/537.36 (KHTML, like Gecko) Chrome/138.0.0.0 Safari/537.36 Edg/138.0.0.0","WebKit","Edge","138.0.0.0","Windows","10.0","https://app.prolific.com/","en-US,en;q=0.9,en-ZA;q=0.8","67f38b0b1f5fe0543c6e66ed","687a19d2168e237449fb8af4","6889da377ff026f365ce83df","0","67f38b0b1f5fe0543c6e66ed","0","2025-07-30T08:57:53.601Z","","","","StressQ","","","","","","","","","","","50","","","","","","","","","","","","","","","","","","","","","","","","","","",""
"5562","","<div style=""width:500px;"">
  <p>What best describes how you currently feel?</p>
  </div>","100","html-slider-response","27","824639","0.0-7.0-4.2","46","1","2025-07-30 08:44:10","36c45c0696341be0efffe67d72a12abb","41.150.216.44","Mozilla/5.0 (Windows NT 10.0; Win64; x64) AppleWebKit/537.36 (KHTML, like Gecko) Chrome/138.0.0.0 Safari/537.36 Edg/138.0.0.0","WebKit","Edge","138.0.0.0","Windows","10.0","https://app.prolific.com/","en-US,en;q=0.9,en-ZA;q=0.8","67f38b0b1f5fe0543c6e66ed","687a19d2168e237449fb8af4","6889da377ff026f365ce83df","0","67f38b0b1f5fe0543c6e66ed","0","2025-07-30T08:57:59.166Z","","","","MotivationQ","","","","","","","","","","","50","","","","","","","","","","","","","","","","","","","","","","","","","","",""
"","","","","ctl-task-cpt","28","858143","0.0-7.0-0.3","46","1","2025-07-30 08:44:10","36c45c0696341be0efffe67d72a12abb","41.150.216.44","Mozilla/5.0 (Windows NT 10.0; Win64; x64) AppleWebKit/537.36 (KHTML, like Gecko) Chrome/138.0.0.0 Safari/537.36 Edg/138.0.0.0","WebKit","Edge","138.0.0.0","Windows","10.0","https://app.prolific.com/","en-US,en;q=0.9,en-ZA;q=0.8","67f38b0b1f5fe0543c6e66ed","687a19d2168e237449fb8af4","6889da377ff026f365ce83df","0","67f38b0b1f5fe0543c6e66ed","0","2025-07-30T08:58:32.670Z","","","","","","","","","","","","","","","","win-only","1","g1:NE,g2:SW","0.7","4","0","829636.1","2119.3","7123.8","30480.7","1","4","8","6","1","1","1","3","2","0.022727272727272728","5004.5","3000","845","[""up"",""right""]","{""num_key_presses"":6,""num_perfect"":5,""num_errors"":0,""num_randdir"":1,""num_randdir_good_moves"":0,""num_whilered"":0,""num_whileblue"":0,""num_blue"":2,""num_good_moves"":5}","[236.21428571428572,235.62053571428572,0.9,236.21428571428572,235.62053571428572,102.2,236.21428571428572,235.62053571428572,202.2,236.21428571428572,235.62053571428572,303.4,236.21428571428572,235.62053571428572,420.2,236.21428571428572,235.62053571428572,528.6,236.21428571428572,235.62053571428572,634.3,268.2142857142857,225.62053571428572,737.9,272.2142857142857,220.62053571428572,837.9,273.2142857142857,212.62053571428572,948.3,274.2142857142857,206.62053571428572,1052.5,277.2142857142857,199.62053571428572,1157.4,277.2142857142857,199.62053571428572,1257.5,277.2142857142857,199.62053571428572,1359.7,277.2142857142857,199.62053571428572,1468.3,277.2142857142857,199.62053571428572,1572.1,277.2142857142857,199.62053571428572,1677.1,277.2142857142857,199.62053571428572,1777.1,277.2142857142857,199.62053571428572,1877.6,277.2142857142857,199.62053571428572,1982.3,277.2142857142857,199.62053571428572,2082.8,277.2142857142857,199.62053571428572,2182.8,277.2142857142857,199.62053571428572,2285,277.2142857142857,199.62053571428572,2387,277.2142857142857,199.62053571428572,2494.9,277.2142857142857,199.62053571428572,2597.8,277.2142857142857,199.62053571428572,2703.6,277.2142857142857,199.62053571428572,2806.1,277.2142857142857,199.62053571428572,2911.2,277.2142857142857,199.62053571428572,3014.4,277.2142857142857,199.62053571428572,3116.7,277.2142857142857,199.62053571428572,3217.5,277.2142857142857,199.62053571428572,3321.7,277.2142857142857,199.62053571428572,3421.7,277.2142857142857,199.62053571428572,3529,277.2142857142857,199.62053571428572,3629.3,277.2142857142857,199.62053571428572,3730.9,277.2142857142857,199.62053571428572,3832,277.2142857142857,199.62053571428572,3937,277.2142857142857,199.62053571428572,4038.4,277.2142857142857,199.62053571428572,4144.7,277.2142857142857,199.62053571428572,4246.8,277.2142857142857,199.62053571428572,4351.3,277.2142857142857,199.62053571428572,4452.1,277.2142857142857,199.62053571428572,4552.1,277.2142857142857,199.62053571428572,4652.9,277.2142857142857,199.62053571428572,4757.4,277.2142857142857,199.62053571428572,4861.7,277.2142857142857,199.62053571428572,4965.5]","[1693.3,1693.5,1000,0,693.5,""smooth"",""up"",""up"",""good_move"",4460.1,2763.6,2318.6,1696.5,445,""smooth"",""right"",""right"",""good_move"",10856.6,6393.6,2825.6,7562.6,468.4,""smooth"",""right"",""right"",""good_move"",17697.1,6839.1,2989.7,14250.7,456.7,""oops"",""up"",""down"",""bad_move"",20387.3,2689.1,2163.3,17698.4,525.7,""smooth"",""up"",""up"",""good_move"",23212.5,2823.5,2350.9,20389,472.6,""smooth"",""up"",""up"",""good_move""]"
"5164","","<div style=""width:500px;"">
  <p>What determined the result of this run?</p>
  </div>","100","html-slider-response","29","863310","0.0-7.0-1.3","46","1","2025-07-30 08:44:10","36c45c0696341be0efffe67d72a12abb","41.150.216.44","Mozilla/5.0 (Windows NT 10.0; Win64; x64) AppleWebKit/537.36 (KHTML, like Gecko) Chrome/138.0.0.0 Safari/537.36 Edg/138.0.0.0","WebKit","Edge","138.0.0.0","Windows","10.0","https://app.prolific.com/","en-US,en;q=0.9,en-ZA;q=0.8","67f38b0b1f5fe0543c6e66ed","687a19d2168e237449fb8af4","6889da377ff026f365ce83df","0","67f38b0b1f5fe0543c6e66ed","0","2025-07-30T08:58:37.837Z","","","","AttribQ","","","","","","","","","","","50","","","","","","","","","","","","","","","","","","","","","","","","","","",""
"6671","","<div style=""width:500px;"">
  <p>How much control did you have over the ball?</p>
  </div>","100","html-slider-response","30","869985","0.0-7.0-2.3","46","1","2025-07-30 08:44:10","36c45c0696341be0efffe67d72a12abb","41.150.216.44","Mozilla/5.0 (Windows NT 10.0; Win64; x64) AppleWebKit/537.36 (KHTML, like Gecko) Chrome/138.0.0.0 Safari/537.36 Edg/138.0.0.0","WebKit","Edge","138.0.0.0","Windows","10.0","https://app.prolific.com/","en-US,en;q=0.9,en-ZA;q=0.8","67f38b0b1f5fe0543c6e66ed","687a19d2168e237449fb8af4","6889da377ff026f365ce83df","0","67f38b0b1f5fe0543c6e66ed","0","2025-07-30T08:58:44.512Z","","","","ControlQ","","","","","","","","","","","50","","","","","","","","","","","","","","","","","","","","","","","","","","",""
"5744","","<div style=""width:500px;"">
  <p>How would you describe your current emotional state?</p>
  </div>","0","html-slider-response","31","875730","0.0-7.0-3.3","46","1","2025-07-30 08:44:10","36c45c0696341be0efffe67d72a12abb","41.150.216.44","Mozilla/5.0 (Windows NT 10.0; Win64; x64) AppleWebKit/537.36 (KHTML, like Gecko) Chrome/138.0.0.0 Safari/537.36 Edg/138.0.0.0","WebKit","Edge","138.0.0.0","Windows","10.0","https://app.prolific.com/","en-US,en;q=0.9,en-ZA;q=0.8","67f38b0b1f5fe0543c6e66ed","687a19d2168e237449fb8af4","6889da377ff026f365ce83df","0","67f38b0b1f5fe0543c6e66ed","0","2025-07-30T08:58:50.258Z","","","","StressQ","","","","","","","","","","","50","","","","","","","","","","","","","","","","","","","","","","","","","","",""
"5146","","<div style=""width:500px;"">
  <p>What best describes how you currently feel?</p>
  </div>","100","html-slider-response","32","880881","0.0-7.0-4.3","46","1","2025-07-30 08:44:10","36c45c0696341be0efffe67d72a12abb","41.150.216.44","Mozilla/5.0 (Windows NT 10.0; Win64; x64) AppleWebKit/537.36 (KHTML, like Gecko) Chrome/138.0.0.0 Safari/537.36 Edg/138.0.0.0","WebKit","Edge","138.0.0.0","Windows","10.0","https://app.prolific.com/","en-US,en;q=0.9,en-ZA;q=0.8","67f38b0b1f5fe0543c6e66ed","687a19d2168e237449fb8af4","6889da377ff026f365ce83df","0","67f38b0b1f5fe0543c6e66ed","0","2025-07-30T08:58:55.408Z","","","","MotivationQ","","","","","","","","","","","50","","","","","","","","","","","","","","","","","","","","","","","","","","",""
"","","","","ctl-task-cpt","33","918869","0.0-7.0-0.4","46","1","2025-07-30 08:44:10","36c45c0696341be0efffe67d72a12abb","41.150.216.44","Mozilla/5.0 (Windows NT 10.0; Win64; x64) AppleWebKit/537.36 (KHTML, like Gecko) Chrome/138.0.0.0 Safari/537.36 Edg/138.0.0.0","WebKit","Edge","138.0.0.0","Windows","10.0","https://app.prolific.com/","en-US,en;q=0.9,en-ZA;q=0.8","67f38b0b1f5fe0543c6e66ed","687a19d2168e237449fb8af4","6889da377ff026f365ce83df","0","67f38b0b1f5fe0543c6e66ed","0","2025-07-30T08:59:33.396Z","","","","","","","","","","","","","","","","win-only","3","g1:SW,g2:NE","0.6","5","0","885877.7","2348.7","7354.2","34965.9","1","4","8","6","1","1","1","4","3","0.030303030303030304","5005.5","3000","340","[""down"",""left""]","{""num_key_presses"":8,""num_perfect"":5,""num_errors"":0,""num_randdir"":3,""num_randdir_good_moves"":1,""num_whilered"":0,""num_whileblue"":0,""num_blue"":1,""num_good_moves"":6}","[239.21428571428572,232.62053571428572,3.2,239.21428571428572,232.62053571428572,117.7,239.21428571428572,232.62053571428572,234.5,239.21428571428572,232.62053571428572,342.3,239.21428571428572,232.62053571428572,443.1,239.21428571428572,232.62053571428572,548.9,239.21428571428572,232.62053571428572,664.4,239.21428571428572,232.62053571428572,771.3,219.21428571428572,255.62053571428572,873.2,206.21428571428572,272.6205357142857,973.3,201.21428571428572,274.6205357142857,1074.1,201.21428571428572,274.6205357142857,1193.5,201.21428571428572,274.6205357142857,1298,201.21428571428572,274.6205357142857,1409.6,201.21428571428572,274.6205357142857,1514.8,201.21428571428572,274.6205357142857,1616.1,201.21428571428572,274.6205357142857,1723.1,201.21428571428572,274.6205357142857,1826.7,201.21428571428572,274.6205357142857,1931.2,201.21428571428572,274.6205357142857,2032.6,201.21428571428572,274.6205357142857,2136.3,201.21428571428572,274.6205357142857,2251.8,201.21428571428572,274.6205357142857,2360,201.21428571428572,274.6205357142857,2464.9,201.21428571428572,274.6205357142857,2567.1,201.21428571428572,274.6205357142857,2681.7,201.21428571428572,274.6205357142857,2784.9,201.21428571428572,274.6205357142857,2889.1,201.21428571428572,274.6205357142857,2994.6,201.21428571428572,274.6205357142857,3099.4,201.21428571428572,274.6205357142857,3200.9,201.21428571428572,274.6205357142857,3301.7,201.21428571428572,274.6205357142857,3402.1,201.21428571428572,274.6205357142857,3502.2,201.21428571428572,274.6205357142857,3615,201.21428571428572,274.6205357142857,3718.8,201.21428571428572,274.6205357142857,3820.3,201.21428571428572,274.6205357142857,3931.3,201.21428571428572,274.6205357142857,4035.7,201.21428571428572,274.6205357142857,4137.7,201.21428571428572,274.6205357142857,4238.5,201.21428571428572,274.6205357142857,4343.1,201.21428571428572,274.6205357142857,4449.3,201.21428571428572,274.6205357142857,4554.8,201.21428571428572,274.6205357142857,4666.3,201.21428571428572,274.6205357142857,4784.5,201.21428571428572,274.6205357142857,4888.6,201.21428571428572,274.6205357142857,4998.6]","[2071.1,2071.1,1000,0,1071.1,""smooth"",""down"",""down"",""good_move"",5313.1,3240,2543.2,2073.3,696.7,""oops"",""left"",""up"",""bad_move"",8206.7,2891.2,1600.6,5315.5,1290.6,""oops"",""left"",""right"",""bad_move"",15335.1,7125.5,2601.7,12311.2,422.2,""smooth"",""down"",""down"",""good_move"",18039.8,2703.5,2195.5,15336.3,508,""smooth"",""down"",""down"",""good_move"",21210.8,3169.5,2720.9,18041.3,448.6,""oops"",""left"",""left"",""good_move"",23940,2725.7,2222.4,21214.3,503.3,""smooth"",""left"",""left"",""good_move"",27450.4,3508.2,2997.8,23942.3,510.7,""smooth"",""left"",""left"",""good_move""]"
"6320","","<div style=""width:500px;"">
  <p>What determined the result of this run?</p>
  </div>","100","html-slider-response","34","925193","0.0-7.0-1.4","46","1","2025-07-30 08:44:10","36c45c0696341be0efffe67d72a12abb","41.150.216.44","Mozilla/5.0 (Windows NT 10.0; Win64; x64) AppleWebKit/537.36 (KHTML, like Gecko) Chrome/138.0.0.0 Safari/537.36 Edg/138.0.0.0","WebKit","Edge","138.0.0.0","Windows","10.0","https://app.prolific.com/","en-US,en;q=0.9,en-ZA;q=0.8","67f38b0b1f5fe0543c6e66ed","687a19d2168e237449fb8af4","6889da377ff026f365ce83df","0","67f38b0b1f5fe0543c6e66ed","0","2025-07-30T08:59:39.720Z","","","","AttribQ","","","","","","","","","","","50","","","","","","","","","","","","","","","","","","","","","","","","","","",""
"4136","","<div style=""width:500px;"">
  <p>How much control did you have over the ball?</p>
  </div>","100","html-slider-response","35","929332","0.0-7.0-2.4","46","1","2025-07-30 08:44:10","36c45c0696341be0efffe67d72a12abb","41.150.216.44","Mozilla/5.0 (Windows NT 10.0; Win64; x64) AppleWebKit/537.36 (KHTML, like Gecko) Chrome/138.0.0.0 Safari/537.36 Edg/138.0.0.0","WebKit","Edge","138.0.0.0","Windows","10.0","https://app.prolific.com/","en-US,en;q=0.9,en-ZA;q=0.8","67f38b0b1f5fe0543c6e66ed","687a19d2168e237449fb8af4","6889da377ff026f365ce83df","0","67f38b0b1f5fe0543c6e66ed","0","2025-07-30T08:59:43.859Z","","","","ControlQ","","","","","","","","","","","50","","","","","","","","","","","","","","","","","","","","","","","","","","",""
"3747","","<div style=""width:500px;"">
  <p>How would you describe your current emotional state?</p>
  </div>","0","html-slider-response","36","933083","0.0-7.0-3.4","46","1","2025-07-30 08:44:10","36c45c0696341be0efffe67d72a12abb","41.150.216.44","Mozilla/5.0 (Windows NT 10.0; Win64; x64) AppleWebKit/537.36 (KHTML, like Gecko) Chrome/138.0.0.0 Safari/537.36 Edg/138.0.0.0","WebKit","Edge","138.0.0.0","Windows","10.0","https://app.prolific.com/","en-US,en;q=0.9,en-ZA;q=0.8","67f38b0b1f5fe0543c6e66ed","687a19d2168e237449fb8af4","6889da377ff026f365ce83df","0","67f38b0b1f5fe0543c6e66ed","0","2025-07-30T08:59:47.611Z","","","","StressQ","","","","","","","","","","","50","","","","","","","","","","","","","","","","","","","","","","","","","","",""
"4844","","<div style=""width:500px;"">
  <p>What best describes how you currently feel?</p>
  </div>","100","html-slider-response","37","937934","0.0-7.0-4.4","46","1","2025-07-30 08:44:10","36c45c0696341be0efffe67d72a12abb","41.150.216.44","Mozilla/5.0 (Windows NT 10.0; Win64; x64) AppleWebKit/537.36 (KHTML, like Gecko) Chrome/138.0.0.0 Safari/537.36 Edg/138.0.0.0","WebKit","Edge","138.0.0.0","Windows","10.0","https://app.prolific.com/","en-US,en;q=0.9,en-ZA;q=0.8","67f38b0b1f5fe0543c6e66ed","687a19d2168e237449fb8af4","6889da377ff026f365ce83df","0","67f38b0b1f5fe0543c6e66ed","0","2025-07-30T08:59:52.462Z","","","","MotivationQ","","","","","","","","","","","50","","","","","","","","","","","","","","","","","","","","","","","","","","",""
"","","","","ctl-task-cpt","38","990036","0.0-7.0-0.5","46","1","2025-07-30 08:44:10","36c45c0696341be0efffe67d72a12abb","41.150.216.44","Mozilla/5.0 (Windows NT 10.0; Win64; x64) AppleWebKit/537.36 (KHTML, like Gecko) Chrome/138.0.0.0 Safari/537.36 Edg/138.0.0.0","WebKit","Edge","138.0.0.0","Windows","10.0","https://app.prolific.com/","en-US,en;q=0.9,en-ZA;q=0.8","67f38b0b1f5fe0543c6e66ed","687a19d2168e237449fb8af4","6889da377ff026f365ce83df","0","67f38b0b1f5fe0543c6e66ed","0","2025-07-30T09:00:44.563Z","","","","","","","","","","","","","","","","win-only","0","g1:NW,g2:SE","0.5","6","0","942931.7","2595","7597.5","49081.1","1","4","4","6","2","-4","-4","0","4","0","5002.5","3000","-2045","[""down"",""right""]","{""num_key_presses"":10,""num_perfect"":5,""num_errors"":0,""num_randdir"":5,""num_randdir_good_moves"":2,""num_whilered"":0,""num_whileblue"":0,""num_blue"":3,""num_good_moves"":7}","[234.21428571428572,233.62053571428572,1,234.21428571428572,233.62053571428572,104.3,234.21428571428572,233.62053571428572,210.7,234.21428571428572,233.62053571428572,317.2,234.21428571428572,233.62053571428572,426.3,234.21428571428572,233.62053571428572,530.9,234.21428571428572,233.62053571428572,646.6,234.21428571428572,233.62053571428572,747.1,213.21428571428572,222.62053571428572,862.5,209.21428571428572,216.62053571428572,968.2,207.21428571428572,212.62053571428572,1076.2,204.21428571428572,200.62053571428572,1176.5,204.21428571428572,198.62053571428572,1279.6,204.21428571428572,198.62053571428572,1381.1,204.21428571428572,198.62053571428572,1481.8,204.21428571428572,198.62053571428572,1583.2,204.21428571428572,198.62053571428572,1683.8,204.21428571428572,198.62053571428572,1792,204.21428571428572,198.62053571428572,1897.2,204.21428571428572,198.62053571428572,2007.5,204.21428571428572,198.62053571428572,2107.6,204.21428571428572,198.62053571428572,2212,204.21428571428572,198.62053571428572,2315.4,204.21428571428572,198.62053571428572,2416.5,204.21428571428572,198.62053571428572,2516.5,204.21428571428572,198.62053571428572,2616.5,204.21428571428572,198.62053571428572,2716.8,204.21428571428572,198.62053571428572,2826.1,204.21428571428572,198.62053571428572,2931.9,204.21428571428572,198.62053571428572,3032.5,204.21428571428572,198.62053571428572,3144.8,204.21428571428572,198.62053571428572,3245.4,204.21428571428572,198.62053571428572,3346.3,204.21428571428572,198.62053571428572,3457.8,204.21428571428572,198.62053571428572,3574.6,204.21428571428572,198.62053571428572,3677.2,204.21428571428572,198.62053571428572,3783.1,204.21428571428572,198.62053571428572,3889.8,204.21428571428572,198.62053571428572,3991.2,204.21428571428572,198.62053571428572,4094.9,204.21428571428572,198.62053571428572,4211.2,204.21428571428572,198.62053571428572,4314.7,204.21428571428572,198.62053571428572,4416.3,204.21428571428572,198.62053571428572,4522.3,204.21428571428572,198.62053571428572,4626.8,204.21428571428572,198.62053571428572,4732.2,204.21428571428572,198.62053571428572,4842,204.21428571428572,198.62053571428572,4942]","[1906.7,1906.7,1000,0,906.7,""smooth"",""down"",""down"",""good_move"",4285.3,2376.2,1918.9,1909.2,457.2,""smooth"",""right"",""right"",""good_move"",11116.2,6822.1,3020.5,7663.9,431.8,""oops"",""right"",""up"",""bad_move"",20463,9344.3,1722.5,18258.5,482,""oops"",""down"",""right"",""good_move"",24300,3834.2,3270.1,20465.8,564.1,""smooth"",""down"",""down"",""good_move"",27403.4,3101,2625,24302.4,476,""oops"",""down"",""left"",""bad_move"",30391.3,2986,2498.1,27405.4,487.9,""oops"",""down"",""left"",""bad_move"",33781.8,3389.1,3005.8,30392.8,383.3,""oops"",""down"",""down"",""good_move"",36797.7,3007.9,2528.1,33789.8,479.8,""smooth"",""down"",""down"",""good_move"",39791.2,2991.1,2535.2,36800.1,455.9,""smooth"",""right"",""right"",""good_move""]"
"5769","","<div style=""width:500px;"">
  <p>What determined the result of this run?</p>
  </div>","0","html-slider-response","39","995808","0.0-7.0-1.5","46","1","2025-07-30 08:44:10","36c45c0696341be0efffe67d72a12abb","41.150.216.44","Mozilla/5.0 (Windows NT 10.0; Win64; x64) AppleWebKit/537.36 (KHTML, like Gecko) Chrome/138.0.0.0 Safari/537.36 Edg/138.0.0.0","WebKit","Edge","138.0.0.0","Windows","10.0","https://app.prolific.com/","en-US,en;q=0.9,en-ZA;q=0.8","67f38b0b1f5fe0543c6e66ed","687a19d2168e237449fb8af4","6889da377ff026f365ce83df","0","67f38b0b1f5fe0543c6e66ed","0","2025-07-30T09:00:50.335Z","","","","AttribQ","","","","","","","","","","","50","","","","","","","","","","","","","","","","","","","","","","","","","","",""
"11151","","<div style=""width:500px;"">
  <p>How much control did you have over the ball?</p>
  </div>","0","html-slider-response","40","1006962","0.0-7.0-2.5","46","1","2025-07-30 08:44:10","36c45c0696341be0efffe67d72a12abb","41.150.216.44","Mozilla/5.0 (Windows NT 10.0; Win64; x64) AppleWebKit/537.36 (KHTML, like Gecko) Chrome/138.0.0.0 Safari/537.36 Edg/138.0.0.0","WebKit","Edge","138.0.0.0","Windows","10.0","https://app.prolific.com/","en-US,en;q=0.9,en-ZA;q=0.8","67f38b0b1f5fe0543c6e66ed","687a19d2168e237449fb8af4","6889da377ff026f365ce83df","0","67f38b0b1f5fe0543c6e66ed","0","2025-07-30T09:01:01.489Z","","","","ControlQ","","","","","","","","","","","50","","","","","","","","","","","","","","","","","","","","","","","","","","",""
"5616","","<div style=""width:500px;"">
  <p>How would you describe your current emotional state?</p>
  </div>","100","html-slider-response","41","1012582","0.0-7.0-3.5","46","1","2025-07-30 08:44:10","36c45c0696341be0efffe67d72a12abb","41.150.216.44","Mozilla/5.0 (Windows NT 10.0; Win64; x64) AppleWebKit/537.36 (KHTML, like Gecko) Chrome/138.0.0.0 Safari/537.36 Edg/138.0.0.0","WebKit","Edge","138.0.0.0","Windows","10.0","https://app.prolific.com/","en-US,en;q=0.9,en-ZA;q=0.8","67f38b0b1f5fe0543c6e66ed","687a19d2168e237449fb8af4","6889da377ff026f365ce83df","0","67f38b0b1f5fe0543c6e66ed","0","2025-07-30T09:01:07.109Z","","","","StressQ","","","","","","","","","","","50","","","","","","","","","","","","","","","","","","","","","","","","","","",""
"11756","","<div style=""width:500px;"">
  <p>What best describes how you currently feel?</p>
  </div>","100","html-slider-response","42","1024342","0.0-7.0-4.5","46","1","2025-07-30 08:44:10","36c45c0696341be0efffe67d72a12abb","41.150.216.44","Mozilla/5.0 (Windows NT 10.0; Win64; x64) AppleWebKit/537.36 (KHTML, like Gecko) Chrome/138.0.0.0 Safari/537.36 Edg/138.0.0.0","WebKit","Edge","138.0.0.0","Windows","10.0","https://app.prolific.com/","en-US,en;q=0.9,en-ZA;q=0.8","67f38b0b1f5fe0543c6e66ed","687a19d2168e237449fb8af4","6889da377ff026f365ce83df","0","67f38b0b1f5fe0543c6e66ed","0","2025-07-30T09:01:18.870Z","","","","MotivationQ","","","","","","","","","","","50","","","","","","","","","","","","","","","","","","","","","","","","","","",""
"","","","","ctl-task-cpt","43","1067927","0.0-7.0-0.6","46","1","2025-07-30 08:44:10","36c45c0696341be0efffe67d72a12abb","41.150.216.44","Mozilla/5.0 (Windows NT 10.0; Win64; x64) AppleWebKit/537.36 (KHTML, like Gecko) Chrome/138.0.0.0 Safari/537.36 Edg/138.0.0.0","WebKit","Edge","138.0.0.0","Windows","10.0","https://app.prolific.com/","en-US,en;q=0.9,en-ZA;q=0.8","67f38b0b1f5fe0543c6e66ed","687a19d2168e237449fb8af4","6889da377ff026f365ce83df","0","67f38b0b1f5fe0543c6e66ed","0","2025-07-30T09:02:02.454Z","","","","","","","","","","","","","","","","win-only","0","g1:NW,g2:SE","0.4","7","0","1029340.2","2708","7739.6","40551.4","1","4","4","6","1","1","1","1","0","0.007575757575757576","5031.6","3000","320","[""left"",""up""]","{""num_key_presses"":8,""num_perfect"":4,""num_errors"":0,""num_randdir"":4,""num_randdir_good_moves"":2,""num_whilered"":0,""num_whileblue"":0,""num_blue"":3,""num_good_moves"":6}","[234.21428571428572,236.62053571428572,0.9,234.21428571428572,236.62053571428572,128,234.21428571428572,236.62053571428572,231.9,234.21428571428572,236.62053571428572,333,234.21428571428572,236.62053571428572,448.9,234.21428571428572,236.62053571428572,551.2,234.21428571428572,236.62053571428572,656.4,234.21428571428572,236.62053571428572,765.8,210.21428571428572,213.62053571428572,872.7,196.21428571428572,200.62053571428572,980,196.21428571428572,200.62053571428572,1083.1,196.21428571428572,200.62053571428572,1185.6,196.21428571428572,200.62053571428572,1291.1,196.21428571428572,200.62053571428572,1391.2,196.21428571428572,200.62053571428572,1495,196.21428571428572,200.62053571428572,1602.9,196.21428571428572,200.62053571428572,1710.6,196.21428571428572,200.62053571428572,1812.4,196.21428571428572,200.62053571428572,1926.7,196.21428571428572,200.62053571428572,2030,196.21428571428572,200.62053571428572,2140.9,196.21428571428572,200.62053571428572,2243.6,196.21428571428572,200.62053571428572,2345,196.21428571428572,200.62053571428572,2457.4,196.21428571428572,200.62053571428572,2579,196.21428571428572,200.62053571428572,2680.5,196.21428571428572,200.62053571428572,2781.7,196.21428571428572,200.62053571428572,2883.1,196.21428571428572,200.62053571428572,3003.2,196.21428571428572,200.62053571428572,3108.8,196.21428571428572,200.62053571428572,3213,196.21428571428572,200.62053571428572,3317.5,196.21428571428572,200.62053571428572,3424.4,196.21428571428572,200.62053571428572,3528.6,196.21428571428572,200.62053571428572,3630.8,196.21428571428572,200.62053571428572,3733.7,196.21428571428572,200.62053571428572,3843.3,196.21428571428572,200.62053571428572,3945.7,196.21428571428572,200.62053571428572,4052.9,196.21428571428572,200.62053571428572,4153.3,196.21428571428572,200.62053571428572,4253.3,196.21428571428572,200.62053571428572,4353.3,196.21428571428572,200.62053571428572,4464,196.21428571428572,200.62053571428572,4575.2,196.21428571428572,200.62053571428572,4678.4,196.21428571428572,200.62053571428572,4781.2,196.21428571428572,200.62053571428572,4883.4,196.21428571428572,200.62053571428572,4992.6]","[1470.5,1470.5,1000,0,470.5,""smooth"",""up"",""up"",""good_move"",8085.8,6612.5,2034.6,5615.7,435.5,""oops"",""up"",""right"",""bad_move"",14192.2,6104,2269.3,11300.2,622.8,""oops"",""left"",""left"",""good_move"",16601.8,2406.7,1791,14195.1,615.7,""smooth"",""left"",""left"",""good_move"",19272.7,2669.3,2224.4,16603.4,444.9,""oops"",""left"",""left"",""good_move"",22733.9,3458.7,2909.1,19275.2,549.6,""oops"",""up"",""down"",""bad_move"",29569.8,6829.1,2753.8,26255.4,560.6,""smooth"",""up"",""up"",""good_move"",32649.6,3077.2,1872.5,29572.4,1204.7,""smooth"",""up"",""up"",""good_move""]"
"5734","","<div style=""width:500px;"">
  <p>What determined the result of this run?</p>
  </div>","100","html-slider-response","44","1073664","0.0-7.0-1.6","46","1","2025-07-30 08:44:10","36c45c0696341be0efffe67d72a12abb","41.150.216.44","Mozilla/5.0 (Windows NT 10.0; Win64; x64) AppleWebKit/537.36 (KHTML, like Gecko) Chrome/138.0.0.0 Safari/537.36 Edg/138.0.0.0","WebKit","Edge","138.0.0.0","Windows","10.0","https://app.prolific.com/","en-US,en;q=0.9,en-ZA;q=0.8","67f38b0b1f5fe0543c6e66ed","687a19d2168e237449fb8af4","6889da377ff026f365ce83df","0","67f38b0b1f5fe0543c6e66ed","0","2025-07-30T09:02:08.191Z","","","","AttribQ","","","","","","","","","","","50","","","","","","","","","","","","","","","","","","","","","","","","","","",""
"5085","","<div style=""width:500px;"">
  <p>How much control did you have over the ball?</p>
  </div>","100","html-slider-response","45","1078754","0.0-7.0-2.6","46","1","2025-07-30 08:44:10","36c45c0696341be0efffe67d72a12abb","41.150.216.44","Mozilla/5.0 (Windows NT 10.0; Win64; x64) AppleWebKit/537.36 (KHTML, like Gecko) Chrome/138.0.0.0 Safari/537.36 Edg/138.0.0.0","WebKit","Edge","138.0.0.0","Windows","10.0","https://app.prolific.com/","en-US,en;q=0.9,en-ZA;q=0.8","67f38b0b1f5fe0543c6e66ed","687a19d2168e237449fb8af4","6889da377ff026f365ce83df","0","67f38b0b1f5fe0543c6e66ed","0","2025-07-30T09:02:13.281Z","","","","ControlQ","","","","","","","","","","","50","","","","","","","","","","","","","","","","","","","","","","","","","","",""
"6041","","<div style=""width:500px;"">
  <p>How would you describe your current emotional state?</p>
  </div>","46","html-slider-response","46","1084798","0.0-7.0-3.6","46","1","2025-07-30 08:44:10","36c45c0696341be0efffe67d72a12abb","41.150.216.44","Mozilla/5.0 (Windows NT 10.0; Win64; x64) AppleWebKit/537.36 (KHTML, like Gecko) Chrome/138.0.0.0 Safari/537.36 Edg/138.0.0.0","WebKit","Edge","138.0.0.0","Windows","10.0","https://app.prolific.com/","en-US,en;q=0.9,en-ZA;q=0.8","67f38b0b1f5fe0543c6e66ed","687a19d2168e237449fb8af4","6889da377ff026f365ce83df","0","67f38b0b1f5fe0543c6e66ed","0","2025-07-30T09:02:19.325Z","","","","StressQ","","","","","","","","","","","50","","","","","","","","","","","","","","","","","","","","","","","","","","",""
"5682","","<div style=""width:500px;"">
  <p>What best describes how you currently feel?</p>
  </div>","100","html-slider-response","47","1090484","0.0-7.0-4.6","46","1","2025-07-30 08:44:10","36c45c0696341be0efffe67d72a12abb","41.150.216.44","Mozilla/5.0 (Windows NT 10.0; Win64; x64) AppleWebKit/537.36 (KHTML, like Gecko) Chrome/138.0.0.0 Safari/537.36 Edg/138.0.0.0","WebKit","Edge","138.0.0.0","Windows","10.0","https://app.prolific.com/","en-US,en;q=0.9,en-ZA;q=0.8","67f38b0b1f5fe0543c6e66ed","687a19d2168e237449fb8af4","6889da377ff026f365ce83df","0","67f38b0b1f5fe0543c6e66ed","0","2025-07-30T09:02:25.012Z","","","","MotivationQ","","","","","","","","","","","50","","","","","","","","","","","","","","","","","","","","","","","","","","",""
"","","","","ctl-task-cpt","48","1159945","0.0-7.0-0.7","46","1","2025-07-30 08:44:10","36c45c0696341be0efffe67d72a12abb","41.150.216.44","Mozilla/5.0 (Windows NT 10.0; Win64; x64) AppleWebKit/537.36 (KHTML, like Gecko) Chrome/138.0.0.0 Safari/537.36 Edg/138.0.0.0","WebKit","Edge","138.0.0.0","Windows","10.0","https://app.prolific.com/","en-US,en;q=0.9,en-ZA;q=0.8","67f38b0b1f5fe0543c6e66ed","687a19d2168e237449fb8af4","6889da377ff026f365ce83df","0","67f38b0b1f5fe0543c6e66ed","0","2025-07-30T09:03:34.472Z","","","","","","","","","","","","","","","","win-only","2","g1:SE,g2:NW","0.3","8","0","1095484.1","5594.2","10609.6","66434.6","1","4","8","6","2","-8","-9","0","1","0","5015.4","3000","-1310","[""left"",""up""]","{""num_key_presses"":13,""num_perfect"":3,""num_errors"":1,""num_randdir"":9,""num_randdir_good_moves"":3,""num_whilered"":0,""num_whileblue"":1,""num_blue"":5,""num_good_moves"":6}","[239.21428571428572,238.62053571428572,0.8,239.21428571428572,238.62053571428572,110.3,239.21428571428572,238.62053571428572,211.6,239.21428571428572,238.62053571428572,319.3,239.21428571428572,238.62053571428572,442.7,239.21428571428572,238.62053571428572,565.5,239.21428571428572,238.62053571428572,667,239.21428571428572,238.62053571428572,768.2,239.21428571428572,238.62053571428572,868.7,262.2142857142857,266.6205357142857,981.4,271.2142857142857,274.6205357142857,1087.1,275.2142857142857,275.6205357142857,1203.4,277.2142857142857,274.6205357142857,1328.3,277.2142857142857,274.6205357142857,1431.1,277.2142857142857,274.6205357142857,1544.3,277.2142857142857,274.6205357142857,1658.4,277.2142857142857,274.6205357142857,1760.9,277.2142857142857,274.6205357142857,1862.1,277.2142857142857,274.6205357142857,1963.4,277.2142857142857,274.6205357142857,2067.9,277.2142857142857,274.6205357142857,2178.3,277.2142857142857,274.6205357142857,2281.3,277.2142857142857,274.6205357142857,2395.7,277.2142857142857,274.6205357142857,2514,277.2142857142857,274.6205357142857,2617.1,277.2142857142857,274.6205357142857,2720.8,277.2142857142857,274.6205357142857,2828.6,277.2142857142857,274.6205357142857,2944.9,277.2142857142857,274.6205357142857,3057.7,277.2142857142857,274.6205357142857,3170.8,277.2142857142857,274.6205357142857,3277.3,277.2142857142857,274.6205357142857,3397.1,277.2142857142857,274.6205357142857,3497.3,277.2142857142857,274.6205357142857,3598.5,277.2142857142857,274.6205357142857,3702.7,277.2142857142857,274.6205357142857,3808.9,277.2142857142857,274.6205357142857,3914.4,277.2142857142857,274.6205357142857,4015,277.2142857142857,274.6205357142857,4117.2,277.2142857142857,274.6205357142857,4218.2,277.2142857142857,274.6205357142857,4332.2,277.2142857142857,274.6205357142857,4434.5,277.2142857142857,274.6205357142857,4534.6,277.2142857142857,274.6205357142857,4636.6,277.2142857142857,274.6205357142857,4747.9,277.2142857142857,274.6205357142857,4850.1,277.2142857142857,274.6205357142857,4970.6]","[8094.5,8096.6,2420.2,5149.1,527.3,""oops"",""up"",""up"",""good_move"",11001.4,2902.8,2168.4,8099.2,734.3,""oops"",""up"",""left"",""good_move"",13932.8,2929.7,2256.6,11003.1,673.1,""smooth"",""up"",""up"",""good_move"",17327.2,3392.3,2831.5,13934.9,560.8,""smooth"",""up"",""up"",""good_move"",24355.1,7026.7,3247.3,20644.8,463.1,""oops"",""left"",""down"",""bad_move"",27473.7,3117.6,2623.3,24356.2,494.2,""oops"",""left"",""left"",""good_move"",33943.6,6467.4,2581.9,30915.5,446.2,""smooth"",""up"",""up"",""good_move"",37399.2,3453,2707.6,33946.3,745.3,""oops"",""left"",""down"",""bad_move"",40596.8,3190,2621.4,37407,568.4,""oops"",""left"",""right"",""bad_move"",43149.4,2551,1634.6,40598.6,916.3,""while_blue"",""left"",""down"",""bad_move"",46687.7,3535.1,2143.1,43152.6,1392,""oops"",""up"",""down"",""bad_move"",50325.9,3637.2,2817.9,46688.8,819.3,""oops"",""left"",""right"",""bad_move"",53355.4,3027,2470.7,50328.4,556.3,""oops"",""up"",""down"",""bad_move""]"
"5410","","<div style=""width:500px;"">
  <p>What determined the result of this run?</p>
  </div>","0","html-slider-response","49","1165359","0.0-7.0-1.7","46","1","2025-07-30 08:44:10","36c45c0696341be0efffe67d72a12abb","41.150.216.44","Mozilla/5.0 (Windows NT 10.0; Win64; x64) AppleWebKit/537.36 (KHTML, like Gecko) Chrome/138.0.0.0 Safari/537.36 Edg/138.0.0.0","WebKit","Edge","138.0.0.0","Windows","10.0","https://app.prolific.com/","en-US,en;q=0.9,en-ZA;q=0.8","67f38b0b1f5fe0543c6e66ed","687a19d2168e237449fb8af4","6889da377ff026f365ce83df","0","67f38b0b1f5fe0543c6e66ed","0","2025-07-30T09:03:39.886Z","","","","AttribQ","","","","","","","","","","","50","","","","","","","","","","","","","","","","","","","","","","","","","","",""
"7480","","<div style=""width:500px;"">
  <p>How much control did you have over the ball?</p>
  </div>","0","html-slider-response","50","1172845","0.0-7.0-2.7","46","1","2025-07-30 08:44:10","36c45c0696341be0efffe67d72a12abb","41.150.216.44","Mozilla/5.0 (Windows NT 10.0; Win64; x64) AppleWebKit/537.36 (KHTML, like Gecko) Chrome/138.0.0.0 Safari/537.36 Edg/138.0.0.0","WebKit","Edge","138.0.0.0","Windows","10.0","https://app.prolific.com/","en-US,en;q=0.9,en-ZA;q=0.8","67f38b0b1f5fe0543c6e66ed","687a19d2168e237449fb8af4","6889da377ff026f365ce83df","0","67f38b0b1f5fe0543c6e66ed","0","2025-07-30T09:03:47.372Z","","","","ControlQ","","","","","","","","","","","50","","","","","","","","","","","","","","","","","","","","","","","","","","",""
"9315","","<div style=""width:500px;"">
  <p>How would you describe your current emotional state?</p>
  </div>","100","html-slider-response","51","1182163","0.0-7.0-3.7","46","1","2025-07-30 08:44:10","36c45c0696341be0efffe67d72a12abb","41.150.216.44","Mozilla/5.0 (Windows NT 10.0; Win64; x64) AppleWebKit/537.36 (KHTML, like Gecko) Chrome/138.0.0.0 Safari/537.36 Edg/138.0.0.0","WebKit","Edge","138.0.0.0","Windows","10.0","https://app.prolific.com/","en-US,en;q=0.9,en-ZA;q=0.8","67f38b0b1f5fe0543c6e66ed","687a19d2168e237449fb8af4","6889da377ff026f365ce83df","0","67f38b0b1f5fe0543c6e66ed","0","2025-07-30T09:03:56.690Z","","","","StressQ","","","","","","","","","","","50","","","","","","","","","","","","","","","","","","","","","","","","","","",""
"11514","","<div style=""width:500px;"">
  <p>What best describes how you currently feel?</p>
  </div>","1","html-slider-response","52","1193682","0.0-7.0-4.7","46","1","2025-07-30 08:44:10","36c45c0696341be0efffe67d72a12abb","41.150.216.44","Mozilla/5.0 (Windows NT 10.0; Win64; x64) AppleWebKit/537.36 (KHTML, like Gecko) Chrome/138.0.0.0 Safari/537.36 Edg/138.0.0.0","WebKit","Edge","138.0.0.0","Windows","10.0","https://app.prolific.com/","en-US,en;q=0.9,en-ZA;q=0.8","67f38b0b1f5fe0543c6e66ed","687a19d2168e237449fb8af4","6889da377ff026f365ce83df","0","67f38b0b1f5fe0543c6e66ed","0","2025-07-30T09:04:08.209Z","","","","MotivationQ","","","","","","","","","","","50","","","","","","","","","","","","","","","","","","","","","","","","","","",""
"","","","","ctl-task-cpt","53","1257301","0.0-7.0-0.8","46","1","2025-07-30 08:44:10","36c45c0696341be0efffe67d72a12abb","41.150.216.44","Mozilla/5.0 (Windows NT 10.0; Win64; x64) AppleWebKit/537.36 (KHTML, like Gecko) Chrome/138.0.0.0 Safari/537.36 Edg/138.0.0.0","WebKit","Edge","138.0.0.0","Windows","10.0","https://app.prolific.com/","en-US,en;q=0.9,en-ZA;q=0.8","67f38b0b1f5fe0543c6e66ed","687a19d2168e237449fb8af4","6889da377ff026f365ce83df","0","67f38b0b1f5fe0543c6e66ed","0","2025-07-30T09:05:11.829Z","","","","","","","","","","","","","","","","win-only","1","g1:NE,g2:SW","0.4","9","0","1198680.8","23505.4","28529.7","60587.9","1","4","8","6","1","-1","-1","0","0","0","5024.3","3000","-1685","[""up"",""right""]","{""num_key_presses"":8,""num_perfect"":2,""num_errors"":0,""num_randdir"":6,""num_randdir_good_moves"":2,""num_whilered"":0,""num_whileblue"":0,""num_blue"":1,""num_good_moves"":4}","[233.21428571428572,232.62053571428572,6.8,233.21428571428572,232.62053571428572,110.4,233.21428571428572,232.62053571428572,227.3,233.21428571428572,232.62053571428572,379,233.21428571428572,232.62053571428572,482.7,233.21428571428572,232.62053571428572,628.7,270.2142857142857,232.62053571428572,795.6,274.2142857142857,231.62053571428572,923.9,273.2142857142857,223.62053571428572,1025.9,268.2142857142857,211.62053571428572,1128.2,268.2142857142857,208.62053571428572,1260,269.2142857142857,207.62053571428572,1485.7,269.2142857142857,207.62053571428572,1586.6,269.2142857142857,207.62053571428572,1743.4,269.2142857142857,207.62053571428572,1847.3,269.2142857142857,207.62053571428572,1951.1,269.2142857142857,207.62053571428572,2058.4,269.2142857142857,207.62053571428572,2160.3,269.2142857142857,207.62053571428572,2264.8,269.2142857142857,207.62053571428572,2373.3,269.2142857142857,207.62053571428572,2475.5,269.2142857142857,207.62053571428572,2579.7,269.2142857142857,207.62053571428572,2689.5,269.2142857142857,207.62053571428572,2795,269.2142857142857,207.62053571428572,2896.3,269.2142857142857,207.62053571428572,3032.3,269.2142857142857,207.62053571428572,3133.3,269.2142857142857,207.62053571428572,3239.5,269.2142857142857,207.62053571428572,3377.5,269.2142857142857,207.62053571428572,3477.9,269.2142857142857,207.62053571428572,3585,269.2142857142857,207.62053571428572,3696.2,269.2142857142857,207.62053571428572,3800.8,269.2142857142857,207.62053571428572,3902.3,269.2142857142857,207.62053571428572,4002.6,269.2142857142857,207.62053571428572,4110.6,269.2142857142857,207.62053571428572,4211.6,269.2142857142857,207.62053571428572,4316.8,269.2142857142857,207.62053571428572,4436,269.2142857142857,207.62053571428572,4539.2,269.2142857142857,207.62053571428572,4641.3,269.2142857142857,207.62053571428572,4745.6,269.2142857142857,207.62053571428572,4864.6,269.2142857142857,207.62053571428572,4968.5]","[2098.1,2098.8,1000,0,1098.8,""oops"",""up"",""down"",""bad_move"",4751.2,2650.3,2013.7,2100.9,636.6,""smooth"",""right"",""right"",""good_move"",7786.3,3032.3,2584.3,4754,448,""oops"",""right"",""up"",""good_move"",15162.5,7373.3,3064.5,11643.1,454.9,""oops"",""up"",""down"",""bad_move"",18693.9,3529.5,2988.3,15164.4,541.3,""smooth"",""right"",""right"",""good_move"",21495.9,2799.6,2234.8,18696.3,564.8,""oops"",""up"",""down"",""bad_move"",25191.4,3693.1,2705.6,21498.3,987.5,""oops"",""up"",""down"",""bad_move"",29544.3,4351.1,2396.1,25193.2,1955,""oops"",""up"",""up"",""good_move""]"
"5968","","<div style=""width:500px;"">
  <p>What determined the result of this run?</p>
  </div>","1","html-slider-response","54","1263272","0.0-7.0-1.8","46","1","2025-07-30 08:44:10","36c45c0696341be0efffe67d72a12abb","41.150.216.44","Mozilla/5.0 (Windows NT 10.0; Win64; x64) AppleWebKit/537.36 (KHTML, like Gecko) Chrome/138.0.0.0 Safari/537.36 Edg/138.0.0.0","WebKit","Edge","138.0.0.0","Windows","10.0","https://app.prolific.com/","en-US,en;q=0.9,en-ZA;q=0.8","67f38b0b1f5fe0543c6e66ed","687a19d2168e237449fb8af4","6889da377ff026f365ce83df","0","67f38b0b1f5fe0543c6e66ed","0","2025-07-30T09:05:17.799Z","","","","AttribQ","","","","","","","","","","","50","","","","","","","","","","","","","","","","","","","","","","","","","","",""
"19667","","<div style=""width:500px;"">
  <p>How much control did you have over the ball?</p>
  </div>","97","html-slider-response","55","1282942","0.0-7.0-2.8","46","1","2025-07-30 08:44:10","36c45c0696341be0efffe67d72a12abb","41.150.216.44","Mozilla/5.0 (Windows NT 10.0; Win64; x64) AppleWebKit/537.36 (KHTML, like Gecko) Chrome/138.0.0.0 Safari/537.36 Edg/138.0.0.0","WebKit","Edge","138.0.0.0","Windows","10.0","https://app.prolific.com/","en-US,en;q=0.9,en-ZA;q=0.8","67f38b0b1f5fe0543c6e66ed","687a19d2168e237449fb8af4","6889da377ff026f365ce83df","0","67f38b0b1f5fe0543c6e66ed","0","2025-07-30T09:05:37.470Z","","","","ControlQ","","","","","","","","","","","50","","","","","","","","","","","","","","","","","","","","","","","","","","",""
"4901","","<div style=""width:500px;"">
  <p>How would you describe your current emotional state?</p>
  </div>","2","html-slider-response","56","1287849","0.0-7.0-3.8","46","1","2025-07-30 08:44:10","36c45c0696341be0efffe67d72a12abb","41.150.216.44","Mozilla/5.0 (Windows NT 10.0; Win64; x64) AppleWebKit/537.36 (KHTML, like Gecko) Chrome/138.0.0.0 Safari/537.36 Edg/138.0.0.0","WebKit","Edge","138.0.0.0","Windows","10.0","https://app.prolific.com/","en-US,en;q=0.9,en-ZA;q=0.8","67f38b0b1f5fe0543c6e66ed","687a19d2168e237449fb8af4","6889da377ff026f365ce83df","0","67f38b0b1f5fe0543c6e66ed","0","2025-07-30T09:05:42.376Z","","","","StressQ","","","","","","","","","","","50","","","","","","","","","","","","","","","","","","","","","","","","","","",""
"13327","","<div style=""width:500px;"">
  <p>What best describes how you currently feel?</p>
  </div>","0","html-slider-response","57","1301180","0.0-7.0-4.8","46","1","2025-07-30 08:44:10","36c45c0696341be0efffe67d72a12abb","41.150.216.44","Mozilla/5.0 (Windows NT 10.0; Win64; x64) AppleWebKit/537.36 (KHTML, like Gecko) Chrome/138.0.0.0 Safari/537.36 Edg/138.0.0.0","WebKit","Edge","138.0.0.0","Windows","10.0","https://app.prolific.com/","en-US,en;q=0.9,en-ZA;q=0.8","67f38b0b1f5fe0543c6e66ed","687a19d2168e237449fb8af4","6889da377ff026f365ce83df","0","67f38b0b1f5fe0543c6e66ed","0","2025-07-30T09:05:55.708Z","","","","MotivationQ","","","","","","","","","","","50","","","","","","","","","","","","","","","","","","","","","","","","","","",""
"","","","","ctl-task-cpt","58","1331195","0.0-7.0-0.9","46","1","2025-07-30 08:44:10","36c45c0696341be0efffe67d72a12abb","41.150.216.44","Mozilla/5.0 (Windows NT 10.0; Win64; x64) AppleWebKit/537.36 (KHTML, like Gecko) Chrome/138.0.0.0 Safari/537.36 Edg/138.0.0.0","WebKit","Edge","138.0.0.0","Windows","10.0","https://app.prolific.com/","en-US,en;q=0.9,en-ZA;q=0.8","67f38b0b1f5fe0543c6e66ed","687a19d2168e237449fb8af4","6889da377ff026f365ce83df","0","67f38b0b1f5fe0543c6e66ed","0","2025-07-30T09:06:25.723Z","","","","","","","","","","","","","","","","win-only","3","g1:SW,g2:NE","0.5","10","0","1306185.3","5539.4","10543.1","26975.6","1","4","4","6","1","1","1","1","0","0.007575757575757576","5003.7","3000","2240","[""down"",""left""]","{""num_key_presses"":4,""num_perfect"":2,""num_errors"":0,""num_randdir"":2,""num_randdir_good_moves"":2,""num_whilered"":0,""num_whileblue"":0,""num_blue"":1,""num_good_moves"":4}","[235.21428571428572,233.62053571428572,0.9,235.21428571428572,233.62053571428572,100.9,235.21428571428572,233.62053571428572,235.6,235.21428571428572,233.62053571428572,341.9,235.21428571428572,233.62053571428572,506.5,235.21428571428572,233.62053571428572,608.6,235.21428571428572,233.62053571428572,748.3,239.21428571428572,207.62053571428572,852.7,213.21428571428572,225.62053571428572,960.8,196.21428571428572,253.62053571428572,1072.3,194.21428571428572,257.6205357142857,1299.6,194.21428571428572,257.6205357142857,1402.5,194.21428571428572,257.6205357142857,1660.9,194.21428571428572,257.6205357142857,1763.3,194.21428571428572,257.6205357142857,1915.7,194.21428571428572,257.6205357142857,2016.9,194.21428571428572,257.6205357142857,2224.6,194.21428571428572,257.6205357142857,2327.7,194.21428571428572,257.6205357142857,2428.6,194.21428571428572,257.6205357142857,2534.8,194.21428571428572,257.6205357142857,2662.9,194.21428571428572,257.6205357142857,2782.8,194.21428571428572,257.6205357142857,2891.1,194.21428571428572,257.6205357142857,3074.5,194.21428571428572,257.6205357142857,3176.9,194.21428571428572,257.6205357142857,3278.3,194.21428571428572,257.6205357142857,3382.7,193.21428571428572,275.6205357142857,3501.6,191.21428571428572,283.6205357142857,3612,191.21428571428572,284.6205357142857,3818,191.21428571428572,284.6205357142857,3918.4,191.21428571428572,284.6205357142857,4030.7,191.21428571428572,284.6205357142857,4149.2,191.21428571428572,284.6205357142857,4313,191.21428571428572,284.6205357142857,4414.3,191.21428571428572,284.6205357142857,4515.9,191.21428571428572,284.6205357142857,4617.3,191.21428571428572,284.6205357142857,4718.4,191.21428571428572,284.6205357142857,4835]","[5891.1,5891.1,3424.8,2011.6,454.7,""oops"",""down"",""left"",""good_move"",8896.8,3002.6,2526.1,5894.2,476.5,""smooth"",""down"",""down"",""good_move"",11889.2,2989.1,2565.7,8900.1,423.4,""oops"",""left"",""down"",""good_move"",16110.8,4213.3,3312,11897.5,901.3,""smooth"",""left"",""left"",""good_move""]"
"10397","","<div style=""width:500px;"">
  <p>What determined the result of this run?</p>
  </div>","2","html-slider-response","59","1341595","0.0-7.0-1.9","46","1","2025-07-30 08:44:10","36c45c0696341be0efffe67d72a12abb","41.150.216.44","Mozilla/5.0 (Windows NT 10.0; Win64; x64) AppleWebKit/537.36 (KHTML, like Gecko) Chrome/138.0.0.0 Safari/537.36 Edg/138.0.0.0","WebKit","Edge","138.0.0.0","Windows","10.0","https://app.prolific.com/","en-US,en;q=0.9,en-ZA;q=0.8","67f38b0b1f5fe0543c6e66ed","687a19d2168e237449fb8af4","6889da377ff026f365ce83df","0","67f38b0b1f5fe0543c6e66ed","0","2025-07-30T09:06:36.122Z","","","","AttribQ","","","","","","","","","","","50","","","","","","","","","","","","","","","","","","","","","","","","","","",""
"6792","","<div style=""width:500px;"">
  <p>How much control did you have over the ball?</p>
  </div>","98","html-slider-response","60","1348393","0.0-7.0-2.9","46","1","2025-07-30 08:44:10","36c45c0696341be0efffe67d72a12abb","41.150.216.44","Mozilla/5.0 (Windows NT 10.0; Win64; x64) AppleWebKit/537.36 (KHTML, like Gecko) Chrome/138.0.0.0 Safari/537.36 Edg/138.0.0.0","WebKit","Edge","138.0.0.0","Windows","10.0","https://app.prolific.com/","en-US,en;q=0.9,en-ZA;q=0.8","67f38b0b1f5fe0543c6e66ed","687a19d2168e237449fb8af4","6889da377ff026f365ce83df","0","67f38b0b1f5fe0543c6e66ed","0","2025-07-30T09:06:42.920Z","","","","ControlQ","","","","","","","","","","","50","","","","","","","","","","","","","","","","","","","","","","","","","","",""
"7060","","<div style=""width:500px;"">
  <p>How would you describe your current emotional state?</p>
  </div>","0","html-slider-response","61","1355457","0.0-7.0-3.9","46","1","2025-07-30 08:44:10","36c45c0696341be0efffe67d72a12abb","41.150.216.44","Mozilla/5.0 (Windows NT 10.0; Win64; x64) AppleWebKit/537.36 (KHTML, like Gecko) Chrome/138.0.0.0 Safari/537.36 Edg/138.0.0.0","WebKit","Edge","138.0.0.0","Windows","10.0","https://app.prolific.com/","en-US,en;q=0.9,en-ZA;q=0.8","67f38b0b1f5fe0543c6e66ed","687a19d2168e237449fb8af4","6889da377ff026f365ce83df","0","67f38b0b1f5fe0543c6e66ed","0","2025-07-30T09:06:49.985Z","","","","StressQ","","","","","","","","","","","50","","","","","","","","","","","","","","","","","","","","","","","","","","",""
"26761","","<div style=""width:500px;"">
  <p>What best describes how you currently feel?</p>
  </div>","2","html-slider-response","62","1382224","0.0-7.0-4.9","46","1","2025-07-30 08:44:10","36c45c0696341be0efffe67d72a12abb","41.150.216.44","Mozilla/5.0 (Windows NT 10.0; Win64; x64) AppleWebKit/537.36 (KHTML, like Gecko) Chrome/138.0.0.0 Safari/537.36 Edg/138.0.0.0","WebKit","Edge","138.0.0.0","Windows","10.0","https://app.prolific.com/","en-US,en;q=0.9,en-ZA;q=0.8","67f38b0b1f5fe0543c6e66ed","687a19d2168e237449fb8af4","6889da377ff026f365ce83df","0","67f38b0b1f5fe0543c6e66ed","0","2025-07-30T09:07:16.751Z","","","","MotivationQ","","","","","","","","","","","50","","","","","","","","","","","","","","","","","","","","","","","","","","",""
"","","","","ctl-task-cpt","63","1440671","0.0-7.0-0.10","46","1","2025-07-30 08:44:10","36c45c0696341be0efffe67d72a12abb","41.150.216.44","Mozilla/5.0 (Windows NT 10.0; Win64; x64) AppleWebKit/537.36 (KHTML, like Gecko) Chrome/138.0.0.0 Safari/537.36 Edg/138.0.0.0","WebKit","Edge","138.0.0.0","Windows","10.0","https://app.prolific.com/","en-US,en;q=0.9,en-ZA;q=0.8","67f38b0b1f5fe0543c6e66ed","687a19d2168e237449fb8af4","6889da377ff026f365ce83df","0","67f38b0b1f5fe0543c6e66ed","0","2025-07-30T09:08:15.198Z","","","","","","","","","","","","","","","","win-only","3","g1:SW,g2:NE","0.6","11","0","1387220.6","9159.1","14173.8","55411.8","1","4","8","6","1","-1","-2","0","1","0","5014.7","3000","-1420","[""down"",""left""]","{""num_key_presses"":9,""num_perfect"":4,""num_errors"":1,""num_randdir"":4,""num_randdir_good_moves"":2,""num_whilered"":0,""num_whileblue"":1,""num_blue"":3,""num_good_moves"":5}","[238.21428571428572,233.62053571428572,11.1,238.21428571428572,233.62053571428572,106.8,238.21428571428572,233.62053571428572,215.8,238.21428571428572,233.62053571428572,317,238.21428571428572,233.62053571428572,419.4,238.21428571428572,233.62053571428572,532.9,238.21428571428572,233.62053571428572,633.4,184.21428571428572,262.6205357142857,734.5,183.21428571428572,262.6205357142857,845,183.21428571428572,262.6205357142857,955.8,189.21428571428572,260.6205357142857,1072.7,189.21428571428572,260.6205357142857,1184.8,189.21428571428572,260.6205357142857,1299.6,189.21428571428572,260.6205357142857,1411.5,189.21428571428572,260.6205357142857,1511.9,189.21428571428572,260.6205357142857,1617.6,189.21428571428572,260.6205357142857,1731.8,189.21428571428572,260.6205357142857,1846.1,189.21428571428572,260.6205357142857,1959.8,189.21428571428572,260.6205357142857,2066.3,189.21428571428572,260.6205357142857,2177.4,189.21428571428572,260.6205357142857,2283.9,189.21428571428572,260.6205357142857,2388.7,189.21428571428572,260.6205357142857,2493.1,189.21428571428572,260.6205357142857,2612,189.21428571428572,260.6205357142857,2714.5,189.21428571428572,260.6205357142857,2826.2,189.21428571428572,260.6205357142857,2930.6,189.21428571428572,260.6205357142857,3045.8,189.21428571428572,260.6205357142857,3152.5,189.21428571428572,260.6205357142857,3268,189.21428571428572,260.6205357142857,3384.4,189.21428571428572,260.6205357142857,3496.3,189.21428571428572,260.6205357142857,3600.4,189.21428571428572,260.6205357142857,3713,189.21428571428572,260.6205357142857,3817,189.21428571428572,260.6205357142857,3929.5,189.21428571428572,260.6205357142857,4049.5,189.21428571428572,260.6205357142857,4153.7,189.21428571428572,260.6205357142857,4270.1,189.21428571428572,260.6205357142857,4384.1,189.21428571428572,260.6205357142857,4494.1,189.21428571428572,260.6205357142857,4607.8,189.21428571428572,260.6205357142857,4724.2,189.21428571428572,260.6205357142857,4826,189.21428571428572,260.6205357142857,4936.2]","[1846.3,1846.3,1000,0,846.3,""oops"",""down"",""left"",""good_move"",5084.5,3235.5,2675.6,1849,559.9,""oops"",""left"",""right"",""bad_move"",8858.6,3772.2,3398.9,5086.4,373.3,""while_blue"",""down"",""right"",""bad_move"",12336,3470.7,2765.7,8865.3,705,""smooth"",""down"",""down"",""good_move"",15676.1,3320.5,1723.9,12355.6,1596.6,""smooth"",""down"",""down"",""good_move"",22628.7,6951.6,3101.5,19048.1,479.2,""oops"",""left"",""right"",""bad_move"",25562.6,2931.4,2367.2,22631.2,564.2,""smooth"",""right"",""right"",""bad_move"",28891.9,3326,2405.6,25566.1,920.3,""smooth"",""left"",""left"",""good_move"",36398.7,7504.3,2426,33472.7,500,""oops"",""left"",""left"",""good_move""]"
"13486","","<div style=""width:500px;"">
  <p>What determined the result of this run?</p>
  </div>","1","html-slider-response","64","1454159","0.0-7.0-1.10","46","1","2025-07-30 08:44:10","36c45c0696341be0efffe67d72a12abb","41.150.216.44","Mozilla/5.0 (Windows NT 10.0; Win64; x64) AppleWebKit/537.36 (KHTML, like Gecko) Chrome/138.0.0.0 Safari/537.36 Edg/138.0.0.0","WebKit","Edge","138.0.0.0","Windows","10.0","https://app.prolific.com/","en-US,en;q=0.9,en-ZA;q=0.8","67f38b0b1f5fe0543c6e66ed","687a19d2168e237449fb8af4","6889da377ff026f365ce83df","0","67f38b0b1f5fe0543c6e66ed","0","2025-07-30T09:08:28.686Z","","","","AttribQ","","","","","","","","","","","50","","","","","","","","","","","","","","","","","","","","","","","","","","",""
"7593","","<div style=""width:500px;"">
  <p>How much control did you have over the ball?</p>
  </div>","5","html-slider-response","65","1461755","0.0-7.0-2.10","46","1","2025-07-30 08:44:10","36c45c0696341be0efffe67d72a12abb","41.150.216.44","Mozilla/5.0 (Windows NT 10.0; Win64; x64) AppleWebKit/537.36 (KHTML, like Gecko) Chrome/138.0.0.0 Safari/537.36 Edg/138.0.0.0","WebKit","Edge","138.0.0.0","Windows","10.0","https://app.prolific.com/","en-US,en;q=0.9,en-ZA;q=0.8","67f38b0b1f5fe0543c6e66ed","687a19d2168e237449fb8af4","6889da377ff026f365ce83df","0","67f38b0b1f5fe0543c6e66ed","0","2025-07-30T09:08:36.282Z","","","","ControlQ","","","","","","","","","","","50","","","","","","","","","","","","","","","","","","","","","","","","","","",""
"5599","","<div style=""width:500px;"">
  <p>How would you describe your current emotional state?</p>
  </div>","53","html-slider-response","66","1467359","0.0-7.0-3.10","46","1","2025-07-30 08:44:10","36c45c0696341be0efffe67d72a12abb","41.150.216.44","Mozilla/5.0 (Windows NT 10.0; Win64; x64) AppleWebKit/537.36 (KHTML, like Gecko) Chrome/138.0.0.0 Safari/537.36 Edg/138.0.0.0","WebKit","Edge","138.0.0.0","Windows","10.0","https://app.prolific.com/","en-US,en;q=0.9,en-ZA;q=0.8","67f38b0b1f5fe0543c6e66ed","687a19d2168e237449fb8af4","6889da377ff026f365ce83df","0","67f38b0b1f5fe0543c6e66ed","0","2025-07-30T09:08:41.886Z","","","","StressQ","","","","","","","","","","","50","","","","","","","","","","","","","","","","","","","","","","","","","","",""
"5440","","<div style=""width:500px;"">
  <p>What best describes how you currently feel?</p>
  </div>","100","html-slider-response","67","1472805","0.0-7.0-4.10","46","1","2025-07-30 08:44:10","36c45c0696341be0efffe67d72a12abb","41.150.216.44","Mozilla/5.0 (Windows NT 10.0; Win64; x64) AppleWebKit/537.36 (KHTML, like Gecko) Chrome/138.0.0.0 Safari/537.36 Edg/138.0.0.0","WebKit","Edge","138.0.0.0","Windows","10.0","https://app.prolific.com/","en-US,en;q=0.9,en-ZA;q=0.8","67f38b0b1f5fe0543c6e66ed","687a19d2168e237449fb8af4","6889da377ff026f365ce83df","0","67f38b0b1f5fe0543c6e66ed","0","2025-07-30T09:08:47.332Z","","","","MotivationQ","","","","","","","","","","","50","","","","","","","","","","","","","","","","","","","","","","","","","","",""
"","","","","ctl-task-cpt","68","1541658","0.0-7.0-0.11","46","1","2025-07-30 08:44:10","36c45c0696341be0efffe67d72a12abb","41.150.216.44","Mozilla/5.0 (Windows NT 10.0; Win64; x64) AppleWebKit/537.36 (KHTML, like Gecko) Chrome/138.0.0.0 Safari/537.36 Edg/138.0.0.0","WebKit","Edge","138.0.0.0","Windows","10.0","https://app.prolific.com/","en-US,en;q=0.9,en-ZA;q=0.8","67f38b0b1f5fe0543c6e66ed","687a19d2168e237449fb8af4","6889da377ff026f365ce83df","0","67f38b0b1f5fe0543c6e66ed","0","2025-07-30T09:09:56.185Z","","","","","","","","","","","","","","","","win-only","3","g1:SW,g2:NE","0.7","12","0","1477804.4","7326","12460.5","65810.6","1","4","4","6","1","1","1","1","0","0.007575757575757576","5134.5","3000","1180","[""down"",""left""]","{""num_key_presses"":10,""num_perfect"":7,""num_errors"":0,""num_randdir"":3,""num_randdir_good_moves"":0,""num_whilered"":0,""num_whileblue"":0,""num_blue"":5,""num_good_moves"":7}","[233.21428571428572,232.62053571428572,0.9,233.21428571428572,232.62053571428572,105.4,233.21428571428572,232.62053571428572,251.8,233.21428571428572,232.62053571428572,356.6,233.21428571428572,232.62053571428572,467.5,233.21428571428572,232.62053571428572,570.7,233.21428571428572,232.62053571428572,675.5,233.21428571428572,232.62053571428572,794,233.21428571428572,232.62053571428572,900.2,233.21428571428572,232.62053571428572,1006.7,220.21428571428572,242.62053571428572,1119.9,207.21428571428572,258.6205357142857,1223.7,202.21428571428572,273.6205357142857,1340.7,202.21428571428572,273.6205357142857,1456.6,202.21428571428572,273.6205357142857,1738.1,202.21428571428572,273.6205357142857,1840.7,202.21428571428572,273.6205357142857,1942.4,202.21428571428572,273.6205357142857,2064.3,202.21428571428572,273.6205357142857,2175,202.21428571428572,273.6205357142857,2276.3,202.21428571428572,273.6205357142857,2391.1,202.21428571428572,273.6205357142857,2504.8,202.21428571428572,273.6205357142857,2618.6,202.21428571428572,273.6205357142857,2721.7,202.21428571428572,273.6205357142857,2839.3,202.21428571428572,273.6205357142857,2957.8,202.21428571428572,273.6205357142857,3185.9,202.21428571428572,273.6205357142857,3299.1,202.21428571428572,273.6205357142857,3404.8,202.21428571428572,273.6205357142857,3516.4,202.21428571428572,273.6205357142857,3684.2,202.21428571428572,273.6205357142857,3802.6,202.21428571428572,273.6205357142857,3910.1,202.21428571428572,273.6205357142857,4017.2,202.21428571428572,273.6205357142857,4129.5,202.21428571428572,273.6205357142857,4230.2,202.21428571428572,273.6205357142857,4355.8,202.21428571428572,273.6205357142857,4468.9,202.21428571428572,273.6205357142857,4575.9,202.21428571428572,273.6205357142857,4682.6,202.21428571428572,273.6205357142857,4785.4,202.21428571428572,273.6205357142857,4904.1]","[13321.1,13321.1,2643.8,10022.3,655,""smooth"",""down"",""down"",""good_move"",20499.4,7175.4,2301.7,17317.5,880.2,""smooth"",""left"",""left"",""good_move"",23491.9,2989.8,2209.4,20502.1,780.6,""oops"",""down"",""right"",""bad_move"",26477.1,2982.2,2302.6,23494.9,679.6,""smooth"",""left"",""left"",""good_move"",31072.8,4592.9,2187.7,26479.9,2405.2,""oops"",""left"",""up"",""bad_move"",34569.4,3493.7,2946.3,31075.7,547.4,""smooth"",""left"",""left"",""good_move"",38782.6,4210.5,2884.1,34572.1,1326.4,""smooth"",""down"",""down"",""good_move"",42102.1,3316.9,2712.1,38785.2,604.9,""oops"",""down"",""up"",""bad_move"",45855.2,3750.5,3197.1,42104.7,553.4,""smooth"",""down"",""down"",""good_move"",52914.8,7057.4,2558.7,49884.6,471.5,""smooth"",""down"",""down"",""good_move""]"
"4982","","<div style=""width:500px;"">
  <p>What determined the result of this run?</p>
  </div>","0","html-slider-response","69","1546649","0.0-7.0-1.11","46","1","2025-07-30 08:44:10","36c45c0696341be0efffe67d72a12abb","41.150.216.44","Mozilla/5.0 (Windows NT 10.0; Win64; x64) AppleWebKit/537.36 (KHTML, like Gecko) Chrome/138.0.0.0 Safari/537.36 Edg/138.0.0.0","WebKit","Edge","138.0.0.0","Windows","10.0","https://app.prolific.com/","en-US,en;q=0.9,en-ZA;q=0.8","67f38b0b1f5fe0543c6e66ed","687a19d2168e237449fb8af4","6889da377ff026f365ce83df","0","67f38b0b1f5fe0543c6e66ed","0","2025-07-30T09:10:01.176Z","","","","AttribQ","","","","","","","","","","","50","","","","","","","","","","","","","","","","","","","","","","","","","","",""
"5769","","<div style=""width:500px;"">
  <p>How much control did you have over the ball?</p>
  </div>","1","html-slider-response","70","1552421","0.0-7.0-2.11","46","1","2025-07-30 08:44:10","36c45c0696341be0efffe67d72a12abb","41.150.216.44","Mozilla/5.0 (Windows NT 10.0; Win64; x64) AppleWebKit/537.36 (KHTML, like Gecko) Chrome/138.0.0.0 Safari/537.36 Edg/138.0.0.0","WebKit","Edge","138.0.0.0","Windows","10.0","https://app.prolific.com/","en-US,en;q=0.9,en-ZA;q=0.8","67f38b0b1f5fe0543c6e66ed","687a19d2168e237449fb8af4","6889da377ff026f365ce83df","0","67f38b0b1f5fe0543c6e66ed","0","2025-07-30T09:10:06.948Z","","","","ControlQ","","","","","","","","","","","50","","","","","","","","","","","","","","","","","","","","","","","","","","",""
"5988","","<div style=""width:500px;"">
  <p>How would you describe your current emotional state?</p>
  </div>","98","html-slider-response","71","1558414","0.0-7.0-3.11","46","1","2025-07-30 08:44:10","36c45c0696341be0efffe67d72a12abb","41.150.216.44","Mozilla/5.0 (Windows NT 10.0; Win64; x64) AppleWebKit/537.36 (KHTML, like Gecko) Chrome/138.0.0.0 Safari/537.36 Edg/138.0.0.0","WebKit","Edge","138.0.0.0","Windows","10.0","https://app.prolific.com/","en-US,en;q=0.9,en-ZA;q=0.8","67f38b0b1f5fe0543c6e66ed","687a19d2168e237449fb8af4","6889da377ff026f365ce83df","0","67f38b0b1f5fe0543c6e66ed","0","2025-07-30T09:10:12.942Z","","","","StressQ","","","","","","","","","","","50","","","","","","","","","","","","","","","","","","","","","","","","","","",""
"6633","","<div style=""width:500px;"">
  <p>What best describes how you currently feel?</p>
  </div>","1","html-slider-response","72","1565060","0.0-7.0-4.11","46","1","2025-07-30 08:44:10","36c45c0696341be0efffe67d72a12abb","41.150.216.44","Mozilla/5.0 (Windows NT 10.0; Win64; x64) AppleWebKit/537.36 (KHTML, like Gecko) Chrome/138.0.0.0 Safari/537.36 Edg/138.0.0.0","WebKit","Edge","138.0.0.0","Windows","10.0","https://app.prolific.com/","en-US,en;q=0.9,en-ZA;q=0.8","67f38b0b1f5fe0543c6e66ed","687a19d2168e237449fb8af4","6889da377ff026f365ce83df","0","67f38b0b1f5fe0543c6e66ed","0","2025-07-30T09:10:19.587Z","","","","MotivationQ","","","","","","","","","","","50","","","","","","","","","","","","","","","","","","","","","","","","","","",""
"","","","","ctl-task-cpt","73","1601427","0.0-7.0-0.12","46","1","2025-07-30 08:44:10","36c45c0696341be0efffe67d72a12abb","41.150.216.44","Mozilla/5.0 (Windows NT 10.0; Win64; x64) AppleWebKit/537.36 (KHTML, like Gecko) Chrome/138.0.0.0 Safari/537.36 Edg/138.0.0.0","WebKit","Edge","138.0.0.0","Windows","10.0","https://app.prolific.com/","en-US,en;q=0.9,en-ZA;q=0.8","67f38b0b1f5fe0543c6e66ed","687a19d2168e237449fb8af4","6889da377ff026f365ce83df","0","67f38b0b1f5fe0543c6e66ed","0","2025-07-30T09:10:55.954Z","","","","","","","","","","","","","","","","win-only","0","g1:NW,g2:SE","0.8","13","0","1570058.7","6360.2","11367.3","33315.9","1","4","4","6","1","1","1","2","1","0.015151515151515152","5007.1","3000","2330","[""left"",""up""]","{""num_key_presses"":4,""num_perfect"":3,""num_errors"":0,""num_randdir"":1,""num_randdir_good_moves"":1,""num_whilered"":0,""num_whileblue"":0,""num_blue"":3,""num_good_moves"":4}","[238.21428571428572,239.62053571428572,1,238.21428571428572,239.62053571428572,116.7,238.21428571428572,239.62053571428572,232,238.21428571428572,239.62053571428572,344.2,238.21428571428572,239.62053571428572,459.2,238.21428571428572,239.62053571428572,561.7,238.21428571428572,239.62053571428572,672.7,238.21428571428572,239.62053571428572,789.1,238.21428571428572,239.62053571428572,900.5,222.21428571428572,231.62053571428572,1019.3,202.21428571428572,209.62053571428572,1151.5,202.21428571428572,207.62053571428572,1284.7,201.21428571428572,206.62053571428572,1418.1,200.21428571428572,205.62053571428572,1536.9,200.21428571428572,205.62053571428572,1648.9,200.21428571428572,205.62053571428572,1764.1,200.21428571428572,205.62053571428572,1878,200.21428571428572,205.62053571428572,1992.9,200.21428571428572,205.62053571428572,2121.7,200.21428571428572,205.62053571428572,2241.4,200.21428571428572,205.62053571428572,2367.6,200.21428571428572,205.62053571428572,2495.9,200.21428571428572,205.62053571428572,2623.9,200.21428571428572,205.62053571428572,2729,200.21428571428572,205.62053571428572,2846.1,200.21428571428572,205.62053571428572,2965.6,200.21428571428572,205.62053571428572,3067.4,200.21428571428572,205.62053571428572,3171,200.21428571428572,205.62053571428572,3292.7,200.21428571428572,205.62053571428572,3393.5,200.21428571428572,205.62053571428572,3507,200.21428571428572,205.62053571428572,3621.7,200.21428571428572,205.62053571428572,3739.3,200.21428571428572,205.62053571428572,3839.9,200.21428571428572,205.62053571428572,3966.5,200.21428571428572,205.62053571428572,4069.1,200.21428571428572,205.62053571428572,4175.1,200.21428571428572,205.62053571428572,4291.5,200.21428571428572,205.62053571428572,4403.7,200.21428571428572,205.62053571428572,4518.6,200.21428571428572,205.62053571428572,4628.8,200.21428571428572,205.62053571428572,4751.2,200.21428571428572,205.62053571428572,4866.3,200.21428571428572,205.62053571428572,4979.3]","[4835.4,4835.5,2313.6,2034.6,487.3,""smooth"",""up"",""up"",""good_move"",11053.1,6216.1,2071.7,8493.4,488,""smooth"",""up"",""up"",""good_move"",18328.8,7273.3,2615.1,15272.9,440.8,""smooth"",""left"",""left"",""good_move"",21695.7,3364.6,2728.7,18331.2,635.9,""oops"",""left"",""left"",""good_move""]"
"5414","","<div style=""width:500px;"">
  <p>What determined the result of this run?</p>
  </div>","4","html-slider-response","74","1606845","0.0-7.0-1.12","46","1","2025-07-30 08:44:10","36c45c0696341be0efffe67d72a12abb","41.150.216.44","Mozilla/5.0 (Windows NT 10.0; Win64; x64) AppleWebKit/537.36 (KHTML, like Gecko) Chrome/138.0.0.0 Safari/537.36 Edg/138.0.0.0","WebKit","Edge","138.0.0.0","Windows","10.0","https://app.prolific.com/","en-US,en;q=0.9,en-ZA;q=0.8","67f38b0b1f5fe0543c6e66ed","687a19d2168e237449fb8af4","6889da377ff026f365ce83df","0","67f38b0b1f5fe0543c6e66ed","0","2025-07-30T09:11:01.373Z","","","","AttribQ","","","","","","","","","","","50","","","","","","","","","","","","","","","","","","","","","","","","","","",""
"5514","","<div style=""width:500px;"">
  <p>How much control did you have over the ball?</p>
  </div>","0","html-slider-response","75","1612366","0.0-7.0-2.12","46","1","2025-07-30 08:44:10","36c45c0696341be0efffe67d72a12abb","41.150.216.44","Mozilla/5.0 (Windows NT 10.0; Win64; x64) AppleWebKit/537.36 (KHTML, like Gecko) Chrome/138.0.0.0 Safari/537.36 Edg/138.0.0.0","WebKit","Edge","138.0.0.0","Windows","10.0","https://app.prolific.com/","en-US,en;q=0.9,en-ZA;q=0.8","67f38b0b1f5fe0543c6e66ed","687a19d2168e237449fb8af4","6889da377ff026f365ce83df","0","67f38b0b1f5fe0543c6e66ed","0","2025-07-30T09:11:06.893Z","","","","ControlQ","","","","","","","","","","","50","","","","","","","","","","","","","","","","","","","","","","","","","","",""
"6918","","<div style=""width:500px;"">
  <p>How would you describe your current emotional state?</p>
  </div>","1","html-slider-response","76","1619290","0.0-7.0-3.12","46","1","2025-07-30 08:44:10","36c45c0696341be0efffe67d72a12abb","41.150.216.44","Mozilla/5.0 (Windows NT 10.0; Win64; x64) AppleWebKit/537.36 (KHTML, like Gecko) Chrome/138.0.0.0 Safari/537.36 Edg/138.0.0.0","WebKit","Edge","138.0.0.0","Windows","10.0","https://app.prolific.com/","en-US,en;q=0.9,en-ZA;q=0.8","67f38b0b1f5fe0543c6e66ed","687a19d2168e237449fb8af4","6889da377ff026f365ce83df","0","67f38b0b1f5fe0543c6e66ed","0","2025-07-30T09:11:13.817Z","","","","StressQ","","","","","","","","","","","50","","","","","","","","","","","","","","","","","","","","","","","","","","",""
"5265","","<div style=""width:500px;"">
  <p>What best describes how you currently feel?</p>
  </div>","0","html-slider-response","77","1624560","0.0-7.0-4.12","46","1","2025-07-30 08:44:10","36c45c0696341be0efffe67d72a12abb","41.150.216.44","Mozilla/5.0 (Windows NT 10.0; Win64; x64) AppleWebKit/537.36 (KHTML, like Gecko) Chrome/138.0.0.0 Safari/537.36 Edg/138.0.0.0","WebKit","Edge","138.0.0.0","Windows","10.0","https://app.prolific.com/","en-US,en;q=0.9,en-ZA;q=0.8","67f38b0b1f5fe0543c6e66ed","687a19d2168e237449fb8af4","6889da377ff026f365ce83df","0","67f38b0b1f5fe0543c6e66ed","0","2025-07-30T09:11:19.087Z","","","","MotivationQ","","","","","","","","","","","50","","","","","","","","","","","","","","","","","","","","","","","","","","",""
