"rt","response_timestamp","stimulus","response","trial_type","trial_index","time_elapsed","internal_node_id","run_id","condition","recorded_at","source_code_version","ip","user_agent","device","browser","browser_version","platform","platform_version","referer","accept_language","PROLIFIC_PID","STUDY_ID","SESSION_ID","BATCH","prolific_id","batch","realtime","success","question_order","question_id","eventType","responses","item_order","radio_event_ids","radio_event_times","key_event_times","mouse_event_times","straightlining","zigzagging","honeypot","view_history","slider_start","which_type","canvas_config","goals_layout","control_level","trial_number","tutorial_trial_number","trial_start_time","phase1_start_time","phase2_start_time","phase3_start_time","goal_1_value","goal_1_distance","goal_2_value","goal_2_distance","goal_selected","outcome","outcome_total","participant_final_score","participant_initial_score","participant_final_score_prop","goal_choice_rt","allocated_time","allocated_time_remaining","goal_direction","counts","mouse_movements","key_presses"
"6588","1753866619134","<p style='font-size:40px;line-height:1.25'><strong>Welcome to the experiment!</strong></p><p style='font-size:1.1em;line-height:1.25'>Thank you for participanting in our experiment again! You will be asked to play the Dysfunctional Ball Game again. We will briefly recap the rules before we start.</p><p style='font-size:1.1em;line-height:1.25'>Press <strong>Next</strong> to continue.</p>","0","custom-html-button-response","0","6595","0.0-0.0","77","1","2025-07-30 09:10:11","36c45c0696341be0efffe67d72a12abb","105.245.116.217","Mozilla/5.0 (Windows NT 10.0; Win64; x64) AppleWebKit/537.36 (KHTML, like Gecko) Chrome/138.0.0.0 Safari/537.36","WebKit","Chrome","138.0.0.0","Windows","10.0","https://app.prolific.com/","en-ZA,en-GB;q=0.9,en-US;q=0.8,en;q=0.7","67fa89d6790924c25e5ffb8e","687a19d2168e237449fb8af4","6889ded5c9db4da549ddde53","0","67fa89d6790924c25e5ffb8e","0","2025-07-30T09:10:19.136Z","","","","","","","","","","","","","","","","","","","","","","","","","","","","","","","","","","","","","","","","","",""
"14211","","","","fullscreen","1","21831","0.0-1.0","77","1","2025-07-30 09:10:11","36c45c0696341be0efffe67d72a12abb","105.245.116.217","Mozilla/5.0 (Windows NT 10.0; Win64; x64) AppleWebKit/537.36 (KHTML, like Gecko) Chrome/138.0.0.0 Safari/537.36","WebKit","Chrome","138.0.0.0","Windows","10.0","https://app.prolific.com/","en-ZA,en-GB;q=0.9,en-US;q=0.8,en;q=0.7","67fa89d6790924c25e5ffb8e","687a19d2168e237449fb8af4","6889ded5c9db4da549ddde53","0","67fa89d6790924c25e5ffb8e","0","","true","","","","","","","","","","","","","","","","","","","","","","","","","","","","","","","","","","","","","","","","",""
"10068","1753866644444"," <p style='font-size:1.1em;line-height:1.25'>Thank you for closing all other tabs.</p><p style='font-size:1.1em;line-height:1.25'>We will now invite you to fill in some questionnaires, before starting the game.<br>This will take about 5 minutes.<br></p><p style='font-size:1.1em;line-height:1.25'>Press the <strong>Next</strong> button to continue.</p>","0","custom-html-button-response","2","31904","0.0-2.0","77","1","2025-07-30 09:10:11","36c45c0696341be0efffe67d72a12abb","105.245.116.217","Mozilla/5.0 (Windows NT 10.0; Win64; x64) AppleWebKit/537.36 (KHTML, like Gecko) Chrome/138.0.0.0 Safari/537.36","WebKit","Chrome","138.0.0.0","Windows","10.0","https://app.prolific.com/","en-ZA,en-GB;q=0.9,en-US;q=0.8,en;q=0.7","67fa89d6790924c25e5ffb8e","687a19d2168e237449fb8af4","6889ded5c9db4da549ddde53","0","67fa89d6790924c25e5ffb8e","0","2025-07-30T09:10:44.444Z","","","","","","","","","","","","","","","","","","","","","","","","","","","","","","","","","","","","","","","","","",""
"2949","","","{""assigned_sex"":""male""}","survey-multi-choice","3","34855","0.0-3.0-0.0","77","1","2025-07-30 09:10:11","36c45c0696341be0efffe67d72a12abb","105.245.116.217","Mozilla/5.0 (Windows NT 10.0; Win64; x64) AppleWebKit/537.36 (KHTML, like Gecko) Chrome/138.0.0.0 Safari/537.36","WebKit","Chrome","138.0.0.0","Windows","10.0","https://app.prolific.com/","en-ZA,en-GB;q=0.9,en-US;q=0.8,en;q=0.7","67fa89d6790924c25e5ffb8e","687a19d2168e237449fb8af4","6889ded5c9db4da549ddde53","0","67fa89d6790924c25e5ffb8e","0","","","[0]","0","demographics","","","","","","","","","","","","","","","","","","","","","","","","","","","","","","","","","","","","","",""
"3474","1753866650870","<p style='font-size:1.1em;line-height:1.25'>In the following, we will perform a baseline assessment. This means that we will ask you a few questions relating to your experiences over the past month.<br></p><p style='font-size:1.1em;line-height:1.25'>Press the <strong>Next</strong> button to continue.</p>","0","custom-html-button-response","4","38331","0.0-4.0-0.0","77","1","2025-07-30 09:10:11","36c45c0696341be0efffe67d72a12abb","105.245.116.217","Mozilla/5.0 (Windows NT 10.0; Win64; x64) AppleWebKit/537.36 (KHTML, like Gecko) Chrome/138.0.0.0 Safari/537.36","WebKit","Chrome","138.0.0.0","Windows","10.0","https://app.prolific.com/","en-ZA,en-GB;q=0.9,en-US;q=0.8,en;q=0.7","67fa89d6790924c25e5ffb8e","687a19d2168e237449fb8af4","6889ded5c9db4da549ddde53","0","67fa89d6790924c25e5ffb8e","0","2025-07-30T09:10:50.871Z","","","","","","","","","","","","","","","","","","","","","","","","","","","","","","","","","","","","","","","","","",""
"59616.09999999963","","","","survey-template","5","97953","0.0-4.0-1.0","77","1","2025-07-30 09:10:11","36c45c0696341be0efffe67d72a12abb","105.245.116.217","Mozilla/5.0 (Windows NT 10.0; Win64; x64) AppleWebKit/537.36 (KHTML, like Gecko) Chrome/138.0.0.0 Safari/537.36","WebKit","Chrome","138.0.0.0","Windows","10.0","https://app.prolific.com/","en-ZA,en-GB;q=0.9,en-US;q=0.8,en;q=0.7","67fa89d6790924c25e5ffb8e","687a19d2168e237449fb8af4","6889ded5c9db4da549ddde53","0","67fa89d6790924c25e5ffb8e","0","2025-07-30T09:11:50.493Z","","","","pss","{""Q01"":""2"",""Q02"":""3"",""Q03"":""3"",""Q04"":""0"",""Q05"":""3"",""Q06"":""3"",""Q07"":""2"",""Q08"":""0"",""Q09"":""1"",""Q10"":""3""}","[0,1,2,3,4,5,6,7,8,9]","[""Q01"",""Q02"",""Q03"",""Q03"",""Q03"",""Q04"",""Q05"",""Q06"",""Q07"",""Q08"",""Q09"",""Q10""]","[7253.799999998882,13866.900000000373,17584.299999998882,23006.799999998882,26254.299999998882,30303.900000000373,35335.79999999888,39849.79999999888,44682.09999999963,48472.09999999963,53830,58705.90000000037]","[]","[0.2999999988824129,7253.799999998882,13114,13866.900000000373,17584.299999998882,23006.799999998882,26254.299999998882,30303.900000000373,35335.79999999888,39849.79999999888,44682.09999999963,48472.09999999963,53830,58169.90000000037,58705.90000000037,59614]","0.4","0.3333333333333333","0","","","","","","","","","","","","","","","","","","","","","","","","","","","","",""
"4531","1753866715026","<p style='font-size:1.1em;line-height:1.25'>Thank you for your answers! Now we will ask you a few more questions relating to your feelings in the last 24 hours.<br></p><p style='font-size:1.1em;line-height:1.25'>Press the <strong>Next</strong> button to continue.</p>","0","custom-html-button-response","6","102486","0.0-4.0-2.0","77","1","2025-07-30 09:10:11","36c45c0696341be0efffe67d72a12abb","105.245.116.217","Mozilla/5.0 (Windows NT 10.0; Win64; x64) AppleWebKit/537.36 (KHTML, like Gecko) Chrome/138.0.0.0 Safari/537.36","WebKit","Chrome","138.0.0.0","Windows","10.0","https://app.prolific.com/","en-ZA,en-GB;q=0.9,en-US;q=0.8,en;q=0.7","67fa89d6790924c25e5ffb8e","687a19d2168e237449fb8af4","6889ded5c9db4da549ddde53","0","67fa89d6790924c25e5ffb8e","0","2025-07-30T09:11:55.026Z","","","","","","","","","","","","","","","","","","","","","","","","","","","","","","","","","","","","","","","","","",""
"96245.30000000075","","","","survey-template","7","198736","0.0-4.0-3.0","77","1","2025-07-30 09:10:11","36c45c0696341be0efffe67d72a12abb","105.245.116.217","Mozilla/5.0 (Windows NT 10.0; Win64; x64) AppleWebKit/537.36 (KHTML, like Gecko) Chrome/138.0.0.0 Safari/537.36","WebKit","Chrome","138.0.0.0","Windows","10.0","https://app.prolific.com/","en-ZA,en-GB;q=0.9,en-US;q=0.8,en;q=0.7","67fa89d6790924c25e5ffb8e","687a19d2168e237449fb8af4","6889ded5c9db4da549ddde53","0","67fa89d6790924c25e5ffb8e","0","2025-07-30T09:13:31.276Z","","","","drsp","{""Q01"":""0"",""Q02"":""0"",""Q03"":""0"",""Q04"":""2"",""Q05"":""1"",""Q06"":""3"",""Q07"":""0"",""Q08"":""0"",""Q09"":""4"",""Q10"":""0"",""Q11"":""5"",""Q12"":""4"",""Q13"":""5"",""Q14"":""5"",""Q15"":""0"",""Q16"":""3"",""Q17"":""2"",""Q18"":""1"",""Q19"":""0"",""Q20"":""3"",""Q21"":""5"",""Q22"":""1""}","[0,1,2,3,4,5,6,7,8,9,10,11,12,13,14,15,16,17,18,19,20,21]","[""Q01"",""Q02"",""Q03"",""Q04"",""Q05"",""Q06"",""Q07"",""Q08"",""Q09"",""Q10"",""Q11"",""Q12"",""Q13"",""Q14"",""Q15"",""Q16"",""Q16"",""Q16"",""Q17"",""Q18"",""Q19"",""Q20"",""Q21"",""Q22""]","[5803.5,6779.4000000003725,7954.4000000003725,10356.099999999627,12628.599999999627,15765.400000000373,18669,21810.699999999255,24303.199999999255,28253.5,30992.599999999627,34309.09999999963,37635.5,40703.40000000037,44976.40000000037,56618.699999999255,58774.40000000037,60664.59999999963,63072.5,65456.09999999963,71846.69999999925,83214.30000000075,90258.59999999963,95436.5]","[]","[0.19999999925494194,5803.5,6779.4000000003725,7954.4000000003725,9978.400000000373,10356.099999999627,12628.599999999627,15765.400000000373,17773.699999999255,18285,18669,19982.699999999255,20439,21810.699999999255,24303.199999999255,28253.5,30992.599999999627,34309.09999999963,37635.5,40703.40000000037,44976.40000000037,56618.699999999255,58774.40000000037,60172.59999999963,60664.59999999963,63072.5,65456.09999999963,70194.90000000037,71846.69999999925,83214.30000000075,89774.69999999925,90258.59999999963,94009.90000000037,95436.5,96241.19999999925]","0.36363636363636365","0.38095238095238093","0","","","","","","","","","","","","","","","","","","","","","","","","","","","","",""
"14065.10000000149","","","","survey-template","8","212803","0.0-4.0-4.0","77","1","2025-07-30 09:10:11","36c45c0696341be0efffe67d72a12abb","105.245.116.217","Mozilla/5.0 (Windows NT 10.0; Win64; x64) AppleWebKit/537.36 (KHTML, like Gecko) Chrome/138.0.0.0 Safari/537.36","WebKit","Chrome","138.0.0.0","Windows","10.0","https://app.prolific.com/","en-ZA,en-GB;q=0.9,en-US;q=0.8,en;q=0.7","67fa89d6790924c25e5ffb8e","687a19d2168e237449fb8af4","6889ded5c9db4da549ddde53","0","67fa89d6790924c25e5ffb8e","0","2025-07-30T09:13:45.343Z","","","","stress","{""Q01"":""2"",""Q02"":""2"",""Q03"":""3""}","[0,1,2]","[""Q01"",""Q02"",""Q03""]","[7769.9000000003725,10880.10000000149,13375.900000000373]","[]","[7769.9000000003725,9980.200000001118,10880.10000000149,12572.300000000745,13375.900000000373,14064.10000000149]","0.6666666666666666","0.5","0","","","","","","","","","","","","","","","","","","","","","","","","","","","","",""
"24355","","","","instructions","9","237160","0.0-5.0-0.0","77","1","2025-07-30 09:10:11","36c45c0696341be0efffe67d72a12abb","105.245.116.217","Mozilla/5.0 (Windows NT 10.0; Win64; x64) AppleWebKit/537.36 (KHTML, like Gecko) Chrome/138.0.0.0 Safari/537.36","WebKit","Chrome","138.0.0.0","Windows","10.0","https://app.prolific.com/","en-ZA,en-GB;q=0.9,en-US;q=0.8,en;q=0.7","67fa89d6790924c25e5ffb8e","687a19d2168e237449fb8af4","6889ded5c9db4da549ddde53","0","67fa89d6790924c25e5ffb8e","0","","","","","","","","","","","","","","","[{""page_index"":0,""viewing_time"":24355}]","","","","","","","","","","","","","","","","","","","","","","","","","","","",""
"5955","","<p>Before you start with this game please answer the following three questions yourself. </p>
  <p>Through this game, we measure several aspects of your cognitive performance, such as reaction times, multi-tasking capabilities </p>
  <p>and the ability to assess the situation you are in.</p>
  <p></p>
  <p><b>How good do you usually are in such tasks?</b></p>","89","html-slider-response","10","243118","0.0-6.0-0.0","77","1","2025-07-30 09:10:11","36c45c0696341be0efffe67d72a12abb","105.245.116.217","Mozilla/5.0 (Windows NT 10.0; Win64; x64) AppleWebKit/537.36 (KHTML, like Gecko) Chrome/138.0.0.0 Safari/537.36","WebKit","Chrome","138.0.0.0","Windows","10.0","https://app.prolific.com/","en-ZA,en-GB;q=0.9,en-US;q=0.8,en;q=0.7","67fa89d6790924c25e5ffb8e","687a19d2168e237449fb8af4","6889ded5c9db4da549ddde53","0","67fa89d6790924c25e5ffb8e","0","2025-07-30T09:14:15.658Z","","","","PreSkillQ","","","","","","","","","","","50","","","","","","","","","","","","","","","","","","","","","","","","","","",""
"6120","","<div style=""width:500px;"">
  <p>How well do you think you will perform in this task compared to other participants?</p>
  </div>","62","html-slider-response","11","249239","0.0-6.0-1.0","77","1","2025-07-30 09:10:11","36c45c0696341be0efffe67d72a12abb","105.245.116.217","Mozilla/5.0 (Windows NT 10.0; Win64; x64) AppleWebKit/537.36 (KHTML, like Gecko) Chrome/138.0.0.0 Safari/537.36","WebKit","Chrome","138.0.0.0","Windows","10.0","https://app.prolific.com/","en-ZA,en-GB;q=0.9,en-US;q=0.8,en;q=0.7","67fa89d6790924c25e5ffb8e","687a19d2168e237449fb8af4","6889ded5c9db4da549ddde53","0","67fa89d6790924c25e5ffb8e","0","2025-07-30T09:14:21.780Z","","","","PrePerfQ","","","","","","","","","","","50","","","","","","","","","","","","","","","","","","","","","","","","","","",""
"3467","","<div style=""width:500px;"">
  <p>What best describes how you currently feel?</p>
  </div>","100","html-slider-response","12","252708","0.0-6.0-2.0","77","1","2025-07-30 09:10:11","36c45c0696341be0efffe67d72a12abb","105.245.116.217","Mozilla/5.0 (Windows NT 10.0; Win64; x64) AppleWebKit/537.36 (KHTML, like Gecko) Chrome/138.0.0.0 Safari/537.36","WebKit","Chrome","138.0.0.0","Windows","10.0","https://app.prolific.com/","en-ZA,en-GB;q=0.9,en-US;q=0.8,en;q=0.7","67fa89d6790924c25e5ffb8e","687a19d2168e237449fb8af4","6889ded5c9db4da549ddde53","0","67fa89d6790924c25e5ffb8e","0","2025-07-30T09:14:25.248Z","","","","PreMotivationQ","","","","","","","","","","","50","","","","","","","","","","","","","","","","","","","","","","","","","","",""
"","","","","ctl-task-cpt","13","290184","0.0-7.0-0.0","77","1","2025-07-30 09:10:11","36c45c0696341be0efffe67d72a12abb","105.245.116.217","Mozilla/5.0 (Windows NT 10.0; Win64; x64) AppleWebKit/537.36 (KHTML, like Gecko) Chrome/138.0.0.0 Safari/537.36","WebKit","Chrome","138.0.0.0","Windows","10.0","https://app.prolific.com/","en-ZA,en-GB;q=0.9,en-US;q=0.8,en;q=0.7","67fa89d6790924c25e5ffb8e","687a19d2168e237449fb8af4","6889ded5c9db4da549ddde53","0","67fa89d6790924c25e5ffb8e","0","2025-07-30T09:15:02.724Z","","","","","","","","","","","","","","","","win-only","1","g1:NE,g2:SW","1","1","0","255751.8","2640.1","7647.5","34465.2","1","4","4","6","2","4","4","4","0","0.030303030303030304","1611.6","3000","1395","[""down"",""left""]","{""num_key_presses"":6,""num_perfect"":6,""num_errors"":0,""num_randdir"":0,""num_randdir_good_moves"":0,""num_whilered"":0,""num_whileblue"":0,""num_blue"":3,""num_good_moves"":6}","[415.3214133126395,415.32142761775424,0.4,415.3214133126395,415.32142761775424,109,415.3214133126395,415.32142761775424,219.4,415.3214133126395,415.32142761775424,319.7,415.3214133126395,415.32142761775424,421.3,415.3214133126395,415.32142761775424,524.4,415.3214133126395,411.57142761775424,624.5,415.3214133126395,411.57142761775424,729.1,414.0714133126395,411.57142761775424,829.2,414.0714133126395,411.57142761775424,939.1,414.0714133126395,411.57142761775424,1039.2,324.0714133126395,490.32142761775424,1140.5,221.5714133126395,646.5714276177542,1246.8,195.3214133126395,701.5714276177542,1347.7,152.8214133126395,724.0714276177542,1452.5,125.3214133126395,724.0714276177542,1560.1,125.3214133126395,724.0714276177542,1669.8,125.3214133126395,724.0714276177542,1775.5,131.5714133126395,720.3214276177542,1876.6,345.3214133126395,631.5714276177542,1979.2,756.5714133126395,481.57142761775424,2079.2,1061.5714133126396,369.07142761775424,2185.8,1137.8214133126396,309.07142761775424,2294.1,1157.8214133126396,235.32142761775424,2399.6,1156.5714133126396,230.32142761775424,2507.1,1156.5714133126396,230.32142761775424,2610.9,1156.5714133126396,230.32142761775424,2714.1,1156.5714133126396,230.32142761775424,2819.7,1156.5714133126396,230.32142761775424,2922.5,1156.5714133126396,230.32142761775424,3023.7,1156.5714133126396,230.32142761775424,3131.3,1156.5714133126396,230.32142761775424,3231.4,1156.5714133126396,230.32142761775424,3339.5,1156.5714133126396,230.32142761775424,3447.6,1156.5714133126396,230.32142761775424,3550,1156.5714133126396,230.32142761775424,3656,1156.5714133126396,230.32142761775424,3770.3,1156.5714133126396,230.32142761775424,3872.1,1156.5714133126396,230.32142761775424,3978.8,1156.5714133126396,230.32142761775424,4088.4,1156.5714133126396,230.32142761775424,4189.3,1156.5714133126396,230.32142761775424,4296.6,1156.5714133126396,230.32142761775424,4397,1156.5714133126396,230.32142761775424,4497.4,1156.5714133126396,230.32142761775424,4602.5,1156.5714133126396,230.32142761775424,4704.4,1156.5714133126396,230.32142761775424,4804.7,1156.5714133126396,230.32142761775424,4906.6]","[5028.1,5027.9,2623.4,2004.7,400,""smooth"",""left"",""left"",""good_move"",8046.3,3017.7,2617.7,5028.8,399.8,""smooth"",""down"",""down"",""good_move"",11432.9,3385.3,2938.7,8047.7,446.6,""smooth"",""down"",""down"",""good_move"",14424.4,2990.8,2637,11433.6,353.8,""smooth"",""left"",""left"",""good_move"",20288.3,5863.6,2670.4,17242.2,375.7,""smooth"",""down"",""down"",""good_move"",26659.7,6371.1,2422.2,23881.6,356,""smooth"",""left"",""left"",""good_move""]"
"3775","","<div style=""width:500px;"">
  <p>What determined the result of this run?</p>
  </div>","100","html-slider-response","14","293962","0.0-7.0-1.0","77","1","2025-07-30 09:10:11","36c45c0696341be0efffe67d72a12abb","105.245.116.217","Mozilla/5.0 (Windows NT 10.0; Win64; x64) AppleWebKit/537.36 (KHTML, like Gecko) Chrome/138.0.0.0 Safari/537.36","WebKit","Chrome","138.0.0.0","Windows","10.0","https://app.prolific.com/","en-ZA,en-GB;q=0.9,en-US;q=0.8,en;q=0.7","67fa89d6790924c25e5ffb8e","687a19d2168e237449fb8af4","6889ded5c9db4da549ddde53","0","67fa89d6790924c25e5ffb8e","0","2025-07-30T09:15:06.502Z","","","","AttribQ","","","","","","","","","","","50","","","","","","","","","","","","","","","","","","","","","","","","","","",""
"2017","","<div style=""width:500px;"">
  <p>How much control did you have over the ball?</p>
  </div>","100","html-slider-response","15","295980","0.0-7.0-2.0","77","1","2025-07-30 09:10:11","36c45c0696341be0efffe67d72a12abb","105.245.116.217","Mozilla/5.0 (Windows NT 10.0; Win64; x64) AppleWebKit/537.36 (KHTML, like Gecko) Chrome/138.0.0.0 Safari/537.36","WebKit","Chrome","138.0.0.0","Windows","10.0","https://app.prolific.com/","en-ZA,en-GB;q=0.9,en-US;q=0.8,en;q=0.7","67fa89d6790924c25e5ffb8e","687a19d2168e237449fb8af4","6889ded5c9db4da549ddde53","0","67fa89d6790924c25e5ffb8e","0","2025-07-30T09:15:08.520Z","","","","ControlQ","","","","","","","","","","","50","","","","","","","","","","","","","","","","","","","","","","","","","","",""
"2454","","<div style=""width:500px;"">
  <p>How would you describe your current emotional state?</p>
  </div>","0","html-slider-response","16","298435","0.0-7.0-3.0","77","1","2025-07-30 09:10:11","36c45c0696341be0efffe67d72a12abb","105.245.116.217","Mozilla/5.0 (Windows NT 10.0; Win64; x64) AppleWebKit/537.36 (KHTML, like Gecko) Chrome/138.0.0.0 Safari/537.36","WebKit","Chrome","138.0.0.0","Windows","10.0","https://app.prolific.com/","en-ZA,en-GB;q=0.9,en-US;q=0.8,en;q=0.7","67fa89d6790924c25e5ffb8e","687a19d2168e237449fb8af4","6889ded5c9db4da549ddde53","0","67fa89d6790924c25e5ffb8e","0","2025-07-30T09:15:10.975Z","","","","StressQ","","","","","","","","","","","50","","","","","","","","","","","","","","","","","","","","","","","","","","",""
"3031","","<div style=""width:500px;"">
  <p>What best describes how you currently feel?</p>
  </div>","66","html-slider-response","17","301468","0.0-7.0-4.0","77","1","2025-07-30 09:10:11","36c45c0696341be0efffe67d72a12abb","105.245.116.217","Mozilla/5.0 (Windows NT 10.0; Win64; x64) AppleWebKit/537.36 (KHTML, like Gecko) Chrome/138.0.0.0 Safari/537.36","WebKit","Chrome","138.0.0.0","Windows","10.0","https://app.prolific.com/","en-ZA,en-GB;q=0.9,en-US;q=0.8,en;q=0.7","67fa89d6790924c25e5ffb8e","687a19d2168e237449fb8af4","6889ded5c9db4da549ddde53","0","67fa89d6790924c25e5ffb8e","0","2025-07-30T09:15:14.008Z","","","","MotivationQ","","","","","","","","","","","50","","","","","","","","","","","","","","","","","","","","","","","","","","",""
"","","","","ctl-task-cpt","18","326398","0.0-7.0-0.1","77","1","2025-07-30 09:10:11","36c45c0696341be0efffe67d72a12abb","105.245.116.217","Mozilla/5.0 (Windows NT 10.0; Win64; x64) AppleWebKit/537.36 (KHTML, like Gecko) Chrome/138.0.0.0 Safari/537.36","WebKit","Chrome","138.0.0.0","Windows","10.0","https://app.prolific.com/","en-ZA,en-GB;q=0.9,en-US;q=0.8,en;q=0.7","67fa89d6790924c25e5ffb8e","687a19d2168e237449fb8af4","6889ded5c9db4da549ddde53","0","67fa89d6790924c25e5ffb8e","0","2025-07-30T09:15:38.938Z","","","","","","","","","","","","","","","","win-only","0","g1:NW,g2:SE","0.9","2","0","304509.7","753.4","5756.4","21926.7","1","4","8","6","2","8","8","12","4","0.09090909090909091","1365.6","3000","1310","[""down"",""right""]","{""num_key_presses"":6,""num_perfect"":6,""num_errors"":0,""num_randdir"":0,""num_randdir_good_moves"":0,""num_whilered"":0,""num_whileblue"":0,""num_blue"":0,""num_good_moves"":6}","[417.8214133126395,417.82142761775424,0.3,417.8214133126395,417.82142761775424,110.1,419.0714133126395,416.57142761775424,215.1,422.8214133126395,411.57142761775424,316.1,422.8214133126395,396.57142761775424,418.8,425.3214133126395,389.07142761775424,530.1,425.3214133126395,389.07142761775424,640.6,547.8214133126395,510.32142761775424,742.9,651.5714133126395,636.5714276177542,845.4,671.5714133126395,689.0714276177542,951.4,686.5714133126395,726.5714276177542,1053.2,691.5714133126395,731.5714276177542,1169.2,691.5714133126395,736.5714276177542,1271.2,701.5714133126395,741.5714276177542,1376.3,710.3214133126395,744.0714276177542,1477.2,710.3214133126395,744.0714276177542,1580,717.8214133126395,726.5714276177542,1682.7,770.3214133126395,630.3214276177542,1791.7,849.0714133126395,461.57142761775424,1894.5,975.3214133126395,331.57142761775424,2000.3,982.8214133126395,322.82142761775424,2103.7,982.8214133126395,322.82142761775424,2209.3,982.8214133126395,322.82142761775424,2312.4,982.8214133126395,322.82142761775424,2413.9,982.8214133126395,322.82142761775424,2517.4,982.8214133126395,322.82142761775424,2618.6,982.8214133126395,322.82142761775424,2718.6,982.8214133126395,322.82142761775424,2826.8,982.8214133126395,322.82142761775424,2928.5,982.8214133126395,322.82142761775424,3036.9,982.8214133126395,322.82142761775424,3139.6,982.8214133126395,322.82142761775424,3240,982.8214133126395,322.82142761775424,3340,982.8214133126395,322.82142761775424,3443.1,982.8214133126395,322.82142761775424,3551.5,982.8214133126395,322.82142761775424,3654.8,982.8214133126395,322.82142761775424,3760.4,982.8214133126395,322.82142761775424,3867.2,982.8214133126395,322.82142761775424,3967.4,982.8214133126395,322.82142761775424,4068.8,982.8214133126395,322.82142761775424,4171,982.8214133126395,322.82142761775424,4272,982.8214133126395,322.82142761775424,4372.4,982.8214133126395,322.82142761775424,4480.8,982.8214133126395,322.82142761775424,4581.6,982.8214133126395,322.82142761775424,4681.7,982.8214133126395,322.82142761775424,4783.8,982.8214133126395,322.82142761775424,4889.3,982.8214133126395,322.82142761775424,4998]","[1386.8,1386.8,1000,0,386.8,""smooth"",""down"",""down"",""good_move"",4395.1,3007.9,2659.8,1387.3,348.1,""smooth"",""right"",""right"",""good_move"",8092.2,3696.2,3199,4396.1,497.2,""smooth"",""down"",""down"",""good_move"",11338,3245.2,2859.5,8092.8,385.7,""smooth"",""right"",""right"",""good_move"",13841.2,2502.8,2075.2,11338.5,427.6,""smooth"",""down"",""down"",""good_move"",16030.5,2188.3,1784.1,13842.3,404.2,""smooth"",""right"",""right"",""good_move""]"
"2673","","<div style=""width:500px;"">
  <p>What determined the result of this run?</p>
  </div>","100","html-slider-response","19","329073","0.0-7.0-1.1","77","1","2025-07-30 09:10:11","36c45c0696341be0efffe67d72a12abb","105.245.116.217","Mozilla/5.0 (Windows NT 10.0; Win64; x64) AppleWebKit/537.36 (KHTML, like Gecko) Chrome/138.0.0.0 Safari/537.36","WebKit","Chrome","138.0.0.0","Windows","10.0","https://app.prolific.com/","en-ZA,en-GB;q=0.9,en-US;q=0.8,en;q=0.7","67fa89d6790924c25e5ffb8e","687a19d2168e237449fb8af4","6889ded5c9db4da549ddde53","0","67fa89d6790924c25e5ffb8e","0","2025-07-30T09:15:41.613Z","","","","AttribQ","","","","","","","","","","","50","","","","","","","","","","","","","","","","","","","","","","","","","","",""
"2202","","<div style=""width:500px;"">
  <p>How much control did you have over the ball?</p>
  </div>","100","html-slider-response","20","331276","0.0-7.0-2.1","77","1","2025-07-30 09:10:11","36c45c0696341be0efffe67d72a12abb","105.245.116.217","Mozilla/5.0 (Windows NT 10.0; Win64; x64) AppleWebKit/537.36 (KHTML, like Gecko) Chrome/138.0.0.0 Safari/537.36","WebKit","Chrome","138.0.0.0","Windows","10.0","https://app.prolific.com/","en-ZA,en-GB;q=0.9,en-US;q=0.8,en;q=0.7","67fa89d6790924c25e5ffb8e","687a19d2168e237449fb8af4","6889ded5c9db4da549ddde53","0","67fa89d6790924c25e5ffb8e","0","2025-07-30T09:15:43.816Z","","","","ControlQ","","","","","","","","","","","50","","","","","","","","","","","","","","","","","","","","","","","","","","",""
"2132","","<div style=""width:500px;"">
  <p>How would you describe your current emotional state?</p>
  </div>","0","html-slider-response","21","333410","0.0-7.0-3.1","77","1","2025-07-30 09:10:11","36c45c0696341be0efffe67d72a12abb","105.245.116.217","Mozilla/5.0 (Windows NT 10.0; Win64; x64) AppleWebKit/537.36 (KHTML, like Gecko) Chrome/138.0.0.0 Safari/537.36","WebKit","Chrome","138.0.0.0","Windows","10.0","https://app.prolific.com/","en-ZA,en-GB;q=0.9,en-US;q=0.8,en;q=0.7","67fa89d6790924c25e5ffb8e","687a19d2168e237449fb8af4","6889ded5c9db4da549ddde53","0","67fa89d6790924c25e5ffb8e","0","2025-07-30T09:15:45.950Z","","","","StressQ","","","","","","","","","","","50","","","","","","","","","","","","","","","","","","","","","","","","","","",""
"2370","","<div style=""width:500px;"">
  <p>What best describes how you currently feel?</p>
  </div>","82","html-slider-response","22","335782","0.0-7.0-4.1","77","1","2025-07-30 09:10:11","36c45c0696341be0efffe67d72a12abb","105.245.116.217","Mozilla/5.0 (Windows NT 10.0; Win64; x64) AppleWebKit/537.36 (KHTML, like Gecko) Chrome/138.0.0.0 Safari/537.36","WebKit","Chrome","138.0.0.0","Windows","10.0","https://app.prolific.com/","en-ZA,en-GB;q=0.9,en-US;q=0.8,en;q=0.7","67fa89d6790924c25e5ffb8e","687a19d2168e237449fb8af4","6889ded5c9db4da549ddde53","0","67fa89d6790924c25e5ffb8e","0","2025-07-30T09:15:48.322Z","","","","MotivationQ","","","","","","","","","","","50","","","","","","","","","","","","","","","","","","","","","","","","","","",""
"","","","","ctl-task-cpt","23","384586","0.0-7.0-0.2","77","1","2025-07-30 09:10:11","36c45c0696341be0efffe67d72a12abb","105.245.116.217","Mozilla/5.0 (Windows NT 10.0; Win64; x64) AppleWebKit/537.36 (KHTML, like Gecko) Chrome/138.0.0.0 Safari/537.36","WebKit","Chrome","138.0.0.0","Windows","10.0","https://app.prolific.com/","en-ZA,en-GB;q=0.9,en-US;q=0.8,en;q=0.7","67fa89d6790924c25e5ffb8e","687a19d2168e237449fb8af4","6889ded5c9db4da549ddde53","0","67fa89d6790924c25e5ffb8e","0","2025-07-30T09:16:37.126Z","","","","","","","","","","","","","","","","win-only","0","g1:NW,g2:SE","0.8","3","0","338824.2","839.5","5845.7","45783","1","4","8","6","2","8","7","19","12","0.14393939393939395","1074.6","3000","190","[""down"",""right""]","{""num_key_presses"":11,""num_perfect"":8,""num_errors"":1,""num_randdir"":2,""num_randdir_good_moves"":0,""num_whilered"":0,""num_whileblue"":0,""num_blue"":3,""num_good_moves"":8}","[426.5714133126395,415.32142761775424,0.4,420.3214133126395,409.07142761775424,105.2,420.3214133126395,409.07142761775424,207.5,420.3214133126395,409.07142761775424,310,420.3214133126395,409.07142761775424,413.9,440.3214133126395,444.07142761775424,523.4,590.3214133126395,611.5714276177542,624,750.3214133126395,730.3214276177542,729.4,765.3214133126395,736.5714276177542,837.2,769.0714133126395,741.5714276177542,937.5,769.0714133126395,741.5714276177542,1046.3,769.0714133126395,741.5714276177542,1147.8,769.0714133126395,741.5714276177542,1255.2,769.0714133126395,740.3214276177542,1361.3,795.3214133126395,697.8214276177542,1466.9,911.5714133126395,590.3214276177542,1568.9,914.0714133126395,511.57142761775424,1671.8,905.3214133126395,489.07142761775424,1777,905.3214133126395,489.07142761775424,1888.8,905.3214133126395,489.07142761775424,1993.3,905.3214133126395,489.07142761775424,2099.5,905.3214133126395,489.07142761775424,2204.9,905.3214133126395,489.07142761775424,2306.9,905.3214133126395,489.07142761775424,2408,905.3214133126395,489.07142761775424,2510.6,905.3214133126395,489.07142761775424,2617.7,905.3214133126395,489.07142761775424,2725.3,905.3214133126395,489.07142761775424,2826.5,905.3214133126395,489.07142761775424,2929.2,905.3214133126395,489.07142761775424,3033.2,905.3214133126395,489.07142761775424,3140.8,905.3214133126395,489.07142761775424,3241.1,905.3214133126395,489.07142761775424,3350.5,905.3214133126395,489.07142761775424,3459.2,905.3214133126395,489.07142761775424,3570,905.3214133126395,489.07142761775424,3674.7,905.3214133126395,489.07142761775424,3775.1,905.3214133126395,489.07142761775424,3879,905.3214133126395,489.07142761775424,3988.5,905.3214133126395,489.07142761775424,4097.9,905.3214133126395,489.07142761775424,4200.3,905.3214133126395,489.07142761775424,4308,905.3214133126395,489.07142761775424,4416.1,905.3214133126395,489.07142761775424,4516.7,905.3214133126395,489.07142761775424,4623.8,905.3214133126395,489.07142761775424,4727.4,905.3214133126395,489.07142761775424,4828.4,905.3214133126395,489.07142761775424,4935.2]","[1398.4,1398.4,1000,0,398.4,""smooth"",""down"",""down"",""good_move"",4359.9,2961.1,2602.2,1398.8,358.9,""smooth"",""down"",""down"",""good_move"",6793.1,2432.8,2032.4,4360.3,400.4,""oops"",""down"",""left"",""bad_move"",8992.3,2198.5,1856.9,6793.8,341.6,""smooth"",""down"",""down"",""good_move"",11934.5,2941.6,2617.8,8992.9,323.8,""smooth"",""right"",""right"",""good_move"",14715.8,2780.3,2862.4,11935.5,-82.1,""error"",""-"",""-"",""no_move"",18855.4,4139.1,2691.9,15718.6,444.9,""smooth"",""right"",""right"",""good_move"",21424.7,2568.6,2065.8,18856.1,502.8,""smooth"",""right"",""right"",""good_move"",24296.5,2871.3,2448.2,21425.2,423.1,""oops"",""right"",""left"",""bad_move"",33954.9,9658.2,2049.6,31510,395.3,""smooth"",""right"",""right"",""good_move"",39803.7,5848.3,2217.8,37154,431.9,""smooth"",""right"",""right"",""good_move""]"
"2356","","<div style=""width:500px;"">
  <p>What determined the result of this run?</p>
  </div>","100","html-slider-response","24","386943","0.0-7.0-1.2","77","1","2025-07-30 09:10:11","36c45c0696341be0efffe67d72a12abb","105.245.116.217","Mozilla/5.0 (Windows NT 10.0; Win64; x64) AppleWebKit/537.36 (KHTML, like Gecko) Chrome/138.0.0.0 Safari/537.36","WebKit","Chrome","138.0.0.0","Windows","10.0","https://app.prolific.com/","en-ZA,en-GB;q=0.9,en-US;q=0.8,en;q=0.7","67fa89d6790924c25e5ffb8e","687a19d2168e237449fb8af4","6889ded5c9db4da549ddde53","0","67fa89d6790924c25e5ffb8e","0","2025-07-30T09:16:39.483Z","","","","AttribQ","","","","","","","","","","","50","","","","","","","","","","","","","","","","","","","","","","","","","","",""
"2848","","<div style=""width:500px;"">
  <p>How much control did you have over the ball?</p>
  </div>","95","html-slider-response","25","389793","0.0-7.0-2.2","77","1","2025-07-30 09:10:11","36c45c0696341be0efffe67d72a12abb","105.245.116.217","Mozilla/5.0 (Windows NT 10.0; Win64; x64) AppleWebKit/537.36 (KHTML, like Gecko) Chrome/138.0.0.0 Safari/537.36","WebKit","Chrome","138.0.0.0","Windows","10.0","https://app.prolific.com/","en-ZA,en-GB;q=0.9,en-US;q=0.8,en;q=0.7","67fa89d6790924c25e5ffb8e","687a19d2168e237449fb8af4","6889ded5c9db4da549ddde53","0","67fa89d6790924c25e5ffb8e","0","2025-07-30T09:16:42.333Z","","","","ControlQ","","","","","","","","","","","50","","","","","","","","","","","","","","","","","","","","","","","","","","",""
"2000","","<div style=""width:500px;"">
  <p>How would you describe your current emotional state?</p>
  </div>","0","html-slider-response","26","391795","0.0-7.0-3.2","77","1","2025-07-30 09:10:11","36c45c0696341be0efffe67d72a12abb","105.245.116.217","Mozilla/5.0 (Windows NT 10.0; Win64; x64) AppleWebKit/537.36 (KHTML, like Gecko) Chrome/138.0.0.0 Safari/537.36","WebKit","Chrome","138.0.0.0","Windows","10.0","https://app.prolific.com/","en-ZA,en-GB;q=0.9,en-US;q=0.8,en;q=0.7","67fa89d6790924c25e5ffb8e","687a19d2168e237449fb8af4","6889ded5c9db4da549ddde53","0","67fa89d6790924c25e5ffb8e","0","2025-07-30T09:16:44.335Z","","","","StressQ","","","","","","","","","","","50","","","","","","","","","","","","","","","","","","","","","","","","","","",""
"2503","","<div style=""width:500px;"">
  <p>What best describes how you currently feel?</p>
  </div>","99","html-slider-response","27","394299","0.0-7.0-4.2","77","1","2025-07-30 09:10:11","36c45c0696341be0efffe67d72a12abb","105.245.116.217","Mozilla/5.0 (Windows NT 10.0; Win64; x64) AppleWebKit/537.36 (KHTML, like Gecko) Chrome/138.0.0.0 Safari/537.36","WebKit","Chrome","138.0.0.0","Windows","10.0","https://app.prolific.com/","en-ZA,en-GB;q=0.9,en-US;q=0.8,en;q=0.7","67fa89d6790924c25e5ffb8e","687a19d2168e237449fb8af4","6889ded5c9db4da549ddde53","0","67fa89d6790924c25e5ffb8e","0","2025-07-30T09:16:46.840Z","","","","MotivationQ","","","","","","","","","","","50","","","","","","","","","","","","","","","","","","","","","","","","","","",""
"","","","","ctl-task-cpt","28","442376","0.0-7.0-0.3","77","1","2025-07-30 09:10:11","36c45c0696341be0efffe67d72a12abb","105.245.116.217","Mozilla/5.0 (Windows NT 10.0; Win64; x64) AppleWebKit/537.36 (KHTML, like Gecko) Chrome/138.0.0.0 Safari/537.36","WebKit","Chrome","138.0.0.0","Windows","10.0","https://app.prolific.com/","en-ZA,en-GB;q=0.9,en-US;q=0.8,en;q=0.7","67fa89d6790924c25e5ffb8e","687a19d2168e237449fb8af4","6889ded5c9db4da549ddde53","0","67fa89d6790924c25e5ffb8e","0","2025-07-30T09:17:34.917Z","","","","","","","","","","","","","","","","win-only","2","g1:SE,g2:NW","0.7","4","0","397343.7","1570.7","6571.3","45056","1","4","4","6","2","4","4","23","19","0.17424242424242425","1536.4","3000","220","[""left"",""up""]","{""num_key_presses"":10,""num_perfect"":7,""num_errors"":0,""num_randdir"":3,""num_randdir_good_moves"":1,""num_whilered"":0,""num_whileblue"":0,""num_blue"":3,""num_good_moves"":8}","[415.3214133126395,411.57142761775424,0.3,419.0714133126395,414.07142761775424,105.4,419.0714133126395,415.32142761775424,212.1,421.5714133126395,416.57142761775424,314.8,424.0714133126395,416.57142761775424,418.9,424.0714133126395,416.57142761775424,523.7,421.5714133126395,411.57142761775424,625.9,365.3214133126395,356.57142761775424,730.7,245.3214133126395,325.32142761775424,835.2,127.8214133126395,230.32142761775424,936.9,96.5714133126395,159.07142761775424,1037,87.8214133126395,141.57142761775424,1140.3,87.8214133126395,139.07142761775424,1243,87.8214133126395,139.07142761775424,1344,91.5714133126395,131.57142761775424,1450.8,101.5714133126395,119.07142761775425,1555.2,101.5714133126395,117.82142761775425,1667.6,101.5714133126395,117.82142761775425,1770,206.5714133126395,147.82142761775424,1870.8,327.8214133126395,186.57142761775424,1975.7,397.8214133126395,245.32142761775424,2075.7,431.5714133126395,299.07142761775424,2181.4,439.0714133126395,321.57142761775424,2287.2,439.0714133126395,321.57142761775424,2390.1,576.5714133126395,364.07142761775424,2490.6,791.5714133126395,379.07142761775424,2594.5,904.0714133126395,351.57142761775424,2699.1,964.0714133126395,339.07142761775424,2802.2,965.3214133126395,339.07142761775424,2902.9,965.3214133126395,339.07142761775424,3006.6,965.3214133126395,339.07142761775424,3107.9,965.3214133126395,339.07142761775424,3210,965.3214133126395,339.07142761775424,3317.9,965.3214133126395,339.07142761775424,3424.8,965.3214133126395,339.07142761775424,3527,965.3214133126395,339.07142761775424,3633.1,965.3214133126395,339.07142761775424,3738.6,965.3214133126395,339.07142761775424,3843.5,965.3214133126395,339.07142761775424,3947.8,965.3214133126395,339.07142761775424,4047.9,965.3214133126395,339.07142761775424,4147.9,965.3214133126395,339.07142761775424,4256.6,965.3214133126395,339.07142761775424,4358,965.3214133126395,339.07142761775424,4463.4,965.3214133126395,339.07142761775424,4566.1,965.3214133126395,339.07142761775424,4672,965.3214133126395,339.07142761775424,4776.7,965.3214133126395,339.07142761775424,4884.1,965.3214133126395,339.07142761775424,4986.3]","[1441.8,1441.8,1000,0,441.8,""smooth"",""left"",""left"",""good_move"",4484.9,3042.3,2586.3,1442.6,456,""smooth"",""up"",""up"",""good_move"",7457,2971.1,2573.8,4485.9,397.3,""oops"",""up"",""up"",""good_move"",10198.8,2741,2321.3,7457.8,419.7,""smooth"",""up"",""up"",""good_move"",13311.6,3112.4,2781.4,10199.2,331,""oops"",""left"",""right"",""bad_move"",20436.2,7123.9,2668.5,17392.8,374.9,""smooth"",""left"",""left"",""good_move"",24025,3588.4,3249.7,20436.6,338.7,""smooth"",""left"",""left"",""good_move"",33068.8,9043.2,2322.2,30336.6,410,""oops"",""left"",""right"",""bad_move"",35620.6,2551.2,2098.5,33069.4,452.7,""smooth"",""left"",""left"",""good_move"",38374.8,2753.2,2344.6,35621.7,408.5,""smooth"",""left"",""left"",""good_move""]"
"2293","","<div style=""width:500px;"">
  <p>What determined the result of this run?</p>
  </div>","100","html-slider-response","29","444671","0.0-7.0-1.3","77","1","2025-07-30 09:10:11","36c45c0696341be0efffe67d72a12abb","105.245.116.217","Mozilla/5.0 (Windows NT 10.0; Win64; x64) AppleWebKit/537.36 (KHTML, like Gecko) Chrome/138.0.0.0 Safari/537.36","WebKit","Chrome","138.0.0.0","Windows","10.0","https://app.prolific.com/","en-ZA,en-GB;q=0.9,en-US;q=0.8,en;q=0.7","67fa89d6790924c25e5ffb8e","687a19d2168e237449fb8af4","6889ded5c9db4da549ddde53","0","67fa89d6790924c25e5ffb8e","0","2025-07-30T09:17:37.211Z","","","","AttribQ","","","","","","","","","","","50","","","","","","","","","","","","","","","","","","","","","","","","","","",""
"2189","","<div style=""width:500px;"">
  <p>How much control did you have over the ball?</p>
  </div>","79","html-slider-response","30","446862","0.0-7.0-2.3","77","1","2025-07-30 09:10:11","36c45c0696341be0efffe67d72a12abb","105.245.116.217","Mozilla/5.0 (Windows NT 10.0; Win64; x64) AppleWebKit/537.36 (KHTML, like Gecko) Chrome/138.0.0.0 Safari/537.36","WebKit","Chrome","138.0.0.0","Windows","10.0","https://app.prolific.com/","en-ZA,en-GB;q=0.9,en-US;q=0.8,en;q=0.7","67fa89d6790924c25e5ffb8e","687a19d2168e237449fb8af4","6889ded5c9db4da549ddde53","0","67fa89d6790924c25e5ffb8e","0","2025-07-30T09:17:39.402Z","","","","ControlQ","","","","","","","","","","","50","","","","","","","","","","","","","","","","","","","","","","","","","","",""
"3315","","<div style=""width:500px;"">
  <p>How would you describe your current emotional state?</p>
  </div>","5","html-slider-response","31","450180","0.0-7.0-3.3","77","1","2025-07-30 09:10:11","36c45c0696341be0efffe67d72a12abb","105.245.116.217","Mozilla/5.0 (Windows NT 10.0; Win64; x64) AppleWebKit/537.36 (KHTML, like Gecko) Chrome/138.0.0.0 Safari/537.36","WebKit","Chrome","138.0.0.0","Windows","10.0","https://app.prolific.com/","en-ZA,en-GB;q=0.9,en-US;q=0.8,en;q=0.7","67fa89d6790924c25e5ffb8e","687a19d2168e237449fb8af4","6889ded5c9db4da549ddde53","0","67fa89d6790924c25e5ffb8e","0","2025-07-30T09:17:42.721Z","","","","StressQ","","","","","","","","","","","50","","","","","","","","","","","","","","","","","","","","","","","","","","",""
"2248","","<div style=""width:500px;"">
  <p>What best describes how you currently feel?</p>
  </div>","90","html-slider-response","32","452431","0.0-7.0-4.3","77","1","2025-07-30 09:10:11","36c45c0696341be0efffe67d72a12abb","105.245.116.217","Mozilla/5.0 (Windows NT 10.0; Win64; x64) AppleWebKit/537.36 (KHTML, like Gecko) Chrome/138.0.0.0 Safari/537.36","WebKit","Chrome","138.0.0.0","Windows","10.0","https://app.prolific.com/","en-ZA,en-GB;q=0.9,en-US;q=0.8,en;q=0.7","67fa89d6790924c25e5ffb8e","687a19d2168e237449fb8af4","6889ded5c9db4da549ddde53","0","67fa89d6790924c25e5ffb8e","0","2025-07-30T09:17:44.971Z","","","","MotivationQ","","","","","","","","","","","50","","","","","","","","","","","","","","","","","","","","","","","","","","",""
"","","","","ctl-task-cpt","33","476510","0.0-7.0-0.4","77","1","2025-07-30 09:10:11","36c45c0696341be0efffe67d72a12abb","105.245.116.217","Mozilla/5.0 (Windows NT 10.0; Win64; x64) AppleWebKit/537.36 (KHTML, like Gecko) Chrome/138.0.0.0 Safari/537.36","WebKit","Chrome","138.0.0.0","Windows","10.0","https://app.prolific.com/","en-ZA,en-GB;q=0.9,en-US;q=0.8,en;q=0.7","67fa89d6790924c25e5ffb8e","687a19d2168e237449fb8af4","6889ded5c9db4da549ddde53","0","67fa89d6790924c25e5ffb8e","0","2025-07-30T09:18:09.050Z","","","","","","","","","","","","","","","","win-only","1","g1:NE,g2:SW","0.6","5","0","455474.3","1950.8","6952.8","21052.3","1","4","4","6","1","1","1","24","23","0.18181818181818182","1381.1","3000","1990","[""up"",""right""]","{""num_key_presses"":4,""num_perfect"":2,""num_errors"":0,""num_randdir"":2,""num_randdir_good_moves"":2,""num_whilered"":0,""num_whileblue"":0,""num_blue"":1,""num_good_moves"":4}","[424.0714133126395,411.57142761775424,0.4,424.0714133126395,411.57142761775424,106.7,424.0714133126395,411.57142761775424,207.4,424.0714133126395,409.07142761775424,311.6,447.8214133126395,367.82142761775424,421.8,412.8214133126395,357.82142761775424,533.2,394.0714133126395,372.82142761775424,637.5,304.0714133126395,492.82142761775424,742.1,259.0714133126395,551.5714276177542,856.6,257.8214133126395,519.0714276177542,960.4,440.3214133126395,291.57142761775424,1063.1,657.8214133126395,124.07142761775425,1166.2,731.5714133126395,75.32142761775425,1267.3,782.8214133126395,64.07142761775425,1372.7,785.3214133126395,64.07142761775425,1478.2,785.3214133126395,64.07142761775425,1579.9,779.0714133126395,76.57142761775425,1680.2,777.8214133126395,119.07142761775425,1781.3,812.8214133126395,160.32142761775424,1883.8,892.8214133126395,170.32142761775424,1987.2,916.5714133126395,166.57142761775424,2097.9,916.5714133126395,166.57142761775424,2202.1,916.5714133126395,166.57142761775424,2304.6,916.5714133126395,166.57142761775424,2412.9,916.5714133126395,166.57142761775424,2517.1,916.5714133126395,166.57142761775424,2618.5,916.5714133126395,166.57142761775424,2726.1,916.5714133126395,166.57142761775424,2832.8,916.5714133126395,166.57142761775424,2936.1,916.5714133126395,166.57142761775424,3047.7,916.5714133126395,166.57142761775424,3149.7,916.5714133126395,166.57142761775424,3257,916.5714133126395,166.57142761775424,3371.8,916.5714133126395,166.57142761775424,3473.6,916.5714133126395,166.57142761775424,3589.4,916.5714133126395,166.57142761775424,3702.4,916.5714133126395,166.57142761775424,3804.7,916.5714133126395,166.57142761775424,3909.9,916.5714133126395,166.57142761775424,4017.5,916.5714133126395,166.57142761775424,4120.4,916.5714133126395,166.57142761775424,4224.7,916.5714133126395,166.57142761775424,4327.6,916.5714133126395,166.57142761775424,4428.6,916.5714133126395,166.57142761775424,4531,916.5714133126395,166.57142761775424,4642.9,916.5714133126395,166.57142761775424,4744.8,916.5714133126395,166.57142761775424,4848.2,916.5714133126395,166.57142761775424,4951.4]","[5056.9,5056.9,2631.1,2015.2,410.6,""oops"",""up"",""right"",""good_move"",7672.4,2614.2,2207.4,5058.2,406.8,""smooth"",""up"",""up"",""good_move"",10559.5,2886.4,2523.4,7673.1,363,""oops"",""up"",""up"",""good_move"",13983.3,3423.3,3028.3,10560,395,""smooth"",""right"",""right"",""good_move""]"
"1964","","<div style=""width:500px;"">
  <p>What determined the result of this run?</p>
  </div>","100","html-slider-response","34","478477","0.0-7.0-1.4","77","1","2025-07-30 09:10:11","36c45c0696341be0efffe67d72a12abb","105.245.116.217","Mozilla/5.0 (Windows NT 10.0; Win64; x64) AppleWebKit/537.36 (KHTML, like Gecko) Chrome/138.0.0.0 Safari/537.36","WebKit","Chrome","138.0.0.0","Windows","10.0","https://app.prolific.com/","en-ZA,en-GB;q=0.9,en-US;q=0.8,en;q=0.7","67fa89d6790924c25e5ffb8e","687a19d2168e237449fb8af4","6889ded5c9db4da549ddde53","0","67fa89d6790924c25e5ffb8e","0","2025-07-30T09:18:11.017Z","","","","AttribQ","","","","","","","","","","","50","","","","","","","","","","","","","","","","","","","","","","","","","","",""
"4277","","<div style=""width:500px;"">
  <p>How much control did you have over the ball?</p>
  </div>","91","html-slider-response","35","482755","0.0-7.0-2.4","77","1","2025-07-30 09:10:11","36c45c0696341be0efffe67d72a12abb","105.245.116.217","Mozilla/5.0 (Windows NT 10.0; Win64; x64) AppleWebKit/537.36 (KHTML, like Gecko) Chrome/138.0.0.0 Safari/537.36","WebKit","Chrome","138.0.0.0","Windows","10.0","https://app.prolific.com/","en-ZA,en-GB;q=0.9,en-US;q=0.8,en;q=0.7","67fa89d6790924c25e5ffb8e","687a19d2168e237449fb8af4","6889ded5c9db4da549ddde53","0","67fa89d6790924c25e5ffb8e","0","2025-07-30T09:18:15.295Z","","","","ControlQ","","","","","","","","","","","50","","","","","","","","","","","","","","","","","","","","","","","","","","",""
"2154","","<div style=""width:500px;"">
  <p>How would you describe your current emotional state?</p>
  </div>","0","html-slider-response","36","484910","0.0-7.0-3.4","77","1","2025-07-30 09:10:11","36c45c0696341be0efffe67d72a12abb","105.245.116.217","Mozilla/5.0 (Windows NT 10.0; Win64; x64) AppleWebKit/537.36 (KHTML, like Gecko) Chrome/138.0.0.0 Safari/537.36","WebKit","Chrome","138.0.0.0","Windows","10.0","https://app.prolific.com/","en-ZA,en-GB;q=0.9,en-US;q=0.8,en;q=0.7","67fa89d6790924c25e5ffb8e","687a19d2168e237449fb8af4","6889ded5c9db4da549ddde53","0","67fa89d6790924c25e5ffb8e","0","2025-07-30T09:18:17.451Z","","","","StressQ","","","","","","","","","","","50","","","","","","","","","","","","","","","","","","","","","","","","","","",""
"2522","","<div style=""width:500px;"">
  <p>What best describes how you currently feel?</p>
  </div>","90","html-slider-response","37","487435","0.0-7.0-4.4","77","1","2025-07-30 09:10:11","36c45c0696341be0efffe67d72a12abb","105.245.116.217","Mozilla/5.0 (Windows NT 10.0; Win64; x64) AppleWebKit/537.36 (KHTML, like Gecko) Chrome/138.0.0.0 Safari/537.36","WebKit","Chrome","138.0.0.0","Windows","10.0","https://app.prolific.com/","en-ZA,en-GB;q=0.9,en-US;q=0.8,en;q=0.7","67fa89d6790924c25e5ffb8e","687a19d2168e237449fb8af4","6889ded5c9db4da549ddde53","0","67fa89d6790924c25e5ffb8e","0","2025-07-30T09:18:19.975Z","","","","MotivationQ","","","","","","","","","","","50","","","","","","","","","","","","","","","","","","","","","","","","","","",""
"","","","","ctl-task-cpt","38","517542","0.0-7.0-0.5","77","1","2025-07-30 09:10:11","36c45c0696341be0efffe67d72a12abb","105.245.116.217","Mozilla/5.0 (Windows NT 10.0; Win64; x64) AppleWebKit/537.36 (KHTML, like Gecko) Chrome/138.0.0.0 Safari/537.36","WebKit","Chrome","138.0.0.0","Windows","10.0","https://app.prolific.com/","en-ZA,en-GB;q=0.9,en-US;q=0.8,en;q=0.7","67fa89d6790924c25e5ffb8e","687a19d2168e237449fb8af4","6889ded5c9db4da549ddde53","0","67fa89d6790924c25e5ffb8e","0","2025-07-30T09:18:50.082Z","","","","","","","","","","","","","","","","win-only","3","g1:SW,g2:NE","0.5","6","0","490479.3","1094.8","6099.7","27074.9","1","4","8","6","2","8","8","32","24","0.24242424242424243","724.8","3000","1385","[""up"",""right""]","{""num_key_presses"":6,""num_perfect"":4,""num_errors"":0,""num_randdir"":2,""num_randdir_good_moves"":2,""num_whilered"":0,""num_whileblue"":0,""num_blue"":1,""num_good_moves"":6}","[411.5714133126395,416.57142761775424,0.2,411.5714133126395,416.57142761775424,108.7,411.5714133126395,416.57142761775424,214.7,411.5714133126395,416.57142761775424,314.8,536.5714133126395,344.07142761775424,416.5,691.5714133126395,225.32142761775424,528,752.8214133126395,116.57142761775425,632.8,777.8214133126395,85.32142761775425,743.6,777.8214133126395,85.32142761775425,854.9,777.8214133126395,85.32142761775425,958,766.5714133126395,96.57142761775425,1065.5,741.5714133126395,124.07142761775425,1173.3,722.8214133126395,151.57142761775424,1274.5,682.8214133126395,216.57142761775424,1378.1,736.5714133126395,287.82142761775424,1489.3,769.0714133126395,292.82142761775424,1601,761.5714133126395,291.57142761775424,1704.4,742.8214133126395,302.82142761775424,1806.7,794.0714133126395,331.57142761775424,1909.4,812.8214133126395,336.57142761775424,2014.4,812.8214133126395,330.32142761775424,2116.3,812.8214133126395,330.32142761775424,2223.1,814.0714133126395,329.07142761775424,2326.3,814.0714133126395,329.07142761775424,2433.7,814.0714133126395,329.07142761775424,2548.1,814.0714133126395,329.07142761775424,2650.2,814.0714133126395,329.07142761775424,2758.9,814.0714133126395,329.07142761775424,2865.2,814.0714133126395,329.07142761775424,2965.3,814.0714133126395,329.07142761775424,3065.5,814.0714133126395,329.07142761775424,3170.7,814.0714133126395,329.07142761775424,3271.4,814.0714133126395,329.07142761775424,3372.8,814.0714133126395,329.07142761775424,3480.6,814.0714133126395,329.07142761775424,3581.8,814.0714133126395,329.07142761775424,3682,814.0714133126395,329.07142761775424,3788.1,814.0714133126395,329.07142761775424,3890.6,814.0714133126395,329.07142761775424,4002.5,814.0714133126395,329.07142761775424,4106.1,814.0714133126395,329.07142761775424,4211,814.0714133126395,329.07142761775424,4313.8,814.0714133126395,329.07142761775424,4414.3,814.0714133126395,329.07142761775424,4518.1,814.0714133126395,329.07142761775424,4618.8,814.0714133126395,329.07142761775424,4722.6,814.0714133126395,329.07142761775424,4832.1,814.0714133126395,329.07142761775424,4934]","[1360.7,1360.7,1000,0,360.7,""smooth"",""up"",""up"",""good_move"",5003.8,3642.7,3116.5,1361.1,526.2,""oops"",""right"",""up"",""good_move"",12017.3,7013.1,2719.4,8915.1,382.8,""smooth"",""right"",""right"",""good_move"",14853.4,2835.6,2362.8,12017.8,472.8,""oops"",""right"",""right"",""good_move"",17821.6,2967.9,2561.5,14853.8,406.3,""smooth"",""up"",""up"",""good_move"",20811.1,2989.2,2599.2,17822,390,""smooth"",""right"",""right"",""good_move""]"
"5633","","<div style=""width:500px;"">
  <p>What determined the result of this run?</p>
  </div>","100","html-slider-response","39","523178","0.0-7.0-1.5","77","1","2025-07-30 09:10:11","36c45c0696341be0efffe67d72a12abb","105.245.116.217","Mozilla/5.0 (Windows NT 10.0; Win64; x64) AppleWebKit/537.36 (KHTML, like Gecko) Chrome/138.0.0.0 Safari/537.36","WebKit","Chrome","138.0.0.0","Windows","10.0","https://app.prolific.com/","en-ZA,en-GB;q=0.9,en-US;q=0.8,en;q=0.7","67fa89d6790924c25e5ffb8e","687a19d2168e237449fb8af4","6889ded5c9db4da549ddde53","0","67fa89d6790924c25e5ffb8e","0","2025-07-30T09:18:55.718Z","","","","AttribQ","","","","","","","","","","","50","","","","","","","","","","","","","","","","","","","","","","","","","","",""
"2316","","<div style=""width:500px;"">
  <p>How much control did you have over the ball?</p>
  </div>","100","html-slider-response","40","525495","0.0-7.0-2.5","77","1","2025-07-30 09:10:11","36c45c0696341be0efffe67d72a12abb","105.245.116.217","Mozilla/5.0 (Windows NT 10.0; Win64; x64) AppleWebKit/537.36 (KHTML, like Gecko) Chrome/138.0.0.0 Safari/537.36","WebKit","Chrome","138.0.0.0","Windows","10.0","https://app.prolific.com/","en-ZA,en-GB;q=0.9,en-US;q=0.8,en;q=0.7","67fa89d6790924c25e5ffb8e","687a19d2168e237449fb8af4","6889ded5c9db4da549ddde53","0","67fa89d6790924c25e5ffb8e","0","2025-07-30T09:18:58.036Z","","","","ControlQ","","","","","","","","","","","50","","","","","","","","","","","","","","","","","","","","","","","","","","",""
"2575","","<div style=""width:500px;"">
  <p>How would you describe your current emotional state?</p>
  </div>","0","html-slider-response","41","528072","0.0-7.0-3.5","77","1","2025-07-30 09:10:11","36c45c0696341be0efffe67d72a12abb","105.245.116.217","Mozilla/5.0 (Windows NT 10.0; Win64; x64) AppleWebKit/537.36 (KHTML, like Gecko) Chrome/138.0.0.0 Safari/537.36","WebKit","Chrome","138.0.0.0","Windows","10.0","https://app.prolific.com/","en-ZA,en-GB;q=0.9,en-US;q=0.8,en;q=0.7","67fa89d6790924c25e5ffb8e","687a19d2168e237449fb8af4","6889ded5c9db4da549ddde53","0","67fa89d6790924c25e5ffb8e","0","2025-07-30T09:19:00.612Z","","","","StressQ","","","","","","","","","","","50","","","","","","","","","","","","","","","","","","","","","","","","","","",""
"2349","","<div style=""width:500px;"">
  <p>What best describes how you currently feel?</p>
  </div>","94","html-slider-response","42","530423","0.0-7.0-4.5","77","1","2025-07-30 09:10:11","36c45c0696341be0efffe67d72a12abb","105.245.116.217","Mozilla/5.0 (Windows NT 10.0; Win64; x64) AppleWebKit/537.36 (KHTML, like Gecko) Chrome/138.0.0.0 Safari/537.36","WebKit","Chrome","138.0.0.0","Windows","10.0","https://app.prolific.com/","en-ZA,en-GB;q=0.9,en-US;q=0.8,en;q=0.7","67fa89d6790924c25e5ffb8e","687a19d2168e237449fb8af4","6889ded5c9db4da549ddde53","0","67fa89d6790924c25e5ffb8e","0","2025-07-30T09:19:02.963Z","","","","MotivationQ","","","","","","","","","","","50","","","","","","","","","","","","","","","","","","","","","","","","","","",""
"","","","","ctl-task-cpt","43","589484","0.0-7.0-0.6","77","1","2025-07-30 09:10:11","36c45c0696341be0efffe67d72a12abb","105.245.116.217","Mozilla/5.0 (Windows NT 10.0; Win64; x64) AppleWebKit/537.36 (KHTML, like Gecko) Chrome/138.0.0.0 Safari/537.36","WebKit","Chrome","138.0.0.0","Windows","10.0","https://app.prolific.com/","en-ZA,en-GB;q=0.9,en-US;q=0.8,en;q=0.7","67fa89d6790924c25e5ffb8e","687a19d2168e237449fb8af4","6889ded5c9db4da549ddde53","0","67fa89d6790924c25e5ffb8e","0","2025-07-30T09:20:02.024Z","","","","","","","","","","","","","","","","win-only","1","g1:NE,g2:SW","0.4","7","0","533467.8","1100.2","6110.5","56029","1","4","4","6","2","-4","-6","26","32","0.19696969696969696","1107.2","3000","-1900","[""down"",""left""]","{""num_key_presses"":13,""num_perfect"":5,""num_errors"":2,""num_randdir"":6,""num_randdir_good_moves"":2,""num_whilered"":0,""num_whileblue"":2,""num_blue"":5,""num_good_moves"":8}","[422.8214133126395,414.07142761775424,0.2,422.8214133126395,414.07142761775424,101.3,422.8214133126395,414.07142761775424,206.6,422.8214133126395,414.07142761775424,320.1,424.0714133126395,396.57142761775424,426,424.0714133126395,392.82142761775424,528.1,320.3214133126395,436.57142761775424,637,235.3214133126395,507.82142761775424,741.3,151.5714133126395,611.5714276177542,856,94.0714133126395,696.5714276177542,960.3,87.8214133126395,736.5714276177542,1061,86.5714133126395,744.0714276177542,1176.4,86.5714133126395,744.0714276177542,1277.8,192.8214133126395,672.8214276177542,1382.5,466.5714133126395,511.57142761775424,1488.4,666.5714133126395,391.57142761775424,1589.6,719.0714133126395,356.57142761775424,1693.4,826.5714133126395,334.07142761775424,1809.3,829.0714133126395,332.82142761775424,1912.1,829.0714133126395,332.82142761775424,2018,829.0714133126395,332.82142761775424,2118.2,829.0714133126395,332.82142761775424,2219,829.0714133126395,332.82142761775424,2320.6,829.0714133126395,332.82142761775424,2427.1,829.0714133126395,332.82142761775424,2533.1,829.0714133126395,332.82142761775424,2646.6,829.0714133126395,332.82142761775424,2753.1,829.0714133126395,332.82142761775424,2858.2,829.0714133126395,332.82142761775424,2967.2,829.0714133126395,332.82142761775424,3086.7,829.0714133126395,332.82142761775424,3190.3,829.0714133126395,332.82142761775424,3297.1,829.0714133126395,332.82142761775424,3405.2,829.0714133126395,332.82142761775424,3507.9,829.0714133126395,332.82142761775424,3610.4,829.0714133126395,332.82142761775424,3711.1,829.0714133126395,332.82142761775424,3827.3,829.0714133126395,332.82142761775424,3937,829.0714133126395,332.82142761775424,4050.3,829.0714133126395,332.82142761775424,4160.1,829.0714133126395,332.82142761775424,4264.3,829.0714133126395,332.82142761775424,4371.6,829.0714133126395,332.82142761775424,4484.5,829.0714133126395,332.82142761775424,4585.5,829.0714133126395,332.82142761775424,4687,829.0714133126395,332.82142761775424,4792.2,829.0714133126395,332.82142761775424,4894.6,829.0714133126395,332.82142761775424,4998.1]","[1339.5,1339.5,1000,0,339.5,""oops"",""down"",""right"",""bad_move"",3692.8,2352.6,1928.8,1340.2,423.8,""smooth"",""down"",""down"",""good_move"",7231.4,3538.2,3088.5,3693.2,449.7,""smooth"",""left"",""left"",""good_move"",10662.9,3431,3067.3,7231.9,363.7,""oops"",""left"",""down"",""good_move"",14356.9,3693.6,3295.4,10663.3,398.2,""smooth"",""left"",""left"",""good_move"",17475,3117.6,2730.8,14357.4,386.8,""while_blue"",""left"",""right"",""bad_move"",20009.3,2533,2093.1,17476.3,439.9,""oops"",""left"",""right"",""bad_move"",22159.2,2149.5,1739.2,20009.8,410.2,""oops"",""left"",""right"",""bad_move"",24963,2803.3,2414.9,22159.7,388.4,""while_blue"",""left"",""down"",""good_move"",28084.1,3121,2655.2,24963.2,465.8,""smooth"",""left"",""left"",""good_move"",35268.6,7183.9,2845.6,32010,413,""oops"",""left"",""left"",""good_move"",38004.8,2735.7,2347.1,35269.1,388.6,""oops"",""left"",""right"",""bad_move"",44645.2,6639.9,3101.6,41086.5,457.1,""smooth"",""left"",""left"",""good_move""]"
"3813","","<div style=""width:500px;"">
  <p>What determined the result of this run?</p>
  </div>","0","html-slider-response","44","593299","0.0-7.0-1.6","77","1","2025-07-30 09:10:11","36c45c0696341be0efffe67d72a12abb","105.245.116.217","Mozilla/5.0 (Windows NT 10.0; Win64; x64) AppleWebKit/537.36 (KHTML, like Gecko) Chrome/138.0.0.0 Safari/537.36","WebKit","Chrome","138.0.0.0","Windows","10.0","https://app.prolific.com/","en-ZA,en-GB;q=0.9,en-US;q=0.8,en;q=0.7","67fa89d6790924c25e5ffb8e","687a19d2168e237449fb8af4","6889ded5c9db4da549ddde53","0","67fa89d6790924c25e5ffb8e","0","2025-07-30T09:20:05.839Z","","","","AttribQ","","","","","","","","","","","50","","","","","","","","","","","","","","","","","","","","","","","","","","",""
"2538","","<div style=""width:500px;"">
  <p>How much control did you have over the ball?</p>
  </div>","0","html-slider-response","45","595838","0.0-7.0-2.6","77","1","2025-07-30 09:10:11","36c45c0696341be0efffe67d72a12abb","105.245.116.217","Mozilla/5.0 (Windows NT 10.0; Win64; x64) AppleWebKit/537.36 (KHTML, like Gecko) Chrome/138.0.0.0 Safari/537.36","WebKit","Chrome","138.0.0.0","Windows","10.0","https://app.prolific.com/","en-ZA,en-GB;q=0.9,en-US;q=0.8,en;q=0.7","67fa89d6790924c25e5ffb8e","687a19d2168e237449fb8af4","6889ded5c9db4da549ddde53","0","67fa89d6790924c25e5ffb8e","0","2025-07-30T09:20:08.379Z","","","","ControlQ","","","","","","","","","","","50","","","","","","","","","","","","","","","","","","","","","","","","","","",""
"3017","","<div style=""width:500px;"">
  <p>How would you describe your current emotional state?</p>
  </div>","71","html-slider-response","46","598856","0.0-7.0-3.6","77","1","2025-07-30 09:10:11","36c45c0696341be0efffe67d72a12abb","105.245.116.217","Mozilla/5.0 (Windows NT 10.0; Win64; x64) AppleWebKit/537.36 (KHTML, like Gecko) Chrome/138.0.0.0 Safari/537.36","WebKit","Chrome","138.0.0.0","Windows","10.0","https://app.prolific.com/","en-ZA,en-GB;q=0.9,en-US;q=0.8,en;q=0.7","67fa89d6790924c25e5ffb8e","687a19d2168e237449fb8af4","6889ded5c9db4da549ddde53","0","67fa89d6790924c25e5ffb8e","0","2025-07-30T09:20:11.397Z","","","","StressQ","","","","","","","","","","","50","","","","","","","","","","","","","","","","","","","","","","","","","","",""
"4928","","<div style=""width:500px;"">
  <p>What best describes how you currently feel?</p>
  </div>","85","html-slider-response","47","603785","0.0-7.0-4.6","77","1","2025-07-30 09:10:11","36c45c0696341be0efffe67d72a12abb","105.245.116.217","Mozilla/5.0 (Windows NT 10.0; Win64; x64) AppleWebKit/537.36 (KHTML, like Gecko) Chrome/138.0.0.0 Safari/537.36","WebKit","Chrome","138.0.0.0","Windows","10.0","https://app.prolific.com/","en-ZA,en-GB;q=0.9,en-US;q=0.8,en;q=0.7","67fa89d6790924c25e5ffb8e","687a19d2168e237449fb8af4","6889ded5c9db4da549ddde53","0","67fa89d6790924c25e5ffb8e","0","2025-07-30T09:20:16.326Z","","","","MotivationQ","","","","","","","","","","","50","","","","","","","","","","","","","","","","","","","","","","","","","","",""
"","","","","ctl-task-cpt","48","660397","0.0-7.0-0.7","77","1","2025-07-30 09:10:11","36c45c0696341be0efffe67d72a12abb","105.245.116.217","Mozilla/5.0 (Windows NT 10.0; Win64; x64) AppleWebKit/537.36 (KHTML, like Gecko) Chrome/138.0.0.0 Safari/537.36","WebKit","Chrome","138.0.0.0","Windows","10.0","https://app.prolific.com/","en-ZA,en-GB;q=0.9,en-US;q=0.8,en;q=0.7","67fa89d6790924c25e5ffb8e","687a19d2168e237449fb8af4","6889ded5c9db4da549ddde53","0","67fa89d6790924c25e5ffb8e","0","2025-07-30T09:21:12.938Z","","","","","","","","","","","","","","","","win-only","3","g1:SW,g2:NE","0.3","8","0","606830.4","1059.6","6065.5","53583.4","1","4","8","6","2","-8","-8","18","26","0.13636363636363635","879.6","3000","-1645","[""up"",""right""]","{""num_key_presses"":10,""num_perfect"":3,""num_errors"":0,""num_randdir"":7,""num_randdir_good_moves"":3,""num_whilered"":0,""num_whileblue"":0,""num_blue"":4,""num_good_moves"":6}","[421.5714133126395,409.07142761775424,0.4,421.5714133126395,409.07142761775424,115.1,420.3214133126395,409.07142761775424,219.1,424.0714133126395,401.57142761775424,319.4,490.3214133126395,326.57142761775424,424.7,595.3214133126395,230.32142761775424,530.2,650.3214133126395,149.07142761775424,637.9,671.5714133126395,121.57142761775425,738.2,721.5714133126395,96.57142761775425,854.1,726.5714133126395,96.57142761775425,971.5,735.3214133126395,96.57142761775425,1074.8,739.0714133126395,96.57142761775425,1181.3,771.5714133126395,107.82142761775425,1283.3,865.3214133126395,121.57142761775425,1396.5,1000.3214133126395,111.57142761775425,1514.5,1000.3214133126395,111.57142761775425,1617.7,1000.3214133126395,111.57142761775425,1720.8,1000.3214133126395,111.57142761775425,1829.1,994.0714133126395,121.57142761775425,1938.6,994.0714133126395,121.57142761775425,2039.8,994.0714133126395,121.57142761775425,2142.2,994.0714133126395,121.57142761775425,2242.7,994.0714133126395,121.57142761775425,2350.2,994.0714133126395,121.57142761775425,2460.4,994.0714133126395,121.57142761775425,2561,994.0714133126395,121.57142761775425,2673,994.0714133126395,121.57142761775425,2777.9,994.0714133126395,121.57142761775425,2887.3,994.0714133126395,121.57142761775425,2987.4,994.0714133126395,121.57142761775425,3092.5,994.0714133126395,121.57142761775425,3195.7,994.0714133126395,121.57142761775425,3297,994.0714133126395,121.57142761775425,3402.8,994.0714133126395,121.57142761775425,3505.6,994.0714133126395,121.57142761775425,3609,994.0714133126395,121.57142761775425,3715.6,994.0714133126395,121.57142761775425,3824.9,994.0714133126395,121.57142761775425,3932,994.0714133126395,121.57142761775425,4032.9,994.0714133126395,121.57142761775425,4137.5,994.0714133126395,121.57142761775425,4241,994.0714133126395,121.57142761775425,4344.8,994.0714133126395,121.57142761775425,4446.6,994.0714133126395,121.57142761775425,4554.4,994.0714133126395,121.57142761775425,4654.5,994.0714133126395,121.57142761775425,4758,994.0714133126395,121.57142761775425,4864.8,994.0714133126395,121.57142761775425,4966.8]","[5304.9,5305,2776.2,2002.4,526.4,""oops"",""up"",""down"",""bad_move"",8742.5,3437,2994.3,5305.5,442.7,""oops"",""right"",""right"",""good_move"",11785.2,3042.2,2621.9,8743,420.3,""oops"",""right"",""down"",""bad_move"",15166.9,3381.4,2225.8,11785.5,1155.6,""smooth"",""right"",""right"",""good_move"",17588,2420.2,1831.2,15167.8,589,""oops"",""right"",""up"",""good_move"",20308.7,2719.7,2282,17589,437.7,""oops"",""right"",""down"",""bad_move"",23485.9,3176.7,2747.8,20309.3,428.8,""smooth"",""right"",""right"",""good_move"",29930.9,6444.6,2381.2,27048.4,501.3,""smooth"",""up"",""up"",""good_move"",32832,2900.5,2436,29931.6,464.5,""oops"",""up"",""down"",""bad_move"",36228,3395.6,2961,32832.4,434.6,""oops"",""up"",""up"",""good_move""]"
"3162","","<div style=""width:500px;"">
  <p>What determined the result of this run?</p>
  </div>","4","html-slider-response","49","663562","0.0-7.0-1.7","77","1","2025-07-30 09:10:11","36c45c0696341be0efffe67d72a12abb","105.245.116.217","Mozilla/5.0 (Windows NT 10.0; Win64; x64) AppleWebKit/537.36 (KHTML, like Gecko) Chrome/138.0.0.0 Safari/537.36","WebKit","Chrome","138.0.0.0","Windows","10.0","https://app.prolific.com/","en-ZA,en-GB;q=0.9,en-US;q=0.8,en;q=0.7","67fa89d6790924c25e5ffb8e","687a19d2168e237449fb8af4","6889ded5c9db4da549ddde53","0","67fa89d6790924c25e5ffb8e","0","2025-07-30T09:21:16.103Z","","","","AttribQ","","","","","","","","","","","50","","","","","","","","","","","","","","","","","","","","","","","","","","",""
"2352","","<div style=""width:500px;"">
  <p>How much control did you have over the ball?</p>
  </div>","0","html-slider-response","50","665917","0.0-7.0-2.7","77","1","2025-07-30 09:10:11","36c45c0696341be0efffe67d72a12abb","105.245.116.217","Mozilla/5.0 (Windows NT 10.0; Win64; x64) AppleWebKit/537.36 (KHTML, like Gecko) Chrome/138.0.0.0 Safari/537.36","WebKit","Chrome","138.0.0.0","Windows","10.0","https://app.prolific.com/","en-ZA,en-GB;q=0.9,en-US;q=0.8,en;q=0.7","67fa89d6790924c25e5ffb8e","687a19d2168e237449fb8af4","6889ded5c9db4da549ddde53","0","67fa89d6790924c25e5ffb8e","0","2025-07-30T09:21:18.457Z","","","","ControlQ","","","","","","","","","","","50","","","","","","","","","","","","","","","","","","","","","","","","","","",""
"2815","","<div style=""width:500px;"">
  <p>How would you describe your current emotional state?</p>
  </div>","100","html-slider-response","51","668733","0.0-7.0-3.7","77","1","2025-07-30 09:10:11","36c45c0696341be0efffe67d72a12abb","105.245.116.217","Mozilla/5.0 (Windows NT 10.0; Win64; x64) AppleWebKit/537.36 (KHTML, like Gecko) Chrome/138.0.0.0 Safari/537.36","WebKit","Chrome","138.0.0.0","Windows","10.0","https://app.prolific.com/","en-ZA,en-GB;q=0.9,en-US;q=0.8,en;q=0.7","67fa89d6790924c25e5ffb8e","687a19d2168e237449fb8af4","6889ded5c9db4da549ddde53","0","67fa89d6790924c25e5ffb8e","0","2025-07-30T09:21:21.273Z","","","","StressQ","","","","","","","","","","","50","","","","","","","","","","","","","","","","","","","","","","","","","","",""
"8142","","<div style=""width:500px;"">
  <p>What best describes how you currently feel?</p>
  </div>","16","html-slider-response","52","676877","0.0-7.0-4.7","77","1","2025-07-30 09:10:11","36c45c0696341be0efffe67d72a12abb","105.245.116.217","Mozilla/5.0 (Windows NT 10.0; Win64; x64) AppleWebKit/537.36 (KHTML, like Gecko) Chrome/138.0.0.0 Safari/537.36","WebKit","Chrome","138.0.0.0","Windows","10.0","https://app.prolific.com/","en-ZA,en-GB;q=0.9,en-US;q=0.8,en;q=0.7","67fa89d6790924c25e5ffb8e","687a19d2168e237449fb8af4","6889ded5c9db4da549ddde53","0","67fa89d6790924c25e5ffb8e","0","2025-07-30T09:21:29.417Z","","","","MotivationQ","","","","","","","","","","","50","","","","","","","","","","","","","","","","","","","","","","","","","","",""
"","","","","ctl-task-cpt","53","728877","0.0-7.0-0.8","77","1","2025-07-30 09:10:11","36c45c0696341be0efffe67d72a12abb","105.245.116.217","Mozilla/5.0 (Windows NT 10.0; Win64; x64) AppleWebKit/537.36 (KHTML, like Gecko) Chrome/138.0.0.0 Safari/537.36","WebKit","Chrome","138.0.0.0","Windows","10.0","https://app.prolific.com/","en-ZA,en-GB;q=0.9,en-US;q=0.8,en;q=0.7","67fa89d6790924c25e5ffb8e","687a19d2168e237449fb8af4","6889ded5c9db4da549ddde53","0","67fa89d6790924c25e5ffb8e","0","2025-07-30T09:22:21.417Z","","","","","","","","","","","","","","","","win-only","0","g1:NW,g2:SE","0.4","9","0","679920.5","1346.1","6357","48975.4","1","4","8","6","2","-8","-9","9","18","0.06818181818181818","1044.7","3000","-1360","[""down"",""right""]","{""num_key_presses"":11,""num_perfect"":4,""num_errors"":1,""num_randdir"":6,""num_randdir_good_moves"":2,""num_whilered"":0,""num_whileblue"":1,""num_blue"":3,""num_good_moves"":6}","[427.8214133126395,416.57142761775424,0.6,427.8214133126395,416.57142761775424,112.2,426.5714133126395,416.57142761775424,214.4,425.3214133126395,416.57142761775424,329.2,425.3214133126395,421.57142761775424,443.1,560.3214133126395,564.0714276177542,547,676.5714133126395,612.8214276177542,655.1,740.3214133126395,667.8214276177542,756.9,747.8214133126395,681.5714276177542,860.6,747.8214133126395,706.5714276177542,962.9,749.0714133126395,735.3214276177542,1067.3,751.5714133126395,735.3214276177542,1179.5,752.8214133126395,735.3214276177542,1285.4,754.0714133126395,720.3214276177542,1388.2,717.8214133126395,651.5714276177542,1499.5,661.5714133126395,569.0714276177542,1610,646.5714133126395,536.5714276177542,1714,646.5714133126395,529.0714276177542,1818.9,646.5714133126395,529.0714276177542,1931.3,646.5714133126395,527.8214276177542,2031.5,691.5714133126395,491.57142761775424,2134.3,721.5714133126395,447.82142761775424,2240.3,732.8214133126395,437.82142761775424,2342,806.5714133126395,359.07142761775424,2443.4,855.3214133126395,355.32142761775424,2548.7,894.0714133126395,365.32142761775424,2650.5,905.3214133126395,366.57142761775424,2750.9,905.3214133126395,366.57142761775424,2850.9,905.3214133126395,366.57142761775424,2955.6,905.3214133126395,366.57142761775424,3057.8,905.3214133126395,366.57142761775424,3161.4,905.3214133126395,366.57142761775424,3269.8,905.3214133126395,366.57142761775424,3385.8,905.3214133126395,366.57142761775424,3491.8,905.3214133126395,366.57142761775424,3595.2,905.3214133126395,366.57142761775424,3698.7,905.3214133126395,366.57142761775424,3805.9,905.3214133126395,366.57142761775424,3906.1,905.3214133126395,366.57142761775424,4007.2,905.3214133126395,366.57142761775424,4110.9,905.3214133126395,366.57142761775424,4212.7,905.3214133126395,366.57142761775424,4326.1,905.3214133126395,366.57142761775424,4426.3,905.3214133126395,366.57142761775424,4536.6,905.3214133126395,366.57142761775424,4642.3,905.3214133126395,366.57142761775424,4742.9,905.3214133126395,366.57142761775424,4848.2,905.3214133126395,366.57142761775424,4954.1]","[4851.5,4851.5,2465.7,2009.9,375.9,""oops"",""down"",""right"",""good_move"",7862.5,3010.2,2579.8,4852.4,430.4,""oops"",""down"",""left"",""bad_move"",12314.8,4451.7,2966.1,7863.1,1485.6,""smooth"",""down"",""down"",""good_move"",15581.9,3266.2,2803.7,12315.7,462.5,""oops"",""right"",""left"",""bad_move"",18525.3,2943.2,2514.4,15582.2,428.8,""smooth"",""down"",""down"",""good_move"",20889.8,2363.9,1908.5,18525.9,455.4,""oops"",""down"",""right"",""good_move"",23448.3,2558,2134.5,20890.4,423.4,""smooth"",""down"",""down"",""good_move"",27056,3607.4,3094.5,23448.6,512.9,""smooth"",""right"",""right"",""good_move"",29948.3,2892.1,2473.7,27056.2,418.4,""while_blue"",""right"",""up"",""bad_move"",33266.5,3317.3,2768.1,29949.2,549.2,""oops"",""right"",""up"",""bad_move"",35864.1,2597.3,2040.6,33266.8,556.7,""oops"",""right"",""left"",""bad_move""]"
"18172","","<div style=""width:500px;"">
  <p>What determined the result of this run?</p>
  </div>","0","html-slider-response","54","747051","0.0-7.0-1.8","77","1","2025-07-30 09:10:11","36c45c0696341be0efffe67d72a12abb","105.245.116.217","Mozilla/5.0 (Windows NT 10.0; Win64; x64) AppleWebKit/537.36 (KHTML, like Gecko) Chrome/138.0.0.0 Safari/537.36","WebKit","Chrome","138.0.0.0","Windows","10.0","https://app.prolific.com/","en-ZA,en-GB;q=0.9,en-US;q=0.8,en;q=0.7","67fa89d6790924c25e5ffb8e","687a19d2168e237449fb8af4","6889ded5c9db4da549ddde53","0","67fa89d6790924c25e5ffb8e","0","2025-07-30T09:22:39.591Z","","","","AttribQ","","","","","","","","","","","50","","","","","","","","","","","","","","","","","","","","","","","","","","",""
"4797","","<div style=""width:500px;"">
  <p>How much control did you have over the ball?</p>
  </div>","0","html-slider-response","55","751851","0.0-7.0-2.8","77","1","2025-07-30 09:10:11","36c45c0696341be0efffe67d72a12abb","105.245.116.217","Mozilla/5.0 (Windows NT 10.0; Win64; x64) AppleWebKit/537.36 (KHTML, like Gecko) Chrome/138.0.0.0 Safari/537.36","WebKit","Chrome","138.0.0.0","Windows","10.0","https://app.prolific.com/","en-ZA,en-GB;q=0.9,en-US;q=0.8,en;q=0.7","67fa89d6790924c25e5ffb8e","687a19d2168e237449fb8af4","6889ded5c9db4da549ddde53","0","67fa89d6790924c25e5ffb8e","0","2025-07-30T09:22:44.391Z","","","","ControlQ","","","","","","","","","","","50","","","","","","","","","","","","","","","","","","","","","","","","","","",""
"5629","","<div style=""width:500px;"">
  <p>How would you describe your current emotional state?</p>
  </div>","92","html-slider-response","56","757482","0.0-7.0-3.8","77","1","2025-07-30 09:10:11","36c45c0696341be0efffe67d72a12abb","105.245.116.217","Mozilla/5.0 (Windows NT 10.0; Win64; x64) AppleWebKit/537.36 (KHTML, like Gecko) Chrome/138.0.0.0 Safari/537.36","WebKit","Chrome","138.0.0.0","Windows","10.0","https://app.prolific.com/","en-ZA,en-GB;q=0.9,en-US;q=0.8,en;q=0.7","67fa89d6790924c25e5ffb8e","687a19d2168e237449fb8af4","6889ded5c9db4da549ddde53","0","67fa89d6790924c25e5ffb8e","0","2025-07-30T09:22:50.023Z","","","","StressQ","","","","","","","","","","","50","","","","","","","","","","","","","","","","","","","","","","","","","","",""
"2968","","<div style=""width:500px;"">
  <p>What best describes how you currently feel?</p>
  </div>","0","html-slider-response","57","760455","0.0-7.0-4.8","77","1","2025-07-30 09:10:11","36c45c0696341be0efffe67d72a12abb","105.245.116.217","Mozilla/5.0 (Windows NT 10.0; Win64; x64) AppleWebKit/537.36 (KHTML, like Gecko) Chrome/138.0.0.0 Safari/537.36","WebKit","Chrome","138.0.0.0","Windows","10.0","https://app.prolific.com/","en-ZA,en-GB;q=0.9,en-US;q=0.8,en;q=0.7","67fa89d6790924c25e5ffb8e","687a19d2168e237449fb8af4","6889ded5c9db4da549ddde53","0","67fa89d6790924c25e5ffb8e","0","2025-07-30T09:22:52.995Z","","","","MotivationQ","","","","","","","","","","","50","","","","","","","","","","","","","","","","","","","","","","","","","","",""
"","","","","ctl-task-cpt","58","808809","0.0-7.0-0.9","77","1","2025-07-30 09:10:11","36c45c0696341be0efffe67d72a12abb","105.245.116.217","Mozilla/5.0 (Windows NT 10.0; Win64; x64) AppleWebKit/537.36 (KHTML, like Gecko) Chrome/138.0.0.0 Safari/537.36","WebKit","Chrome","138.0.0.0","Windows","10.0","https://app.prolific.com/","en-ZA,en-GB;q=0.9,en-US;q=0.8,en;q=0.7","67fa89d6790924c25e5ffb8e","687a19d2168e237449fb8af4","6889ded5c9db4da549ddde53","0","67fa89d6790924c25e5ffb8e","0","2025-07-30T09:23:41.349Z","","","","","","","","","","","","","","","","win-only","1","g1:NE,g2:SW","0.5","10","0","763500.1","5628.7","10645.8","45313.5","1","4","4","6","2","4","3","12","9","0.09090909090909091","1913.5","3000","1895","[""down"",""left""]","{""num_key_presses"":8,""num_perfect"":4,""num_errors"":1,""num_randdir"":3,""num_randdir_good_moves"":2,""num_whilered"":0,""num_whileblue"":1,""num_blue"":3,""num_good_moves"":7}","[411.5714133126395,420.32142761775424,0.4,411.5714133126395,421.57142761775424,117.8,411.5714133126395,421.57142761775424,234,412.8214133126395,421.57142761775424,358.4,444.0714133126395,417.82142761775424,483.5,520.3214133126395,346.57142761775424,592.5,639.0714133126395,261.57142761775424,701.7,669.0714133126395,231.57142761775424,821.1,562.8214133126395,351.57142761775424,925.8,509.0714133126395,479.07142761775424,1036.4,350.3214133126395,591.5714276177542,1142.3,230.3214133126395,654.0714276177542,1244.3,21.571413312639507,712.8214276177542,1369.8,-9.678586687360493,736.5714276177542,1493,-9.678586687360493,736.5714276177542,1613.5,-8.428586687360493,739.0714276177542,1746.4,76.5714133126395,750.3214276177542,1861,80.3214133126395,755.3214276177542,1983.4,80.3214133126395,755.3214276177542,2088.9,96.5714133126395,755.3214276177542,2195.7,115.3214133126395,754.0714276177542,2312.4,126.5714133126395,746.5714276177542,2422.3,156.5714133126395,712.8214276177542,2550.5,201.5714133126395,681.5714276177542,2669.3,201.5714133126395,681.5714276177542,2773.2,201.5714133126395,681.5714276177542,2880.2,201.5714133126395,681.5714276177542,2980.2,201.5714133126395,681.5714276177542,3092,201.5714133126395,681.5714276177542,3198.8,201.5714133126395,681.5714276177542,3325.8,201.5714133126395,681.5714276177542,3442.4,201.5714133126395,681.5714276177542,3560.6,201.5714133126395,681.5714276177542,3661,201.5714133126395,681.5714276177542,3762.9,201.5714133126395,681.5714276177542,3882.2,201.5714133126395,681.5714276177542,3986,201.5714133126395,681.5714276177542,4091.8,201.5714133126395,681.5714276177542,4207.6,201.5714133126395,681.5714276177542,4315.9,201.5714133126395,681.5714276177542,4422.5,201.5714133126395,681.5714276177542,4524.2,201.5714133126395,681.5714276177542,4630.2,201.5714133126395,681.5714276177542,4741.7,201.5714133126395,681.5714276177542,4855.8,201.5714133126395,681.5714276177542,4967.7]","[1461.7,1461.7,1000,0.1,461.6,""smooth"",""down"",""down"",""good_move"",4263.6,2801.6,2331,1462.1,470.6,""smooth"",""left"",""left"",""good_move"",13171.7,8907.5,2569.7,9894,708,""oops"",""down"",""up"",""bad_move"",19247.1,6075,5673.4,13172.1,401.6,""while_blue"",""left"",""down"",""good_move"",22123.2,2875.8,2178.8,19247.4,697,""oops"",""left"",""down"",""good_move"",24941.1,2817.9,2358.7,22123.3,459.2,""oops"",""left"",""down"",""good_move"",31742.7,6801.2,2518.2,28780,444.5,""smooth"",""left"",""left"",""good_move"",34496.7,2753.5,2263.6,31743.2,489.9,""smooth"",""left"",""left"",""good_move""]"
"5016","","<div style=""width:500px;"">
  <p>What determined the result of this run?</p>
  </div>","93","html-slider-response","59","813828","0.0-7.0-1.9","77","1","2025-07-30 09:10:11","36c45c0696341be0efffe67d72a12abb","105.245.116.217","Mozilla/5.0 (Windows NT 10.0; Win64; x64) AppleWebKit/537.36 (KHTML, like Gecko) Chrome/138.0.0.0 Safari/537.36","WebKit","Chrome","138.0.0.0","Windows","10.0","https://app.prolific.com/","en-ZA,en-GB;q=0.9,en-US;q=0.8,en;q=0.7","67fa89d6790924c25e5ffb8e","687a19d2168e237449fb8af4","6889ded5c9db4da549ddde53","0","67fa89d6790924c25e5ffb8e","0","2025-07-30T09:23:46.368Z","","","","AttribQ","","","","","","","","","","","50","","","","","","","","","","","","","","","","","","","","","","","","","","",""
"2429","","<div style=""width:500px;"">
  <p>How much control did you have over the ball?</p>
  </div>","33","html-slider-response","60","816259","0.0-7.0-2.9","77","1","2025-07-30 09:10:11","36c45c0696341be0efffe67d72a12abb","105.245.116.217","Mozilla/5.0 (Windows NT 10.0; Win64; x64) AppleWebKit/537.36 (KHTML, like Gecko) Chrome/138.0.0.0 Safari/537.36","WebKit","Chrome","138.0.0.0","Windows","10.0","https://app.prolific.com/","en-ZA,en-GB;q=0.9,en-US;q=0.8,en;q=0.7","67fa89d6790924c25e5ffb8e","687a19d2168e237449fb8af4","6889ded5c9db4da549ddde53","0","67fa89d6790924c25e5ffb8e","0","2025-07-30T09:23:48.799Z","","","","ControlQ","","","","","","","","","","","50","","","","","","","","","","","","","","","","","","","","","","","","","","",""
"8334","","<div style=""width:500px;"">
  <p>How would you describe your current emotional state?</p>
  </div>","53","html-slider-response","61","824595","0.0-7.0-3.9","77","1","2025-07-30 09:10:11","36c45c0696341be0efffe67d72a12abb","105.245.116.217","Mozilla/5.0 (Windows NT 10.0; Win64; x64) AppleWebKit/537.36 (KHTML, like Gecko) Chrome/138.0.0.0 Safari/537.36","WebKit","Chrome","138.0.0.0","Windows","10.0","https://app.prolific.com/","en-ZA,en-GB;q=0.9,en-US;q=0.8,en;q=0.7","67fa89d6790924c25e5ffb8e","687a19d2168e237449fb8af4","6889ded5c9db4da549ddde53","0","67fa89d6790924c25e5ffb8e","0","2025-07-30T09:23:57.136Z","","","","StressQ","","","","","","","","","","","50","","","","","","","","","","","","","","","","","","","","","","","","","","",""
"6235","","<div style=""width:500px;"">
  <p>What best describes how you currently feel?</p>
  </div>","85","html-slider-response","62","830832","0.0-7.0-4.9","77","1","2025-07-30 09:10:11","36c45c0696341be0efffe67d72a12abb","105.245.116.217","Mozilla/5.0 (Windows NT 10.0; Win64; x64) AppleWebKit/537.36 (KHTML, like Gecko) Chrome/138.0.0.0 Safari/537.36","WebKit","Chrome","138.0.0.0","Windows","10.0","https://app.prolific.com/","en-ZA,en-GB;q=0.9,en-US;q=0.8,en;q=0.7","67fa89d6790924c25e5ffb8e","687a19d2168e237449fb8af4","6889ded5c9db4da549ddde53","0","67fa89d6790924c25e5ffb8e","0","2025-07-30T09:24:03.372Z","","","","MotivationQ","","","","","","","","","","","50","","","","","","","","","","","","","","","","","","","","","","","","","","",""
"","","","","ctl-task-cpt","63","893835","0.0-7.0-0.10","77","1","2025-07-30 09:10:11","36c45c0696341be0efffe67d72a12abb","105.245.116.217","Mozilla/5.0 (Windows NT 10.0; Win64; x64) AppleWebKit/537.36 (KHTML, like Gecko) Chrome/138.0.0.0 Safari/537.36","WebKit","Chrome","138.0.0.0","Windows","10.0","https://app.prolific.com/","en-ZA,en-GB;q=0.9,en-US;q=0.8,en;q=0.7","67fa89d6790924c25e5ffb8e","687a19d2168e237449fb8af4","6889ded5c9db4da549ddde53","0","67fa89d6790924c25e5ffb8e","0","2025-07-30T09:25:06.375Z","","","","","","","","","","","","","","","","win-only","0","g1:NW,g2:SE","0.6","11","0","833876","768.1","5772.5","59965.8","1","4","4","6","2","4","4","16","12","0.12121212121212122","3573.3","3000","465","[""down"",""right""]","{""num_key_presses"":14,""num_perfect"":7,""num_errors"":0,""num_randdir"":7,""num_randdir_good_moves"":3,""num_whilered"":0,""num_whileblue"":0,""num_blue"":4,""num_good_moves"":10}","[416.5714133126395,412.82142761775424,0.2,416.5714133126395,412.82142761775424,103.7,416.5714133126395,412.82142761775424,207.3,416.5714133126395,412.82142761775424,325.2,416.5714133126395,396.57142761775424,436.6,415.3214133126395,367.82142761775424,546.1,409.0714133126395,342.82142761775424,654.3,356.5714133126395,240.32142761775424,760.9,356.5714133126395,237.82142761775424,867.7,436.5714133126395,346.57142761775424,975,586.5714133126395,581.5714276177542,1095.2,716.5714133126395,767.8214276177542,1197.6,721.5714133126395,772.8214276177542,1305.3,561.5714133126395,622.8214276177542,1409,296.5714133126395,424.07142761775424,1515.6,62.82141331263951,271.57142761775424,1627.8,41.57141331263951,252.82142761775424,1737,41.57141331263951,254.07142761775424,1838.6,266.5714133126395,351.57142761775424,1939.9,481.5714133126395,564.0714276177542,2041.1,627.8214133126395,742.8214276177542,2144.9,666.5714133126395,772.8214276177542,2254.8,519.0714133126395,570.3214276177542,2364.4,290.3214133126395,342.82142761775424,2470.5,207.8214133126395,287.82142761775424,2576.9,207.8214133126395,287.82142761775424,2685,326.5714133126395,384.07142761775424,2799.3,562.8214133126395,597.8214276177542,2907.1,660.3214133126395,671.5714276177542,3018.2,669.0714133126395,672.8214276177542,3118.3,712.8214133126395,706.5714276177542,3222.5,727.8214133126395,721.5714276177542,3322.6,741.5714133126395,735.3214276177542,3434.2,741.5714133126395,737.8214276177542,3544.1,741.5714133126395,737.8214276177542,3661.9,741.5714133126395,732.8214276177542,3778,745.3214133126395,711.5714276177542,3882.4,737.8214133126395,665.3214276177542,3982.5,732.8214133126395,601.5714276177542,4089.7,777.8214133126395,479.07142761775424,4221.7,801.5714133126395,356.57142761775424,4333.5,825.3214133126395,351.57142761775424,4441.3,951.5714133126395,322.82142761775424,4557.1,1206.5714133126396,272.82142761775424,4669.3,1224.0714133126396,261.57142761775424,4770.5,1226.5714133126396,259.07142761775424,4872.3,1227.8214133126396,259.07142761775424,4972.7]","[1365.2,1365.2,1000,0,365.3,""oops"",""down"",""left"",""bad_move"",4486.5,3121,2723.6,1365.6,397.4,""oops"",""down"",""up"",""bad_move"",7213.8,2726.8,2349.8,4487,377,""smooth"",""right"",""right"",""good_move"",10143.6,2929.2,2537.8,7214.4,391.4,""smooth"",""right"",""right"",""good_move"",16960.5,6816.6,1915.8,14612.7,432,""oops"",""down"",""down"",""good_move"",19961,3000.3,2639.4,16960.7,360.9,""smooth"",""down"",""down"",""good_move"",25566.9,5605.5,1709.8,23417.9,439.2,""smooth"",""down"",""down"",""good_move"",28492,2924.8,2475.3,25567.2,449.5,""smooth"",""right"",""right"",""good_move"",31451.7,2959,2597,28492.7,362,""oops"",""down"",""up"",""bad_move"",37605,6152.7,2130.4,35049.4,425.2,""smooth"",""right"",""right"",""good_move"",40546.8,2941.5,2498.6,37605.3,442.9,""oops"",""down"",""left"",""bad_move"",47959.5,7411.9,2863,44647.3,449.2,""smooth"",""down"",""down"",""good_move"",50587,2627.2,2160.1,47960,467,""oops"",""down"",""right"",""good_move"",54005.4,3417.6,3003.9,50587.8,413.7,""oops"",""down"",""down"",""good_move""]"
"2317","","<div style=""width:500px;"">
  <p>What determined the result of this run?</p>
  </div>","87","html-slider-response","64","896154","0.0-7.0-1.10","77","1","2025-07-30 09:10:11","36c45c0696341be0efffe67d72a12abb","105.245.116.217","Mozilla/5.0 (Windows NT 10.0; Win64; x64) AppleWebKit/537.36 (KHTML, like Gecko) Chrome/138.0.0.0 Safari/537.36","WebKit","Chrome","138.0.0.0","Windows","10.0","https://app.prolific.com/","en-ZA,en-GB;q=0.9,en-US;q=0.8,en;q=0.7","67fa89d6790924c25e5ffb8e","687a19d2168e237449fb8af4","6889ded5c9db4da549ddde53","0","67fa89d6790924c25e5ffb8e","0","2025-07-30T09:25:08.694Z","","","","AttribQ","","","","","","","","","","","50","","","","","","","","","","","","","","","","","","","","","","","","","","",""
"2113","","<div style=""width:500px;"">
  <p>How much control did you have over the ball?</p>
  </div>","85","html-slider-response","65","898269","0.0-7.0-2.10","77","1","2025-07-30 09:10:11","36c45c0696341be0efffe67d72a12abb","105.245.116.217","Mozilla/5.0 (Windows NT 10.0; Win64; x64) AppleWebKit/537.36 (KHTML, like Gecko) Chrome/138.0.0.0 Safari/537.36","WebKit","Chrome","138.0.0.0","Windows","10.0","https://app.prolific.com/","en-ZA,en-GB;q=0.9,en-US;q=0.8,en;q=0.7","67fa89d6790924c25e5ffb8e","687a19d2168e237449fb8af4","6889ded5c9db4da549ddde53","0","67fa89d6790924c25e5ffb8e","0","2025-07-30T09:25:10.810Z","","","","ControlQ","","","","","","","","","","","50","","","","","","","","","","","","","","","","","","","","","","","","","","",""
"2781","","<div style=""width:500px;"">
  <p>How would you describe your current emotional state?</p>
  </div>","34","html-slider-response","66","901052","0.0-7.0-3.10","77","1","2025-07-30 09:10:11","36c45c0696341be0efffe67d72a12abb","105.245.116.217","Mozilla/5.0 (Windows NT 10.0; Win64; x64) AppleWebKit/537.36 (KHTML, like Gecko) Chrome/138.0.0.0 Safari/537.36","WebKit","Chrome","138.0.0.0","Windows","10.0","https://app.prolific.com/","en-ZA,en-GB;q=0.9,en-US;q=0.8,en;q=0.7","67fa89d6790924c25e5ffb8e","687a19d2168e237449fb8af4","6889ded5c9db4da549ddde53","0","67fa89d6790924c25e5ffb8e","0","2025-07-30T09:25:13.592Z","","","","StressQ","","","","","","","","","","","50","","","","","","","","","","","","","","","","","","","","","","","","","","",""
"2062","","<div style=""width:500px;"">
  <p>What best describes how you currently feel?</p>
  </div>","69","html-slider-response","67","903118","0.0-7.0-4.10","77","1","2025-07-30 09:10:11","36c45c0696341be0efffe67d72a12abb","105.245.116.217","Mozilla/5.0 (Windows NT 10.0; Win64; x64) AppleWebKit/537.36 (KHTML, like Gecko) Chrome/138.0.0.0 Safari/537.36","WebKit","Chrome","138.0.0.0","Windows","10.0","https://app.prolific.com/","en-ZA,en-GB;q=0.9,en-US;q=0.8,en;q=0.7","67fa89d6790924c25e5ffb8e","687a19d2168e237449fb8af4","6889ded5c9db4da549ddde53","0","67fa89d6790924c25e5ffb8e","0","2025-07-30T09:25:15.658Z","","","","MotivationQ","","","","","","","","","","","50","","","","","","","","","","","","","","","","","","","","","","","","","","",""
"","","","","ctl-task-cpt","68","950579","0.0-7.0-0.11","77","1","2025-07-30 09:10:11","36c45c0696341be0efffe67d72a12abb","105.245.116.217","Mozilla/5.0 (Windows NT 10.0; Win64; x64) AppleWebKit/537.36 (KHTML, like Gecko) Chrome/138.0.0.0 Safari/537.36","WebKit","Chrome","138.0.0.0","Windows","10.0","https://app.prolific.com/","en-ZA,en-GB;q=0.9,en-US;q=0.8,en;q=0.7","67fa89d6790924c25e5ffb8e","687a19d2168e237449fb8af4","6889ded5c9db4da549ddde53","0","67fa89d6790924c25e5ffb8e","0","2025-07-30T09:26:03.119Z","","","","","","","","","","","","","","","","win-only","2","g1:SE,g2:NW","0.7","12","0","906166.9","1130.3","6134.9","44439.2","1","4","8","6","2","8","8","24","16","0.18181818181818182","1054.1","3000","1530","[""left"",""up""]","{""num_key_presses"":8,""num_perfect"":6,""num_errors"":0,""num_randdir"":2,""num_randdir_good_moves"":1,""num_whilered"":0,""num_whileblue"":0,""num_blue"":4,""num_good_moves"":7}","[411.5714133126395,416.57142761775424,0.5,411.5714133126395,416.57142761775424,102.4,411.5714133126395,416.57142761775424,208.2,409.0714133126395,420.32142761775424,317.7,381.5714133126395,425.32142761775424,418.9,237.8214133126395,381.57142761775424,536.8,186.5714133126395,325.32142761775424,656.1,155.3214133126395,241.57142761775424,758.3,136.5714133126395,195.32142761775424,863.1,109.0714133126395,135.32142761775424,968.3,96.5714133126395,111.57142761775425,1069.2,96.5714133126395,111.57142761775425,1175.1,96.5714133126395,124.07142761775425,1281.9,390.3214133126395,179.07142761775424,1397.3,791.5714133126395,239.07142761775424,1512.1,1081.5714133126396,266.57142761775424,1631.7,1105.3214133126396,270.32142761775424,1744.3,1105.3214133126396,271.57142761775424,1847.9,1107.8214133126396,271.57142761775424,1958.6,1107.8214133126396,271.57142761775424,2080.3,1107.8214133126396,271.57142761775424,2181.8,1107.8214133126396,271.57142761775424,2283.7,1107.8214133126396,271.57142761775424,2389.5,1107.8214133126396,271.57142761775424,2496.4,1107.8214133126396,271.57142761775424,2603.9,1107.8214133126396,271.57142761775424,2710.7,1107.8214133126396,271.57142761775424,2817.2,1107.8214133126396,271.57142761775424,2925.5,1107.8214133126396,271.57142761775424,3034.4,1107.8214133126396,271.57142761775424,3136,1107.8214133126396,271.57142761775424,3242.3,1107.8214133126396,271.57142761775424,3350.5,1107.8214133126396,271.57142761775424,3450.8,1107.8214133126396,271.57142761775424,3554.3,1107.8214133126396,271.57142761775424,3659.7,1107.8214133126396,271.57142761775424,3764.3,1107.8214133126396,271.57142761775424,3868.9,1107.8214133126396,271.57142761775424,3971.6,1107.8214133126396,271.57142761775424,4075.4,1107.8214133126396,271.57142761775424,4181.9,1107.8214133126396,271.57142761775424,4288.8,1107.8214133126396,271.57142761775424,4391.3,1107.8214133126396,271.57142761775424,4491.4,1107.8214133126396,271.57142761775424,4595.4,1107.8214133126396,271.57142761775424,4697.6,1107.8214133126396,271.57142761775424,4810.7,1107.8214133126396,271.57142761775424,4919.4]","[4719.8,4719.8,2302.6,2018.1,399.1,""smooth"",""up"",""up"",""good_move"",8116.2,3395.6,2965.9,4720.7,429.6,""smooth"",""up"",""up"",""good_move"",12327.9,4211.2,3661.9,8116.7,549.3,""smooth"",""left"",""left"",""good_move"",19070.7,6742,2186.2,16424,460.5,""oops"",""left"",""right"",""bad_move"",21205.2,2133.8,1619.6,19071.4,514.2,""oops"",""left"",""left"",""good_move"",24777,3571.3,3128,21205.7,443.3,""smooth"",""left"",""left"",""good_move"",34880.3,10103,2647.3,31869.5,363.5,""smooth"",""left"",""left"",""good_move"",38040.8,3160.3,2704.1,34880.5,456.2,""smooth"",""up"",""up"",""good_move""]"
"2811","","<div style=""width:500px;"">
  <p>What determined the result of this run?</p>
  </div>","100","html-slider-response","69","953392","0.0-7.0-1.11","77","1","2025-07-30 09:10:11","36c45c0696341be0efffe67d72a12abb","105.245.116.217","Mozilla/5.0 (Windows NT 10.0; Win64; x64) AppleWebKit/537.36 (KHTML, like Gecko) Chrome/138.0.0.0 Safari/537.36","WebKit","Chrome","138.0.0.0","Windows","10.0","https://app.prolific.com/","en-ZA,en-GB;q=0.9,en-US;q=0.8,en;q=0.7","67fa89d6790924c25e5ffb8e","687a19d2168e237449fb8af4","6889ded5c9db4da549ddde53","0","67fa89d6790924c25e5ffb8e","0","2025-07-30T09:26:05.932Z","","","","AttribQ","","","","","","","","","","","50","","","","","","","","","","","","","","","","","","","","","","","","","","",""
"2091","","<div style=""width:500px;"">
  <p>How much control did you have over the ball?</p>
  </div>","82","html-slider-response","70","955486","0.0-7.0-2.11","77","1","2025-07-30 09:10:11","36c45c0696341be0efffe67d72a12abb","105.245.116.217","Mozilla/5.0 (Windows NT 10.0; Win64; x64) AppleWebKit/537.36 (KHTML, like Gecko) Chrome/138.0.0.0 Safari/537.36","WebKit","Chrome","138.0.0.0","Windows","10.0","https://app.prolific.com/","en-ZA,en-GB;q=0.9,en-US;q=0.8,en;q=0.7","67fa89d6790924c25e5ffb8e","687a19d2168e237449fb8af4","6889ded5c9db4da549ddde53","0","67fa89d6790924c25e5ffb8e","0","2025-07-30T09:26:08.026Z","","","","ControlQ","","","","","","","","","","","50","","","","","","","","","","","","","","","","","","","","","","","","","","",""
"2320","","<div style=""width:500px;"">
  <p>How would you describe your current emotional state?</p>
  </div>","11","html-slider-response","71","957808","0.0-7.0-3.11","77","1","2025-07-30 09:10:11","36c45c0696341be0efffe67d72a12abb","105.245.116.217","Mozilla/5.0 (Windows NT 10.0; Win64; x64) AppleWebKit/537.36 (KHTML, like Gecko) Chrome/138.0.0.0 Safari/537.36","WebKit","Chrome","138.0.0.0","Windows","10.0","https://app.prolific.com/","en-ZA,en-GB;q=0.9,en-US;q=0.8,en;q=0.7","67fa89d6790924c25e5ffb8e","687a19d2168e237449fb8af4","6889ded5c9db4da549ddde53","0","67fa89d6790924c25e5ffb8e","0","2025-07-30T09:26:10.348Z","","","","StressQ","","","","","","","","","","","50","","","","","","","","","","","","","","","","","","","","","","","","","","",""
"2091","","<div style=""width:500px;"">
  <p>What best describes how you currently feel?</p>
  </div>","79","html-slider-response","72","959902","0.0-7.0-4.11","77","1","2025-07-30 09:10:11","36c45c0696341be0efffe67d72a12abb","105.245.116.217","Mozilla/5.0 (Windows NT 10.0; Win64; x64) AppleWebKit/537.36 (KHTML, like Gecko) Chrome/138.0.0.0 Safari/537.36","WebKit","Chrome","138.0.0.0","Windows","10.0","https://app.prolific.com/","en-ZA,en-GB;q=0.9,en-US;q=0.8,en;q=0.7","67fa89d6790924c25e5ffb8e","687a19d2168e237449fb8af4","6889ded5c9db4da549ddde53","0","67fa89d6790924c25e5ffb8e","0","2025-07-30T09:26:12.442Z","","","","MotivationQ","","","","","","","","","","","50","","","","","","","","","","","","","","","","","","","","","","","","","","",""
"","","","","ctl-task-cpt","73","1014891","0.0-7.0-0.12","77","1","2025-07-30 09:10:11","36c45c0696341be0efffe67d72a12abb","105.245.116.217","Mozilla/5.0 (Windows NT 10.0; Win64; x64) AppleWebKit/537.36 (KHTML, like Gecko) Chrome/138.0.0.0 Safari/537.36","WebKit","Chrome","138.0.0.0","Windows","10.0","https://app.prolific.com/","en-ZA,en-GB;q=0.9,en-US;q=0.8,en;q=0.7","67fa89d6790924c25e5ffb8e","687a19d2168e237449fb8af4","6889ded5c9db4da549ddde53","0","67fa89d6790924c25e5ffb8e","0","2025-07-30T09:27:07.431Z","","","","","","","","","","","","","","","","win-only","3","g1:SW,g2:NE","0.8","13","0","962946.9","925.4","5943.3","51956.9","1","4","4","6","2","4","4","28","24","0.21212121212121213","902","3000","1400","[""up"",""right""]","{""num_key_presses"":10,""num_perfect"":8,""num_errors"":0,""num_randdir"":2,""num_randdir_good_moves"":0,""num_whilered"":0,""num_whileblue"":0,""num_blue"":5,""num_good_moves"":8}","[411.5714133126395,411.57142761775424,0.5,411.5714133126395,411.57142761775424,109.3,411.5714133126395,411.57142761775424,219.8,426.5714133126395,411.57142761775424,325.8,607.8214133126395,297.82142761775424,426.7,656.5714133126395,211.57142761775424,529.9,712.8214133126395,146.57142761775424,642.3,739.0714133126395,117.82142761775425,751.8,755.3214133126395,94.07142761775425,857.2,756.5714133126395,91.57142761775425,958,756.5714133126395,91.57142761775425,1064.8,749.0714133126395,116.57142761775425,1165.2,690.3214133126395,237.82142761775424,1275.1,662.8214133126395,361.57142761775424,1376.4,654.0714133126395,401.57142761775424,1484.2,655.3214133126395,444.07142761775424,1591.9,687.8214133126395,456.57142761775424,1692.5,811.5714133126395,431.57142761775424,1800.2,926.5714133126395,386.57142761775424,1904,1091.5714133126396,331.57142761775424,2018,1095.3214133126396,302.82142761775424,2119.6,1100.3214133126396,301.57142761775424,2222.4,1101.5714133126396,301.57142761775424,2324.1,1077.8214133126396,306.57142761775424,2426.8,1077.8214133126396,307.82142761775424,2532.9,1077.8214133126396,307.82142761775424,2643,1077.8214133126396,307.82142761775424,2750.9,1077.8214133126396,307.82142761775424,2853.7,1077.8214133126396,307.82142761775424,2958.5,1077.8214133126396,307.82142761775424,3068.3,1077.8214133126396,307.82142761775424,3180.8,1077.8214133126396,307.82142761775424,3288.2,1077.8214133126396,307.82142761775424,3389.8,1077.8214133126396,307.82142761775424,3493.9,1077.8214133126396,307.82142761775424,3602.2,1077.8214133126396,307.82142761775424,3709.6,1077.8214133126396,307.82142761775424,3819.6,1077.8214133126396,307.82142761775424,3921.1,1077.8214133126396,307.82142761775424,4021.5,1077.8214133126396,307.82142761775424,4126.3,1077.8214133126396,307.82142761775424,4227.3,1077.8214133126396,307.82142761775424,4331.4,1077.8214133126396,307.82142761775424,4436,1077.8214133126396,307.82142761775424,4537.3,1077.8214133126396,307.82142761775424,4651.3,1077.8214133126396,307.82142761775424,4752,1077.8214133126396,307.82142761775424,4853.4,1077.8214133126396,307.82142761775424,4953.5]","[1470.4,1470.4,1000,0,470.4,""oops"",""up"",""left"",""bad_move"",8234.9,6763.9,2791.2,5059,384.7,""smooth"",""up"",""up"",""good_move"",11390.8,3155.3,2675.4,8235.5,479.9,""smooth"",""up"",""up"",""good_move"",20808.3,9416.7,2230,18176.3,402,""smooth"",""right"",""right"",""good_move"",23846.4,3037.5,2630.1,20808.9,407.4,""smooth"",""right"",""right"",""good_move"",26081.5,2234.9,1737.3,23846.6,497.6,""smooth"",""right"",""right"",""good_move"",32365.5,6283.7,2544.5,29467.6,353.5,""smooth"",""up"",""up"",""good_move"",35492.4,3126.3,2743.4,32366.2,382.8,""oops"",""right"",""left"",""bad_move"",38273.6,2780.7,2370,35492.9,410.7,""smooth"",""right"",""right"",""good_move"",45796.8,7522.5,3034.2,42320.4,442.2,""smooth"",""right"",""right"",""good_move""]"
"2944","","<div style=""width:500px;"">
  <p>What determined the result of this run?</p>
  </div>","7","html-slider-response","74","1017838","0.0-7.0-1.12","77","1","2025-07-30 09:10:11","36c45c0696341be0efffe67d72a12abb","105.245.116.217","Mozilla/5.0 (Windows NT 10.0; Win64; x64) AppleWebKit/537.36 (KHTML, like Gecko) Chrome/138.0.0.0 Safari/537.36","WebKit","Chrome","138.0.0.0","Windows","10.0","https://app.prolific.com/","en-ZA,en-GB;q=0.9,en-US;q=0.8,en;q=0.7","67fa89d6790924c25e5ffb8e","687a19d2168e237449fb8af4","6889ded5c9db4da549ddde53","0","67fa89d6790924c25e5ffb8e","0","2025-07-30T09:27:10.378Z","","","","AttribQ","","","","","","","","","","","50","","","","","","","","","","","","","","","","","","","","","","","","","","",""
"2676","","<div style=""width:500px;"">
  <p>How much control did you have over the ball?</p>
  </div>","31","html-slider-response","75","1020517","0.0-7.0-2.12","77","1","2025-07-30 09:10:11","36c45c0696341be0efffe67d72a12abb","105.245.116.217","Mozilla/5.0 (Windows NT 10.0; Win64; x64) AppleWebKit/537.36 (KHTML, like Gecko) Chrome/138.0.0.0 Safari/537.36","WebKit","Chrome","138.0.0.0","Windows","10.0","https://app.prolific.com/","en-ZA,en-GB;q=0.9,en-US;q=0.8,en;q=0.7","67fa89d6790924c25e5ffb8e","687a19d2168e237449fb8af4","6889ded5c9db4da549ddde53","0","67fa89d6790924c25e5ffb8e","0","2025-07-30T09:27:13.057Z","","","","ControlQ","","","","","","","","","","","50","","","","","","","","","","","","","","","","","","","","","","","","","","",""
"2842","","<div style=""width:500px;"">
  <p>How would you describe your current emotional state?</p>
