"rt","response_timestamp","stimulus","response","trial_type","trial_index","time_elapsed","internal_node_id","run_id","condition","recorded_at","source_code_version","ip","user_agent","device","browser","browser_version","platform","platform_version","referer","accept_language","PROLIFIC_PID","STUDY_ID","SESSION_ID","BATCH","prolific_id","batch","realtime","success","question_order","question_id","eventType","responses","item_order","radio_event_ids","radio_event_times","key_event_times","mouse_event_times","straightlining","zigzagging","honeypot","view_history","slider_start","which_type","canvas_config","goals_layout","control_level","trial_number","tutorial_trial_number","trial_start_time","phase1_start_time","phase2_start_time","phase3_start_time","goal_1_value","goal_1_distance","goal_2_value","goal_2_distance","goal_selected","outcome","outcome_total","participant_final_score","participant_initial_score","participant_final_score_prop","goal_choice_rt","allocated_time","allocated_time_remaining","goal_direction","counts","mouse_movements","key_presses"
"104937","1753864914458","<p style='font-size:40px;line-height:1.25'><strong>Welcome to the experiment!</strong></p><p style='font-size:1.1em;line-height:1.25'>Thank you for participanting in our experiment again! You will be asked to play the Dysfunctional Ball Game again. We will briefly recap the rules before we start.</p><p style='font-size:1.1em;line-height:1.25'>Press <strong>Next</strong> to continue.</p>","0","custom-html-button-response","0","104939","0.0-0.0","22","1","2025-07-30 08:40:06","36c45c0696341be0efffe67d72a12abb","41.13.124.92","Mozilla/5.0 (Windows NT 10.0; Win64; x64) AppleWebKit/537.36 (KHTML, like Gecko) Chrome/138.0.0.0 Safari/537.36","WebKit","Chrome","138.0.0.0","Windows","10.0","https://app.prolific.com/","en-US,en;q=0.9","67fb8218748357094cba6869","687a19d2168e237449fb8af4","6889da0f4c0ff61c11c77f41","0","67fb8218748357094cba6869","0","2025-07-30T08:41:54.459Z","","","","","","","","","","","","","","","","","","","","","","","","","","","","","","","","","","","","","","","","","",""
"15054","","","","fullscreen","1","121002","0.0-1.0","22","1","2025-07-30 08:40:06","36c45c0696341be0efffe67d72a12abb","41.13.124.92","Mozilla/5.0 (Windows NT 10.0; Win64; x64) AppleWebKit/537.36 (KHTML, like Gecko) Chrome/138.0.0.0 Safari/537.36","WebKit","Chrome","138.0.0.0","Windows","10.0","https://app.prolific.com/","en-US,en;q=0.9","67fb8218748357094cba6869","687a19d2168e237449fb8af4","6889da0f4c0ff61c11c77f41","0","67fb8218748357094cba6869","0","","true","","","","","","","","","","","","","","","","","","","","","","","","","","","","","","","","","","","","","","","","",""
"5240","1753864935762"," <p style='font-size:1.1em;line-height:1.25'>Thank you for closing all other tabs.</p><p style='font-size:1.1em;line-height:1.25'>We will now invite you to fill in some questionnaires, before starting the game.<br>This will take about 5 minutes.<br></p><p style='font-size:1.1em;line-height:1.25'>Press the <strong>Next</strong> button to continue.</p>","0","custom-html-button-response","2","126243","0.0-2.0","22","1","2025-07-30 08:40:06","36c45c0696341be0efffe67d72a12abb","41.13.124.92","Mozilla/5.0 (Windows NT 10.0; Win64; x64) AppleWebKit/537.36 (KHTML, like Gecko) Chrome/138.0.0.0 Safari/537.36","WebKit","Chrome","138.0.0.0","Windows","10.0","https://app.prolific.com/","en-US,en;q=0.9","67fb8218748357094cba6869","687a19d2168e237449fb8af4","6889da0f4c0ff61c11c77f41","0","67fb8218748357094cba6869","0","2025-07-30T08:42:15.763Z","","","","","","","","","","","","","","","","","","","","","","","","","","","","","","","","","","","","","","","","","",""
"6368","","","{""assigned_sex"":""male""}","survey-multi-choice","3","132613","0.0-3.0-0.0","22","1","2025-07-30 08:40:06","36c45c0696341be0efffe67d72a12abb","41.13.124.92","Mozilla/5.0 (Windows NT 10.0; Win64; x64) AppleWebKit/537.36 (KHTML, like Gecko) Chrome/138.0.0.0 Safari/537.36","WebKit","Chrome","138.0.0.0","Windows","10.0","https://app.prolific.com/","en-US,en;q=0.9","67fb8218748357094cba6869","687a19d2168e237449fb8af4","6889da0f4c0ff61c11c77f41","0","67fb8218748357094cba6869","0","","","[0]","0","demographics","","","","","","","","","","","","","","","","","","","","","","","","","","","","","","","","","","","","","",""
"1457","1753864943591","<p style='font-size:1.1em;line-height:1.25'>In the following, we will perform a baseline assessment. This means that we will ask you a few questions relating to your experiences over the past month.<br></p><p style='font-size:1.1em;line-height:1.25'>Press the <strong>Next</strong> button to continue.</p>","0","custom-html-button-response","4","134071","0.0-4.0-0.0","22","1","2025-07-30 08:40:06","36c45c0696341be0efffe67d72a12abb","41.13.124.92","Mozilla/5.0 (Windows NT 10.0; Win64; x64) AppleWebKit/537.36 (KHTML, like Gecko) Chrome/138.0.0.0 Safari/537.36","WebKit","Chrome","138.0.0.0","Windows","10.0","https://app.prolific.com/","en-US,en;q=0.9","67fb8218748357094cba6869","687a19d2168e237449fb8af4","6889da0f4c0ff61c11c77f41","0","67fb8218748357094cba6869","0","2025-07-30T08:42:23.591Z","","","","","","","","","","","","","","","","","","","","","","","","","","","","","","","","","","","","","","","","","",""
"35114.09999999963","","","","survey-template","5","169189","0.0-4.0-1.0","22","1","2025-07-30 08:40:06","36c45c0696341be0efffe67d72a12abb","41.13.124.92","Mozilla/5.0 (Windows NT 10.0; Win64; x64) AppleWebKit/537.36 (KHTML, like Gecko) Chrome/138.0.0.0 Safari/537.36","WebKit","Chrome","138.0.0.0","Windows","10.0","https://app.prolific.com/","en-US,en;q=0.9","67fb8218748357094cba6869","687a19d2168e237449fb8af4","6889da0f4c0ff61c11c77f41","0","67fb8218748357094cba6869","0","2025-07-30T08:42:58.709Z","","","","pss","{""Q01"":""2"",""Q02"":""2"",""Q03"":""1"",""Q04"":""3"",""Q05"":""2"",""Q06"":""1"",""Q07"":""2"",""Q08"":""1"",""Q09"":""3"",""Q10"":""2""}","[0,1,2,3,4,5,6,7,8,9]","[""Q01"",""Q02"",""Q03"",""Q03"",""Q04"",""Q04"",""Q05"",""Q06"",""Q07"",""Q08"",""Q09"",""Q10""]","[7542.5,9261.599999999627,10797.200000000186,15200.799999999814,17867,19387.599999999627,21480.89999999944,26113.299999999814,27178,31199.89999999944,32563.599999999627,33700.5]","[]","[0,5744.799999999814,5877.5999999996275,6112.200000000186,6847.5999999996275,7542.5,9261.599999999627,10797.200000000186,15200.799999999814,17060.5,17867,19387.599999999627,20787.89999999944,21480.89999999944,22115.299999999814,25270.599999999627,26113.299999999814,27178,27905.200000000186,28916.099999999627,30396.700000000186,31199.89999999944,32563.599999999627,33700.5,35111.09999999963]","0.5","0.6666666666666666","0","","","","","","","","","","","","","","","","","","","","","","","","","","","","",""
"6089","1753864984799","<p style='font-size:1.1em;line-height:1.25'>Thank you for your answers! Now we will ask you a few more questions relating to your feelings in the last 24 hours.<br></p><p style='font-size:1.1em;line-height:1.25'>Press the <strong>Next</strong> button to continue.</p>","0","custom-html-button-response","6","175280","0.0-4.0-2.0","22","1","2025-07-30 08:40:06","36c45c0696341be0efffe67d72a12abb","41.13.124.92","Mozilla/5.0 (Windows NT 10.0; Win64; x64) AppleWebKit/537.36 (KHTML, like Gecko) Chrome/138.0.0.0 Safari/537.36","WebKit","Chrome","138.0.0.0","Windows","10.0","https://app.prolific.com/","en-US,en;q=0.9","67fb8218748357094cba6869","687a19d2168e237449fb8af4","6889da0f4c0ff61c11c77f41","0","67fb8218748357094cba6869","0","2025-07-30T08:43:04.800Z","","","","","","","","","","","","","","","","","","","","","","","","","","","","","","","","","","","","","","","","","",""
"126331.5","","","","survey-template","7","301618","0.0-4.0-3.0","22","1","2025-07-30 08:40:06","36c45c0696341be0efffe67d72a12abb","41.13.124.92","Mozilla/5.0 (Windows NT 10.0; Win64; x64) AppleWebKit/537.36 (KHTML, like Gecko) Chrome/138.0.0.0 Safari/537.36","WebKit","Chrome","138.0.0.0","Windows","10.0","https://app.prolific.com/","en-US,en;q=0.9","67fb8218748357094cba6869","687a19d2168e237449fb8af4","6889da0f4c0ff61c11c77f41","0","67fb8218748357094cba6869","0","2025-07-30T08:45:11.138Z","","","","drsp","{""Q01"":""0"",""Q02"":""0"",""Q03"":""0"",""Q04"":""0"",""Q05"":""2"",""Q06"":""2"",""Q07"":""2"",""Q08"":""1"",""Q09"":""1"",""Q10"":""0"",""Q11"":""0"",""Q12"":""4"",""Q13"":""2"",""Q14"":""1"",""Q15"":""1"",""Q16"":""1"",""Q17"":""1"",""Q18"":""1"",""Q19"":""0"",""Q20"":""0"",""Q21"":""1"",""Q22"":""1""}","[0,1,2,3,4,5,6,7,8,9,10,11,12,13,14,15,16,17,18,19,20,21]","[""Q01"",""Q01"",""Q02"",""Q03"",""Q04"",""Q05"",""Q07"",""Q06"",""Q08"",""Q09"",""Q10"",""Q11"",""Q12"",""Q12"",""Q13"",""Q14"",""Q15"",""Q16"",""Q22"",""Q21"",""Q20"",""Q19"",""Q18"",""Q17""]","[60984.299999999814,66453.20000000019,67946.60000000056,69359.10000000056,71555.5,73351.79999999981,81863,82847.29999999981,84506.29999999981,89277.29999999981,91508.90000000037,93178,95999.20000000019,99591.10000000056,103035.20000000019,106273.5,107414.29999999981,108768.70000000019,111750.5,115694.70000000019,117418.20000000019,118363.20000000019,120705.5,122664.20000000019]","[]","[0,60984.299999999814,61811,64212.10000000056,65192.60000000056,66453.20000000019,67133.79999999981,67946.60000000056,68513.29999999981,69359.10000000056,70229.20000000019,71555.5,73351.79999999981,74550.10000000056,75234.40000000037,77032.29999999981,78135.29999999981,79729.5,80551.79999999981,81863,82847.29999999981,84506.29999999981,89277.29999999981,90076,91508.90000000037,92373.90000000037,93178,94293.70000000019,95172.29999999981,95999.20000000019,99591.10000000056,100366.29999999981,101357.10000000056,102051.20000000019,103035.20000000019,104257.20000000019,104890.20000000019,106273.5,107414.29999999981,108768.70000000019,111750.5,112651.29999999981,113938.20000000019,115055.70000000019,115694.70000000019,116593.60000000056,117418.20000000019,118363.20000000019,119443.29999999981,120705.5,121648.60000000056,122664.20000000019,125313.20000000019,126325.79999999981]","0.4090909090909091","0.23809523809523808","0","","","","","","","","","","","","","","","","","","","","","","","","","","","","",""
"14755.900000000373","","","","survey-template","8","316377","0.0-4.0-4.0","22","1","2025-07-30 08:40:06","36c45c0696341be0efffe67d72a12abb","41.13.124.92","Mozilla/5.0 (Windows NT 10.0; Win64; x64) AppleWebKit/537.36 (KHTML, like Gecko) Chrome/138.0.0.0 Safari/537.36","WebKit","Chrome","138.0.0.0","Windows","10.0","https://app.prolific.com/","en-US,en;q=0.9","67fb8218748357094cba6869","687a19d2168e237449fb8af4","6889da0f4c0ff61c11c77f41","0","67fb8218748357094cba6869","0","2025-07-30T08:45:25.897Z","","","","stress","{""Q01"":""0"",""Q02"":""5"",""Q03"":""0""}","[0,1,2]","[""Q01"",""Q02"",""Q03""]","[6125.700000000186,7791.5999999996275,12621]","[]","[5359.5999999996275,6125.700000000186,7137.0999999996275,7791.5999999996275,11314,12621,14754.400000000373]","1","0","0","","","","","","","","","","","","","","","","","","","","","","","","","","","","",""
"164812","","","","instructions","9","481189","0.0-5.0-0.0","22","1","2025-07-30 08:40:06","36c45c0696341be0efffe67d72a12abb","41.13.124.92","Mozilla/5.0 (Windows NT 10.0; Win64; x64) AppleWebKit/537.36 (KHTML, like Gecko) Chrome/138.0.0.0 Safari/537.36","WebKit","Chrome","138.0.0.0","Windows","10.0","https://app.prolific.com/","en-US,en;q=0.9","67fb8218748357094cba6869","687a19d2168e237449fb8af4","6889da0f4c0ff61c11c77f41","0","67fb8218748357094cba6869","0","","","","","","","","","","","","","","","[{""page_index"":0,""viewing_time"":164811}]","","","","","","","","","","","","","","","","","","","","","","","","","","","",""
"8460","","<p>Before you start with this game please answer the following three questions yourself. </p>
  <p>Through this game, we measure several aspects of your cognitive performance, such as reaction times, multi-tasking capabilities </p>
  <p>and the ability to assess the situation you are in.</p>
  <p></p>
  <p><b>How good do you usually are in such tasks?</b></p>","90","html-slider-response","10","489650","0.0-6.0-0.0","22","1","2025-07-30 08:40:06","36c45c0696341be0efffe67d72a12abb","41.13.124.92","Mozilla/5.0 (Windows NT 10.0; Win64; x64) AppleWebKit/537.36 (KHTML, like Gecko) Chrome/138.0.0.0 Safari/537.36","WebKit","Chrome","138.0.0.0","Windows","10.0","https://app.prolific.com/","en-US,en;q=0.9","67fb8218748357094cba6869","687a19d2168e237449fb8af4","6889da0f4c0ff61c11c77f41","0","67fb8218748357094cba6869","0","2025-07-30T08:48:19.170Z","","","","PreSkillQ","","","","","","","","","","","50","","","","","","","","","","","","","","","","","","","","","","","","","","",""
"6796","","<div style=""width:500px;"">
  <p>How well do you think you will perform in this task compared to other participants?</p>
  </div>","89","html-slider-response","11","496448","0.0-6.0-1.0","22","1","2025-07-30 08:40:06","36c45c0696341be0efffe67d72a12abb","41.13.124.92","Mozilla/5.0 (Windows NT 10.0; Win64; x64) AppleWebKit/537.36 (KHTML, like Gecko) Chrome/138.0.0.0 Safari/537.36","WebKit","Chrome","138.0.0.0","Windows","10.0","https://app.prolific.com/","en-US,en;q=0.9","67fb8218748357094cba6869","687a19d2168e237449fb8af4","6889da0f4c0ff61c11c77f41","0","67fb8218748357094cba6869","0","2025-07-30T08:48:25.968Z","","","","PrePerfQ","","","","","","","","","","","50","","","","","","","","","","","","","","","","","","","","","","","","","","",""
"4474","","<div style=""width:500px;"">
  <p>What best describes how you currently feel?</p>
  </div>","79","html-slider-response","12","500923","0.0-6.0-2.0","22","1","2025-07-30 08:40:06","36c45c0696341be0efffe67d72a12abb","41.13.124.92","Mozilla/5.0 (Windows NT 10.0; Win64; x64) AppleWebKit/537.36 (KHTML, like Gecko) Chrome/138.0.0.0 Safari/537.36","WebKit","Chrome","138.0.0.0","Windows","10.0","https://app.prolific.com/","en-US,en;q=0.9","67fb8218748357094cba6869","687a19d2168e237449fb8af4","6889da0f4c0ff61c11c77f41","0","67fb8218748357094cba6869","0","2025-07-30T08:48:30.443Z","","","","PreMotivationQ","","","","","","","","","","","50","","","","","","","","","","","","","","","","","","","","","","","","","","",""
"","","","","ctl-task-cpt","13","515553","0.0-7.0-0.0","22","1","2025-07-30 08:40:06","36c45c0696341be0efffe67d72a12abb","41.13.124.92","Mozilla/5.0 (Windows NT 10.0; Win64; x64) AppleWebKit/537.36 (KHTML, like Gecko) Chrome/138.0.0.0 Safari/537.36","WebKit","Chrome","138.0.0.0","Windows","10.0","https://app.prolific.com/","en-US,en;q=0.9","67fb8218748357094cba6869","687a19d2168e237449fb8af4","6889da0f4c0ff61c11c77f41","0","67fb8218748357094cba6869","0","2025-07-30T08:48:45.073Z","","","","","","","","","","","","","","","","win-only","3","g1:SW,g2:NE","1","1","0","504951.4","2573.5","7577.2","11623.4","1","4","8","6","1","-1","-1","0","0","0","2299.5","3000","-3005","[""down"",""left""]","{""num_key_presses"":0,""num_perfect"":0,""num_errors"":0,""num_randdir"":0,""num_randdir_good_moves"":0,""num_whilered"":0,""num_whileblue"":0,""num_blue"":0,""num_good_moves"":0}","[302.22232142857143,299.12857142857143,0.4,302.22232142857143,299.12857142857143,102.1,302.22232142857143,299.12857142857143,202.5,302.22232142857143,299.12857142857143,302.8,302.22232142857143,299.12857142857143,408,302.22232142857143,299.12857142857143,512.2,302.22232142857143,299.12857142857143,613.3,300.22232142857143,300.12857142857143,717.1,272.22232142857143,335.12857142857143,817.2,269.22232142857143,338.12857142857143,917.2,269.22232142857143,337.12857142857143,1017.3,269.22232142857143,337.12857142857143,1121.9,269.22232142857143,337.12857142857143,1223.2,269.22232142857143,337.12857142857143,1327.3,269.22232142857143,337.12857142857143,1427.8,269.22232142857143,337.12857142857143,1532.5,269.22232142857143,337.12857142857143,1637.8,269.22232142857143,337.12857142857143,1742.2,269.22232142857143,337.12857142857143,1847.7,155.22232142857143,465.12857142857143,1952.2,41.222321428571426,544.1285714285714,2052.2,33.222321428571426,544.1285714285714,2156.9,33.222321428571426,544.1285714285714,2257.7,33.222321428571426,544.1285714285714,2362.5,33.222321428571426,544.1285714285714,2463.1,33.222321428571426,544.1285714285714,2563.4,271.22232142857143,278.12857142857143,2663.4,389.22232142857143,174.12857142857143,2764.8,405.22232142857143,157.12857142857143,2867.5,409.22232142857143,157.12857142857143,2972,424.22232142857143,142.12857142857143,3072.5,311.22232142857143,260.12857142857143,3177.7,202.22232142857143,370.12857142857143,3282.2,179.22232142857143,401.12857142857143,3387.6,91.22232142857143,502.12857142857143,3492.1,63.222321428571426,541.1285714285714,3592.8,63.222321428571426,541.1285714285714,3693.4,63.222321428571426,541.1285714285714,3798.9,63.222321428571426,541.1285714285714,3902.4,63.222321428571426,541.1285714285714,4007.1,63.222321428571426,541.1285714285714,4107.1,63.222321428571426,541.1285714285714,4208.2,63.222321428571426,541.1285714285714,4313.2,111.22232142857143,498.12857142857143,4413.2,407.22232142857143,308.12857142857143,4513.5,410.22232142857143,306.12857142857143,4617.5,410.22232142857143,306.12857142857143,4723.4,357.22232142857143,311.12857142857143,4828.6,333.22232142857143,313.12857142857143,4932.7]","[]"
"8909","","<div style=""width:500px;"">
  <p>What determined the result of this run?</p>
  </div>","55","html-slider-response","14","524464","0.0-7.0-1.0","22","1","2025-07-30 08:40:06","36c45c0696341be0efffe67d72a12abb","41.13.124.92","Mozilla/5.0 (Windows NT 10.0; Win64; x64) AppleWebKit/537.36 (KHTML, like Gecko) Chrome/138.0.0.0 Safari/537.36","WebKit","Chrome","138.0.0.0","Windows","10.0","https://app.prolific.com/","en-US,en;q=0.9","67fb8218748357094cba6869","687a19d2168e237449fb8af4","6889da0f4c0ff61c11c77f41","0","67fb8218748357094cba6869","0","2025-07-30T08:48:53.984Z","","","","AttribQ","","","","","","","","","","","50","","","","","","","","","","","","","","","","","","","","","","","","","","",""
"19535","","<div style=""width:500px;"">
  <p>How much control did you have over the ball?</p>
  </div>","56","html-slider-response","15","544001","0.0-7.0-2.0","22","1","2025-07-30 08:40:06","36c45c0696341be0efffe67d72a12abb","41.13.124.92","Mozilla/5.0 (Windows NT 10.0; Win64; x64) AppleWebKit/537.36 (KHTML, like Gecko) Chrome/138.0.0.0 Safari/537.36","WebKit","Chrome","138.0.0.0","Windows","10.0","https://app.prolific.com/","en-US,en;q=0.9","67fb8218748357094cba6869","687a19d2168e237449fb8af4","6889da0f4c0ff61c11c77f41","0","67fb8218748357094cba6869","0","2025-07-30T08:49:13.521Z","","","","ControlQ","","","","","","","","","","","50","","","","","","","","","","","","","","","","","","","","","","","","","","",""
"7372","","<div style=""width:500px;"">
  <p>How would you describe your current emotional state?</p>
  </div>","26","html-slider-response","16","551374","0.0-7.0-3.0","22","1","2025-07-30 08:40:06","36c45c0696341be0efffe67d72a12abb","41.13.124.92","Mozilla/5.0 (Windows NT 10.0; Win64; x64) AppleWebKit/537.36 (KHTML, like Gecko) Chrome/138.0.0.0 Safari/537.36","WebKit","Chrome","138.0.0.0","Windows","10.0","https://app.prolific.com/","en-US,en;q=0.9","67fb8218748357094cba6869","687a19d2168e237449fb8af4","6889da0f4c0ff61c11c77f41","0","67fb8218748357094cba6869","0","2025-07-30T08:49:20.894Z","","","","StressQ","","","","","","","","","","","50","","","","","","","","","","","","","","","","","","","","","","","","","","",""
"4955","","<div style=""width:500px;"">
  <p>What best describes how you currently feel?</p>
  </div>","87","html-slider-response","17","556330","0.0-7.0-4.0","22","1","2025-07-30 08:40:06","36c45c0696341be0efffe67d72a12abb","41.13.124.92","Mozilla/5.0 (Windows NT 10.0; Win64; x64) AppleWebKit/537.36 (KHTML, like Gecko) Chrome/138.0.0.0 Safari/537.36","WebKit","Chrome","138.0.0.0","Windows","10.0","https://app.prolific.com/","en-US,en;q=0.9","67fb8218748357094cba6869","687a19d2168e237449fb8af4","6889da0f4c0ff61c11c77f41","0","67fb8218748357094cba6869","0","2025-07-30T08:49:25.850Z","","","","MotivationQ","","","","","","","","","","","50","","","","","","","","","","","","","","","","","","","","","","","","","","",""
"","","","","ctl-task-cpt","18","590124","0.0-7.0-0.1","22","1","2025-07-30 08:40:06","36c45c0696341be0efffe67d72a12abb","41.13.124.92","Mozilla/5.0 (Windows NT 10.0; Win64; x64) AppleWebKit/537.36 (KHTML, like Gecko) Chrome/138.0.0.0 Safari/537.36","WebKit","Chrome","138.0.0.0","Windows","10.0","https://app.prolific.com/","en-US,en;q=0.9","67fb8218748357094cba6869","687a19d2168e237449fb8af4","6889da0f4c0ff61c11c77f41","0","67fb8218748357094cba6869","0","2025-07-30T08:49:59.644Z","","","","","","","","","","","","","","","","win-only","1","g1:NE,g2:SW","0.9","2","0","560358.4","5524.8","10525.5","30776.6","1","4","4","6","2","-4","-6","0","0","0","4373","3000","-3015","[""down"",""left""]","{""num_key_presses"":8,""num_perfect"":3,""num_errors"":2,""num_randdir"":0,""num_randdir_good_moves"":0,""num_whilered"":3,""num_whileblue"":0,""num_blue"":1,""num_good_moves"":3}","[296.22232142857143,292.12857142857143,0.3,296.22232142857143,292.12857142857143,102,296.22232142857143,292.12857142857143,205.8,296.22232142857143,292.12857142857143,306.9,296.22232142857143,292.12857142857143,412,299.22232142857143,290.12857142857143,516.4,319.22232142857143,285.12857142857143,617,320.22232142857143,282.12857142857143,723,343.22232142857143,259.12857142857143,825.6,350.22232142857143,253.12857142857143,925.8,371.22232142857143,220.12857142857143,1031,449.22232142857143,91.12857142857143,1136.7,496.22232142857143,33.128571428571426,1241.1,498.22232142857143,32.128571428571426,1341.6,507.22232142857143,34.128571428571426,1445.8,559.2223214285714,45.128571428571426,1546.1,564.2223214285714,46.128571428571426,1646.2,552.2223214285714,55.128571428571426,1746.6,537.2223214285714,60.128571428571426,1852,499.22232142857143,102.12857142857143,1957.1,381.22232142857143,263.12857142857143,2059.8,368.22232142857143,286.12857142857143,2161.5,368.22232142857143,286.12857142857143,2265.6,368.22232142857143,290.12857142857143,2365.6,363.22232142857143,286.12857142857143,2467,360.22232142857143,280.12857142857143,2572,357.22232142857143,273.12857142857143,2675.8,354.22232142857143,269.12857142857143,2776.7,354.22232142857143,267.12857142857143,2881.1,354.22232142857143,267.12857142857143,2986.5,354.22232142857143,267.12857142857143,3090.9,354.22232142857143,267.12857142857143,3192.5,354.22232142857143,267.12857142857143,3296.5,354.22232142857143,267.12857142857143,3401.2,354.22232142857143,267.12857142857143,3501.4,352.22232142857143,272.12857142857143,3601.7,174.22232142857143,515.1285714285714,3706.8,81.22232142857143,589.1285714285714,3807.9,81.22232142857143,589.1285714285714,3911.6,81.22232142857143,593.1285714285714,4012.1,69.22232142857143,569.1285714285714,4115.6,66.22232142857143,563.1285714285714,4217.3,66.22232142857143,563.1285714285714,4321,66.22232142857143,563.1285714285714,4422,66.22232142857143,563.1285714285714,4525.8,66.22232142857143,563.1285714285714,4626.9,66.22232142857143,563.1285714285714,4731.3,66.22232142857143,563.1285714285714,4837.3,308.22232142857143,335.12857142857143,4942.1]","[2945.6,2945.5,1000,0.1,1945.5,""smooth"",""down"",""down"",""good_move"",3372.5,426.2,1733.7,2946.3,-1307.5,""error"",""-"",""-"",""no_move"",3648.5,275.6,1733.7,2946.3,-1031.5,""while_red"",""-"",""-"",""no_move"",3690,317.1,1733.7,2946.3,-990,""while_red"",""-"",""-"",""no_move"",3903.4,530.5,1733.7,2946.3,-776.6,""while_red"",""-"",""-"",""no_move"",6214.6,2841.7,2761.2,4375.9,-922.5,""error"",""-"",""-"",""no_move"",14794.9,8580.1,2851.4,11365.3,578.2,""smooth"",""left"",""left"",""good_move"",17889,3093.8,2564,14795.2,529.8,""smooth"",""left"",""left"",""good_move""]"
"42106","","<div style=""width:500px;"">
  <p>What determined the result of this run?</p>
  </div>","43","html-slider-response","19","632230","0.0-7.0-1.1","22","1","2025-07-30 08:40:06","36c45c0696341be0efffe67d72a12abb","41.13.124.92","Mozilla/5.0 (Windows NT 10.0; Win64; x64) AppleWebKit/537.36 (KHTML, like Gecko) Chrome/138.0.0.0 Safari/537.36","WebKit","Chrome","138.0.0.0","Windows","10.0","https://app.prolific.com/","en-US,en;q=0.9","67fb8218748357094cba6869","687a19d2168e237449fb8af4","6889da0f4c0ff61c11c77f41","0","67fb8218748357094cba6869","0","2025-07-30T08:50:41.751Z","","","","AttribQ","","","","","","","","","","","50","","","","","","","","","","","","","","","","","","","","","","","","","","",""
"3573","","<div style=""width:500px;"">
  <p>How much control did you have over the ball?</p>
  </div>","59","html-slider-response","20","635806","0.0-7.0-2.1","22","1","2025-07-30 08:40:06","36c45c0696341be0efffe67d72a12abb","41.13.124.92","Mozilla/5.0 (Windows NT 10.0; Win64; x64) AppleWebKit/537.36 (KHTML, like Gecko) Chrome/138.0.0.0 Safari/537.36","WebKit","Chrome","138.0.0.0","Windows","10.0","https://app.prolific.com/","en-US,en;q=0.9","67fb8218748357094cba6869","687a19d2168e237449fb8af4","6889da0f4c0ff61c11c77f41","0","67fb8218748357094cba6869","0","2025-07-30T08:50:45.327Z","","","","ControlQ","","","","","","","","","","","50","","","","","","","","","","","","","","","","","","","","","","","","","","",""
"2634","","<div style=""width:500px;"">
  <p>How would you describe your current emotional state?</p>
  </div>","37","html-slider-response","21","638442","0.0-7.0-3.1","22","1","2025-07-30 08:40:06","36c45c0696341be0efffe67d72a12abb","41.13.124.92","Mozilla/5.0 (Windows NT 10.0; Win64; x64) AppleWebKit/537.36 (KHTML, like Gecko) Chrome/138.0.0.0 Safari/537.36","WebKit","Chrome","138.0.0.0","Windows","10.0","https://app.prolific.com/","en-US,en;q=0.9","67fb8218748357094cba6869","687a19d2168e237449fb8af4","6889da0f4c0ff61c11c77f41","0","67fb8218748357094cba6869","0","2025-07-30T08:50:47.962Z","","","","StressQ","","","","","","","","","","","50","","","","","","","","","","","","","","","","","","","","","","","","","","",""
"4556","","<div style=""width:500px;"">
  <p>What best describes how you currently feel?</p>
  </div>","63","html-slider-response","22","643000","0.0-7.0-4.1","22","1","2025-07-30 08:40:06","36c45c0696341be0efffe67d72a12abb","41.13.124.92","Mozilla/5.0 (Windows NT 10.0; Win64; x64) AppleWebKit/537.36 (KHTML, like Gecko) Chrome/138.0.0.0 Safari/537.36","WebKit","Chrome","138.0.0.0","Windows","10.0","https://app.prolific.com/","en-US,en;q=0.9","67fb8218748357094cba6869","687a19d2168e237449fb8af4","6889da0f4c0ff61c11c77f41","0","67fb8218748357094cba6869","0","2025-07-30T08:50:52.520Z","","","","MotivationQ","","","","","","","","","","","50","","","","","","","","","","","","","","","","","","","","","","","","","","",""
"","","","","ctl-task-cpt","23","671152","0.0-7.0-0.2","22","1","2025-07-30 08:40:06","36c45c0696341be0efffe67d72a12abb","41.13.124.92","Mozilla/5.0 (Windows NT 10.0; Win64; x64) AppleWebKit/537.36 (KHTML, like Gecko) Chrome/138.0.0.0 Safari/537.36","WebKit","Chrome","138.0.0.0","Windows","10.0","https://app.prolific.com/","en-US,en;q=0.9","67fb8218748357094cba6869","687a19d2168e237449fb8af4","6889da0f4c0ff61c11c77f41","0","67fb8218748357094cba6869","0","2025-07-30T08:51:20.672Z","","","","","","","","","","","","","","","","win-only","3","g1:SW,g2:NE","0.8","3","0","647028.6","4085.9","9086.4","25132.1","1","4","4","6","1","1","1","1","0","0.007575757575757576","1563.7","3000","1465","[""down"",""left""]","{""num_key_presses"":4,""num_perfect"":4,""num_errors"":0,""num_randdir"":0,""num_randdir_good_moves"":0,""num_whilered"":0,""num_whileblue"":0,""num_blue"":1,""num_good_moves"":4}","[303.22232142857143,291.12857142857143,0.4,303.22232142857143,291.12857142857143,100.2,303.22232142857143,291.12857142857143,205.7,303.22232142857143,291.12857142857143,306.3,303.22232142857143,291.12857142857143,413.6,303.22232142857143,291.12857142857143,516.4,300.22232142857143,296.12857142857143,620.7,198.22232142857143,374.12857142857143,721,194.22232142857143,377.12857142857143,828.5,194.22232142857143,378.12857142857143,929.5,114.22232142857143,453.12857142857143,1030,84.22232142857143,465.12857142857143,1130.7,84.22232142857143,465.12857142857143,1235.5,68.22232142857143,494.12857142857143,1335.6,37.222321428571426,549.1285714285714,1436.2,32.222321428571426,555.1285714285714,1540.5,32.222321428571426,555.1285714285714,1648.1,32.222321428571426,555.1285714285714,1749.5,62.222321428571426,508.12857142857143,1849.7,134.22232142857143,421.12857142857143,1950.1,139.22232142857143,415.12857142857143,2055.9,140.22232142857143,415.12857142857143,2160.1,140.22232142857143,415.12857142857143,2260.4,140.22232142857143,415.12857142857143,2361.1,141.22232142857143,414.12857142857143,2461.2,143.22232142857143,470.12857142857143,2561.4,143.22232142857143,470.12857142857143,2665.4,143.22232142857143,470.12857142857143,2766.5,143.22232142857143,470.12857142857143,2871.2,143.22232142857143,470.12857142857143,2975.9,143.22232142857143,470.12857142857143,3077.7,143.22232142857143,470.12857142857143,3179.4,143.22232142857143,470.12857142857143,3279.5,143.22232142857143,470.12857142857143,3380.9,143.22232142857143,470.12857142857143,3481,143.22232142857143,470.12857142857143,3585.3,143.22232142857143,470.12857142857143,3685.8,143.22232142857143,470.12857142857143,3792.4,143.22232142857143,470.12857142857143,3895.5,143.22232142857143,470.12857142857143,4000.7,143.22232142857143,470.12857142857143,4105.5,143.22232142857143,470.12857142857143,4210.1,143.22232142857143,470.12857142857143,4310.2,143.22232142857143,470.12857142857143,4412.2,143.22232142857143,470.12857142857143,4515.4,143.22232142857143,470.12857142857143,4620,143.22232142857143,470.12857142857143,4725.3,143.22232142857143,470.12857142857143,4826.4,143.22232142857143,470.12857142857143,4930.4]","[1366.7,1366.7,1000,0,366.7,""smooth"",""left"",""left"",""good_move"",4570.4,3203.3,2825,1367.1,378.3,""smooth"",""down"",""down"",""good_move"",12003.6,7432.5,3212.7,8343.9,447,""smooth"",""left"",""left"",""good_move"",15952.4,3948.5,3581.3,12003.9,367.2,""smooth"",""down"",""down"",""good_move""]"
"72448","","<div style=""width:500px;"">
  <p>What determined the result of this run?</p>
  </div>","89","html-slider-response","24","743600","0.0-7.0-1.2","22","1","2025-07-30 08:40:06","36c45c0696341be0efffe67d72a12abb","41.13.124.92","Mozilla/5.0 (Windows NT 10.0; Win64; x64) AppleWebKit/537.36 (KHTML, like Gecko) Chrome/138.0.0.0 Safari/537.36","WebKit","Chrome","138.0.0.0","Windows","10.0","https://app.prolific.com/","en-US,en;q=0.9","67fb8218748357094cba6869","687a19d2168e237449fb8af4","6889da0f4c0ff61c11c77f41","0","67fb8218748357094cba6869","0","2025-07-30T08:52:33.120Z","","","","AttribQ","","","","","","","","","","","50","","","","","","","","","","","","","","","","","","","","","","","","","","",""
"2757","","<div style=""width:500px;"">
  <p>How much control did you have over the ball?</p>
  </div>","91","html-slider-response","25","746359","0.0-7.0-2.2","22","1","2025-07-30 08:40:06","36c45c0696341be0efffe67d72a12abb","41.13.124.92","Mozilla/5.0 (Windows NT 10.0; Win64; x64) AppleWebKit/537.36 (KHTML, like Gecko) Chrome/138.0.0.0 Safari/537.36","WebKit","Chrome","138.0.0.0","Windows","10.0","https://app.prolific.com/","en-US,en;q=0.9","67fb8218748357094cba6869","687a19d2168e237449fb8af4","6889da0f4c0ff61c11c77f41","0","67fb8218748357094cba6869","0","2025-07-30T08:52:35.879Z","","","","ControlQ","","","","","","","","","","","50","","","","","","","","","","","","","","","","","","","","","","","","","","",""
"3105","","<div style=""width:500px;"">
  <p>How would you describe your current emotional state?</p>
  </div>","5","html-slider-response","26","749465","0.0-7.0-3.2","22","1","2025-07-30 08:40:06","36c45c0696341be0efffe67d72a12abb","41.13.124.92","Mozilla/5.0 (Windows NT 10.0; Win64; x64) AppleWebKit/537.36 (KHTML, like Gecko) Chrome/138.0.0.0 Safari/537.36","WebKit","Chrome","138.0.0.0","Windows","10.0","https://app.prolific.com/","en-US,en;q=0.9","67fb8218748357094cba6869","687a19d2168e237449fb8af4","6889da0f4c0ff61c11c77f41","0","67fb8218748357094cba6869","0","2025-07-30T08:52:38.986Z","","","","StressQ","","","","","","","","","","","50","","","","","","","","","","","","","","","","","","","","","","","","","","",""
"2737","","<div style=""width:500px;"">
  <p>What best describes how you currently feel?</p>
  </div>","100","html-slider-response","27","752204","0.0-7.0-4.2","22","1","2025-07-30 08:40:06","36c45c0696341be0efffe67d72a12abb","41.13.124.92","Mozilla/5.0 (Windows NT 10.0; Win64; x64) AppleWebKit/537.36 (KHTML, like Gecko) Chrome/138.0.0.0 Safari/537.36","WebKit","Chrome","138.0.0.0","Windows","10.0","https://app.prolific.com/","en-US,en;q=0.9","67fb8218748357094cba6869","687a19d2168e237449fb8af4","6889da0f4c0ff61c11c77f41","0","67fb8218748357094cba6869","0","2025-07-30T08:52:41.725Z","","","","MotivationQ","","","","","","","","","","","50","","","","","","","","","","","","","","","","","","","","","","","","","","",""
"","","","","ctl-task-cpt","28","788167","0.0-7.0-0.3","22","1","2025-07-30 08:40:06","36c45c0696341be0efffe67d72a12abb","41.13.124.92","Mozilla/5.0 (Windows NT 10.0; Win64; x64) AppleWebKit/537.36 (KHTML, like Gecko) Chrome/138.0.0.0 Safari/537.36","WebKit","Chrome","138.0.0.0","Windows","10.0","https://app.prolific.com/","en-US,en;q=0.9","67fb8218748357094cba6869","687a19d2168e237449fb8af4","6889da0f4c0ff61c11c77f41","0","67fb8218748357094cba6869","0","2025-07-30T08:53:17.687Z","","","","","","","","","","","","","","","","win-only","0","g1:NW,g2:SE","0.7","4","0","756234.9","2052.8","7055.9","32945.4","1","4","8","6","1","1","0","1","1","0.007575757575757576","2011.9","3000","410","[""left"",""up""]","{""num_key_presses"":8,""num_perfect"":6,""num_errors"":1,""num_randdir"":1,""num_randdir_good_moves"":0,""num_whilered"":0,""num_whileblue"":1,""num_blue"":2,""num_good_moves"":6}","[297.22232142857143,293.12857142857143,0.3,297.22232142857143,293.12857142857143,103.6,297.22232142857143,293.12857142857143,204.2,297.22232142857143,293.12857142857143,308.1,297.22232142857143,293.12857142857143,408.1,297.22232142857143,293.12857142857143,508.9,308.22232142857143,307.12857142857143,613.1,309.22232142857143,310.12857142857143,714.3,329.22232142857143,320.12857142857143,819.4,350.22232142857143,338.12857142857143,924.5,350.22232142857143,338.12857142857143,1027.7,350.22232142857143,338.12857142857143,1129,350.22232142857143,338.12857142857143,1236,350.22232142857143,338.12857142857143,1338.1,350.22232142857143,338.12857142857143,1438.3,350.22232142857143,338.12857142857143,1542.9,191.22232142857143,250.12857142857143,1647.7,64.22232142857143,42.128571428571426,1748.2,64.22232142857143,42.128571428571426,1851.8,64.22232142857143,42.128571428571426,1952.7,64.22232142857143,42.128571428571426,2053.3,64.22232142857143,42.128571428571426,2154.2,64.22232142857143,42.128571428571426,2259.6,64.22232142857143,44.128571428571426,2362.5,121.22232142857143,151.12857142857143,2463.8,124.22232142857143,154.12857142857143,2568.4,124.22232142857143,154.12857142857143,2670.9,124.22232142857143,154.12857142857143,2774,124.22232142857143,154.12857142857143,2877.9,124.22232142857143,154.12857142857143,2979.5,124.22232142857143,154.12857142857143,3082.8,124.22232142857143,154.12857142857143,3186,124.22232142857143,154.12857142857143,3287.5,124.22232142857143,154.12857142857143,3388.3,124.22232142857143,154.12857142857143,3492.8,124.22232142857143,154.12857142857143,3592.8,124.22232142857143,154.12857142857143,3698,124.22232142857143,154.12857142857143,3798.8,124.22232142857143,154.12857142857143,3902.6,124.22232142857143,154.12857142857143,4003.4,124.22232142857143,154.12857142857143,4106.8,124.22232142857143,154.12857142857143,4207.7,124.22232142857143,154.12857142857143,4307.9,124.22232142857143,154.12857142857143,4414,124.22232142857143,154.12857142857143,4520.3,124.22232142857143,154.12857142857143,4623.6,124.22232142857143,154.12857142857143,4727.6,124.22232142857143,154.12857142857143,4828.5,124.22232142857143,154.12857142857143,4933.3]","[1304.8,1304.8,1000.8,0,304,""while_blue"",""left"",""down"",""bad_move"",5157,3851.7,3446.4,1305.3,405.3,""smooth"",""up"",""up"",""good_move"",7752.9,2595.4,2135.2,5157.5,460.2,""smooth"",""up"",""up"",""good_move"",10710.6,2957.3,2563.6,7753.3,393.7,""oops"",""up"",""down"",""bad_move"",17218.6,6507.7,2024.4,14810.5,383.7,""smooth"",""up"",""up"",""good_move"",19859.8,2640.9,2205.5,17218.9,435.4,""smooth"",""up"",""up"",""good_move"",22653.7,2793.6,2425.2,19860.1,368.4,""smooth"",""left"",""left"",""good_move"",25801.2,3147.1,2757.1,22654.1,390,""smooth"",""left"",""left"",""good_move""]"
"39880","","<div style=""width:500px;"">
  <p>What determined the result of this run?</p>
  </div>","78","html-slider-response","29","828047","0.0-7.0-1.3","22","1","2025-07-30 08:40:06","36c45c0696341be0efffe67d72a12abb","41.13.124.92","Mozilla/5.0 (Windows NT 10.0; Win64; x64) AppleWebKit/537.36 (KHTML, like Gecko) Chrome/138.0.0.0 Safari/537.36","WebKit","Chrome","138.0.0.0","Windows","10.0","https://app.prolific.com/","en-US,en;q=0.9","67fb8218748357094cba6869","687a19d2168e237449fb8af4","6889da0f4c0ff61c11c77f41","0","67fb8218748357094cba6869","0","2025-07-30T08:53:57.567Z","","","","AttribQ","","","","","","","","","","","50","","","","","","","","","","","","","","","","","","","","","","","","","","",""
"5961","","<div style=""width:500px;"">
  <p>How much control did you have over the ball?</p>
  </div>","69","html-slider-response","30","834010","0.0-7.0-2.3","22","1","2025-07-30 08:40:06","36c45c0696341be0efffe67d72a12abb","41.13.124.92","Mozilla/5.0 (Windows NT 10.0; Win64; x64) AppleWebKit/537.36 (KHTML, like Gecko) Chrome/138.0.0.0 Safari/537.36","WebKit","Chrome","138.0.0.0","Windows","10.0","https://app.prolific.com/","en-US,en;q=0.9","67fb8218748357094cba6869","687a19d2168e237449fb8af4","6889da0f4c0ff61c11c77f41","0","67fb8218748357094cba6869","0","2025-07-30T08:54:03.530Z","","","","ControlQ","","","","","","","","","","","50","","","","","","","","","","","","","","","","","","","","","","","","","","",""
"9211","","<div style=""width:500px;"">
  <p>How would you describe your current emotional state?</p>
  </div>","30","html-slider-response","31","843223","0.0-7.0-3.3","22","1","2025-07-30 08:40:06","36c45c0696341be0efffe67d72a12abb","41.13.124.92","Mozilla/5.0 (Windows NT 10.0; Win64; x64) AppleWebKit/537.36 (KHTML, like Gecko) Chrome/138.0.0.0 Safari/537.36","WebKit","Chrome","138.0.0.0","Windows","10.0","https://app.prolific.com/","en-US,en;q=0.9","67fb8218748357094cba6869","687a19d2168e237449fb8af4","6889da0f4c0ff61c11c77f41","0","67fb8218748357094cba6869","0","2025-07-30T08:54:12.743Z","","","","StressQ","","","","","","","","","","","50","","","","","","","","","","","","","","","","","","","","","","","","","","",""
"7537","","<div style=""width:500px;"">
  <p>What best describes how you currently feel?</p>
  </div>","85","html-slider-response","32","850762","0.0-7.0-4.3","22","1","2025-07-30 08:40:06","36c45c0696341be0efffe67d72a12abb","41.13.124.92","Mozilla/5.0 (Windows NT 10.0; Win64; x64) AppleWebKit/537.36 (KHTML, like Gecko) Chrome/138.0.0.0 Safari/537.36","WebKit","Chrome","138.0.0.0","Windows","10.0","https://app.prolific.com/","en-US,en;q=0.9","67fb8218748357094cba6869","687a19d2168e237449fb8af4","6889da0f4c0ff61c11c77f41","0","67fb8218748357094cba6869","0","2025-07-30T08:54:20.282Z","","","","MotivationQ","","","","","","","","","","","50","","","","","","","","","","","","","","","","","","","","","","","","","","",""
"","","","","ctl-task-cpt","33","895086","0.0-7.0-0.4","22","1","2025-07-30 08:40:06","36c45c0696341be0efffe67d72a12abb","41.13.124.92","Mozilla/5.0 (Windows NT 10.0; Win64; x64) AppleWebKit/537.36 (KHTML, like Gecko) Chrome/138.0.0.0 Safari/537.36","WebKit","Chrome","138.0.0.0","Windows","10.0","https://app.prolific.com/","en-US,en;q=0.9","67fb8218748357094cba6869","687a19d2168e237449fb8af4","6889da0f4c0ff61c11c77f41","0","67fb8218748357094cba6869","0","2025-07-30T08:55:04.606Z","","","","","","","","","","","","","","","","win-only","2","g1:SE,g2:NW","0.6","5","0","854792.7","12799.3","17801.2","41317","1","4","8","6","1","1","1","2","1","0.015151515151515152","1487.1","3000","635","[""down"",""right""]","{""num_key_presses"":6,""num_perfect"":4,""num_errors"":0,""num_randdir"":2,""num_randdir_good_moves"":1,""num_whilered"":0,""num_whileblue"":0,""num_blue"":2,""num_good_moves"":5}","[295.22232142857143,293.12857142857143,0.6,295.22232142857143,293.12857142857143,102.4,295.22232142857143,293.12857142857143,206.1,295.22232142857143,293.12857142857143,306.3,295.22232142857143,293.12857142857143,413.1,295.22232142857143,293.12857142857143,516.8,295.22232142857143,293.12857142857143,621.8,295.22232142857143,293.12857142857143,722.1,303.22232142857143,304.12857142857143,822.1,382.22232142857143,354.12857142857143,927.6,528.2223214285714,483.12857142857143,1032.2,532.2223214285714,487.12857142857143,1137.7,532.2223214285714,487.12857142857143,1241.5,551.2223214285714,530.1285714285714,1347.7,560.2223214285714,558.1285714285714,1449.8,560.2223214285714,559.1285714285714,1555.1,560.2223214285714,559.1285714285714,1656.3,560.2223214285714,559.1285714285714,1756.5,560.2223214285714,559.1285714285714,1857.5,560.2223214285714,559.1285714285714,1962.3,560.2223214285714,559.1285714285714,2067.1,560.2223214285714,559.1285714285714,2172.5,560.2223214285714,559.1285714285714,2276.5,560.2223214285714,559.1285714285714,2381.2,560.2223214285714,559.1285714285714,2482.7,560.2223214285714,559.1285714285714,2585.9,560.2223214285714,559.1285714285714,2686.1,560.2223214285714,559.1285714285714,2786.8,560.2223214285714,559.1285714285714,2891.3,560.2223214285714,559.1285714285714,3000.8,560.2223214285714,559.1285714285714,3101.4,560.2223214285714,559.1285714285714,3202.1,560.2223214285714,559.1285714285714,3306.2,560.2223214285714,559.1285714285714,3406.8,560.2223214285714,559.1285714285714,3507,560.2223214285714,559.1285714285714,3610.9,560.2223214285714,559.1285714285714,3711.2,560.2223214285714,559.1285714285714,3815.1,560.2223214285714,559.1285714285714,3916.5,560.2223214285714,559.1285714285714,4017.3,560.2223214285714,559.1285714285714,4121.6,560.2223214285714,559.1285714285714,4221.7,560.2223214285714,559.1285714285714,4326,560.2223214285714,559.1285714285714,4427.5,560.2223214285714,559.1285714285714,4529.1,560.2223214285714,559.1285714285714,4637.3,560.2223214285714,559.1285714285714,4739.1,560.2223214285714,559.1285714285714,4841.3,560.2223214285714,559.1285714285714,4946.4]","[8363,8363,2927.5,4984.6,450.9,""smooth"",""right"",""right"",""good_move"",11661.6,3297.7,2895.1,8363.9,402.6,""oops"",""down"",""left"",""bad_move"",14109.3,2446.8,1964.5,11662.5,482.3,""oops"",""down"",""right"",""good_move"",17265.9,3156.4,2759.4,14109.5,397,""smooth"",""right"",""right"",""good_move"",20674.4,3407.9,3047.1,17266.5,360.8,""smooth"",""down"",""down"",""good_move"",23417.4,2742.6,2348.3,20674.8,394.3,""smooth"",""down"",""down"",""good_move""]"
"4108","","<div style=""width:500px;"">
  <p>What determined the result of this run?</p>
  </div>","80","html-slider-response","34","899195","0.0-7.0-1.4","22","1","2025-07-30 08:40:06","36c45c0696341be0efffe67d72a12abb","41.13.124.92","Mozilla/5.0 (Windows NT 10.0; Win64; x64) AppleWebKit/537.36 (KHTML, like Gecko) Chrome/138.0.0.0 Safari/537.36","WebKit","Chrome","138.0.0.0","Windows","10.0","https://app.prolific.com/","en-US,en;q=0.9","67fb8218748357094cba6869","687a19d2168e237449fb8af4","6889da0f4c0ff61c11c77f41","0","67fb8218748357094cba6869","0","2025-07-30T08:55:08.715Z","","","","AttribQ","","","","","","","","","","","50","","","","","","","","","","","","","","","","","","","","","","","","","","",""
"3538","","<div style=""width:500px;"">
  <p>How much control did you have over the ball?</p>
  </div>","77","html-slider-response","35","902735","0.0-7.0-2.4","22","1","2025-07-30 08:40:06","36c45c0696341be0efffe67d72a12abb","41.13.124.92","Mozilla/5.0 (Windows NT 10.0; Win64; x64) AppleWebKit/537.36 (KHTML, like Gecko) Chrome/138.0.0.0 Safari/537.36","WebKit","Chrome","138.0.0.0","Windows","10.0","https://app.prolific.com/","en-US,en;q=0.9","67fb8218748357094cba6869","687a19d2168e237449fb8af4","6889da0f4c0ff61c11c77f41","0","67fb8218748357094cba6869","0","2025-07-30T08:55:12.255Z","","","","ControlQ","","","","","","","","","","","50","","","","","","","","","","","","","","","","","","","","","","","","","","",""
"3293","","<div style=""width:500px;"">
  <p>How would you describe your current emotional state?</p>
  </div>","38","html-slider-response","36","906029","0.0-7.0-3.4","22","1","2025-07-30 08:40:06","36c45c0696341be0efffe67d72a12abb","41.13.124.92","Mozilla/5.0 (Windows NT 10.0; Win64; x64) AppleWebKit/537.36 (KHTML, like Gecko) Chrome/138.0.0.0 Safari/537.36","WebKit","Chrome","138.0.0.0","Windows","10.0","https://app.prolific.com/","en-US,en;q=0.9","67fb8218748357094cba6869","687a19d2168e237449fb8af4","6889da0f4c0ff61c11c77f41","0","67fb8218748357094cba6869","0","2025-07-30T08:55:15.550Z","","","","StressQ","","","","","","","","","","","50","","","","","","","","","","","","","","","","","","","","","","","","","","",""
"2355","","<div style=""width:500px;"">
  <p>What best describes how you currently feel?</p>
  </div>","72","html-slider-response","37","908387","0.0-7.0-4.4","22","1","2025-07-30 08:40:06","36c45c0696341be0efffe67d72a12abb","41.13.124.92","Mozilla/5.0 (Windows NT 10.0; Win64; x64) AppleWebKit/537.36 (KHTML, like Gecko) Chrome/138.0.0.0 Safari/537.36","WebKit","Chrome","138.0.0.0","Windows","10.0","https://app.prolific.com/","en-US,en;q=0.9","67fb8218748357094cba6869","687a19d2168e237449fb8af4","6889da0f4c0ff61c11c77f41","0","67fb8218748357094cba6869","0","2025-07-30T08:55:17.907Z","","","","MotivationQ","","","","","","","","","","","50","","","","","","","","","","","","","","","","","","","","","","","","","","",""
"","","","","ctl-task-cpt","38","925984","0.0-7.0-0.5","22","1","2025-07-30 08:40:06","36c45c0696341be0efffe67d72a12abb","41.13.124.92","Mozilla/5.0 (Windows NT 10.0; Win64; x64) AppleWebKit/537.36 (KHTML, like Gecko) Chrome/138.0.0.0 Safari/537.36","WebKit","Chrome","138.0.0.0","Windows","10.0","https://app.prolific.com/","en-US,en;q=0.9","67fb8218748357094cba6869","687a19d2168e237449fb8af4","6889da0f4c0ff61c11c77f41","0","67fb8218748357094cba6869","0","2025-07-30T08:55:35.504Z","","","","","","","","","","","","","","","","win-only","2","g1:SE,g2:NW","0.5","6","0","912417.7","1245.9","6247.8","14576.4","1","4","4","6","1","1","1","3","2","0.022727272727272728","4020.9","3000","1760","[""down"",""right""]","{""num_key_presses"":4,""num_perfect"":2,""num_errors"":0,""num_randdir"":2,""num_randdir_good_moves"":2,""num_whilered"":0,""num_whileblue"":0,""num_blue"":0,""num_good_moves"":4}","[295.22232142857143,302.12857142857143,0.2,295.22232142857143,300.12857142857143,103.6,295.22232142857143,300.12857142857143,205.3,295.22232142857143,300.12857142857143,311.4,295.22232142857143,300.12857142857143,414.9,295.22232142857143,300.12857142857143,515.1,296.22232142857143,300.12857142857143,616.9,305.22232142857143,307.12857142857143,720.3,345.22232142857143,336.12857142857143,829,386.22232142857143,373.12857142857143,931.5,394.22232142857143,380.12857142857143,1032,394.22232142857143,380.12857142857143,1134.8,395.22232142857143,382.12857142857143,1235.4,453.22232142857143,426.12857142857143,1345.1,498.22232142857143,491.12857142857143,1693.2,498.22232142857143,491.12857142857143,1795.1,498.22232142857143,491.12857142857143,1906.4,498.22232142857143,491.12857142857143,2012.7,498.22232142857143,491.12857142857143,2119,498.22232142857143,491.12857142857143,2219.5,498.22232142857143,491.12857142857143,2319.6,498.22232142857143,491.12857142857143,2424.8,498.22232142857143,491.12857142857143,2526.1,498.22232142857143,491.12857142857143,2630,498.22232142857143,491.12857142857143,2736.6,498.22232142857143,491.12857142857143,2846.1,498.22232142857143,491.12857142857143,3194.8,219.22232142857143,436.12857142857143,3295.5,223.22232142857143,441.12857142857143,3396.5,233.22232142857143,441.12857142857143,3497.1,371.22232142857143,502.12857142857143,3600.9,460.22232142857143,508.12857142857143,3704.5,470.22232142857143,504.12857142857143,3805.9,504.22232142857143,513.1285714285714,3907.4,535.2223214285714,529.1285714285714,4008.8,536.2223214285714,530.1285714285714,4110.8,536.2223214285714,530.1285714285714,4217.1,536.2223214285714,530.1285714285714,4321.2,536.2223214285714,530.1285714285714,4431.4,536.2223214285714,530.1285714285714,4534.9,536.2223214285714,530.1285714285714,4636.3,536.2223214285714,530.1285714285714,4740.6,536.2223214285714,530.1285714285714,4840.8,536.2223214285714,530.1285714285714,4945.5]","[1420.3,1420.3,1000,0,420.3,""smooth"",""right"",""right"",""good_move"",3390.9,1969.9,1574.8,1421,395.1,""oops"",""right"",""right"",""good_move"",6047.1,2655.6,2293.1,3391.5,362.5,""smooth"",""down"",""down"",""good_move"",8226.2,2178.5,1869.1,6047.7,309.4,""oops"",""down"",""down"",""good_move""]"
"2502","","<div style=""width:500px;"">
  <p>What determined the result of this run?</p>
  </div>","74","html-slider-response","39","928488","0.0-7.0-1.5","22","1","2025-07-30 08:40:06","36c45c0696341be0efffe67d72a12abb","41.13.124.92","Mozilla/5.0 (Windows NT 10.0; Win64; x64) AppleWebKit/537.36 (KHTML, like Gecko) Chrome/138.0.0.0 Safari/537.36","WebKit","Chrome","138.0.0.0","Windows","10.0","https://app.prolific.com/","en-US,en;q=0.9","67fb8218748357094cba6869","687a19d2168e237449fb8af4","6889da0f4c0ff61c11c77f41","0","67fb8218748357094cba6869","0","2025-07-30T08:55:38.008Z","","","","AttribQ","","","","","","","","","","","50","","","","","","","","","","","","","","","","","","","","","","","","","","",""
"2980","","<div style=""width:500px;"">
  <p>How much control did you have over the ball?</p>
  </div>","56","html-slider-response","40","931472","0.0-7.0-2.5","22","1","2025-07-30 08:40:06","36c45c0696341be0efffe67d72a12abb","41.13.124.92","Mozilla/5.0 (Windows NT 10.0; Win64; x64) AppleWebKit/537.36 (KHTML, like Gecko) Chrome/138.0.0.0 Safari/537.36","WebKit","Chrome","138.0.0.0","Windows","10.0","https://app.prolific.com/","en-US,en;q=0.9","67fb8218748357094cba6869","687a19d2168e237449fb8af4","6889da0f4c0ff61c11c77f41","0","67fb8218748357094cba6869","0","2025-07-30T08:55:40.992Z","","","","ControlQ","","","","","","","","","","","50","","","","","","","","","","","","","","","","","","","","","","","","","","",""
"3929","","<div style=""width:500px;"">
  <p>How would you describe your current emotional state?</p>
  </div>","46","html-slider-response","41","935403","0.0-7.0-3.5","22","1","2025-07-30 08:40:06","36c45c0696341be0efffe67d72a12abb","41.13.124.92","Mozilla/5.0 (Windows NT 10.0; Win64; x64) AppleWebKit/537.36 (KHTML, like Gecko) Chrome/138.0.0.0 Safari/537.36","WebKit","Chrome","138.0.0.0","Windows","10.0","https://app.prolific.com/","en-US,en;q=0.9","67fb8218748357094cba6869","687a19d2168e237449fb8af4","6889da0f4c0ff61c11c77f41","0","67fb8218748357094cba6869","0","2025-07-30T08:55:44.923Z","","","","StressQ","","","","","","","","","","","50","","","","","","","","","","","","","","","","","","","","","","","","","","",""
"2619","","<div style=""width:500px;"">
  <p>What best describes how you currently feel?</p>
  </div>","44","html-slider-response","42","938026","0.0-7.0-4.5","22","1","2025-07-30 08:40:06","36c45c0696341be0efffe67d72a12abb","41.13.124.92","Mozilla/5.0 (Windows NT 10.0; Win64; x64) AppleWebKit/537.36 (KHTML, like Gecko) Chrome/138.0.0.0 Safari/537.36","WebKit","Chrome","138.0.0.0","Windows","10.0","https://app.prolific.com/","en-US,en;q=0.9","67fb8218748357094cba6869","687a19d2168e237449fb8af4","6889da0f4c0ff61c11c77f41","0","67fb8218748357094cba6869","0","2025-07-30T08:55:47.546Z","","","","MotivationQ","","","","","","","","","","","50","","","","","","","","","","","","","","","","","","","","","","","","","","",""
"","","","","ctl-task-cpt","43","988607","0.0-7.0-0.6","22","1","2025-07-30 08:40:06","36c45c0696341be0efffe67d72a12abb","41.13.124.92","Mozilla/5.0 (Windows NT 10.0; Win64; x64) AppleWebKit/537.36 (KHTML, like Gecko) Chrome/138.0.0.0 Safari/537.36","WebKit","Chrome","138.0.0.0","Windows","10.0","https://app.prolific.com/","en-US,en;q=0.9","67fb8218748357094cba6869","687a19d2168e237449fb8af4","6889da0f4c0ff61c11c77f41","0","67fb8218748357094cba6869","0","2025-07-30T08:56:38.127Z","","","","","","","","","","","","","","","","win-only","3","g1:SW,g2:NE","0.4","7","0","942057.4","3784","8787.3","47561.6","1","4","4","6","1","-1","-2","1","3","0.007575757575757576","1583.3","3000","-2475","[""down"",""left""]","{""num_key_presses"":10,""num_perfect"":4,""num_errors"":1,""num_randdir"":5,""num_randdir_good_moves"":2,""num_whilered"":0,""num_whileblue"":1,""num_blue"":4,""num_good_moves"":6}","[296.22232142857143,297.12857142857143,0.3,296.22232142857143,297.12857142857143,105.7,296.22232142857143,297.12857142857143,206.9,296.22232142857143,297.12857142857143,309.9,296.22232142857143,297.12857142857143,410.4,296.22232142857143,297.12857142857143,516.8,297.22232142857143,303.12857142857143,616.8,278.22232142857143,341.12857142857143,716.9,209.22232142857143,433.12857142857143,818.7,151.22232142857143,519.1285714285714,921.6,114.22232142857143,555.1285714285714,1027,97.22232142857143,572.1285714285714,1127.7,97.22232142857143,572.1285714285714,1228,91.22232142857143,571.1285714285714,1331.7,79.22232142857143,560.1285714285714,1431.9,79.22232142857143,558.1285714285714,1532.2,78.22232142857143,556.1285714285714,1632.4,78.22232142857143,556.1285714285714,1744.5,78.22232142857143,556.1285714285714,1847.2,78.22232142857143,556.1285714285714,1947.5,89.22232142857143,548.1285714285714,2053.5,118.22232142857143,519.1285714285714,2153.7,147.22232142857143,496.12857142857143,2263.5,153.22232142857143,493.12857142857143,2365.4,153.22232142857143,493.12857142857143,2467,153.22232142857143,493.12857142857143,2567.3,153.22232142857143,493.12857142857143,2677.2,153.22232142857143,493.12857142857143,2782.3,153.22232142857143,493.12857142857143,2894.3,153.22232142857143,493.12857142857143,2996.9,153.22232142857143,493.12857142857143,3102.7,153.22232142857143,493.12857142857143,3205.6,153.22232142857143,493.12857142857143,3312.3,153.22232142857143,493.12857142857143,3414,153.22232142857143,493.12857142857143,3517.7,153.22232142857143,493.12857142857143,3626.1,153.22232142857143,493.12857142857143,3726.5,153.22232142857143,493.12857142857143,3828.6,153.22232142857143,493.12857142857143,3932.6,153.22232142857143,493.12857142857143,4036.5,153.22232142857143,493.12857142857143,4143.3,153.22232142857143,493.12857142857143,4247,153.22232142857143,493.12857142857143,4356.6,153.22232142857143,493.12857142857143,4459.6,153.22232142857143,493.12857142857143,4564.3,153.22232142857143,493.12857142857143,4667.5,153.22232142857143,493.12857142857143,4771.8,153.22232142857143,493.12857142857143,4876.6,153.22232142857143,493.12857142857143,4976.6]","[8223.2,8223.2,2134.2,5691.3,397.7,""smooth"",""left"",""left"",""good_move"",11259.3,3035.1,2696.5,8224.2,338.6,""smooth"",""down"",""down"",""good_move"",17742.1,6481.9,2890.5,14379,472.6,""oops"",""left"",""up"",""bad_move"",20459,2716.6,2369.5,17742.4,347.1,""smooth"",""down"",""down"",""good_move"",23303.9,2844.7,2474.3,20459.2,370.4,""oops"",""down"",""left"",""good_move"",25885.3,2581.1,2199.2,23304.3,381.8,""oops"",""down"",""right"",""bad_move"",28418.9,2533.1,2127.3,25885.9,405.7,""smooth"",""down"",""down"",""good_move"",30558,2138.7,1732,28419.3,406.7,""oops"",""left"",""up"",""bad_move"",33223.4,2664.9,2295.5,30558.5,369.4,""oops"",""down"",""down"",""good_move"",35757.4,2533.8,2451.9,33223.6,81.9,""while_blue"",""left"",""right"",""bad_move""]"
"23789","","<div style=""width:500px;"">
  <p>What determined the result of this run?</p>
  </div>","60","html-slider-response","44","1012396","0.0-7.0-1.6","22","1","2025-07-30 08:40:06","36c45c0696341be0efffe67d72a12abb","41.13.124.92","Mozilla/5.0 (Windows NT 10.0; Win64; x64) AppleWebKit/537.36 (KHTML, like Gecko) Chrome/138.0.0.0 Safari/537.36","WebKit","Chrome","138.0.0.0","Windows","10.0","https://app.prolific.com/","en-US,en;q=0.9","67fb8218748357094cba6869","687a19d2168e237449fb8af4","6889da0f4c0ff61c11c77f41","0","67fb8218748357094cba6869","0","2025-07-30T08:57:01.917Z","","","","AttribQ","","","","","","","","","","","50","","","","","","","","","","","","","","","","","","","","","","","","","","",""
"2439","","<div style=""width:500px;"">
  <p>How much control did you have over the ball?</p>
  </div>","35","html-slider-response","45","1014838","0.0-7.0-2.6","22","1","2025-07-30 08:40:06","36c45c0696341be0efffe67d72a12abb","41.13.124.92","Mozilla/5.0 (Windows NT 10.0; Win64; x64) AppleWebKit/537.36 (KHTML, like Gecko) Chrome/138.0.0.0 Safari/537.36","WebKit","Chrome","138.0.0.0","Windows","10.0","https://app.prolific.com/","en-US,en;q=0.9","67fb8218748357094cba6869","687a19d2168e237449fb8af4","6889da0f4c0ff61c11c77f41","0","67fb8218748357094cba6869","0","2025-07-30T08:57:04.358Z","","","","ControlQ","","","","","","","","","","","50","","","","","","","","","","","","","","","","","","","","","","","","","","",""
"1898","","<div style=""width:500px;"">
  <p>How would you describe your current emotional state?</p>
  </div>","42","html-slider-response","46","1016738","0.0-7.0-3.6","22","1","2025-07-30 08:40:06","36c45c0696341be0efffe67d72a12abb","41.13.124.92","Mozilla/5.0 (Windows NT 10.0; Win64; x64) AppleWebKit/537.36 (KHTML, like Gecko) Chrome/138.0.0.0 Safari/537.36","WebKit","Chrome","138.0.0.0","Windows","10.0","https://app.prolific.com/","en-US,en;q=0.9","67fb8218748357094cba6869","687a19d2168e237449fb8af4","6889da0f4c0ff61c11c77f41","0","67fb8218748357094cba6869","0","2025-07-30T08:57:06.259Z","","","","StressQ","","","","","","","","","","","50","","","","","","","","","","","","","","","","","","","","","","","","","","",""
"2259","","<div style=""width:500px;"">
  <p>What best describes how you currently feel?</p>
  </div>","43","html-slider-response","47","1019000","0.0-7.0-4.6","22","1","2025-07-30 08:40:06","36c45c0696341be0efffe67d72a12abb","41.13.124.92","Mozilla/5.0 (Windows NT 10.0; Win64; x64) AppleWebKit/537.36 (KHTML, like Gecko) Chrome/138.0.0.0 Safari/537.36","WebKit","Chrome","138.0.0.0","Windows","10.0","https://app.prolific.com/","en-US,en;q=0.9","67fb8218748357094cba6869","687a19d2168e237449fb8af4","6889da0f4c0ff61c11c77f41","0","67fb8218748357094cba6869","0","2025-07-30T08:57:08.521Z","","","","MotivationQ","","","","","","","","","","","50","","","","","","","","","","","","","","","","","","","","","","","","","","",""
"","","","","ctl-task-cpt","48","1070075","0.0-7.0-0.7","22","1","2025-07-30 08:40:06","36c45c0696341be0efffe67d72a12abb","41.13.124.92","Mozilla/5.0 (Windows NT 10.0; Win64; x64) AppleWebKit/537.36 (KHTML, like Gecko) Chrome/138.0.0.0 Safari/537.36","WebKit","Chrome","138.0.0.0","Windows","10.0","https://app.prolific.com/","en-US,en;q=0.9","67fb8218748357094cba6869","687a19d2168e237449fb8af4","6889da0f4c0ff61c11c77f41","0","67fb8218748357094cba6869","0","2025-07-30T08:57:59.596Z","","","","","","","","","","","","","","","","win-only","0","g1:NW,g2:SE","0.3","8","0","1023033.7","7348.6","12352.8","48046.2","1","4","8","6","1","-1","-5","0","1","0","1496.7","3000","-2415","[""left"",""up""]","{""num_key_presses"":19,""num_perfect"":2,""num_errors"":4,""num_randdir"":7,""num_randdir_good_moves"":3,""num_whilered"":6,""num_whileblue"":1,""num_blue"":1,""num_good_moves"":5}","[294.22232142857143,294.12857142857143,0.6,294.22232142857143,294.12857142857143,102.9,294.22232142857143,294.12857142857143,207.4,294.22232142857143,294.12857142857143,307.6,294.22232142857143,294.12857142857143,414.4,294.22232142857143,294.12857142857143,518,294.22232142857143,294.12857142857143,628.4,294.22232142857143,294.12857142857143,728.4,294.22232142857143,294.12857142857143,828.6,319.22232142857143,313.12857142857143,936.7,226.22232142857143,251.12857142857143,1037.7,96.22232142857143,119.12857142857143,1138.1,80.22232142857143,88.12857142857143,1240.9,71.22232142857143,65.12857142857143,1342.2,69.22232142857143,63.128571428571426,1444.2,68.22232142857143,62.128571428571426,1548.7,68.22232142857143,62.128571428571426,1650.9,68.22232142857143,62.128571428571426,1752.8,68.22232142857143,62.128571428571426,1858.2,68.22232142857143,62.128571428571426,2184.8,68.22232142857143,62.128571428571426,2287.2,68.22232142857143,62.128571428571426,2388.3,68.22232142857143,62.128571428571426,2488.3,68.22232142857143,62.128571428571426,2593.6,68.22232142857143,62.128571428571426,2694.9,68.22232142857143,62.128571428571426,2803,68.22232142857143,62.128571428571426,2908.1,68.22232142857143,62.128571428571426,3020.2,68.22232142857143,62.128571428571426,3122.8,68.22232142857143,62.128571428571426,3228.7,68.22232142857143,62.128571428571426,3332.8,68.22232142857143,62.128571428571426,3444.2,68.22232142857143,62.128571428571426,3746.5,68.22232142857143,62.128571428571426,3847.9,68.22232142857143,62.128571428571426,3953.7,68.22232142857143,62.128571428571426,4060.2,68.22232142857143,62.128571428571426,4162.1,68.22232142857143,62.128571428571426,4263.2,68.22232142857143,62.128571428571426,4369.5,68.22232142857143,62.128571428571426,4469.7,68.22232142857143,62.128571428571426,4572.6,68.22232142857143,62.128571428571426,4679.5,68.22232142857143,62.128571428571426,4791.6,68.22232142857143,62.128571428571426,4894.5,68.22232142857143,62.128571428571426,4995.8]","[1418.5,1418.5,1000,0,418.6,""oops"",""up"",""left"",""good_move"",4277.9,2858,2513.6,1419.9,344.4,""oops"",""up"",""right"",""bad_move"",7149.2,2871,2491.7,4278.3,379.2,""while_blue"",""left"",""down"",""bad_move"",8680.8,1530.8,2952,7150,-1421.2,""error"",""-"",""-"",""no_move"",8873.8,192.2,2952,7150,-1228.2,""while_red"",""-"",""-"",""no_move"",9019.6,338,2952,7150,-1082.4,""while_red"",""-"",""-"",""no_move"",9186.9,505.3,2952,7150,-915.1,""while_red"",""-"",""-"",""no_move"",9287.8,606.2,2952,7150,-814.2,""while_red"",""-"",""-"",""no_move"",9454.3,772.7,2952,7150,-647.7,""while_red"",""-"",""-"",""no_move"",9672.9,991.3,2952,7150,-429.1,""while_red"",""-"",""-"",""no_move"",11854,3172.4,1789.2,9683.6,381.2,""smooth"",""up"",""up"",""good_move"",14278.9,2424.3,2069.7,11854.6,354.6,""oops"",""up"",""down"",""bad_move"",17080.8,2799.1,2430.9,14281.7,368.2,""oops"",""up"",""right"",""bad_move"",20742.8,3661.4,3246.6,17081.4,414.8,""oops"",""left"",""left"",""good_move"",23368.8,2625.3,1975.1,20743.6,650.1,""oops"",""up"",""left"",""good_move"",26422.2,3052.7,2730.8,23369.6,321.8,""oops"",""up"",""right"",""bad_move"",27590.8,1167.6,2648.8,26423.2,-1481.2,""error"",""-"",""-"",""no_move"",31485.5,3894.5,2529.3,28592.5,363.7,""smooth"",""left"",""left"",""good_move"",31953.5,467.7,1924.1,31485.8,-1456.4,""error"",""-"",""-"",""no_move""]"
"3535","","<div style=""width:500px;"">
  <p>What determined the result of this run?</p>
  </div>","56","html-slider-response","49","1073612","0.0-7.0-1.7","22","1","2025-07-30 08:40:06","36c45c0696341be0efffe67d72a12abb","41.13.124.92","Mozilla/5.0 (Windows NT 10.0; Win64; x64) AppleWebKit/537.36 (KHTML, like Gecko) Chrome/138.0.0.0 Safari/537.36","WebKit","Chrome","138.0.0.0","Windows","10.0","https://app.prolific.com/","en-US,en;q=0.9","67fb8218748357094cba6869","687a19d2168e237449fb8af4","6889da0f4c0ff61c11c77f41","0","67fb8218748357094cba6869","0","2025-07-30T08:58:03.132Z","","","","AttribQ","","","","","","","","","","","50","","","","","","","","","","","","","","","","","","","","","","","","","","",""
"2877","","<div style=""width:500px;"">
  <p>How much control did you have over the ball?</p>
  </div>","55","html-slider-response","50","1076491","0.0-7.0-2.7","22","1","2025-07-30 08:40:06","36c45c0696341be0efffe67d72a12abb","41.13.124.92","Mozilla/5.0 (Windows NT 10.0; Win64; x64) AppleWebKit/537.36 (KHTML, like Gecko) Chrome/138.0.0.0 Safari/537.36","WebKit","Chrome","138.0.0.0","Windows","10.0","https://app.prolific.com/","en-US,en;q=0.9","67fb8218748357094cba6869","687a19d2168e237449fb8af4","6889da0f4c0ff61c11c77f41","0","67fb8218748357094cba6869","0","2025-07-30T08:58:06.011Z","","","","ControlQ","","","","","","","","","","","50","","","","","","","","","","","","","","","","","","","","","","","","","","",""
"1939","","<div style=""width:500px;"">
  <p>How would you describe your current emotional state?</p>
  </div>","54","html-slider-response","51","1078433","0.0-7.0-3.7","22","1","2025-07-30 08:40:06","36c45c0696341be0efffe67d72a12abb","41.13.124.92","Mozilla/5.0 (Windows NT 10.0; Win64; x64) AppleWebKit/537.36 (KHTML, like Gecko) Chrome/138.0.0.0 Safari/537.36","WebKit","Chrome","138.0.0.0","Windows","10.0","https://app.prolific.com/","en-US,en;q=0.9","67fb8218748357094cba6869","687a19d2168e237449fb8af4","6889da0f4c0ff61c11c77f41","0","67fb8218748357094cba6869","0","2025-07-30T08:58:07.953Z","","","","StressQ","","","","","","","","","","","50","","","","","","","","","","","","","","","","","","","","","","","","","","",""
"2059","","<div style=""width:500px;"">
  <p>What best describes how you currently feel?</p>
  </div>","56","html-slider-response","52","1080494","0.0-7.0-4.7","22","1","2025-07-30 08:40:06","36c45c0696341be0efffe67d72a12abb","41.13.124.92","Mozilla/5.0 (Windows NT 10.0; Win64; x64) AppleWebKit/537.36 (KHTML, like Gecko) Chrome/138.0.0.0 Safari/537.36","WebKit","Chrome","138.0.0.0","Windows","10.0","https://app.prolific.com/","en-US,en;q=0.9","67fb8218748357094cba6869","687a19d2168e237449fb8af4","6889da0f4c0ff61c11c77f41","0","67fb8218748357094cba6869","0","2025-07-30T08:58:10.014Z","","","","MotivationQ","","","","","","","","","","","50","","","","","","","","","","","","","","","","","","","","","","","","","","",""
"","","","","ctl-task-cpt","53","1112055","0.0-7.0-0.8","22","1","2025-07-30 08:40:06","36c45c0696341be0efffe67d72a12abb","41.13.124.92","Mozilla/5.0 (Windows NT 10.0; Win64; x64) AppleWebKit/537.36 (KHTML, like Gecko) Chrome/138.0.0.0 Safari/537.36","WebKit","Chrome","138.0.0.0","Windows","10.0","https://app.prolific.com/","en-US,en;q=0.9","67fb8218748357094cba6869","687a19d2168e237449fb8af4","6889da0f4c0ff61c11c77f41","0","67fb8218748357094cba6869","0","2025-07-30T08:58:41.575Z","","","","","","","","","","","","","","","","win-only","2","g1:SE,g2:NW","0.4","9","0","1084525.8","1347.1","6353.1","28541.2","1","4","8","6","1","-1","-1","0","0","0","2078.7","3000","-2320","[""down"",""right""]","{""num_key_presses"":7,""num_perfect"":4,""num_errors"":0,""num_randdir"":3,""num_randdir_good_moves"":0,""num_whilered"":0,""num_whileblue"":0,""num_blue"":0,""num_good_moves"":3}","[304.22232142857143,298.12857142857143,0.5,304.22232142857143,298.12857142857143,100.1,304.22232142857143,298.12857142857143,204.6,304.22232142857143,298.12857142857143,317.8,304.22232142857143,298.12857142857143,418.2,304.22232142857143,298.12857142857143,522.5,304.22232142857143,298.12857142857143,624.5,304.22232142857143,298.12857142857143,729.5,304.22232142857143,298.12857142857143,835.8,304.22232142857143,298.12857142857143,935.8,304.22232142857143,298.12857142857143,1035.8,304.22232142857143,298.12857142857143,1138.2,385.22232142857143,357.12857142857143,1238.4,542.2223214285714,492.12857142857143,1350.7,542.2223214285714,492.12857142857143,1453.6,542.2223214285714,492.12857142857143,1560.1,542.2223214285714,492.12857142857143,1663.8,542.2223214285714,509.12857142857143,1764,542.2223214285714,515.1285714285714,1871.8,542.2223214285714,515.1285714285714,1973.6,542.2223214285714,515.1285714285714,2073.8,542.2223214285714,515.1285714285714,2174.4,542.2223214285714,515.1285714285714,2289.3,542.2223214285714,515.1285714285714,2389.7,542.2223214285714,515.1285714285714,2489.7,542.2223214285714,515.1285714285714,2594.4,542.2223214285714,515.1285714285714,2695.1,542.2223214285714,515.1285714285714,2799.5,542.2223214285714,515.1285714285714,2905.1,542.2223214285714,515.1285714285714,3008.6,542.2223214285714,515.1285714285714,3110.7,542.2223214285714,515.1285714285714,3214.1,542.2223214285714,515.1285714285714,3315.9,542.2223214285714,515.1285714285714,3416.9,542.2223214285714,515.1285714285714,3518.1,542.2223214285714,515.1285714285714,3618.4,542.2223214285714,515.1285714285714,3720,542.2223214285714,515.1285714285714,3824.1,542.2223214285714,515.1285714285714,3924.5,542.2223214285714,515.1285714285714,4029.2,542.2223214285714,515.1285714285714,4129.7,542.2223214285714,515.1285714285714,4234.6,542.2223214285714,515.1285714285714,4335,542.2223214285714,515.1285714285714,4438.5,542.2223214285714,515.1285714285714,4539.8,542.2223214285714,515.1285714285714,4643.9,542.2223214285714,515.1285714285714,4752.6,542.2223214285714,515.1285714285714,4853.1,542.2223214285714,515.1285714285714,4953.9]","[1442.7,1442.7,1000,0,442.7,""smooth"",""right"",""right"",""good_move"",5592.8,4149.4,3780.9,1443.4,368.5,""smooth"",""right"",""right"",""good_move"",8683.3,3090.4,2754.4,5593,336,""oops"",""down"",""left"",""bad_move"",11767.6,3083.8,2706.6,8683.8,377.2,""oops"",""right"",""left"",""bad_move"",14026.9,2258.9,1650.6,11768,608.3,""smooth"",""down"",""down"",""good_move"",16675,2647.1,2244.2,14027.9,402.9,""smooth"",""left"",""left"",""bad_move"",18792.8,2117.5,1702,16675.3,415.5,""oops"",""down"",""up"",""bad_move""]"
"46577","","<div style=""width:500px;"">
  <p>What determined the result of this run?</p>
  </div>","47","html-slider-response","54","1158633","0.0-7.0-1.8","22","1","2025-07-30 08:40:06","36c45c0696341be0efffe67d72a12abb","41.13.124.92","Mozilla/5.0 (Windows NT 10.0; Win64; x64) AppleWebKit/537.36 (KHTML, like Gecko) Chrome/138.0.0.0 Safari/537.36","WebKit","Chrome","138.0.0.0","Windows","10.0","https://app.prolific.com/","en-US,en;q=0.9","67fb8218748357094cba6869","687a19d2168e237449fb8af4","6889da0f4c0ff61c11c77f41","0","67fb8218748357094cba6869","0","2025-07-30T08:59:28.154Z","","","","AttribQ","","","","","","","","","","","50","","","","","","","","","","","","","","","","","","","","","","","","","","",""
"1978","","<div style=""width:500px;"">
  <p>How much control did you have over the ball?</p>
  </div>","47","html-slider-response","55","1160615","0.0-7.0-2.8","22","1","2025-07-30 08:40:06","36c45c0696341be0efffe67d72a12abb","41.13.124.92","Mozilla/5.0 (Windows NT 10.0; Win64; x64) AppleWebKit/537.36 (KHTML, like Gecko) Chrome/138.0.0.0 Safari/537.36","WebKit","Chrome","138.0.0.0","Windows","10.0","https://app.prolific.com/","en-US,en;q=0.9","67fb8218748357094cba6869","687a19d2168e237449fb8af4","6889da0f4c0ff61c11c77f41","0","67fb8218748357094cba6869","0","2025-07-30T08:59:30.135Z","","","","ControlQ","","","","","","","","","","","50","","","","","","","","","","","","","","","","","","","","","","","","","","",""
"1966","","<div style=""width:500px;"">
  <p>How would you describe your current emotional state?</p>
  </div>","45","html-slider-response","56","1162584","0.0-7.0-3.8","22","1","2025-07-30 08:40:06","36c45c0696341be0efffe67d72a12abb","41.13.124.92","Mozilla/5.0 (Windows NT 10.0; Win64; x64) AppleWebKit/537.36 (KHTML, like Gecko) Chrome/138.0.0.0 Safari/537.36","WebKit","Chrome","138.0.0.0","Windows","10.0","https://app.prolific.com/","en-US,en;q=0.9","67fb8218748357094cba6869","687a19d2168e237449fb8af4","6889da0f4c0ff61c11c77f41","0","67fb8218748357094cba6869","0","2025-07-30T08:59:32.104Z","","","","StressQ","","","","","","","","","","","50","","","","","","","","","","","","","","","","","","","","","","","","","","",""
"4834","","<div style=""width:500px;"">
  <p>What best describes how you currently feel?</p>
  </div>","53","html-slider-response","57","1167423","0.0-7.0-4.8","22","1","2025-07-30 08:40:06","36c45c0696341be0efffe67d72a12abb","41.13.124.92","Mozilla/5.0 (Windows NT 10.0; Win64; x64) AppleWebKit/537.36 (KHTML, like Gecko) Chrome/138.0.0.0 Safari/537.36","WebKit","Chrome","138.0.0.0","Windows","10.0","https://app.prolific.com/","en-US,en;q=0.9","67fb8218748357094cba6869","687a19d2168e237449fb8af4","6889da0f4c0ff61c11c77f41","0","67fb8218748357094cba6869","0","2025-07-30T08:59:36.943Z","","","","MotivationQ","","","","","","","","","","","50","","","","","","","","","","","","","","","","","","","","","","","","","","",""
"","","","","ctl-task-cpt","58","1211598","0.0-7.0-0.9","22","1","2025-07-30 08:40:06","36c45c0696341be0efffe67d72a12abb","41.13.124.92","Mozilla/5.0 (Windows NT 10.0; Win64; x64) AppleWebKit/537.36 (KHTML, like Gecko) Chrome/138.0.0.0 Safari/537.36","WebKit","Chrome","138.0.0.0","Windows","10.0","https://app.prolific.com/","en-US,en;q=0.9","67fb8218748357094cba6869","687a19d2168e237449fb8af4","6889da0f4c0ff61c11c77f41","0","67fb8218748357094cba6869","0","2025-07-30T09:00:21.118Z","","","","","","","","","","","","","","","","win-only","0","g1:NW,g2:SE","0.5","10","0","1171456.9","1127.1","6131.6","41165.7","1","4","4","6","2","4","4","4","0","0.030303030303030304","1306","3000","270","[""down"",""right""]","{""num_key_presses"":8,""num_perfect"":3,""num_errors"":0,""num_randdir"":5,""num_randdir_good_moves"":4,""num_whilered"":0,""num_whileblue"":0,""num_blue"":3,""num_good_moves"":7}","[294.22232142857143,297.12857142857143,1.2,294.22232142857143,297.12857142857143,106.2,294.22232142857143,297.12857142857143,210.5,294.22232142857143,297.12857142857143,314.7,294.22232142857143,297.12857142857143,415.3,294.22232142857143,297.12857142857143,520.2,374.22232142857143,369.12857142857143,620.6,480.22232142857143,456.12857142857143,728.2,480.22232142857143,456.12857142857143,828.3,480.22232142857143,456.12857142857143,929.3,500.22232142857143,474.12857142857143,1029.4,547.2223214285714,526.1285714285714,1133.7,547.2223214285714,526.1285714285714,1243.3,547.2223214285714,528.1285714285714,1344.2,547.2223214285714,528.1285714285714,1449.6,547.2223214285714,528.1285714285714,1553.6,547.2223214285714,528.1285714285714,1653.6,547.2223214285714,528.1285714285714,1755,547.2223214285714,528.1285714285714,1859.1,547.2223214285714,528.1285714285714,1959.9,547.2223214285714,528.1285714285714,2063.7,547.2223214285714,528.1285714285714,2164.4,547.2223214285714,528.1285714285714,2264.9,547.2223214285714,528.1285714285714,2369,547.2223214285714,528.1285714285714,2476.6,547.2223214285714,528.1285714285714,2581.1,547.2223214285714,528.1285714285714,2684.2,547.2223214285714,528.1285714285714,2784.3,547.2223214285714,528.1285714285714,2895.5,547.2223214285714,528.1285714285714,2998.4,547.2223214285714,528.1285714285714,3113.6,547.2223214285714,528.1285714285714,3213.9,547.2223214285714,528.1285714285714,3314.7,547.2223214285714,528.1285714285714,3426,547.2223214285714,528.1285714285714,3528.4,547.2223214285714,528.1285714285714,3631.1,547.2223214285714,528.1285714285714,3738.4,547.2223214285714,528.1285714285714,3838.5,547.2223214285714,528.1285714285714,3940.2,547.2223214285714,528.1285714285714,4048.4,547.2223214285714,528.1285714285714,4149.6,547.2223214285714,528.1285714285714,4261.9,547.2223214285714,528.1285714285714,4362.9,547.2223214285714,528.1285714285714,4463.8,547.2223214285714,528.1285714285714,4575.3,547.2223214285714,528.1285714285714,4678.5,547.2223214285714,528.1285714285714,4783.4,547.2223214285714,528.1285714285714,4891.2,547.2223214285714,528.1285714285714,4997.1]","[1428.8,1428.8,1000,0,428.8,""smooth"",""right"",""right"",""good_move"",8149.2,6719.8,2621.7,5091.1,436.5,""smooth"",""down"",""down"",""good_move"",11222.1,3072.4,2660.7,8149.7,411.7,""oops"",""right"",""left"",""bad_move"",14837.3,3614.8,3085.5,11222.5,529.3,""oops"",""down"",""right"",""good_move"",18899.4,4061.6,3577,14837.8,484.6,""oops"",""down"",""down"",""good_move"",21840.8,2940.8,2453.4,18900,487.4,""oops"",""right"",""right"",""good_move"",24401.7,2559.7,2160.5,21842,399.2,""oops"",""down"",""right"",""good_move"",34923.8,10521.9,2958.3,31523.1,442.4,""smooth"",""down"",""down"",""good_move""]"
"3599","","<div style=""width:500px;"">
  <p>What determined the result of this run?</p>
  </div>","56","html-slider-response","59","1215199","0.0-7.0-1.9","22","1","2025-07-30 08:40:06","36c45c0696341be0efffe67d72a12abb","41.13.124.92","Mozilla/5.0 (Windows NT 10.0; Win64; x64) AppleWebKit/537.36 (KHTML, like Gecko) Chrome/138.0.0.0 Safari/537.36","WebKit","Chrome","138.0.0.0","Windows","10.0","https://app.prolific.com/","en-US,en;q=0.9","67fb8218748357094cba6869","687a19d2168e237449fb8af4","6889da0f4c0ff61c11c77f41","0","67fb8218748357094cba6869","0","2025-07-30T09:00:24.720Z","","","","AttribQ","","","","","","","","","","","50","","","","","","","","","","","","","","","","","","","","","","","","","","",""
"2051","","<div style=""width:500px;"">
  <p>How much control did you have over the ball?</p>
  </div>","56","html-slider-response","60","1217253","0.0-7.0-2.9","22","1","2025-07-30 08:40:06","36c45c0696341be0efffe67d72a12abb","41.13.124.92","Mozilla/5.0 (Windows NT 10.0; Win64; x64) AppleWebKit/537.36 (KHTML, like Gecko) Chrome/138.0.0.0 Safari/537.36","WebKit","Chrome","138.0.0.0","Windows","10.0","https://app.prolific.com/","en-US,en;q=0.9","67fb8218748357094cba6869","687a19d2168e237449fb8af4","6889da0f4c0ff61c11c77f41","0","67fb8218748357094cba6869","0","2025-07-30T09:00:26.773Z","","","","ControlQ","","","","","","","","","","","50","","","","","","","","","","","","","","","","","","","","","","","","","","",""
"1935","","<div style=""width:500px;"">
  <p>How would you describe your current emotional state?</p>
  </div>","57","html-slider-response","61","1219192","0.0-7.0-3.9","22","1","2025-07-30 08:40:06","36c45c0696341be0efffe67d72a12abb","41.13.124.92","Mozilla/5.0 (Windows NT 10.0; Win64; x64) AppleWebKit/537.36 (KHTML, like Gecko) Chrome/138.0.0.0 Safari/537.36","WebKit","Chrome","138.0.0.0","Windows","10.0","https://app.prolific.com/","en-US,en;q=0.9","67fb8218748357094cba6869","687a19d2168e237449fb8af4","6889da0f4c0ff61c11c77f41","0","67fb8218748357094cba6869","0","2025-07-30T09:00:28.712Z","","","","StressQ","","","","","","","","","","","50","","","","","","","","","","","","","","","","","","","","","","","","","","",""
"2305","","<div style=""width:500px;"">
  <p>What best describes how you currently feel?</p>
  </div>","56","html-slider-response","62","1221499","0.0-7.0-4.9","22","1","2025-07-30 08:40:06","36c45c0696341be0efffe67d72a12abb","41.13.124.92","Mozilla/5.0 (Windows NT 10.0; Win64; x64) AppleWebKit/537.36 (KHTML, like Gecko) Chrome/138.0.0.0 Safari/537.36","WebKit","Chrome","138.0.0.0","Windows","10.0","https://app.prolific.com/","en-US,en;q=0.9","67fb8218748357094cba6869","687a19d2168e237449fb8af4","6889da0f4c0ff61c11c77f41","0","67fb8218748357094cba6869","0","2025-07-30T09:00:31.019Z","","","","MotivationQ","","","","","","","","","","","50","","","","","","","","","","","","","","","","","","","","","","","","","","",""
"","","","","ctl-task-cpt","63","1261723","0.0-7.0-0.10","22","1","2025-07-30 08:40:06","36c45c0696341be0efffe67d72a12abb","41.13.124.92","Mozilla/5.0 (Windows NT 10.0; Win64; x64) AppleWebKit/537.36 (KHTML, like Gecko) Chrome/138.0.0.0 Safari/537.36","WebKit","Chrome","138.0.0.0","Windows","10.0","https://app.prolific.com/","en-US,en;q=0.9","67fb8218748357094cba6869","687a19d2168e237449fb8af4","6889da0f4c0ff61c11c77f41","0","67fb8218748357094cba6869","0","2025-07-30T09:01:11.243Z","","","","","","","","","","","","","","","","win-only","2","g1:SE,g2:NW","0.6","11","0","1225533.2","1507.3","6514.5","37194.9","1","4","8","6","2","-8","-8","0","4","0","1684.8","3000","-2265","[""left"",""up""]","{""num_key_presses"":9,""num_perfect"":5,""num_errors"":0,""num_randdir"":4,""num_randdir_good_moves"":1,""num_whilered"":0,""num_whileblue"":0,""num_blue"":1,""num_good_moves"":6}","[291.22232142857143,294.12857142857143,0.2,291.22232142857143,294.12857142857143,103.3,291.22232142857143,294.12857142857143,210.9,291.22232142857143,294.12857142857143,313.2,291.22232142857143,294.12857142857143,418.4,386.22232142857143,368.12857142857143,527.1,446.22232142857143,436.12857142857143,640.9,446.22232142857143,436.12857142857143,750,166.22232142857143,233.12857142857143,851.7,31.222321428571426,114.12857142857143,958.1,31.222321428571426,114.12857142857143,1069.9,31.222321428571426,114.12857142857143,1173.2,31.222321428571426,114.12857142857143,1274.4,31.222321428571426,114.12857142857143,1379.9,31.222321428571426,101.12857142857143,1481.6,33.222321428571426,86.12857142857143,1586.9,33.222321428571426,84.12857142857143,1692.2,33.222321428571426,84.12857142857143,1804.5,33.222321428571426,84.12857142857143,1908.9,33.222321428571426,84.12857142857143,2009.2,33.222321428571426,84.12857142857143,2109.6,47.222321428571426,107.12857142857143,2220.2,189.22232142857143,287.12857142857143,2324.6,206.22232142857143,310.12857142857143,2436.4,206.22232142857143,310.12857142857143,2538.8,206.22232142857143,310.12857142857143,2644.6,206.22232142857143,310.12857142857143,2766.2,206.22232142857143,310.12857142857143,2874.4,206.22232142857143,310.12857142857143,2976.9,206.22232142857143,310.12857142857143,3081,206.22232142857143,310.12857142857143,3185.4,206.22232142857143,310.12857142857143,3289.7,206.22232142857143,310.12857142857143,3390.2,206.22232142857143,310.12857142857143,3504.8,206.22232142857143,310.12857142857143,3606.2,206.22232142857143,310.12857142857143,3708.7,206.22232142857143,310.12857142857143,3816,206.22232142857143,310.12857142857143,3922.8,206.22232142857143,310.12857142857143,4023.3,206.22232142857143,310.12857142857143,4124.4,206.22232142857143,310.12857142857143,4239.5,206.22232142857143,310.12857142857143,4340.8,206.22232142857143,310.12857142857143,4452.7,206.22232142857143,310.12857142857143,4553.6,206.22232142857143,310.12857142857143,4654.9,206.22232142857143,310.12857142857143,4759.7,206.22232142857143,310.12857142857143,4860.2,206.22232142857143,310.12857142857143,4975.1]","[1494.2,1494.2,1000,0,494.2,""oops"",""up"",""left"",""good_move"",3659.2,2164.4,1671.8,1494.9,492.6,""oops"",""up"",""down"",""bad_move"",9804.9,6144.8,2137.1,7212.2,455.6,""oops"",""left"",""right"",""bad_move"",13315.5,3509.5,2772.3,9806,737.2,""smooth"",""up"",""up"",""good_move"",15747.2,2431,1998.5,13316.2,432.5,""oops"",""right"",""down"",""bad_move"",18363.3,2615.4,2187.4,15747.9,428,""smooth"",""up"",""up"",""good_move"",21507.2,3143.8,2801,18363.5,342.8,""smooth"",""up"",""up"",""good_move"",24151.3,2643.8,2282.2,21507.5,361.6,""smooth"",""up"",""up"",""good_move"",27441.5,3289.1,2953.7,24152.6,335.2,""smooth"",""up"",""up"",""good_move""]"
"2441","","<div style=""width:500px;"">
  <p>What determined the result of this run?</p>
  </div>","31","html-slider-response","64","1264167","0.0-7.0-1.10","22","1","2025-07-30 08:40:06","36c45c0696341be0efffe67d72a12abb","41.13.124.92","Mozilla/5.0 (Windows NT 10.0; Win64; x64) AppleWebKit/537.36 (KHTML, like Gecko) Chrome/138.0.0.0 Safari/537.36","WebKit","Chrome","138.0.0.0","Windows","10.0","https://app.prolific.com/","en-US,en;q=0.9","67fb8218748357094cba6869","687a19d2168e237449fb8af4","6889da0f4c0ff61c11c77f41","0","67fb8218748357094cba6869","0","2025-07-30T09:01:13.687Z","","","","AttribQ","","","","","","","","","","","50","","","","","","","","","","","","","","","","","","","","","","","","","","",""
"1795","","<div style=""width:500px;"">
  <p>How much control did you have over the ball?</p>
  </div>","21","html-slider-response","65","1265963","0.0-7.0-2.10","22","1","2025-07-30 08:40:06","36c45c0696341be0efffe67d72a12abb","41.13.124.92","Mozilla/5.0 (Windows NT 10.0; Win64; x64) AppleWebKit/537.36 (KHTML, like Gecko) Chrome/138.0.0.0 Safari/537.36","WebKit","Chrome","138.0.0.0","Windows","10.0","https://app.prolific.com/","en-US,en;q=0.9","67fb8218748357094cba6869","687a19d2168e237449fb8af4","6889da0f4c0ff61c11c77f41","0","67fb8218748357094cba6869","0","2025-07-30T09:01:15.484Z","","","","ControlQ","","","","","","","","","","","50","","","","","","","","","","","","","","","","","","","","","","","","","","",""
"1367","","<div style=""width:500px;"">
  <p>How would you describe your current emotional state?</p>
  </div>","19","html-slider-response","66","1267333","0.0-7.0-3.10","22","1","2025-07-30 08:40:06","36c45c0696341be0efffe67d72a12abb","41.13.124.92","Mozilla/5.0 (Windows NT 10.0; Win64; x64) AppleWebKit/537.36 (KHTML, like Gecko) Chrome/138.0.0.0 Safari/537.36","WebKit","Chrome","138.0.0.0","Windows","10.0","https://app.prolific.com/","en-US,en;q=0.9","67fb8218748357094cba6869","687a19d2168e237449fb8af4","6889da0f4c0ff61c11c77f41","0","67fb8218748357094cba6869","0","2025-07-30T09:01:16.853Z","","","","StressQ","","","","","","","","","","","50","","","","","","","","","","","","","","","","","","","","","","","","","","",""
"1456","","<div style=""width:500px;"">
  <p>What best describes how you currently feel?</p>
  </div>","62","html-slider-response","67","1268791","0.0-7.0-4.10","22","1","2025-07-30 08:40:06","36c45c0696341be0efffe67d72a12abb","41.13.124.92","Mozilla/5.0 (Windows NT 10.0; Win64; x64) AppleWebKit/537.36 (KHTML, like Gecko) Chrome/138.0.0.0 Safari/537.36","WebKit","Chrome","138.0.0.0","Windows","10.0","https://app.prolific.com/","en-US,en;q=0.9","67fb8218748357094cba6869","687a19d2168e237449fb8af4","6889da0f4c0ff61c11c77f41","0","67fb8218748357094cba6869","0","2025-07-30T09:01:18.311Z","","","","MotivationQ","","","","","","","","","","","50","","","","","","","","","","","","","","","","","","","","","","","","","","",""
"","","","","ctl-task-cpt","68","1288498","0.0-7.0-0.11","22","1","2025-07-30 08:40:06","36c45c0696341be0efffe67d72a12abb","41.13.124.92","Mozilla/5.0 (Windows NT 10.0; Win64; x64) AppleWebKit/537.36 (KHTML, like Gecko) Chrome/138.0.0.0 Safari/537.36","WebKit","Chrome","138.0.0.0","Windows","10.0","https://app.prolific.com/","en-US,en;q=0.9","67fb8218748357094cba6869","687a19d2168e237449fb8af4","6889da0f4c0ff61c11c77f41","0","67fb8218748357094cba6869","0","2025-07-30T09:01:38.018Z","","","","","","","","","","","","","","","","win-only","2","g1:SE,g2:NW","0.7","12","0","1272824.7","1151.6","6157.3","16670.1","1","4","4","6","1","1","1","1","0","0.007575757575757576","1264.9","3000","1890","[""down"",""right""]","{""num_key_presses"":4,""num_perfect"":2,""num_errors"":0,""num_randdir"":2,""num_randdir_good_moves"":2,""num_whilered"":0,""num_whileblue"":0,""num_blue"":0,""num_good_moves"":4}","[294.22232142857143,295.12857142857143,0.3,294.22232142857143,295.12857142857143,107.9,294.22232142857143,295.12857142857143,216.6,294.22232142857143,295.12857142857143,320.7,294.22232142857143,295.12857142857143,421.4,294.22232142857143,295.12857142857143,533.4,419.22232142857143,371.12857142857143,636,453.22232142857143,398.12857142857143,738.9,454.22232142857143,398.12857142857143,840.5,426.22232142857143,394.12857142857143,942.9,478.22232142857143,476.12857142857143,1050.1,497.22232142857143,500.12857142857143,1153.2,497.22232142857143,500.12857142857143,1255.5,497.22232142857143,500.12857142857143,1355.5,497.22232142857143,500.12857142857143,1456.5,497.22232142857143,500.12857142857143,1561.2,497.22232142857143,500.12857142857143,1671.8,497.22232142857143,500.12857142857143,1786.5,497.22232142857143,500.12857142857143,1889.4,497.22232142857143,500.12857142857143,2009.8,497.22232142857143,500.12857142857143,2114.1,497.22232142857143,500.12857142857143,2220,497.22232142857143,500.12857142857143,2321,497.22232142857143,500.12857142857143,2425.5,497.22232142857143,500.12857142857143,2526,497.22232142857143,500.12857142857143,2630.2,497.22232142857143,500.12857142857143,2733.8,497.22232142857143,500.12857142857143,2833.8,497.22232142857143,500.12857142857143,2934.5,497.22232142857143,500.12857142857143,3036.1,497.22232142857143,500.12857142857143,3141.6,497.22232142857143,500.12857142857143,3245.1,497.22232142857143,500.12857142857143,3349.6,497.22232142857143,500.12857142857143,3450.7,497.22232142857143,500.12857142857143,3554,497.22232142857143,500.12857142857143,3654.3,497.22232142857143,500.12857142857143,3755.7,497.22232142857143,500.12857142857143,3861.2,497.22232142857143,500.12857142857143,3964.7,497.22232142857143,500.12857142857143,4070.2,497.22232142857143,500.12857142857143,4172.6,497.22232142857143,500.12857142857143,4287.5,497.22232142857143,500.12857142857143,4390.2,497.22232142857143,500.12857142857143,4497.5,497.22232142857143,500.12857142857143,4600.2,497.22232142857143,500.12857142857143,4701,497.22232142857143,500.12857142857143,4806.1,497.22232142857143,500.12857142857143,4918.9]","[1409.4,1409.4,1000,0,409.4,""smooth"",""down"",""down"",""good_move"",4693.6,3283.4,2859.3,1410.2,424.1,""smooth"",""right"",""right"",""good_move"",7873.5,3179.4,2733.6,4694.1,445.8,""oops"",""down"",""down"",""good_move"",10372.5,2498.5,2104.1,7874,394.4,""oops"",""right"",""right"",""good_move""]"
"2084","","<div style=""width:500px;"">
  <p>What determined the result of this run?</p>
  </div>","55","html-slider-response","69","1290584","0.0-7.0-1.11","22","1","2025-07-30 08:40:06","36c45c0696341be0efffe67d72a12abb","41.13.124.92","Mozilla/5.0 (Windows NT 10.0; Win64; x64) AppleWebKit/537.36 (KHTML, like Gecko) Chrome/138.0.0.0 Safari/537.36","WebKit","Chrome","138.0.0.0","Windows","10.0","https://app.prolific.com/","en-US,en;q=0.9","67fb8218748357094cba6869","687a19d2168e237449fb8af4","6889da0f4c0ff61c11c77f41","0","67fb8218748357094cba6869","0","2025-07-30T09:01:40.104Z","","","","AttribQ","","","","","","","","","","","50","","","","","","","","","","","","","","","","","","","","","","","","","","",""
"2048","","<div style=""width:500px;"">
  <p>How much control did you have over the ball?</p>
  </div>","55","html-slider-response","70","1292635","0.0-7.0-2.11","22","1","2025-07-30 08:40:06","36c45c0696341be0efffe67d72a12abb","41.13.124.92","Mozilla/5.0 (Windows NT 10.0; Win64; x64) AppleWebKit/537.36 (KHTML, like Gecko) Chrome/138.0.0.0 Safari/537.36","WebKit","Chrome","138.0.0.0","Windows","10.0","https://app.prolific.com/","en-US,en;q=0.9","67fb8218748357094cba6869","687a19d2168e237449fb8af4","6889da0f4c0ff61c11c77f41","0","67fb8218748357094cba6869","0","2025-07-30T09:01:42.155Z","","","","ControlQ","","","","","","","","","","","50","","","","","","","","","","","","","","","","","","","","","","","","","","",""
"2191","","<div style=""width:500px;"">
  <p>How would you describe your current emotional state?</p>
  </div>","54","html-slider-response","71","1294829","0.0-7.0-3.11","22","1","2025-07-30 08:40:06","36c45c0696341be0efffe67d72a12abb","41.13.124.92","Mozilla/5.0 (Windows NT 10.0; Win64; x64) AppleWebKit/537.36 (KHTML, like Gecko) Chrome/138.0.0.0 Safari/537.36","WebKit","Chrome","138.0.0.0","Windows","10.0","https://app.prolific.com/","en-US,en;q=0.9","67fb8218748357094cba6869","687a19d2168e237449fb8af4","6889da0f4c0ff61c11c77f41","0","67fb8218748357094cba6869","0","2025-07-30T09:01:44.349Z","","","","StressQ","","","","","","","","","","","50","","","","","","","","","","","","","","","","","","","","","","","","","","",""
"3165","","<div style=""width:500px;"">
  <p>What best describes how you currently feel?</p>
  </div>","56","html-slider-response","72","1297996","0.0-7.0-4.11","22","1","2025-07-30 08:40:06","36c45c0696341be0efffe67d72a12abb","41.13.124.92","Mozilla/5.0 (Windows NT 10.0; Win64; x64) AppleWebKit/537.36 (KHTML, like Gecko) Chrome/138.0.0.0 Safari/537.36","WebKit","Chrome","138.0.0.0","Windows","10.0","https://app.prolific.com/","en-US,en;q=0.9","67fb8218748357094cba6869","687a19d2168e237449fb8af4","6889da0f4c0ff61c11c77f41","0","67fb8218748357094cba6869","0","2025-07-30T09:01:47.517Z","","","","MotivationQ","","","","","","","","","","","50","","","","","","","","","","","","","","","","","","","","","","","","","","",""
"","","","","ctl-task-cpt","73","1318783","0.0-7.0-0.12","22","1","2025-07-30 08:40:06","36c45c0696341be0efffe67d72a12abb","41.13.124.92","Mozilla/5.0 (Windows NT 10.0; Win64; x64) AppleWebKit/537.36 (KHTML, like Gecko) Chrome/138.0.0.0 Safari/537.36","WebKit","Chrome","138.0.0.0","Windows","10.0","https://app.prolific.com/","en-US,en;q=0.9","67fb8218748357094cba6869","687a19d2168e237449fb8af4","6889da0f4c0ff61c11c77f41","0","67fb8218748357094cba6869","0","2025-07-30T09:02:08.303Z","","","","","","","","","","","","","","","","win-only","3","g1:SW,g2:NE","0.8","13","0","1302031.1","1160.3","6161.9","17771.3","1","4","8","6","1","1","1","2","1","0.015151515151515152","1122.1","3000","1230","[""down"",""left""]","{""num_key_presses"":4,""num_perfect"":4,""num_errors"":0,""num_randdir"":0,""num_randdir_good_moves"":0,""num_whilered"":0,""num_whileblue"":0,""num_blue"":0,""num_good_moves"":4}","[303.22232142857143,291.12857142857143,0.7,299.22232142857143,293.12857142857143,102.3,299.22232142857143,293.12857142857143,207,299.22232142857143,293.12857142857143,313.5,299.22232142857143,293.12857142857143,419.9,299.22232142857143,293.12857142857143,521.9,182.22232142857143,497.12857142857143,631.3,148.22232142857143,528.1285714285714,737.8,146.22232142857143,530.1285714285714,841.1,130.22232142857143,541.1285714285714,948.1,39.222321428571426,589.1285714285714,1071.3,38.222321428571426,589.1285714285714,1193.1,38.222321428571426,589.1285714285714,1304.5,38.222321428571426,589.1285714285714,1405.2,46.222321428571426,582.1285714285714,1507.7,73.22232142857143,513.1285714285714,1617.6,77.22232142857143,495.12857142857143,1717.6,77.22232142857143,495.12857142857143,1823.8,77.22232142857143,495.12857142857143,1931,77.22232142857143,495.12857142857143,2033,77.22232142857143,495.12857142857143,2137.2,77.22232142857143,495.12857142857143,2240.3,77.22232142857143,495.12857142857143,2361.1,77.22232142857143,495.12857142857143,2471.4,77.22232142857143,495.12857142857143,2571.8,77.22232142857143,495.12857142857143,2677.2,77.22232142857143,495.12857142857143,2780.3,77.22232142857143,495.12857142857143,2882.2,77.22232142857143,495.12857142857143,2985.6,77.22232142857143,495.12857142857143,3085.9,77.22232142857143,495.12857142857143,3192.1,77.22232142857143,495.12857142857143,3308,77.22232142857143,495.12857142857143,3424.3,77.22232142857143,495.12857142857143,3530.3,77.22232142857143,495.12857142857143,3642.6,77.22232142857143,495.12857142857143,3748.8,77.22232142857143,495.12857142857143,3854.2,77.22232142857143,495.12857142857143,3955.6,77.22232142857143,495.12857142857143,4056.8,77.22232142857143,495.12857142857143,4163.4,77.22232142857143,495.12857142857143,4272.8,77.22232142857143,495.12857142857143,4373.1,77.22232142857143,495.12857142857143,4476.3,77.22232142857143,495.12857142857143,4576.4,77.22232142857143,495.12857142857143,4676.9,77.22232142857143,495.12857142857143,4787,77.22232142857143,495.12857142857143,4893.2]","[1437.3,1437.3,1000,0,437.3,""smooth"",""down"",""down"",""good_move"",4056.6,2618.9,2235.7,1437.7,383.2,""smooth"",""left"",""left"",""good_move"",8842.1,4784.2,2610.6,4057.9,2173.6,""smooth"",""down"",""down"",""good_move"",11481,2638.2,2247.2,8842.8,391,""smooth"",""left"",""left"",""good_move""]"
"2180","","<div style=""width:500px;"">
  <p>What determined the result of this run?</p>
  </div>","60","html-slider-response","74","1320965","0.0-7.0-1.12","22","1","2025-07-30 08:40:06","36c45c0696341be0efffe67d72a12abb","41.13.124.92","Mozilla/5.0 (Windows NT 10.0; Win64; x64) AppleWebKit/537.36 (KHTML, like Gecko) Chrome/138.0.0.0 Safari/537.36","WebKit","Chrome","138.0.0.0","Windows","10.0","https://app.prolific.com/","en-US,en;q=0.9","67fb8218748357094cba6869","687a19d2168e237449fb8af4","6889da0f4c0ff61c11c77f41","0","67fb8218748357094cba6869","0","2025-07-30T09:02:10.485Z","","","","AttribQ","","","","","","","","","","","50","","","","","","","","","","","","","","","","","","","","","","","","","","",""
"1653","","<div style=""width:500px;"">
  <p>How much control did you have over the ball?</p>
  </div>","63","html-slider-response","75","1322620","0.0-7.0-2.12","22","1","2025-07-30 08:40:06","36c45c0696341be0efffe67d72a12abb","41.13.124.92","Mozilla/5.0 (Windows NT 10.0; Win64; x64) AppleWebKit/537.36 (KHTML, like Gecko) Chrome/138.0.0.0 Safari/537.36","WebKit","Chrome","138.0.0.0","Windows","10.0","https://app.prolific.com/","en-US,en;q=0.9","67fb8218748357094cba6869","687a19d2168e237449fb8af4","6889da0f4c0ff61c11c77f41","0","67fb8218748357094cba6869","0","2025-07-30T09:02:12.141Z","","","","ControlQ","","","","","","","","","","","50","","","","","","","","","","","","","","","","","","","","","","","","","","",""
"1825","","<div style=""width:500px;"">
  <p>How would you describe your current emotional state?</p>
  </div>","60","html-slider-response","76","1324448","0.0-7.0-3.12","22","1","2025-07-30 08:40:06","36c45c0696341be0efffe67d72a12abb","41.13.124.92","Mozilla/5.0 (Windows NT 10.0; Win64; x64) AppleWebKit/537.36 (KHTML, like Gecko) Chrome/138.0.0.0 Safari/537.36","WebKit","Chrome","138.0.0.0","Windows","10.0","https://app.prolific.com/","en-US,en;q=0.9","67fb8218748357094cba6869","687a19d2168e237449fb8af4","6889da0f4c0ff61c11c77f41","0","67fb8218748357094cba6869","0","2025-07-30T09:02:13.969Z","","","","StressQ","","","","","","","","","","","50","","","","","","","","","","","","","","","","","","","","","","","","","","",""
"1875","","<div style=""width:500px;"">
  <p>What best describes how you currently feel?</p>
  </div>","37","html-slider-response","77","1326326","0.0-7.0-4.12","22","1","2025-07-30 08:40:06","36c45c0696341be0efffe67d72a12abb","41.13.124.92","Mozilla/5.0 (Windows NT 10.0; Win64; x64) AppleWebKit/537.36 (KHTML, like Gecko) Chrome/138.0.0.0 Safari/537.36","WebKit","Chrome","138.0.0.0","Windows","10.0","https://app.prolific.com/","en-US,en;q=0.9","67fb8218748357094cba6869","687a19d2168e237449fb8af4","6889da0f4c0ff61c11c77f41","0","67fb8218748357094cba6869","0","2025-07-30T09:02:15.847Z","","","","MotivationQ","","","","","","","","","","","50","","","","","","","","","","","","","","","","","","","","","","","","","","",""
