"rt","response_timestamp","stimulus","response","trial_type","trial_index","time_elapsed","internal_node_id","run_id","condition","recorded_at","source_code_version","ip","user_agent","device","browser","browser_version","platform","platform_version","referer","accept_language","PROLIFIC_PID","STUDY_ID","SESSION_ID","BATCH","prolific_id","batch","realtime","success","question_order","question_id","eventType","responses","item_order","radio_event_ids","radio_event_times","key_event_times","mouse_event_times","straightlining","zigzagging","honeypot","view_history","slider_start","which_type","canvas_config","goals_layout","control_level","trial_number","tutorial_trial_number","trial_start_time","phase1_start_time","phase2_start_time","phase3_start_time","goal_1_value","goal_1_distance","goal_2_value","goal_2_distance","goal_selected","outcome","outcome_total","participant_final_score","participant_initial_score","participant_final_score_prop","goal_choice_rt","allocated_time","allocated_time_remaining","goal_direction","counts","mouse_movements","key_presses"
"17651","1754473566579","<p style='font-size:40px;line-height:1.25'><strong>Welcome to the experiment!</strong></p><p style='font-size:1.1em;line-height:1.25'>Thank you for participanting in our experiment again! You will be asked to play the Dysfunctional Ball Game again. We will briefly recap the rules before we start.</p><p style='font-size:1.1em;line-height:1.25'>Press <strong>Next</strong> to continue.</p>","0","custom-html-button-response","0","17657","0.0-0.0","171","1","2025-08-06 09:45:44","36c45c0696341be0efffe67d72a12abb","41.13.191.161","Mozilla/5.0 (Windows NT 10.0; Win64; x64) AppleWebKit/537.36 (KHTML, like Gecko) Chrome/138.0.0.0 Safari/537.36 Edg/138.0.0.0","WebKit","Edge","138.0.0.0","Windows","10.0","https://app.prolific.com/","en-US,en;q=0.9,en-ZA;q=0.8","6820e30a98ebaa472670fd3d","687a1a965b9f5b85a264363e","68932263b9759a16e7efdfb1","1","6820e30a98ebaa472670fd3d","1","2025-08-06T09:46:06.581Z","","","","","","","","","","","","","","","","","","","","","","","","","","","","","","","","","","","","","","","","","",""
"1458","","","","fullscreen","1","20125","0.0-1.0","171","1","2025-08-06 09:45:44","36c45c0696341be0efffe67d72a12abb","41.13.191.161","Mozilla/5.0 (Windows NT 10.0; Win64; x64) AppleWebKit/537.36 (KHTML, like Gecko) Chrome/138.0.0.0 Safari/537.36 Edg/138.0.0.0","WebKit","Edge","138.0.0.0","Windows","10.0","https://app.prolific.com/","en-US,en;q=0.9,en-ZA;q=0.8","6820e30a98ebaa472670fd3d","687a1a965b9f5b85a264363e","68932263b9759a16e7efdfb1","1","6820e30a98ebaa472670fd3d","1","","true","","","","","","","","","","","","","","","","","","","","","","","","","","","","","","","","","","","","","","","","",""
"2449","1754473571500"," <p style='font-size:1.1em;line-height:1.25'>Thank you for closing all other tabs.</p><p style='font-size:1.1em;line-height:1.25'>We will now invite you to fill in some questionnaires, before starting the game.<br>This will take about 5 minutes.<br></p><p style='font-size:1.1em;line-height:1.25'>Press the <strong>Next</strong> button to continue.</p>","0","custom-html-button-response","2","22576","0.0-2.0","171","1","2025-08-06 09:45:44","36c45c0696341be0efffe67d72a12abb","41.13.191.161","Mozilla/5.0 (Windows NT 10.0; Win64; x64) AppleWebKit/537.36 (KHTML, like Gecko) Chrome/138.0.0.0 Safari/537.36 Edg/138.0.0.0","WebKit","Edge","138.0.0.0","Windows","10.0","https://app.prolific.com/","en-US,en;q=0.9,en-ZA;q=0.8","6820e30a98ebaa472670fd3d","687a1a965b9f5b85a264363e","68932263b9759a16e7efdfb1","1","6820e30a98ebaa472670fd3d","1","2025-08-06T09:46:11.501Z","","","","","","","","","","","","","","","","","","","","","","","","","","","","","","","","","","","","","","","","","",""
"3131","","","{""assigned_sex"":""female""}","survey-multi-choice","3","25711","0.0-3.0-0.0","171","1","2025-08-06 09:45:44","36c45c0696341be0efffe67d72a12abb","41.13.191.161","Mozilla/5.0 (Windows NT 10.0; Win64; x64) AppleWebKit/537.36 (KHTML, like Gecko) Chrome/138.0.0.0 Safari/537.36 Edg/138.0.0.0","WebKit","Edge","138.0.0.0","Windows","10.0","https://app.prolific.com/","en-US,en;q=0.9,en-ZA;q=0.8","6820e30a98ebaa472670fd3d","687a1a965b9f5b85a264363e","68932263b9759a16e7efdfb1","1","6820e30a98ebaa472670fd3d","1","","","[0]","0","demographics","","","","","","","","","","","","","","","","","","","","","","","","","","","","","","","","","","","","","",""
"3706","1754473578342","<p style='font-size:1.1em;line-height:1.25'>In the following, we will perform a baseline assessment. This means that we will ask you a few questions relating to your experiences over the past month.<br></p><p style='font-size:1.1em;line-height:1.25'>Press the <strong>Next</strong> button to continue.</p>","0","custom-html-button-response","4","29419","0.0-4.0-0.0","171","1","2025-08-06 09:45:44","36c45c0696341be0efffe67d72a12abb","41.13.191.161","Mozilla/5.0 (Windows NT 10.0; Win64; x64) AppleWebKit/537.36 (KHTML, like Gecko) Chrome/138.0.0.0 Safari/537.36 Edg/138.0.0.0","WebKit","Edge","138.0.0.0","Windows","10.0","https://app.prolific.com/","en-US,en;q=0.9,en-ZA;q=0.8","6820e30a98ebaa472670fd3d","687a1a965b9f5b85a264363e","68932263b9759a16e7efdfb1","1","6820e30a98ebaa472670fd3d","1","2025-08-06T09:46:18.344Z","","","","","","","","","","","","","","","","","","","","","","","","","","","","","","","","","","","","","","","","","",""
"53867.30000000447","","","","survey-template","5","83295","0.0-4.0-1.0","171","1","2025-08-06 09:45:44","36c45c0696341be0efffe67d72a12abb","41.13.191.161","Mozilla/5.0 (Windows NT 10.0; Win64; x64) AppleWebKit/537.36 (KHTML, like Gecko) Chrome/138.0.0.0 Safari/537.36 Edg/138.0.0.0","WebKit","Edge","138.0.0.0","Windows","10.0","https://app.prolific.com/","en-US,en;q=0.9,en-ZA;q=0.8","6820e30a98ebaa472670fd3d","687a1a965b9f5b85a264363e","68932263b9759a16e7efdfb1","1","6820e30a98ebaa472670fd3d","1","2025-08-06T09:47:12.220Z","","","","pss","{""Q01"":""3"",""Q02"":""3"",""Q03"":""2"",""Q04"":""2"",""Q05"":""0"",""Q06"":""3"",""Q07"":""1"",""Q08"":""2"",""Q09"":""2"",""Q10"":""3""}","[0,1,2,3,4,5,6,7,8,9]","[""Q01"",""Q02"",""Q03"",""Q04"",""Q05"",""Q05"",""Q06"",""Q07"",""Q08"",""Q09"",""Q10""]","[7168.80000000447,12958.60000000149,20982.70000000298,25306.5,29548.20000000298,32086.60000000149,34676.60000000149,40565,43618.60000000149,47018.70000000298,52964.30000000447]","[]","[0.30000000447034836,6104.5,7168.80000000447,12958.60000000149,17667.30000000447,18904.5,20982.70000000298,25306.5,29548.20000000298,31590.20000000298,32086.60000000149,34676.60000000149,39469,40565,43618.60000000149,47018.70000000298,48513.89999999851,52964.30000000447,53864.20000000298]","0.5","0.4444444444444444","0","","","","","","","","","","","","","","","","","","","","","","","","","","","","",""
"1580","1754473633802","<p style='font-size:1.1em;line-height:1.25'>Thank you for your answers! Now we will ask you a few more questions relating to your feelings in the last 24 hours.<br></p><p style='font-size:1.1em;line-height:1.25'>Press the <strong>Next</strong> button to continue.</p>","0","custom-html-button-response","6","84879","0.0-4.0-2.0","171","1","2025-08-06 09:45:44","36c45c0696341be0efffe67d72a12abb","41.13.191.161","Mozilla/5.0 (Windows NT 10.0; Win64; x64) AppleWebKit/537.36 (KHTML, like Gecko) Chrome/138.0.0.0 Safari/537.36 Edg/138.0.0.0","WebKit","Edge","138.0.0.0","Windows","10.0","https://app.prolific.com/","en-US,en;q=0.9,en-ZA;q=0.8","6820e30a98ebaa472670fd3d","687a1a965b9f5b85a264363e","68932263b9759a16e7efdfb1","1","6820e30a98ebaa472670fd3d","1","2025-08-06T09:47:13.803Z","","","","","","","","","","","","","","","","","","","","","","","","","","","","","","","","","","","","","","","","","",""
"47093.60000000149","","","","survey-template","7","131981","0.0-4.0-3.0","171","1","2025-08-06 09:45:44","36c45c0696341be0efffe67d72a12abb","41.13.191.161","Mozilla/5.0 (Windows NT 10.0; Win64; x64) AppleWebKit/537.36 (KHTML, like Gecko) Chrome/138.0.0.0 Safari/537.36 Edg/138.0.0.0","WebKit","Edge","138.0.0.0","Windows","10.0","https://app.prolific.com/","en-US,en;q=0.9,en-ZA;q=0.8","6820e30a98ebaa472670fd3d","687a1a965b9f5b85a264363e","68932263b9759a16e7efdfb1","1","6820e30a98ebaa472670fd3d","1","2025-08-06T09:48:00.906Z","","","","drsp","{""Q01"":""4"",""Q02"":""3"",""Q03"":""3"",""Q04"":""4"",""Q05"":""4"",""Q06"":""4"",""Q07"":""3"",""Q08"":""4"",""Q09"":""4"",""Q10"":""4"",""Q11"":""4"",""Q12"":""4"",""Q13"":""3"",""Q14"":""3"",""Q15"":""3"",""Q16"":""4"",""Q17"":""4"",""Q18"":""3"",""Q19"":""3"",""Q20"":""4"",""Q21"":""4"",""Q22"":""4""}","[0,1,2,3,4,5,6,7,8,9,10,11,12,13,14,15,16,17,18,19,20,21]","[""Q01"",""Q02"",""Q03"",""Q04"",""Q05"",""Q06"",""Q07"",""Q08"",""Q09"",""Q10"",""Q11"",""Q12"",""Q13"",""Q14"",""Q15"",""Q16"",""Q17"",""Q18"",""Q19"",""Q20"",""Q21"",""Q22""]","[3836.2000000029802,6012.39999999851,7679.30000000447,9276.89999999851,12229.30000000447,13273.60000000149,16439.20000000298,17305.80000000447,18725.20000000298,19321.20000000298,23243.5,24232,27906.89999999851,32722,33894.10000000149,34615.39999999851,35423.30000000447,37106.20000000298,37853.10000000149,40522.89999999851,41278.20000000298,42540.39999999851]","[]","[0.10000000149011612,2893.7000000029802,3836.2000000029802,6012.39999999851,7679.30000000447,9276.89999999851,9873.30000000447,11095,12229.30000000447,13273.60000000149,15070.5,16439.20000000298,17305.80000000447,18725.20000000298,19321.20000000298,19992,21369,22226.89999999851,23243.5,24232,27054.20000000298,27906.89999999851,31155.5,32722,33894.10000000149,34615.39999999851,35423.30000000447,37106.20000000298,37853.10000000149,39299.39999999851,40522.89999999851,41278.20000000298,42540.39999999851,47085.80000000447]","0.6363636363636364","0.38095238095238093","0","","","","","","","","","","","","","","","","","","","","","","","","","","","","",""
"8184.4000000059605","","","","survey-template","8","140171","0.0-4.0-4.0","171","1","2025-08-06 09:45:44","36c45c0696341be0efffe67d72a12abb","41.13.191.161","Mozilla/5.0 (Windows NT 10.0; Win64; x64) AppleWebKit/537.36 (KHTML, like Gecko) Chrome/138.0.0.0 Safari/537.36 Edg/138.0.0.0","WebKit","Edge","138.0.0.0","Windows","10.0","https://app.prolific.com/","en-US,en;q=0.9,en-ZA;q=0.8","6820e30a98ebaa472670fd3d","687a1a965b9f5b85a264363e","68932263b9759a16e7efdfb1","1","6820e30a98ebaa472670fd3d","1","2025-08-06T09:48:09.095Z","","","","stress","{""Q01"":""4"",""Q02"":""1"",""Q03"":""4""}","[0,1,2]","[""Q01"",""Q02"",""Q03""]","[3567.10000000149,6123.30000000447,7219]","[]","[3567.10000000149,5110.9000000059605,6123.30000000447,7219,8183.10000000149]","1","0","0","","","","","","","","","","","","","","","","","","","","","","","","","","","","",""
"7829","","","","instructions","9","148002","0.0-5.0-0.0","171","1","2025-08-06 09:45:44","36c45c0696341be0efffe67d72a12abb","41.13.191.161","Mozilla/5.0 (Windows NT 10.0; Win64; x64) AppleWebKit/537.36 (KHTML, like Gecko) Chrome/138.0.0.0 Safari/537.36 Edg/138.0.0.0","WebKit","Edge","138.0.0.0","Windows","10.0","https://app.prolific.com/","en-US,en;q=0.9,en-ZA;q=0.8","6820e30a98ebaa472670fd3d","687a1a965b9f5b85a264363e","68932263b9759a16e7efdfb1","1","6820e30a98ebaa472670fd3d","1","","","","","","","","","","","","","","","[{""page_index"":0,""viewing_time"":7828}]","","","","","","","","","","","","","","","","","","","","","","","","","","","",""
"14013","","<p>Before you start with this game please answer the following three questions yourself. </p>
  <p>Through this game, we measure several aspects of your cognitive performance, such as reaction times, multi-tasking capabilities </p>
  <p>and the ability to assess the situation you are in.</p>
  <p></p>
  <p><b>How good do you usually are in such tasks?</b></p>","97","html-slider-response","10","162019","0.0-6.0-0.0","171","1","2025-08-06 09:45:44","36c45c0696341be0efffe67d72a12abb","41.13.191.161","Mozilla/5.0 (Windows NT 10.0; Win64; x64) AppleWebKit/537.36 (KHTML, like Gecko) Chrome/138.0.0.0 Safari/537.36 Edg/138.0.0.0","WebKit","Edge","138.0.0.0","Windows","10.0","https://app.prolific.com/","en-US,en;q=0.9,en-ZA;q=0.8","6820e30a98ebaa472670fd3d","687a1a965b9f5b85a264363e","68932263b9759a16e7efdfb1","1","6820e30a98ebaa472670fd3d","1","2025-08-06T09:48:30.943Z","","","","PreSkillQ","","","","","","","","","","","50","","","","","","","","","","","","","","","","","","","","","","","","","","",""
"6380","","<div style=""width:500px;"">
  <p>How well do you think you will perform in this task compared to other participants?</p>
  </div>","73","html-slider-response","11","168403","0.0-6.0-1.0","171","1","2025-08-06 09:45:44","36c45c0696341be0efffe67d72a12abb","41.13.191.161","Mozilla/5.0 (Windows NT 10.0; Win64; x64) AppleWebKit/537.36 (KHTML, like Gecko) Chrome/138.0.0.0 Safari/537.36 Edg/138.0.0.0","WebKit","Edge","138.0.0.0","Windows","10.0","https://app.prolific.com/","en-US,en;q=0.9,en-ZA;q=0.8","6820e30a98ebaa472670fd3d","687a1a965b9f5b85a264363e","68932263b9759a16e7efdfb1","1","6820e30a98ebaa472670fd3d","1","2025-08-06T09:48:37.327Z","","","","PrePerfQ","","","","","","","","","","","50","","","","","","","","","","","","","","","","","","","","","","","","","","",""
"5461","","<div style=""width:500px;"">
  <p>What best describes how you currently feel?</p>
  </div>","100","html-slider-response","12","173867","0.0-6.0-2.0","171","1","2025-08-06 09:45:44","36c45c0696341be0efffe67d72a12abb","41.13.191.161","Mozilla/5.0 (Windows NT 10.0; Win64; x64) AppleWebKit/537.36 (KHTML, like Gecko) Chrome/138.0.0.0 Safari/537.36 Edg/138.0.0.0","WebKit","Edge","138.0.0.0","Windows","10.0","https://app.prolific.com/","en-US,en;q=0.9,en-ZA;q=0.8","6820e30a98ebaa472670fd3d","687a1a965b9f5b85a264363e","68932263b9759a16e7efdfb1","1","6820e30a98ebaa472670fd3d","1","2025-08-06T09:48:42.791Z","","","","PreMotivationQ","","","","","","","","","","","50","","","","","","","","","","","","","","","","","","","","","","","","","","",""
"","","","","ctl-task-cpt","13","190226","0.0-7.0-0.0","171","1","2025-08-06 09:45:44","36c45c0696341be0efffe67d72a12abb","41.13.191.161","Mozilla/5.0 (Windows NT 10.0; Win64; x64) AppleWebKit/537.36 (KHTML, like Gecko) Chrome/138.0.0.0 Safari/537.36 Edg/138.0.0.0","WebKit","Edge","138.0.0.0","Windows","10.0","https://app.prolific.com/","en-US,en;q=0.9,en-ZA;q=0.8","6820e30a98ebaa472670fd3d","687a1a965b9f5b85a264363e","68932263b9759a16e7efdfb1","1","6820e30a98ebaa472670fd3d","1","2025-08-06T09:48:59.150Z","","","","","","","","","","","","","","","","win-only","1","g1:NE,g2:SW","1","1","0","176200.4","3267.5","8269.5","13346.1","1","4","4","6","1","-1","-1","0","0","0","3365.5","3000","-2365","[""up"",""right""]","{""num_key_presses"":0,""num_perfect"":0,""num_errors"":0,""num_randdir"":0,""num_randdir_good_moves"":0,""num_whilered"":0,""num_whileblue"":0,""num_blue"":0,""num_good_moves"":0}","[290.22232142857143,289.12857142857143,0.6,290.22232142857143,289.12857142857143,108.2,290.22232142857143,289.12857142857143,209.4,291.22232142857143,289.12857142857143,310.3,291.22232142857143,289.12857142857143,416.7,292.22232142857143,289.12857142857143,521,296.22232142857143,289.12857142857143,626.8,296.22232142857143,289.12857142857143,727,298.22232142857143,289.12857142857143,827.7,302.22232142857143,289.12857142857143,931.2,302.22232142857143,289.12857142857143,1036.1,302.22232142857143,289.12857142857143,1139.9,303.22232142857143,289.12857142857143,1241.3,304.22232142857143,289.12857142857143,1360.7,304.22232142857143,289.12857142857143,1464.4,304.22232142857143,289.12857142857143,1568.9,304.22232142857143,289.12857142857143,1677,304.22232142857143,289.12857142857143,1786.1,304.22232142857143,289.12857142857143,1891.5,304.22232142857143,289.12857142857143,1995.6,304.22232142857143,289.12857142857143,2105.2,304.22232142857143,289.12857142857143,2208.8,304.22232142857143,289.12857142857143,2326.7,304.22232142857143,289.12857142857143,2431,304.22232142857143,289.12857142857143,2531.1,304.22232142857143,289.12857142857143,2634.2,304.22232142857143,289.12857142857143,2739.3,304.22232142857143,289.12857142857143,2840.3,304.22232142857143,289.12857142857143,2941.2,379.22232142857143,208.12857142857143,3051.2,552.2223214285714,74.12857142857143,3151.7,561.2223214285714,53.128571428571426,3256.9,561.2223214285714,53.128571428571426,3357.4,563.2223214285714,51.128571428571426,3459.4,563.2223214285714,51.128571428571426,3559.4,563.2223214285714,51.128571428571426,3664,563.2223214285714,51.128571428571426,3764.4,563.2223214285714,53.128571428571426,3869.5,560.2223214285714,63.128571428571426,3979.8,560.2223214285714,64.12857142857143,4080.4,557.2223214285714,70.12857142857143,4186.6,555.2223214285714,77.12857142857143,4294.5,554.2223214285714,79.12857142857143,4399.7,546.2223214285714,87.12857142857143,4499.7,537.2223214285714,94.12857142857143,4605.9,527.2223214285714,103.12857142857143,4706.3,509.22232142857143,123.12857142857143,4806.6,497.22232142857143,139.12857142857143,4908.6]","[]"
"4390","","<div style=""width:500px;"">
  <p>What determined the result of this run?</p>
  </div>","85","html-slider-response","14","194618","0.0-7.0-1.0","171","1","2025-08-06 09:45:44","36c45c0696341be0efffe67d72a12abb","41.13.191.161","Mozilla/5.0 (Windows NT 10.0; Win64; x64) AppleWebKit/537.36 (KHTML, like Gecko) Chrome/138.0.0.0 Safari/537.36 Edg/138.0.0.0","WebKit","Edge","138.0.0.0","Windows","10.0","https://app.prolific.com/","en-US,en;q=0.9,en-ZA;q=0.8","6820e30a98ebaa472670fd3d","687a1a965b9f5b85a264363e","68932263b9759a16e7efdfb1","1","6820e30a98ebaa472670fd3d","1","2025-08-06T09:49:03.542Z","","","","AttribQ","","","","","","","","","","","50","","","","","","","","","","","","","","","","","","","","","","","","","","",""
"4682","","<div style=""width:500px;"">
  <p>How much control did you have over the ball?</p>
  </div>","14","html-slider-response","15","199303","0.0-7.0-2.0","171","1","2025-08-06 09:45:44","36c45c0696341be0efffe67d72a12abb","41.13.191.161","Mozilla/5.0 (Windows NT 10.0; Win64; x64) AppleWebKit/537.36 (KHTML, like Gecko) Chrome/138.0.0.0 Safari/537.36 Edg/138.0.0.0","WebKit","Edge","138.0.0.0","Windows","10.0","https://app.prolific.com/","en-US,en;q=0.9,en-ZA;q=0.8","6820e30a98ebaa472670fd3d","687a1a965b9f5b85a264363e","68932263b9759a16e7efdfb1","1","6820e30a98ebaa472670fd3d","1","2025-08-06T09:49:08.227Z","","","","ControlQ","","","","","","","","","","","50","","","","","","","","","","","","","","","","","","","","","","","","","","",""
"3779","","<div style=""width:500px;"">
  <p>How would you describe your current emotional state?</p>
  </div>","59","html-slider-response","16","203085","0.0-7.0-3.0","171","1","2025-08-06 09:45:44","36c45c0696341be0efffe67d72a12abb","41.13.191.161","Mozilla/5.0 (Windows NT 10.0; Win64; x64) AppleWebKit/537.36 (KHTML, like Gecko) Chrome/138.0.0.0 Safari/537.36 Edg/138.0.0.0","WebKit","Edge","138.0.0.0","Windows","10.0","https://app.prolific.com/","en-US,en;q=0.9,en-ZA;q=0.8","6820e30a98ebaa472670fd3d","687a1a965b9f5b85a264363e","68932263b9759a16e7efdfb1","1","6820e30a98ebaa472670fd3d","1","2025-08-06T09:49:12.009Z","","","","StressQ","","","","","","","","","","","50","","","","","","","","","","","","","","","","","","","","","","","","","","",""
"3119","","<div style=""width:500px;"">
  <p>What best describes how you currently feel?</p>
  </div>","81","html-slider-response","17","206207","0.0-7.0-4.0","171","1","2025-08-06 09:45:44","36c45c0696341be0efffe67d72a12abb","41.13.191.161","Mozilla/5.0 (Windows NT 10.0; Win64; x64) AppleWebKit/537.36 (KHTML, like Gecko) Chrome/138.0.0.0 Safari/537.36 Edg/138.0.0.0","WebKit","Edge","138.0.0.0","Windows","10.0","https://app.prolific.com/","en-US,en;q=0.9,en-ZA;q=0.8","6820e30a98ebaa472670fd3d","687a1a965b9f5b85a264363e","68932263b9759a16e7efdfb1","1","6820e30a98ebaa472670fd3d","1","2025-08-06T09:49:15.131Z","","","","MotivationQ","","","","","","","","","","","50","","","","","","","","","","","","","","","","","","","","","","","","","","",""
"","","","","ctl-task-cpt","18","243663","0.0-7.0-0.1","171","1","2025-08-06 09:45:44","36c45c0696341be0efffe67d72a12abb","41.13.191.161","Mozilla/5.0 (Windows NT 10.0; Win64; x64) AppleWebKit/537.36 (KHTML, like Gecko) Chrome/138.0.0.0 Safari/537.36 Edg/138.0.0.0","WebKit","Edge","138.0.0.0","Windows","10.0","https://app.prolific.com/","en-US,en;q=0.9,en-ZA;q=0.8","6820e30a98ebaa472670fd3d","687a1a965b9f5b85a264363e","68932263b9759a16e7efdfb1","1","6820e30a98ebaa472670fd3d","1","2025-08-06T09:49:52.588Z","","","","","","","","","","","","","","","","win-only","1","g1:NE,g2:SW","0.9","2","0","208537","2015.9","7020.4","34447.7","1","4","8","6","1","-1","-4","0","0","0","1396.8","3000","-2310","[""up"",""right""]","{""num_key_presses"":10,""num_perfect"":6,""num_errors"":3,""num_randdir"":0,""num_randdir_good_moves"":0,""num_whilered"":1,""num_whileblue"":1,""num_blue"":1,""num_good_moves"":4}","[291.22232142857143,301.12857142857143,0.6,291.22232142857143,301.12857142857143,103.3,291.22232142857143,301.12857142857143,206.2,291.22232142857143,301.12857142857143,312,291.22232142857143,301.12857142857143,416,291.22232142857143,301.12857142857143,521.1,291.22232142857143,301.12857142857143,628.3,291.22232142857143,301.12857142857143,734.8,295.22232142857143,272.12857142857143,836.2,305.22232142857143,203.12857142857143,940.1,410.22232142857143,165.12857142857143,1046.8,513.2223214285714,67.12857142857143,1148.3,516.2223214285714,51.128571428571426,1253.6,516.2223214285714,51.128571428571426,1365.5,516.2223214285714,51.128571428571426,1470.7,516.2223214285714,51.128571428571426,1579.2,509.22232142857143,79.12857142857143,1680.6,455.22232142857143,172.12857142857143,1781.6,346.22232142857143,332.12857142857143,1885.9,338.22232142857143,351.12857142857143,1994.2,338.22232142857143,351.12857142857143,2096.7,345.22232142857143,303.12857142857143,2198,374.22232142857143,200.12857142857143,2304.1,374.22232142857143,199.12857142857143,2405.7,374.22232142857143,199.12857142857143,2508.2,377.22232142857143,199.12857142857143,2614.6,388.22232142857143,281.12857142857143,2715.7,229.22232142857143,553.1285714285714,2822.8,-262.77767857142857,683.1285714285714,2942.8,-386.77767857142857,683.1285714285714,3046.3,-386.77767857142857,683.1285714285714,3152.7,-386.77767857142857,683.1285714285714,3255.5,-386.77767857142857,683.1285714285714,3357.6,-386.77767857142857,683.1285714285714,3464.8,-386.77767857142857,683.1285714285714,3568.9,-386.77767857142857,683.1285714285714,3670.9,-386.77767857142857,683.1285714285714,3777.9,-386.77767857142857,683.1285714285714,3884.6,-386.77767857142857,683.1285714285714,3986.2,-386.77767857142857,683.1285714285714,4087,-386.77767857142857,683.1285714285714,4187,-386.77767857142857,683.1285714285714,4292.6,-386.77767857142857,683.1285714285714,4396.1,-386.77767857142857,683.1285714285714,4503.9,-386.77767857142857,683.1285714285714,4612,-386.77767857142857,683.1285714285714,4715.6,-386.77767857142857,683.1285714285714,4820.2,-386.77767857142857,683.1285714285714,4926.4]","[418.1,418.1,1000,0.1,-581.9,""error"",""-"",""-"",""no_move"",1001.6,583,1000,0.1,1.5,""while_red"",""-"",""-"",""no_move"",1906.4,1487.8,2378.9,1423.1,-1895.6,""error"",""-"",""-"",""no_move"",6551.2,4644.6,2610,2906.9,1034.4,""smooth"",""down"",""down"",""bad_move"",9568,3015.6,2426.7,6552.4,588.9,""smooth"",""down"",""down"",""bad_move"",12921.2,3352.7,2886,9568.6,466.6,""smooth"",""up"",""up"",""good_move"",15289.2,2367.3,1916.6,12921.9,450.8,""smooth"",""up"",""up"",""good_move"",18553,3263.3,2790.5,15289.8,472.7,""smooth"",""up"",""up"",""good_move"",21939.3,3386.1,2872.5,18553.2,513.6,""smooth"",""up"",""up"",""good_move"",24887.8,2948.1,2558.7,21939.7,389.4,""while_blue"",""right"",""down"",""bad_move""]"
"3121","","<div style=""width:500px;"">
  <p>What determined the result of this run?</p>
  </div>","96","html-slider-response","19","246787","0.0-7.0-1.1","171","1","2025-08-06 09:45:44","36c45c0696341be0efffe67d72a12abb","41.13.191.161","Mozilla/5.0 (Windows NT 10.0; Win64; x64) AppleWebKit/537.36 (KHTML, like Gecko) Chrome/138.0.0.0 Safari/537.36 Edg/138.0.0.0","WebKit","Edge","138.0.0.0","Windows","10.0","https://app.prolific.com/","en-US,en;q=0.9,en-ZA;q=0.8","6820e30a98ebaa472670fd3d","687a1a965b9f5b85a264363e","68932263b9759a16e7efdfb1","1","6820e30a98ebaa472670fd3d","1","2025-08-06T09:49:55.711Z","","","","AttribQ","","","","","","","","","","","50","","","","","","","","","","","","","","","","","","","","","","","","","","",""
"2109","","<div style=""width:500px;"">
  <p>How much control did you have over the ball?</p>
  </div>","25","html-slider-response","20","248897","0.0-7.0-2.1","171","1","2025-08-06 09:45:44","36c45c0696341be0efffe67d72a12abb","41.13.191.161","Mozilla/5.0 (Windows NT 10.0; Win64; x64) AppleWebKit/537.36 (KHTML, like Gecko) Chrome/138.0.0.0 Safari/537.36 Edg/138.0.0.0","WebKit","Edge","138.0.0.0","Windows","10.0","https://app.prolific.com/","en-US,en;q=0.9,en-ZA;q=0.8","6820e30a98ebaa472670fd3d","687a1a965b9f5b85a264363e","68932263b9759a16e7efdfb1","1","6820e30a98ebaa472670fd3d","1","2025-08-06T09:49:57.821Z","","","","ControlQ","","","","","","","","","","","50","","","","","","","","","","","","","","","","","","","","","","","","","","",""
"1933","","<div style=""width:500px;"">
  <p>How would you describe your current emotional state?</p>
  </div>","77","html-slider-response","21","250833","0.0-7.0-3.1","171","1","2025-08-06 09:45:44","36c45c0696341be0efffe67d72a12abb","41.13.191.161","Mozilla/5.0 (Windows NT 10.0; Win64; x64) AppleWebKit/537.36 (KHTML, like Gecko) Chrome/138.0.0.0 Safari/537.36 Edg/138.0.0.0","WebKit","Edge","138.0.0.0","Windows","10.0","https://app.prolific.com/","en-US,en;q=0.9,en-ZA;q=0.8","6820e30a98ebaa472670fd3d","687a1a965b9f5b85a264363e","68932263b9759a16e7efdfb1","1","6820e30a98ebaa472670fd3d","1","2025-08-06T09:49:59.757Z","","","","StressQ","","","","","","","","","","","50","","","","","","","","","","","","","","","","","","","","","","","","","","",""
"2030","","<div style=""width:500px;"">
  <p>What best describes how you currently feel?</p>
  </div>","70","html-slider-response","22","252865","0.0-7.0-4.1","171","1","2025-08-06 09:45:44","36c45c0696341be0efffe67d72a12abb","41.13.191.161","Mozilla/5.0 (Windows NT 10.0; Win64; x64) AppleWebKit/537.36 (KHTML, like Gecko) Chrome/138.0.0.0 Safari/537.36 Edg/138.0.0.0","WebKit","Edge","138.0.0.0","Windows","10.0","https://app.prolific.com/","en-US,en;q=0.9,en-ZA;q=0.8","6820e30a98ebaa472670fd3d","687a1a965b9f5b85a264363e","68932263b9759a16e7efdfb1","1","6820e30a98ebaa472670fd3d","1","2025-08-06T09:50:01.789Z","","","","MotivationQ","","","","","","","","","","","50","","","","","","","","","","","","","","","","","","","","","","","","","","",""
"","","","","ctl-task-cpt","23","279115","0.0-7.0-0.2","171","1","2025-08-06 09:45:44","36c45c0696341be0efffe67d72a12abb","41.13.191.161","Mozilla/5.0 (Windows NT 10.0; Win64; x64) AppleWebKit/537.36 (KHTML, like Gecko) Chrome/138.0.0.0 Safari/537.36 Edg/138.0.0.0","WebKit","Edge","138.0.0.0","Windows","10.0","https://app.prolific.com/","en-US,en;q=0.9,en-ZA;q=0.8","6820e30a98ebaa472670fd3d","687a1a965b9f5b85a264363e","68932263b9759a16e7efdfb1","1","6820e30a98ebaa472670fd3d","1","2025-08-06T09:50:28.039Z","","","","","","","","","","","","","","","","win-only","1","g1:NE,g2:SW","0.8","3","0","255198.6","4894.4","9894.9","23237.7","1","4","4","6","1","1","1","1","0","0.007575757575757576","2237.1","3000","1505","[""up"",""right""]","{""num_key_presses"":4,""num_perfect"":4,""num_errors"":0,""num_randdir"":0,""num_randdir_good_moves"":0,""num_whilered"":0,""num_whileblue"":0,""num_blue"":1,""num_good_moves"":4}","[292.22232142857143,304.12857142857143,0.6,292.22232142857143,304.12857142857143,107,292.22232142857143,304.12857142857143,210.5,292.22232142857143,304.12857142857143,312,292.22232142857143,304.12857142857143,413.2,292.22232142857143,304.12857142857143,521,292.22232142857143,304.12857142857143,623.3,292.22232142857143,304.12857142857143,723.4,292.22232142857143,304.12857142857143,827.7,292.22232142857143,304.12857142857143,936.5,280.22232142857143,305.12857142857143,1038.5,247.22232142857143,314.12857142857143,1141.4,236.22232142857143,320.12857142857143,1246.3,244.22232142857143,301.12857142857143,1347.7,377.22232142857143,214.12857142857143,1452.8,415.22232142857143,190.12857142857143,1555.2,425.22232142857143,176.12857142857143,1664.1,457.22232142857143,127.12857142857143,1764.9,483.22232142857143,88.12857142857143,1868.7,490.22232142857143,86.12857142857143,1972,522.2223214285714,65.12857142857143,2074.2,523.2223214285714,64.12857142857143,2177.1,525.2223214285714,63.128571428571426,2279.3,525.2223214285714,63.128571428571426,2384,525.2223214285714,63.128571428571426,2489.9,525.2223214285714,63.128571428571426,2593,525.2223214285714,63.128571428571426,2694,525.2223214285714,63.128571428571426,2794.1,525.2223214285714,63.128571428571426,2894.2,525.2223214285714,63.128571428571426,3000.3,525.2223214285714,63.128571428571426,3104.6,525.2223214285714,115.12857142857143,3206.4,471.22232142857143,303.12857142857143,3312,462.22232142857143,321.12857142857143,3416.7,456.22232142857143,329.12857142857143,3524.9,445.22232142857143,345.12857142857143,3630.2,445.22232142857143,345.12857142857143,3734.7,445.22232142857143,345.12857142857143,3839.4,445.22232142857143,345.12857142857143,3950.6,360.22232142857143,394.12857142857143,4060.1,258.22232142857143,429.12857142857143,4167.8,233.22232142857143,439.12857142857143,4270.3,183.22232142857143,463.12857142857143,4370.5,-193.77767857142857,562.1285714285714,4477.4,-386.77767857142857,591.1285714285714,4578.3,-383.77767857142857,670.1285714285714,4691.4,-381.77767857142857,666.1285714285714,4792.1,-381.77767857142857,666.1285714285714,4892.5,-381.77767857142857,666.1285714285714,4993]","[1482.3,1482.3,1000,0,482.3,""smooth"",""up"",""up"",""good_move"",4938.6,3455.3,2930,1483.4,525.2,""smooth"",""up"",""up"",""good_move"",7699.6,2760.6,2217.4,4939,543.2,""smooth"",""right"",""right"",""good_move"",13218,5517.8,2197,10520.7,500.3,""smooth"",""right"",""right"",""good_move""]"
"35163","","<div style=""width:500px;"">
  <p>What determined the result of this run?</p>
  </div>","80","html-slider-response","24","314281","0.0-7.0-1.2","171","1","2025-08-06 09:45:44","36c45c0696341be0efffe67d72a12abb","41.13.191.161","Mozilla/5.0 (Windows NT 10.0; Win64; x64) AppleWebKit/537.36 (KHTML, like Gecko) Chrome/138.0.0.0 Safari/537.36 Edg/138.0.0.0","WebKit","Edge","138.0.0.0","Windows","10.0","https://app.prolific.com/","en-US,en;q=0.9,en-ZA;q=0.8","6820e30a98ebaa472670fd3d","687a1a965b9f5b85a264363e","68932263b9759a16e7efdfb1","1","6820e30a98ebaa472670fd3d","1","2025-08-06T09:51:03.205Z","","","","AttribQ","","","","","","","","","","","50","","","","","","","","","","","","","","","","","","","","","","","","","","",""
"1663","","<div style=""width:500px;"">
  <p>How much control did you have over the ball?</p>
  </div>","83","html-slider-response","25","315946","0.0-7.0-2.2","171","1","2025-08-06 09:45:44","36c45c0696341be0efffe67d72a12abb","41.13.191.161","Mozilla/5.0 (Windows NT 10.0; Win64; x64) AppleWebKit/537.36 (KHTML, like Gecko) Chrome/138.0.0.0 Safari/537.36 Edg/138.0.0.0","WebKit","Edge","138.0.0.0","Windows","10.0","https://app.prolific.com/","en-US,en;q=0.9,en-ZA;q=0.8","6820e30a98ebaa472670fd3d","687a1a965b9f5b85a264363e","68932263b9759a16e7efdfb1","1","6820e30a98ebaa472670fd3d","1","2025-08-06T09:51:04.870Z","","","","ControlQ","","","","","","","","","","","50","","","","","","","","","","","","","","","","","","","","","","","","","","",""
"2060","","<div style=""width:500px;"">
  <p>How would you describe your current emotional state?</p>
  </div>","80","html-slider-response","26","318007","0.0-7.0-3.2","171","1","2025-08-06 09:45:44","36c45c0696341be0efffe67d72a12abb","41.13.191.161","Mozilla/5.0 (Windows NT 10.0; Win64; x64) AppleWebKit/537.36 (KHTML, like Gecko) Chrome/138.0.0.0 Safari/537.36 Edg/138.0.0.0","WebKit","Edge","138.0.0.0","Windows","10.0","https://app.prolific.com/","en-US,en;q=0.9,en-ZA;q=0.8","6820e30a98ebaa472670fd3d","687a1a965b9f5b85a264363e","68932263b9759a16e7efdfb1","1","6820e30a98ebaa472670fd3d","1","2025-08-06T09:51:06.931Z","","","","StressQ","","","","","","","","","","","50","","","","","","","","","","","","","","","","","","","","","","","","","","",""
"4155","","<div style=""width:500px;"">
  <p>What best describes how you currently feel?</p>
  </div>","72","html-slider-response","27","322164","0.0-7.0-4.2","171","1","2025-08-06 09:45:44","36c45c0696341be0efffe67d72a12abb","41.13.191.161","Mozilla/5.0 (Windows NT 10.0; Win64; x64) AppleWebKit/537.36 (KHTML, like Gecko) Chrome/138.0.0.0 Safari/537.36 Edg/138.0.0.0","WebKit","Edge","138.0.0.0","Windows","10.0","https://app.prolific.com/","en-US,en;q=0.9,en-ZA;q=0.8","6820e30a98ebaa472670fd3d","687a1a965b9f5b85a264363e","68932263b9759a16e7efdfb1","1","6820e30a98ebaa472670fd3d","1","2025-08-06T09:51:11.088Z","","","","MotivationQ","","","","","","","","","","","50","","","","","","","","","","","","","","","","","","","","","","","","","","",""
"","","","","ctl-task-cpt","28","349272","0.0-7.0-0.3","171","1","2025-08-06 09:45:44","36c45c0696341be0efffe67d72a12abb","41.13.191.161","Mozilla/5.0 (Windows NT 10.0; Win64; x64) AppleWebKit/537.36 (KHTML, like Gecko) Chrome/138.0.0.0 Safari/537.36 Edg/138.0.0.0","WebKit","Edge","138.0.0.0","Windows","10.0","https://app.prolific.com/","en-US,en;q=0.9,en-ZA;q=0.8","6820e30a98ebaa472670fd3d","687a1a965b9f5b85a264363e","68932263b9759a16e7efdfb1","1","6820e30a98ebaa472670fd3d","1","2025-08-06T09:51:38.196Z","","","","","","","","","","","","","","","","win-only","0","g1:NW,g2:SE","0.7","4","0","324495.4","4092.4","9093.4","24084.6","1","4","8","6","1","-1","-1","0","1","0","1614.9","3000","-2795","[""left"",""up""]","{""num_key_presses"":5,""num_perfect"":2,""num_errors"":0,""num_randdir"":3,""num_randdir_good_moves"":1,""num_whilered"":0,""num_whileblue"":0,""num_blue"":0,""num_good_moves"":3}","[241.63482142857143,247.52544642857143,0.5,241.63482142857143,247.52544642857143,103.4,241.63482142857143,247.52544642857143,204.9,241.63482142857143,246.52544642857143,308.9,241.63482142857143,246.52544642857143,415.4,242.63482142857143,246.52544642857143,518.9,232.63482142857143,248.52544642857143,623.2,181.63482142857143,250.52544642857143,724.8,86.63482142857143,170.52544642857143,829.2,76.63482142857143,151.52544642857143,937.9,86.63482142857143,131.52544642857143,1038.1,81.63482142857143,114.52544642857143,1138.7,70.63482142857143,85.52544642857143,1239.6,70.63482142857143,79.52544642857143,1347.7,70.63482142857143,79.52544642857143,1448.5,69.63482142857143,75.52544642857143,1550,68.63482142857143,73.52544642857143,1653.1,68.63482142857143,73.52544642857143,1754.1,71.63482142857143,73.52544642857143,1854.6,71.63482142857143,73.52544642857143,1962.4,72.63482142857143,75.52544642857143,2073.6,77.63482142857143,94.52544642857143,2173.9,106.63482142857143,138.52544642857143,2281.3,118.63482142857143,157.52544642857143,2384,142.63482142857143,165.52544642857143,2484.3,159.63482142857143,188.52544642857143,2588.3,165.63482142857143,191.52544642857143,2694.7,176.63482142857143,188.52544642857143,2796.9,189.63482142857143,184.52544642857143,2898.2,201.63482142857143,178.52544642857143,2998.4,204.63482142857143,174.52544642857143,3099.7,205.63482142857143,173.52544642857143,3203.2,206.63482142857143,171.52544642857143,3304.4,206.63482142857143,171.52544642857143,3409.9,176.63482142857143,207.52544642857143,3513.6,-111.36517857142857,565.5254464285714,3618.2,-111.36517857142857,565.5254464285714,3718.5,-431.3651785714286,270.5254464285714,3818.8,-431.3651785714286,184.52544642857143,3919,-431.3651785714286,184.52544642857143,4023.5,-431.3651785714286,184.52544642857143,4123.5,-431.3651785714286,184.52544642857143,4223.7,-431.3651785714286,184.52544642857143,4329.5,-431.3651785714286,184.52544642857143,4433.4,-431.3651785714286,184.52544642857143,4533.7,-431.3651785714286,184.52544642857143,4633.9,-431.3651785714286,184.52544642857143,4738.4,-431.3651785714286,184.52544642857143,4845.9,-431.3651785714286,184.52544642857143,4948]","[1566.6,1566.5,1000,0.1,566.6,""smooth"",""up"",""up"",""good_move"",4697.1,3130,2580.1,1567.2,549.8,""smooth"",""left"",""left"",""good_move"",8037.6,3340.1,2726.4,4697.5,613.7,""oops"",""up"",""down"",""bad_move"",10037.5,1999.5,1418.5,8038.1,580.9,""oops"",""left"",""left"",""good_move"",12145,2107.2,1640.2,10037.8,467,""oops"",""up"",""down"",""bad_move""]"
"2970","","<div style=""width:500px;"">
  <p>What determined the result of this run?</p>
  </div>","72","html-slider-response","29","352244","0.0-7.0-1.3","171","1","2025-08-06 09:45:44","36c45c0696341be0efffe67d72a12abb","41.13.191.161","Mozilla/5.0 (Windows NT 10.0; Win64; x64) AppleWebKit/537.36 (KHTML, like Gecko) Chrome/138.0.0.0 Safari/537.36 Edg/138.0.0.0","WebKit","Edge","138.0.0.0","Windows","10.0","https://app.prolific.com/","en-US,en;q=0.9,en-ZA;q=0.8","6820e30a98ebaa472670fd3d","687a1a965b9f5b85a264363e","68932263b9759a16e7efdfb1","1","6820e30a98ebaa472670fd3d","1","2025-08-06T09:51:41.168Z","","","","AttribQ","","","","","","","","","","","50","","","","","","","","","","","","","","","","","","","","","","","","","","",""
"3979","","<div style=""width:500px;"">
  <p>How much control did you have over the ball?</p>
  </div>","76","html-slider-response","30","356225","0.0-7.0-2.3","171","1","2025-08-06 09:45:44","36c45c0696341be0efffe67d72a12abb","41.13.191.161","Mozilla/5.0 (Windows NT 10.0; Win64; x64) AppleWebKit/537.36 (KHTML, like Gecko) Chrome/138.0.0.0 Safari/537.36 Edg/138.0.0.0","WebKit","Edge","138.0.0.0","Windows","10.0","https://app.prolific.com/","en-US,en;q=0.9,en-ZA;q=0.8","6820e30a98ebaa472670fd3d","687a1a965b9f5b85a264363e","68932263b9759a16e7efdfb1","1","6820e30a98ebaa472670fd3d","1","2025-08-06T09:51:45.149Z","","","","ControlQ","","","","","","","","","","","50","","","","","","","","","","","","","","","","","","","","","","","","","","",""
"2453","","<div style=""width:500px;"">
  <p>How would you describe your current emotional state?</p>
  </div>","84","html-slider-response","31","358680","0.0-7.0-3.3","171","1","2025-08-06 09:45:44","36c45c0696341be0efffe67d72a12abb","41.13.191.161","Mozilla/5.0 (Windows NT 10.0; Win64; x64) AppleWebKit/537.36 (KHTML, like Gecko) Chrome/138.0.0.0 Safari/537.36 Edg/138.0.0.0","WebKit","Edge","138.0.0.0","Windows","10.0","https://app.prolific.com/","en-US,en;q=0.9,en-ZA;q=0.8","6820e30a98ebaa472670fd3d","687a1a965b9f5b85a264363e","68932263b9759a16e7efdfb1","1","6820e30a98ebaa472670fd3d","1","2025-08-06T09:51:47.604Z","","","","StressQ","","","","","","","","","","","50","","","","","","","","","","","","","","","","","","","","","","","","","","",""
"2171","","<div style=""width:500px;"">
  <p>What best describes how you currently feel?</p>
  </div>","83","html-slider-response","32","360853","0.0-7.0-4.3","171","1","2025-08-06 09:45:44","36c45c0696341be0efffe67d72a12abb","41.13.191.161","Mozilla/5.0 (Windows NT 10.0; Win64; x64) AppleWebKit/537.36 (KHTML, like Gecko) Chrome/138.0.0.0 Safari/537.36 Edg/138.0.0.0","WebKit","Edge","138.0.0.0","Windows","10.0","https://app.prolific.com/","en-US,en;q=0.9,en-ZA;q=0.8","6820e30a98ebaa472670fd3d","687a1a965b9f5b85a264363e","68932263b9759a16e7efdfb1","1","6820e30a98ebaa472670fd3d","1","2025-08-06T09:51:49.777Z","","","","MotivationQ","","","","","","","","","","","50","","","","","","","","","","","","","","","","","","","","","","","","","","",""
"","","","","ctl-task-cpt","33","383771","0.0-7.0-0.4","171","1","2025-08-06 09:45:44","36c45c0696341be0efffe67d72a12abb","41.13.191.161","Mozilla/5.0 (Windows NT 10.0; Win64; x64) AppleWebKit/537.36 (KHTML, like Gecko) Chrome/138.0.0.0 Safari/537.36 Edg/138.0.0.0","WebKit","Edge","138.0.0.0","Windows","10.0","https://app.prolific.com/","en-US,en;q=0.9,en-ZA;q=0.8","6820e30a98ebaa472670fd3d","687a1a965b9f5b85a264363e","68932263b9759a16e7efdfb1","1","6820e30a98ebaa472670fd3d","1","2025-08-06T09:52:12.695Z","","","","","","","","","","","","","","","","win-only","2","g1:SE,g2:NW","0.6","5","0","363185.4","3842.3","8847.5","19893.2","1","4","8","6","1","1","1","1","0","0.007575757575757576","2586.5","3000","1240","[""down"",""right""]","{""num_key_presses"":4,""num_perfect"":3,""num_errors"":0,""num_randdir"":1,""num_randdir_good_moves"":1,""num_whilered"":0,""num_whileblue"":0,""num_blue"":0,""num_good_moves"":4}","[249.63482142857143,251.52544642857143,0.3,249.63482142857143,251.52544642857143,100.2,249.63482142857143,251.52544642857143,209,249.63482142857143,251.52544642857143,315.2,249.63482142857143,251.52544642857143,415.2,249.63482142857143,251.52544642857143,515.6,231.63482142857143,254.52544642857143,623.2,106.63482142857143,220.52544642857143,725.4,15.63482142857142,184.52544642857143,825.6,4.634821428571421,219.52544642857143,930.7,188.63482142857143,362.5254464285714,1035.2,206.63482142857143,409.5254464285714,1140.7,172.63482142857143,422.5254464285714,1247.3,172.63482142857143,425.5254464285714,1349.7,172.63482142857143,425.5254464285714,1449.8,172.63482142857143,425.5254464285714,1550.3,172.63482142857143,425.5254464285714,1655.2,172.63482142857143,425.5254464285714,1760.5,172.63482142857143,425.5254464285714,1860.9,407.6348214285714,424.5254464285714,1965.7,618.6348214285714,406.5254464285714,2076.1,619.6348214285714,418.5254464285714,2176.5,527.6348214285714,454.5254464285714,2280.6,476.6348214285714,465.5254464285714,2381.2,476.6348214285714,465.5254464285714,2485.9,468.6348214285714,466.5254464285714,2590.2,466.6348214285714,466.5254464285714,2695.5,466.6348214285714,466.5254464285714,2799.2,464.6348214285714,465.5254464285714,2899.4,463.6348214285714,464.5254464285714,3005.7,463.6348214285714,464.5254464285714,3110.6,463.6348214285714,464.5254464285714,3211.5,463.6348214285714,464.5254464285714,3313.8,463.6348214285714,464.5254464285714,3415.5,463.6348214285714,464.5254464285714,3520.1,463.6348214285714,464.5254464285714,3621.8,463.6348214285714,464.5254464285714,3729.5,14.63482142857142,460.5254464285714,3830.8,-431.3651785714286,115.52544642857143,3935.8,-431.3651785714286,-55.47455357142858,4038.2,-431.3651785714286,-55.47455357142858,4148.2,-431.3651785714286,-55.47455357142858,4249.4,-431.3651785714286,-55.47455357142858,4350.1,-431.3651785714286,-55.47455357142858,4460.6,-431.3651785714286,-55.47455357142858,4560.7,-431.3651785714286,-55.47455357142858,4662.9,-431.3651785714286,-55.47455357142858,4765.7,-431.3651785714286,-55.47455357142858,4872.5,-431.3651785714286,-55.47455357142858,4975.9]","[1688,1688,1000,0,688,""smooth"",""down"",""down"",""good_move"",4761.2,3072.6,2615.3,1688.7,457.3,""smooth"",""right"",""right"",""good_move"",7566.8,2805.2,2306.2,4761.7,499,""smooth"",""down"",""down"",""good_move"",10918.9,3351.9,2863.3,7567,488.6,""oops"",""right"",""right"",""good_move""]"
"4263","","<div style=""width:500px;"">
  <p>What determined the result of this run?</p>
  </div>","93","html-slider-response","34","388036","0.0-7.0-1.4","171","1","2025-08-06 09:45:44","36c45c0696341be0efffe67d72a12abb","41.13.191.161","Mozilla/5.0 (Windows NT 10.0; Win64; x64) AppleWebKit/537.36 (KHTML, like Gecko) Chrome/138.0.0.0 Safari/537.36 Edg/138.0.0.0","WebKit","Edge","138.0.0.0","Windows","10.0","https://app.prolific.com/","en-US,en;q=0.9,en-ZA;q=0.8","6820e30a98ebaa472670fd3d","687a1a965b9f5b85a264363e","68932263b9759a16e7efdfb1","1","6820e30a98ebaa472670fd3d","1","2025-08-06T09:52:16.960Z","","","","AttribQ","","","","","","","","","","","50","","","","","","","","","","","","","","","","","","","","","","","","","","",""
"2068","","<div style=""width:500px;"">
  <p>How much control did you have over the ball?</p>
  </div>","89","html-slider-response","35","390106","0.0-7.0-2.4","171","1","2025-08-06 09:45:44","36c45c0696341be0efffe67d72a12abb","41.13.191.161","Mozilla/5.0 (Windows NT 10.0; Win64; x64) AppleWebKit/537.36 (KHTML, like Gecko) Chrome/138.0.0.0 Safari/537.36 Edg/138.0.0.0","WebKit","Edge","138.0.0.0","Windows","10.0","https://app.prolific.com/","en-US,en;q=0.9,en-ZA;q=0.8","6820e30a98ebaa472670fd3d","687a1a965b9f5b85a264363e","68932263b9759a16e7efdfb1","1","6820e30a98ebaa472670fd3d","1","2025-08-06T09:52:19.030Z","","","","ControlQ","","","","","","","","","","","50","","","","","","","","","","","","","","","","","","","","","","","","","","",""
"2394","","<div style=""width:500px;"">
  <p>How would you describe your current emotional state?</p>
  </div>","96","html-slider-response","36","392502","0.0-7.0-3.4","171","1","2025-08-06 09:45:44","36c45c0696341be0efffe67d72a12abb","41.13.191.161","Mozilla/5.0 (Windows NT 10.0; Win64; x64) AppleWebKit/537.36 (KHTML, like Gecko) Chrome/138.0.0.0 Safari/537.36 Edg/138.0.0.0","WebKit","Edge","138.0.0.0","Windows","10.0","https://app.prolific.com/","en-US,en;q=0.9,en-ZA;q=0.8","6820e30a98ebaa472670fd3d","687a1a965b9f5b85a264363e","68932263b9759a16e7efdfb1","1","6820e30a98ebaa472670fd3d","1","2025-08-06T09:52:21.426Z","","","","StressQ","","","","","","","","","","","50","","","","","","","","","","","","","","","","","","","","","","","","","","",""
"2442","","<div style=""width:500px;"">
  <p>What best describes how you currently feel?</p>
  </div>","93","html-slider-response","37","394946","0.0-7.0-4.4","171","1","2025-08-06 09:45:44","36c45c0696341be0efffe67d72a12abb","41.13.191.161","Mozilla/5.0 (Windows NT 10.0; Win64; x64) AppleWebKit/537.36 (KHTML, like Gecko) Chrome/138.0.0.0 Safari/537.36 Edg/138.0.0.0","WebKit","Edge","138.0.0.0","Windows","10.0","https://app.prolific.com/","en-US,en;q=0.9,en-ZA;q=0.8","6820e30a98ebaa472670fd3d","687a1a965b9f5b85a264363e","68932263b9759a16e7efdfb1","1","6820e30a98ebaa472670fd3d","1","2025-08-06T09:52:23.870Z","","","","MotivationQ","","","","","","","","","","","50","","","","","","","","","","","","","","","","","","","","","","","","","","",""
"","","","","ctl-task-cpt","38","429411","0.0-7.0-0.5","171","1","2025-08-06 09:45:44","36c45c0696341be0efffe67d72a12abb","41.13.191.161","Mozilla/5.0 (Windows NT 10.0; Win64; x64) AppleWebKit/537.36 (KHTML, like Gecko) Chrome/138.0.0.0 Safari/537.36 Edg/138.0.0.0","WebKit","Edge","138.0.0.0","Windows","10.0","https://app.prolific.com/","en-US,en;q=0.9,en-ZA;q=0.8","6820e30a98ebaa472670fd3d","687a1a965b9f5b85a264363e","68932263b9759a16e7efdfb1","1","6820e30a98ebaa472670fd3d","1","2025-08-06T09:52:58.335Z","","","","","","","","","","","","","","","","win-only","0","g1:NW,g2:SE","0.5","6","0","397279.7","3102.4","8106.7","31446.4","1","4","4","6","2","-4","-4","0","1","0","1368.3","3000","-2630","[""down"",""right""]","{""num_key_presses"":7,""num_perfect"":3,""num_errors"":0,""num_randdir"":4,""num_randdir_good_moves"":3,""num_whilered"":0,""num_whileblue"":0,""num_blue"":0,""num_good_moves"":6}","[246.63482142857143,243.52544642857143,0.6,246.63482142857143,243.52544642857143,104.1,246.63482142857143,243.52544642857143,208,246.63482142857143,243.52544642857143,308.9,262.6348214285714,259.5254464285714,417.6,304.6348214285714,343.5254464285714,519.1,343.6348214285714,392.5254464285714,624.3,512.6348214285714,435.5254464285714,725.5,524.6348214285714,448.5254464285714,837.9,522.6348214285714,448.5254464285714,939.5,454.6348214285714,467.5254464285714,1043.8,450.6348214285714,460.5254464285714,1144.2,450.6348214285714,453.5254464285714,1257.6,450.6348214285714,452.5254464285714,1360.1,450.6348214285714,451.5254464285714,1464.2,450.6348214285714,451.5254464285714,1569.2,450.6348214285714,447.5254464285714,1673.2,450.6348214285714,446.5254464285714,1773.5,450.6348214285714,445.5254464285714,1883,429.6348214285714,452.5254464285714,1989.9,366.6348214285714,484.5254464285714,2093.6,144.63482142857143,499.5254464285714,2194.8,161.63482142857143,443.5254464285714,2313.1,164.63482142857143,441.5254464285714,2413.6,172.63482142857143,438.5254464285714,2523.3,180.63482142857143,427.5254464285714,2624.1,180.63482142857143,427.5254464285714,2729.5,180.63482142857143,427.5254464285714,2833.7,180.63482142857143,427.5254464285714,2939.1,180.63482142857143,427.5254464285714,3041.7,180.63482142857143,427.5254464285714,3143.5,180.63482142857143,424.5254464285714,3245.6,180.63482142857143,424.5254464285714,3348.6,180.63482142857143,424.5254464285714,3448.7,180.63482142857143,424.5254464285714,3556.3,58.63482142857142,471.5254464285714,3659.7,-326.3651785714286,571.5254464285714,3763.3,-326.3651785714286,571.5254464285714,3863.4,-326.3651785714286,571.5254464285714,3964.1,-326.3651785714286,571.5254464285714,4064.1,-326.3651785714286,571.5254464285714,4168.3,-326.3651785714286,571.5254464285714,4275.2,-431.3651785714286,544.5254464285714,4384.2,-431.3651785714286,541.5254464285714,4490.7,-431.3651785714286,539.5254464285714,4593.8,-431.3651785714286,539.5254464285714,4695,-431.3651785714286,539.5254464285714,4799.1,-431.3651785714286,539.5254464285714,4900.3]","[1441.9,1441.9,1000,0,441.9,""smooth"",""down"",""down"",""good_move"",4911.6,3469.1,2991.4,1442.7,477.5,""oops"",""down"",""down"",""good_move"",7709.8,2797.9,2303.6,4911.9,494.3,""oops"",""down"",""down"",""good_move"",10453.1,2743,2315,7710.1,428,""smooth"",""right"",""right"",""good_move"",13765.4,3311.8,2857.6,10453.6,454.2,""oops"",""right"",""left"",""bad_move"",17403.6,3637.8,3082.9,13765.8,554.9,""smooth"",""right"",""right"",""good_move"",20090.2,2686.1,2241.6,17404.1,444.5,""oops"",""right"",""right"",""good_move""]"
"2189","","<div style=""width:500px;"">
  <p>What determined the result of this run?</p>
  </div>","92","html-slider-response","39","431601","0.0-7.0-1.5","171","1","2025-08-06 09:45:44","36c45c0696341be0efffe67d72a12abb","41.13.191.161","Mozilla/5.0 (Windows NT 10.0; Win64; x64) AppleWebKit/537.36 (KHTML, like Gecko) Chrome/138.0.0.0 Safari/537.36 Edg/138.0.0.0","WebKit","Edge","138.0.0.0","Windows","10.0","https://app.prolific.com/","en-US,en;q=0.9,en-ZA;q=0.8","6820e30a98ebaa472670fd3d","687a1a965b9f5b85a264363e","68932263b9759a16e7efdfb1","1","6820e30a98ebaa472670fd3d","1","2025-08-06T09:53:00.526Z","","","","AttribQ","","","","","","","","","","","50","","","","","","","","","","","","","","","","","","","","","","","","","","",""
"1821","","<div style=""width:500px;"">
  <p>How much control did you have over the ball?</p>
  </div>","91","html-slider-response","40","433424","0.0-7.0-2.5","171","1","2025-08-06 09:45:44","36c45c0696341be0efffe67d72a12abb","41.13.191.161","Mozilla/5.0 (Windows NT 10.0; Win64; x64) AppleWebKit/537.36 (KHTML, like Gecko) Chrome/138.0.0.0 Safari/537.36 Edg/138.0.0.0","WebKit","Edge","138.0.0.0","Windows","10.0","https://app.prolific.com/","en-US,en;q=0.9,en-ZA;q=0.8","6820e30a98ebaa472670fd3d","687a1a965b9f5b85a264363e","68932263b9759a16e7efdfb1","1","6820e30a98ebaa472670fd3d","1","2025-08-06T09:53:02.348Z","","","","ControlQ","","","","","","","","","","","50","","","","","","","","","","","","","","","","","","","","","","","","","","",""
"1985","","<div style=""width:500px;"">
  <p>How would you describe your current emotional state?</p>
  </div>","98","html-slider-response","41","435411","0.0-7.0-3.5","171","1","2025-08-06 09:45:44","36c45c0696341be0efffe67d72a12abb","41.13.191.161","Mozilla/5.0 (Windows NT 10.0; Win64; x64) AppleWebKit/537.36 (KHTML, like Gecko) Chrome/138.0.0.0 Safari/537.36 Edg/138.0.0.0","WebKit","Edge","138.0.0.0","Windows","10.0","https://app.prolific.com/","en-US,en;q=0.9,en-ZA;q=0.8","6820e30a98ebaa472670fd3d","687a1a965b9f5b85a264363e","68932263b9759a16e7efdfb1","1","6820e30a98ebaa472670fd3d","1","2025-08-06T09:53:04.335Z","","","","StressQ","","","","","","","","","","","50","","","","","","","","","","","","","","","","","","","","","","","","","","",""
"2260","","<div style=""width:500px;"">
  <p>What best describes how you currently feel?</p>
  </div>","74","html-slider-response","42","437672","0.0-7.0-4.5","171","1","2025-08-06 09:45:44","36c45c0696341be0efffe67d72a12abb","41.13.191.161","Mozilla/5.0 (Windows NT 10.0; Win64; x64) AppleWebKit/537.36 (KHTML, like Gecko) Chrome/138.0.0.0 Safari/537.36 Edg/138.0.0.0","WebKit","Edge","138.0.0.0","Windows","10.0","https://app.prolific.com/","en-US,en;q=0.9,en-ZA;q=0.8","6820e30a98ebaa472670fd3d","687a1a965b9f5b85a264363e","68932263b9759a16e7efdfb1","1","6820e30a98ebaa472670fd3d","1","2025-08-06T09:53:06.596Z","","","","MotivationQ","","","","","","","","","","","50","","","","","","","","","","","","","","","","","","","","","","","","","","",""
"","","","","ctl-task-cpt","43","471354","0.0-7.0-0.6","171","1","2025-08-06 09:45:44","36c45c0696341be0efffe67d72a12abb","41.13.191.161","Mozilla/5.0 (Windows NT 10.0; Win64; x64) AppleWebKit/537.36 (KHTML, like Gecko) Chrome/138.0.0.0 Safari/537.36 Edg/138.0.0.0","WebKit","Edge","138.0.0.0","Windows","10.0","https://app.prolific.com/","en-US,en;q=0.9,en-ZA;q=0.8","6820e30a98ebaa472670fd3d","687a1a965b9f5b85a264363e","68932263b9759a16e7efdfb1","1","6820e30a98ebaa472670fd3d","1","2025-08-06T09:53:40.279Z","","","","","","","","","","","","","","","","win-only","2","g1:SE,g2:NW","0.4","7","0","440004.2","1074.8","6075.8","30662","1","4","8","6","1","-1","-1","0","0","0","5000.9","3000","-2555","[""down"",""right""]","{""num_key_presses"":6,""num_perfect"":1,""num_errors"":0,""num_randdir"":5,""num_randdir_good_moves"":3,""num_whilered"":0,""num_whileblue"":0,""num_blue"":1,""num_good_moves"":4}","[247.63482142857143,251.52544642857143,0.4,247.63482142857143,251.52544642857143,109.6,248.63482142857143,251.52544642857143,218.3,252.63482142857143,251.52544642857143,319.9,255.63482142857143,251.52544642857143,421.7,256.6348214285714,254.52544642857143,524.8,256.6348214285714,255.52544642857143,626.1,256.6348214285714,257.5254464285714,727.3,256.6348214285714,257.5254464285714,828.1,256.6348214285714,259.5254464285714,932.8,256.6348214285714,259.5254464285714,1043.9,256.6348214285714,265.5254464285714,1147.9,257.6348214285714,268.5254464285714,1251,259.6348214285714,271.5254464285714,1351.1,261.6348214285714,272.5254464285714,1451.2,259.6348214285714,286.5254464285714,1553.5,219.63482142857143,324.5254464285714,1657.1,48.63482142857142,438.5254464285714,1759.1,-139.36517857142857,548.5254464285714,1861.5,-180.36517857142857,571.5254464285714,1973.7,-180.36517857142857,571.5254464285714,2076.3,-180.36517857142857,571.5254464285714,2181.1,-180.36517857142857,571.5254464285714,2287.6,-180.36517857142857,571.5254464285714,2389.1,-180.36517857142857,571.5254464285714,2490.7,-180.36517857142857,571.5254464285714,2591.9,-180.36517857142857,571.5254464285714,2692.3,-180.36517857142857,571.5254464285714,2793.9,-180.36517857142857,571.5254464285714,2897.1,-180.36517857142857,571.5254464285714,3004.2,-180.36517857142857,571.5254464285714,3106.7,-180.36517857142857,571.5254464285714,3207,-180.36517857142857,571.5254464285714,3312.9,-180.36517857142857,571.5254464285714,3419.8,-180.36517857142857,571.5254464285714,3521.3,-180.36517857142857,571.5254464285714,3626.4,-180.36517857142857,571.5254464285714,3726.4,-180.36517857142857,571.5254464285714,3831.1,-180.36517857142857,571.5254464285714,3931.9,-180.36517857142857,571.5254464285714,4041.9,-180.36517857142857,571.5254464285714,4146.8,-180.36517857142857,571.5254464285714,4247.6,-180.36517857142857,571.5254464285714,4347.7,-180.36517857142857,571.5254464285714,4451.4,-180.36517857142857,571.5254464285714,4551.9,-180.36517857142857,571.5254464285714,4654.1,-180.36517857142857,571.5254464285714,4756.5,-180.36517857142857,571.5254464285714,4861,-180.36517857142857,571.5254464285714,4961.1]","[1481.2,1481.2,1000,0,481.2,""oops"",""right"",""up"",""bad_move"",5108.8,3626.8,3075.5,1482,551.3,""smooth"",""down"",""down"",""good_move"",8692.5,3583.2,3112,5109.3,471.2,""oops"",""right"",""right"",""good_move"",11911.5,3218.5,2139.1,8693,1079.4,""oops"",""right"",""right"",""good_move"",15487.9,3576,2982.8,11911.9,593.2,""oops"",""down"",""up"",""bad_move"",18851.4,3363.1,2837.7,15488.4,525.4,""oops"",""down"",""down"",""good_move""]"
"56127","","<div style=""width:500px;"">
  <p>What determined the result of this run?</p>
  </div>","78","html-slider-response","44","527483","0.0-7.0-1.6","171","1","2025-08-06 09:45:44","36c45c0696341be0efffe67d72a12abb","41.13.191.161","Mozilla/5.0 (Windows NT 10.0; Win64; x64) AppleWebKit/537.36 (KHTML, like Gecko) Chrome/138.0.0.0 Safari/537.36 Edg/138.0.0.0","WebKit","Edge","138.0.0.0","Windows","10.0","https://app.prolific.com/","en-US,en;q=0.9,en-ZA;q=0.8","6820e30a98ebaa472670fd3d","687a1a965b9f5b85a264363e","68932263b9759a16e7efdfb1","1","6820e30a98ebaa472670fd3d","1","2025-08-06T09:54:36.407Z","","","","AttribQ","","","","","","","","","","","50","","","","","","","","","","","","","","","","","","","","","","","","","","",""
"1249","","<div style=""width:500px;"">
  <p>How much control did you have over the ball?</p>
  </div>","70","html-slider-response","45","528734","0.0-7.0-2.6","171","1","2025-08-06 09:45:44","36c45c0696341be0efffe67d72a12abb","41.13.191.161","Mozilla/5.0 (Windows NT 10.0; Win64; x64) AppleWebKit/537.36 (KHTML, like Gecko) Chrome/138.0.0.0 Safari/537.36 Edg/138.0.0.0","WebKit","Edge","138.0.0.0","Windows","10.0","https://app.prolific.com/","en-US,en;q=0.9,en-ZA;q=0.8","6820e30a98ebaa472670fd3d","687a1a965b9f5b85a264363e","68932263b9759a16e7efdfb1","1","6820e30a98ebaa472670fd3d","1","2025-08-06T09:54:37.659Z","","","","ControlQ","","","","","","","","","","","50","","","","","","","","","","","","","","","","","","","","","","","","","","",""
"1293","","<div style=""width:500px;"">
  <p>How would you describe your current emotional state?</p>
  </div>","78","html-slider-response","46","530030","0.0-7.0-3.6","171","1","2025-08-06 09:45:44","36c45c0696341be0efffe67d72a12abb","41.13.191.161","Mozilla/5.0 (Windows NT 10.0; Win64; x64) AppleWebKit/537.36 (KHTML, like Gecko) Chrome/138.0.0.0 Safari/537.36 Edg/138.0.0.0","WebKit","Edge","138.0.0.0","Windows","10.0","https://app.prolific.com/","en-US,en;q=0.9,en-ZA;q=0.8","6820e30a98ebaa472670fd3d","687a1a965b9f5b85a264363e","68932263b9759a16e7efdfb1","1","6820e30a98ebaa472670fd3d","1","2025-08-06T09:54:38.954Z","","","","StressQ","","","","","","","","","","","50","","","","","","","","","","","","","","","","","","","","","","","","","","",""
"2252","","<div style=""width:500px;"">
  <p>What best describes how you currently feel?</p>
  </div>","87","html-slider-response","47","532284","0.0-7.0-4.6","171","1","2025-08-06 09:45:44","36c45c0696341be0efffe67d72a12abb","41.13.191.161","Mozilla/5.0 (Windows NT 10.0; Win64; x64) AppleWebKit/537.36 (KHTML, like Gecko) Chrome/138.0.0.0 Safari/537.36 Edg/138.0.0.0","WebKit","Edge","138.0.0.0","Windows","10.0","https://app.prolific.com/","en-US,en;q=0.9,en-ZA;q=0.8","6820e30a98ebaa472670fd3d","687a1a965b9f5b85a264363e","68932263b9759a16e7efdfb1","1","6820e30a98ebaa472670fd3d","1","2025-08-06T09:54:41.208Z","","","","MotivationQ","","","","","","","","","","","50","","","","","","","","","","","","","","","","","","","","","","","","","","",""
"","","","","ctl-task-cpt","48","579206","0.0-7.0-0.7","171","1","2025-08-06 09:45:44","36c45c0696341be0efffe67d72a12abb","41.13.191.161","Mozilla/5.0 (Windows NT 10.0; Win64; x64) AppleWebKit/537.36 (KHTML, like Gecko) Chrome/138.0.0.0 Safari/537.36 Edg/138.0.0.0","WebKit","Edge","138.0.0.0","Windows","10.0","https://app.prolific.com/","en-US,en;q=0.9,en-ZA;q=0.8","6820e30a98ebaa472670fd3d","687a1a965b9f5b85a264363e","68932263b9759a16e7efdfb1","1","6820e30a98ebaa472670fd3d","1","2025-08-06T09:55:28.130Z","","","","","","","","","","","","","","","","win-only","0","g1:NW,g2:SE","0.3","8","0","534616.6","3574","8580.4","43894.1","1","4","4","6","1","-1","-2","0","0","0","2610.8","3000","-2455","[""left"",""up""]","{""num_key_presses"":8,""num_perfect"":3,""num_errors"":1,""num_randdir"":4,""num_randdir_good_moves"":1,""num_whilered"":0,""num_whileblue"":0,""num_blue"":3,""num_good_moves"":4}","[254.63482142857143,250.52544642857143,0.5,254.63482142857143,250.52544642857143,108.8,252.63482142857143,255.52544642857143,214,245.63482142857143,267.5254464285714,325.8,245.63482142857143,267.5254464285714,426.8,244.63482142857143,275.5254464285714,536.3,240.63482142857143,294.5254464285714,638.8,54.63482142857142,434.5254464285714,741.1,-9.36517857142858,471.5254464285714,841.3,-9.36517857142858,471.5254464285714,942.6,-15.36517857142858,471.5254464285714,1046.9,-20.36517857142858,472.5254464285714,1149.5,-20.36517857142858,472.5254464285714,1251.4,-20.36517857142858,472.5254464285714,1355.1,-20.36517857142858,472.5254464285714,1456.2,-20.36517857142858,472.5254464285714,1559.2,-20.36517857142858,472.5254464285714,1660.2,-20.36517857142858,472.5254464285714,1769.2,175.63482142857143,267.5254464285714,1875.2,136.63482142857143,180.52544642857143,1986.1,255.63482142857143,68.52544642857143,2093,224.63482142857143,42.52544642857142,2198.6,142.63482142857143,21.52544642857142,2299.6,79.63482142857143,18.52544642857142,2402.5,61.63482142857142,31.52544642857142,2505.4,56.63482142857142,34.52544642857142,2613.3,56.63482142857142,34.52544642857142,2717.2,61.63482142857142,33.52544642857142,2818.9,70.63482142857143,43.52544642857142,2920.9,79.63482142857143,80.52544642857143,3030.5,-84.36517857142857,310.5254464285714,3131.8,-354.3651785714286,548.5254464285714,3248.4,-392.3651785714286,571.5254464285714,3352,-392.3651785714286,571.5254464285714,3453.6,-431.3651785714286,378.5254464285714,3557.2,-431.3651785714286,-31.47455357142858,3657.5,-431.3651785714286,-33.47455357142858,3757.6,-431.3651785714286,-33.47455357142858,3859.7,-431.3651785714286,-33.47455357142858,3972.9,-431.3651785714286,-33.47455357142858,4078.4,-431.3651785714286,-33.47455357142858,4185.4,-431.3651785714286,-33.47455357142858,4286.7,-431.3651785714286,-33.47455357142858,4388.4,-431.3651785714286,-33.47455357142858,4488.9,-431.3651785714286,-33.47455357142858,4590,-431.3651785714286,-33.47455357142858,4701.1,-431.3651785714286,-33.47455357142858,4803.4,-431.3651785714286,-33.47455357142858,4906.2]","[434,434,1000,0,-566,""error"",""-"",""-"",""no_move"",4994.9,4560.7,3039.1,1435.3,520.5,""smooth"",""up"",""up"",""good_move"",11216.2,6220.5,2329.5,8370.2,516.5,""smooth"",""up"",""up"",""good_move"",18674.8,7458.3,3135.3,14883.1,656.4,""oops"",""left"",""left"",""good_move"",21410.6,2735.3,2196.2,18675.3,539.1,""oops"",""left"",""right"",""bad_move"",24712.5,3301.4,2866.6,21411.1,434.9,""oops"",""left"",""down"",""bad_move"",27796.6,3083.5,2548.3,24713.1,535.2,""smooth"",""left"",""left"",""good_move"",30813.2,3016,2526.4,27797.2,489.6,""oops"",""left"",""right"",""bad_move""]"
"4359","","<div style=""width:500px;"">
  <p>What determined the result of this run?</p>
  </div>","87","html-slider-response","49","583567","0.0-7.0-1.7","171","1","2025-08-06 09:45:44","36c45c0696341be0efffe67d72a12abb","41.13.191.161","Mozilla/5.0 (Windows NT 10.0; Win64; x64) AppleWebKit/537.36 (KHTML, like Gecko) Chrome/138.0.0.0 Safari/537.36 Edg/138.0.0.0","WebKit","Edge","138.0.0.0","Windows","10.0","https://app.prolific.com/","en-US,en;q=0.9,en-ZA;q=0.8","6820e30a98ebaa472670fd3d","687a1a965b9f5b85a264363e","68932263b9759a16e7efdfb1","1","6820e30a98ebaa472670fd3d","1","2025-08-06T09:55:32.491Z","","","","AttribQ","","","","","","","","","","","50","","","","","","","","","","","","","","","","","","","","","","","","","","",""
"1987","","<div style=""width:500px;"">
  <p>How much control did you have over the ball?</p>
  </div>","89","html-slider-response","50","585555","0.0-7.0-2.7","171","1","2025-08-06 09:45:44","36c45c0696341be0efffe67d72a12abb","41.13.191.161","Mozilla/5.0 (Windows NT 10.0; Win64; x64) AppleWebKit/537.36 (KHTML, like Gecko) Chrome/138.0.0.0 Safari/537.36 Edg/138.0.0.0","WebKit","Edge","138.0.0.0","Windows","10.0","https://app.prolific.com/","en-US,en;q=0.9,en-ZA;q=0.8","6820e30a98ebaa472670fd3d","687a1a965b9f5b85a264363e","68932263b9759a16e7efdfb1","1","6820e30a98ebaa472670fd3d","1","2025-08-06T09:55:34.480Z","","","","ControlQ","","","","","","","","","","","50","","","","","","","","","","","","","","","","","","","","","","","","","","",""
"3113","","<div style=""width:500px;"">
  <p>How would you describe your current emotional state?</p>
  </div>","97","html-slider-response","51","588671","0.0-7.0-3.7","171","1","2025-08-06 09:45:44","36c45c0696341be0efffe67d72a12abb","41.13.191.161","Mozilla/5.0 (Windows NT 10.0; Win64; x64) AppleWebKit/537.36 (KHTML, like Gecko) Chrome/138.0.0.0 Safari/537.36 Edg/138.0.0.0","WebKit","Edge","138.0.0.0","Windows","10.0","https://app.prolific.com/","en-US,en;q=0.9,en-ZA;q=0.8","6820e30a98ebaa472670fd3d","687a1a965b9f5b85a264363e","68932263b9759a16e7efdfb1","1","6820e30a98ebaa472670fd3d","1","2025-08-06T09:55:37.595Z","","","","StressQ","","","","","","","","","","","50","","","","","","","","","","","","","","","","","","","","","","","","","","",""
"1832","","<div style=""width:500px;"">
  <p>What best describes how you currently feel?</p>
  </div>","92","html-slider-response","52","590505","0.0-7.0-4.7","171","1","2025-08-06 09:45:44","36c45c0696341be0efffe67d72a12abb","41.13.191.161","Mozilla/5.0 (Windows NT 10.0; Win64; x64) AppleWebKit/537.36 (KHTML, like Gecko) Chrome/138.0.0.0 Safari/537.36 Edg/138.0.0.0","WebKit","Edge","138.0.0.0","Windows","10.0","https://app.prolific.com/","en-US,en;q=0.9,en-ZA;q=0.8","6820e30a98ebaa472670fd3d","687a1a965b9f5b85a264363e","68932263b9759a16e7efdfb1","1","6820e30a98ebaa472670fd3d","1","2025-08-06T09:55:39.429Z","","","","MotivationQ","","","","","","","","","","","50","","","","","","","","","","","","","","","","","","","","","","","","","","",""
"","","","","ctl-task-cpt","53","640345","0.0-7.0-0.8","171","1","2025-08-06 09:45:44","36c45c0696341be0efffe67d72a12abb","41.13.191.161","Mozilla/5.0 (Windows NT 10.0; Win64; x64) AppleWebKit/537.36 (KHTML, like Gecko) Chrome/138.0.0.0 Safari/537.36 Edg/138.0.0.0","WebKit","Edge","138.0.0.0","Windows","10.0","https://app.prolific.com/","en-US,en;q=0.9,en-ZA;q=0.8","6820e30a98ebaa472670fd3d","687a1a965b9f5b85a264363e","68932263b9759a16e7efdfb1","1","6820e30a98ebaa472670fd3d","1","2025-08-06T09:56:29.269Z","","","","","","","","","","","","","","","","win-only","3","g1:SW,g2:NE","0.4","9","0","592837.6","1869.8","6878.7","46816.7","1","4","4","6","1","-1","-2","0","0","0","1283.4","3000","-2120","[""down"",""left""]","{""num_key_presses"":9,""num_perfect"":4,""num_errors"":1,""num_randdir"":4,""num_randdir_good_moves"":1,""num_whilered"":0,""num_whileblue"":0,""num_blue"":3,""num_good_moves"":5}","[248.63482142857143,251.52544642857143,0.4,248.63482142857143,251.52544642857143,102.3,248.63482142857143,251.52544642857143,208.7,248.63482142857143,251.52544642857143,313.4,248.63482142857143,251.52544642857143,419.6,248.63482142857143,251.52544642857143,520.4,239.63482142857143,253.52544642857143,623.3,219.63482142857143,261.5254464285714,730.7,91.63482142857143,326.5254464285714,836,32.63482142857142,392.5254464285714,942.1,34.63482142857142,413.5254464285714,1049,40.63482142857142,417.5254464285714,1152.6,41.63482142857142,428.5254464285714,1254.2,41.63482142857142,429.5254464285714,1356.6,41.63482142857142,429.5254464285714,1463,41.63482142857142,429.5254464285714,1566.1,41.63482142857142,429.5254464285714,1674.6,41.63482142857142,429.5254464285714,1780.2,41.63482142857142,429.5254464285714,1880.7,41.63482142857142,429.5254464285714,1983.2,41.63482142857142,429.5254464285714,2089.1,41.63482142857142,429.5254464285714,2195,41.63482142857142,429.5254464285714,2295.9,41.63482142857142,429.5254464285714,2402.1,41.63482142857142,429.5254464285714,2503.9,41.63482142857142,429.5254464285714,2604.5,41.63482142857142,429.5254464285714,2710.6,41.63482142857142,430.5254464285714,2819.4,41.63482142857142,430.5254464285714,2925.6,41.63482142857142,430.5254464285714,3036.4,41.63482142857142,430.5254464285714,3137,41.63482142857142,430.5254464285714,3239.6,41.63482142857142,430.5254464285714,3351,41.63482142857142,430.5254464285714,3460.8,41.63482142857142,430.5254464285714,3565.1,41.63482142857142,430.5254464285714,3674.3,41.63482142857142,430.5254464285714,3781.9,41.63482142857142,430.5254464285714,3888.2,41.63482142857142,430.5254464285714,3997.9,41.63482142857142,430.5254464285714,4098.4,41.63482142857142,430.5254464285714,4206.5,41.63482142857142,430.5254464285714,4318.2,41.63482142857142,430.5254464285714,4423.1,41.63482142857142,430.5254464285714,4529,41.63482142857142,430.5254464285714,4636,41.63482142857142,430.5254464285714,4742.4,41.63482142857142,430.5254464285714,4850.1,41.63482142857142,430.5254464285714,4957]","[550.6,550.6,1000,0,-449.4,""error"",""-"",""-"",""no_move"",4128.4,3577.6,1992.8,1557.2,578.5,""oops"",""left"",""up"",""bad_move"",7680.2,3550.9,3019.6,4129.3,531.3,""smooth"",""left"",""left"",""good_move"",10444.2,2763.5,2192.8,7680.7,570.7,""smooth"",""left"",""left"",""good_move"",16584.3,6139.8,2383,13760.7,440.6,""oops"",""down"",""down"",""good_move"",19670,3085.2,2639.5,16584.8,445.7,""smooth"",""down"",""down"",""good_move"",31014.1,11343.6,3138.9,27366,509.2,""oops"",""down"",""up"",""bad_move"",33516.3,2501.5,1948.9,31014.8,552.6,""oops"",""down"",""right"",""bad_move"",36759.2,3242.4,2673.6,33516.8,568.9,""smooth"",""down"",""down"",""good_move""]"
"2164","","<div style=""width:500px;"">
  <p>What determined the result of this run?</p>
  </div>","83","html-slider-response","54","642511","0.0-7.0-1.8","171","1","2025-08-06 09:45:44","36c45c0696341be0efffe67d72a12abb","41.13.191.161","Mozilla/5.0 (Windows NT 10.0; Win64; x64) AppleWebKit/537.36 (KHTML, like Gecko) Chrome/138.0.0.0 Safari/537.36 Edg/138.0.0.0","WebKit","Edge","138.0.0.0","Windows","10.0","https://app.prolific.com/","en-US,en;q=0.9,en-ZA;q=0.8","6820e30a98ebaa472670fd3d","687a1a965b9f5b85a264363e","68932263b9759a16e7efdfb1","1","6820e30a98ebaa472670fd3d","1","2025-08-06T09:56:31.435Z","","","","AttribQ","","","","","","","","","","","50","","","","","","","","","","","","","","","","","","","","","","","","","","",""
"4879","","<div style=""width:500px;"">
  <p>How much control did you have over the ball?</p>
  </div>","24","html-slider-response","55","647392","0.0-7.0-2.8","171","1","2025-08-06 09:45:44","36c45c0696341be0efffe67d72a12abb","41.13.191.161","Mozilla/5.0 (Windows NT 10.0; Win64; x64) AppleWebKit/537.36 (KHTML, like Gecko) Chrome/138.0.0.0 Safari/537.36 Edg/138.0.0.0","WebKit","Edge","138.0.0.0","Windows","10.0","https://app.prolific.com/","en-US,en;q=0.9,en-ZA;q=0.8","6820e30a98ebaa472670fd3d","687a1a965b9f5b85a264363e","68932263b9759a16e7efdfb1","1","6820e30a98ebaa472670fd3d","1","2025-08-06T09:56:36.316Z","","","","ControlQ","","","","","","","","","","","50","","","","","","","","","","","","","","","","","","","","","","","","","","",""
"1893","","<div style=""width:500px;"">
  <p>How would you describe your current emotional state?</p>
  </div>","90","html-slider-response","56","649287","0.0-7.0-3.8","171","1","2025-08-06 09:45:44","36c45c0696341be0efffe67d72a12abb","41.13.191.161","Mozilla/5.0 (Windows NT 10.0; Win64; x64) AppleWebKit/537.36 (KHTML, like Gecko) Chrome/138.0.0.0 Safari/537.36 Edg/138.0.0.0","WebKit","Edge","138.0.0.0","Windows","10.0","https://app.prolific.com/","en-US,en;q=0.9,en-ZA;q=0.8","6820e30a98ebaa472670fd3d","687a1a965b9f5b85a264363e","68932263b9759a16e7efdfb1","1","6820e30a98ebaa472670fd3d","1","2025-08-06T09:56:38.211Z","","","","StressQ","","","","","","","","","","","50","","","","","","","","","","","","","","","","","","","","","","","","","","",""
"1715","","<div style=""width:500px;"">
  <p>What best describes how you currently feel?</p>
  </div>","68","html-slider-response","57","651004","0.0-7.0-4.8","171","1","2025-08-06 09:45:44","36c45c0696341be0efffe67d72a12abb","41.13.191.161","Mozilla/5.0 (Windows NT 10.0; Win64; x64) AppleWebKit/537.36 (KHTML, like Gecko) Chrome/138.0.0.0 Safari/537.36 Edg/138.0.0.0","WebKit","Edge","138.0.0.0","Windows","10.0","https://app.prolific.com/","en-US,en;q=0.9,en-ZA;q=0.8","6820e30a98ebaa472670fd3d","687a1a965b9f5b85a264363e","68932263b9759a16e7efdfb1","1","6820e30a98ebaa472670fd3d","1","2025-08-06T09:56:39.928Z","","","","MotivationQ","","","","","","","","","","","50","","","","","","","","","","","","","","","","","","","","","","","","","","",""