"rt","response_timestamp","stimulus","response","trial_type","trial_index","time_elapsed","internal_node_id","run_id","condition","recorded_at","source_code_version","ip","user_agent","device","browser","browser_version","platform","platform_version","referer","accept_language","PROLIFIC_PID","STUDY_ID","SESSION_ID","prolific_id","realtime","view_history","question_order","consent","success","question_id","eventType","responses","item_order","radio_event_ids","radio_event_times","key_event_times","mouse_event_times","straightlining","zigzagging","honeypot","which_type","canvas_config","goals_layout","control_level","trial_number","tutorial_trial_number","trial_start_time","phase1_start_time","phase2_start_time","phase3_start_time","goal_1_value","goal_1_distance","goal_2_value","goal_2_distance","goal_selected","outcome","outcome_total","participant_final_score","participant_initial_score","participant_final_score_prop","goal_choice_rt","allocated_time","allocated_time_remaining","goal_direction","counts","mouse_movements","key_presses","correct","slider_start","sub_question"
"2188","1752057053340","<p style='font-size:40px;line-height:1.25'><strong>Welcome to the experiment!</strong></p><p style='font-size:1.1em;line-height:1.25'>Thank you for your interest in our experiment! Before you begin, it is important that we obtain your informed consent to participate in the study.</p><p style='font-size:1.1em;line-height:1.25'>On the next screen will be an <strong>information sheet</strong> for you to read. To participate in the study we need you to read this information sheet and the following consent form carefully. If you agree with all the statements, please click the <strong>I agree</strong> button.</p><p style='font-size:1.1em;line-height:1.25'>Press <strong>Next</strong> to read the information sheet.</p>","0","custom-html-button-response","0","2195","0.0-0.0","267","1","2025-07-09 10:30:50","7701e855f2ef39aa3fd6c71abdc6918a","165.73.188.145","Mozilla/5.0 (Windows NT 10.0; Win64; x64) AppleWebKit/537.36 (KHTML, like Gecko) Chrome/138.0.0.0 Safari/537.36","WebKit","Chrome","138.0.0.0","Windows","10.0","https://app.prolific.com/","en-US,en;q=0.9","67db086caaf7ec9f16d9e256","686d226cabeef709c732f8e1","686e312f672c840716e0d356","67db086caaf7ec9f16d9e256","2025-07-09T10:30:53.345Z","","","","","","","","","","","","","","","","","","","","","","","","","","","","","","","","","","","","","","","","","","","","",""
"7091","","","","instructions","1","9291","0.0-1.0","267","1","2025-07-09 10:30:50","7701e855f2ef39aa3fd6c71abdc6918a","165.73.188.145","Mozilla/5.0 (Windows NT 10.0; Win64; x64) AppleWebKit/537.36 (KHTML, like Gecko) Chrome/138.0.0.0 Safari/537.36","WebKit","Chrome","138.0.0.0","Windows","10.0","https://app.prolific.com/","en-US,en;q=0.9","67db086caaf7ec9f16d9e256","686d226cabeef709c732f8e1","686e312f672c840716e0d356","67db086caaf7ec9f16d9e256","","[{""page_index"":0,""viewing_time"":5999},{""page_index"":1,""viewing_time"":1091}]","","","","","","","","","","","","","","","","","","","","","","","","","","","","","","","","","","","","","","","","","","","",""
"11472","","","{""Q0"":"""",""Q1"":"""",""Q2"":"""",""Q3"":"""",""Q4"":"""",""Q5"":"""",""Q6"":""I agree""}","survey-multi-choice","2","20771","0.0-2.0","267","1","2025-07-09 10:30:50","7701e855f2ef39aa3fd6c71abdc6918a","165.73.188.145","Mozilla/5.0 (Windows NT 10.0; Win64; x64) AppleWebKit/537.36 (KHTML, like Gecko) Chrome/138.0.0.0 Safari/537.36","WebKit","Chrome","138.0.0.0","Windows","10.0","https://app.prolific.com/","en-US,en;q=0.9","67db086caaf7ec9f16d9e256","686d226cabeef709c732f8e1","686e312f672c840716e0d356","67db086caaf7ec9f16d9e256","","","[0,1,2,3,4,5,6]","true","","","","","","","","","","","","","","","","","","","","","","","","","","","","","","","","","","","","","","","","","",""
"2954","","","","fullscreen","3","24750","0.0-4.0","267","1","2025-07-09 10:30:50","7701e855f2ef39aa3fd6c71abdc6918a","165.73.188.145","Mozilla/5.0 (Windows NT 10.0; Win64; x64) AppleWebKit/537.36 (KHTML, like Gecko) Chrome/138.0.0.0 Safari/537.36","WebKit","Chrome","138.0.0.0","Windows","10.0","https://app.prolific.com/","en-US,en;q=0.9","67db086caaf7ec9f16d9e256","686d226cabeef709c732f8e1","686e312f672c840716e0d356","67db086caaf7ec9f16d9e256","","","","","true","","","","","","","","","","","","","","","","","","","","","","","","","","","","","","","","","","","","","","","","",""
"1656","1752057077557"," <p style='font-size:1.1em;line-height:1.25'>Thank you for completing the consent form and closing all other tabs.</p><p style='font-size:1.1em;line-height:1.25'>We will now invite you to fill in some demographic information and questionnaires, before starting the game.<br>This will take about 5 minutes.<br></p><p style='font-size:1.1em;line-height:1.25'>Press the <strong>Next</strong> button to continue.</p>","0","custom-html-button-response","4","26409","0.0-5.0","267","1","2025-07-09 10:30:50","7701e855f2ef39aa3fd6c71abdc6918a","165.73.188.145","Mozilla/5.0 (Windows NT 10.0; Win64; x64) AppleWebKit/537.36 (KHTML, like Gecko) Chrome/138.0.0.0 Safari/537.36","WebKit","Chrome","138.0.0.0","Windows","10.0","https://app.prolific.com/","en-US,en;q=0.9","67db086caaf7ec9f16d9e256","686d226cabeef709c732f8e1","686e312f672c840716e0d356","67db086caaf7ec9f16d9e256","2025-07-09T10:31:17.558Z","","","","","","","","","","","","","","","","","","","","","","","","","","","","","","","","","","","","","","","","","","","","",""
"4709","","","{""age"":""38""}","survey-text","5","31137","0.0-6.0-0.0","267","1","2025-07-09 10:30:50","7701e855f2ef39aa3fd6c71abdc6918a","165.73.188.145","Mozilla/5.0 (Windows NT 10.0; Win64; x64) AppleWebKit/537.36 (KHTML, like Gecko) Chrome/138.0.0.0 Safari/537.36","WebKit","Chrome","138.0.0.0","Windows","10.0","https://app.prolific.com/","en-US,en;q=0.9","67db086caaf7ec9f16d9e256","686d226cabeef709c732f8e1","686e312f672c840716e0d356","67db086caaf7ec9f16d9e256","","","","","","0","demographics","","","","","","","","","","","","","","","","","","","","","","","","","","","","","","","","","","","","","","",""
"2945","","","{""gender_identity"":""female/woman""}","survey-multi-choice","6","34086","0.0-6.0-1.0","267","1","2025-07-09 10:30:50","7701e855f2ef39aa3fd6c71abdc6918a","165.73.188.145","Mozilla/5.0 (Windows NT 10.0; Win64; x64) AppleWebKit/537.36 (KHTML, like Gecko) Chrome/138.0.0.0 Safari/537.36","WebKit","Chrome","138.0.0.0","Windows","10.0","https://app.prolific.com/","en-US,en;q=0.9","67db086caaf7ec9f16d9e256","686d226cabeef709c732f8e1","686e312f672c840716e0d356","67db086caaf7ec9f16d9e256","","","[0]","","","1","demographics","","","","","","","","","","","","","","","","","","","","","","","","","","","","","","","","","","","","","","",""
"4925","","","{""assigned_sex"":""female""}","survey-multi-choice","7","39016","0.0-6.0-2.0","267","1","2025-07-09 10:30:50","7701e855f2ef39aa3fd6c71abdc6918a","165.73.188.145","Mozilla/5.0 (Windows NT 10.0; Win64; x64) AppleWebKit/537.36 (KHTML, like Gecko) Chrome/138.0.0.0 Safari/537.36","WebKit","Chrome","138.0.0.0","Windows","10.0","https://app.prolific.com/","en-US,en;q=0.9","67db086caaf7ec9f16d9e256","686d226cabeef709c732f8e1","686e312f672c840716e0d356","67db086caaf7ec9f16d9e256","","","[0]","","","2","demographics","","","","","","","","","","","","","","","","","","","","","","","","","","","","","","","","","","","","","","",""
"3525","","","{""menstrual_cycle"":""Yes""}","survey-multi-choice","8","42548","0.0-6.0-3.0","267","1","2025-07-09 10:30:50","7701e855f2ef39aa3fd6c71abdc6918a","165.73.188.145","Mozilla/5.0 (Windows NT 10.0; Win64; x64) AppleWebKit/537.36 (KHTML, like Gecko) Chrome/138.0.0.0 Safari/537.36","WebKit","Chrome","138.0.0.0","Windows","10.0","https://app.prolific.com/","en-US,en;q=0.9","67db086caaf7ec9f16d9e256","686d226cabeef709c732f8e1","686e312f672c840716e0d356","67db086caaf7ec9f16d9e256","","","[0]","","","4","demographics","","","","","","","","","","","","","","","","","","","","","","","","","","","","","","","","","","","","","","",""
"2784","","","{""education"":""Master's Degree (e.g., MSc)""}","survey-multi-choice","9","45337","0.0-6.0-4.0","267","1","2025-07-09 10:30:50","7701e855f2ef39aa3fd6c71abdc6918a","165.73.188.145","Mozilla/5.0 (Windows NT 10.0; Win64; x64) AppleWebKit/537.36 (KHTML, like Gecko) Chrome/138.0.0.0 Safari/537.36","WebKit","Chrome","138.0.0.0","Windows","10.0","https://app.prolific.com/","en-US,en;q=0.9","67db086caaf7ec9f16d9e256","686d226cabeef709c732f8e1","686e312f672c840716e0d356","67db086caaf7ec9f16d9e256","","","[0]","","","5","demographics","","","","","","","","","","","","","","","","","","","","","","","","","","","","","","","","","","","","","","",""
"2147","","","{""education"":""Master's Degree (e.g., MSc)""}","survey-multi-choice","10","47489","0.0-6.0-5.0","267","1","2025-07-09 10:30:50","7701e855f2ef39aa3fd6c71abdc6918a","165.73.188.145","Mozilla/5.0 (Windows NT 10.0; Win64; x64) AppleWebKit/537.36 (KHTML, like Gecko) Chrome/138.0.0.0 Safari/537.36","WebKit","Chrome","138.0.0.0","Windows","10.0","https://app.prolific.com/","en-US,en;q=0.9","67db086caaf7ec9f16d9e256","686d226cabeef709c732f8e1","686e312f672c840716e0d356","67db086caaf7ec9f16d9e256","2025-07-09T10:31:38.638Z","","[0]","","","6","demographics","","","","","","","","","","","","","","","","","","","","","","","","","","","","","","","","","","","","","","",""
"13812","","","{""mental_health_condition"":""NO"",""mental_health_treatment"":""NO"",""psychiatric_medication"":""NO""}","survey-text","11","61313","0.0-7.0-0.0","267","1","2025-07-09 10:30:50","7701e855f2ef39aa3fd6c71abdc6918a","165.73.188.145","Mozilla/5.0 (Windows NT 10.0; Win64; x64) AppleWebKit/537.36 (KHTML, like Gecko) Chrome/138.0.0.0 Safari/537.36","WebKit","Chrome","138.0.0.0","Windows","10.0","https://app.prolific.com/","en-US,en;q=0.9","67db086caaf7ec9f16d9e256","686d226cabeef709c732f8e1","686e312f672c840716e0d356","67db086caaf7ec9f16d9e256","2025-07-09T10:31:52.464Z","","","","","1","mental_health","","","","","","","","","","","","","","","","","","","","","","","","","","","","","","","","","","","","","","",""
"6531","","","{""depression_history"":[""No""]}","survey-multi-select","12","67855","0.0-7.0-1.0","267","1","2025-07-09 10:30:50","7701e855f2ef39aa3fd6c71abdc6918a","165.73.188.145","Mozilla/5.0 (Windows NT 10.0; Win64; x64) AppleWebKit/537.36 (KHTML, like Gecko) Chrome/138.0.0.0 Safari/537.36","WebKit","Chrome","138.0.0.0","Windows","10.0","https://app.prolific.com/","en-US,en;q=0.9","67db086caaf7ec9f16d9e256","686d226cabeef709c732f8e1","686e312f672c840716e0d356","67db086caaf7ec9f16d9e256","","","[0]","","","","mental_health","","","","","","","","","","","","","","","","","","","","","","","","","","","","","","","","","","","","","","",""
"69093.80000000005","","","","survey-template","13","136963","0.0-7.0-3.0","267","1","2025-07-09 10:30:50","7701e855f2ef39aa3fd6c71abdc6918a","165.73.188.145","Mozilla/5.0 (Windows NT 10.0; Win64; x64) AppleWebKit/537.36 (KHTML, like Gecko) Chrome/138.0.0.0 Safari/537.36","WebKit","Chrome","138.0.0.0","Windows","10.0","https://app.prolific.com/","en-US,en;q=0.9","67db086caaf7ec9f16d9e256","686d226cabeef709c732f8e1","686e312f672c840716e0d356","67db086caaf7ec9f16d9e256","2025-07-09T10:33:08.112Z","","","","","","ius","{""Q01"":""1"",""Q02"":""1"",""Q03"":""1"",""Q04"":""1"",""Q05"":""1"",""Q06"":""1"",""Q07"":""1"",""Q08"":""0"",""Q09"":""4"",""Q10"":""2"",""Q11"":""2"",""Q12"":""1"",""Q13"":""1""}","[0,1,2,3,4,5,6,7,8,9,10,11,12]","[""Q01"",""Q02"",""Q03"",""Q04"",""Q06"",""Q07"",""Q08"",""Q09"",""Q09"",""Q10"",""Q11"",""Q12"",""Q13"",""Q05""]","[5611.399999999907,6950.699999999953,8267.399999999907,12494.800000000047,15693.600000000093,24645.399999999907,28501.699999999953,31188.5,36524.19999999995,38328.19999999995,41542,43579.30000000005,48821.89999999991,63737.19999999995]","[]","[5611.399999999907,6950.699999999953,8267.399999999907,9521.600000000093,11038.899999999907,12494.800000000047,14106,15693.600000000093,23057.699999999953,24645.399999999907,28501.699999999953,31188.5,36524.19999999995,38328.19999999995,40210.60000000009,41542,43579.30000000005,48821.89999999991,52183.19999999995,63737.19999999995,69081.8999999999]","0.6923076923076923","0.25","0","","","","","","","","","","","","","","","","","","","","","","","","","","","","","",""
"2331","1752057190449","<p style='font-size:1.1em;line-height:1.25'>In the following, we will ask you a few questions relating to your experiences over the past month.<br></p><p style='font-size:1.1em;line-height:1.25'>Press the <strong>Next</strong> button to continue.</p>","0","custom-html-button-response","14","139301","0.0-7.0-4.0","267","1","2025-07-09 10:30:50","7701e855f2ef39aa3fd6c71abdc6918a","165.73.188.145","Mozilla/5.0 (Windows NT 10.0; Win64; x64) AppleWebKit/537.36 (KHTML, like Gecko) Chrome/138.0.0.0 Safari/537.36","WebKit","Chrome","138.0.0.0","Windows","10.0","https://app.prolific.com/","en-US,en;q=0.9","67db086caaf7ec9f16d9e256","686d226cabeef709c732f8e1","686e312f672c840716e0d356","67db086caaf7ec9f16d9e256","2025-07-09T10:33:10.451Z","","","","","","","","","","","","","","","","","","","","","","","","","","","","","","","","","","","","","","","","","","","","",""
"37754.69999999995","","","","survey-template","15","177064","0.0-7.0-5.0","267","1","2025-07-09 10:30:50","7701e855f2ef39aa3fd6c71abdc6918a","165.73.188.145","Mozilla/5.0 (Windows NT 10.0; Win64; x64) AppleWebKit/537.36 (KHTML, like Gecko) Chrome/138.0.0.0 Safari/537.36","WebKit","Chrome","138.0.0.0","Windows","10.0","https://app.prolific.com/","en-US,en;q=0.9","67db086caaf7ec9f16d9e256","686d226cabeef709c732f8e1","686e312f672c840716e0d356","67db086caaf7ec9f16d9e256","2025-07-09T10:33:48.214Z","","","","","","pss","{""Q01"":""2"",""Q02"":""2"",""Q03"":""1"",""Q04"":""3"",""Q05"":""3"",""Q06"":""1"",""Q07"":""3"",""Q08"":""3"",""Q09"":""1"",""Q10"":""1""}","[0,1,2,3,4,5,6,7,8,9]","[""Q01"",""Q02"",""Q04"",""Q03"",""Q05"",""Q06"",""Q07"",""Q08"",""Q09"",""Q10""]","[5903.800000000047,7111.5,12518,13804,15801.90000000014,18350.100000000093,28977.90000000014,30644.5,33501.30000000005,36104.50000000023]","[]","[0.10000000009313226,5903.800000000047,7111.5,8753.699999999953,10465.40000000014,12518,13804,15801.90000000014,18350.100000000093,22200.100000000093,28977.90000000014,30644.5,33501.30000000005,34508.80000000005,34974.09999999986,36104.50000000023,37746.80000000005]","0.8","0.1111111111111111","0","","","","","","","","","","","","","","","","","","","","","","","","","","","","","",""
"2477","1752057230696","<p style='font-size:1.1em;line-height:1.25'>Thank you for your answers! Now we will ask you a few more questions relating to your feelings in the last 24 hours.<br></p><p style='font-size:1.1em;line-height:1.25'>Press the <strong>Next</strong> button to continue.</p>","0","custom-html-button-response","16","179548","0.0-7.0-6.0","267","1","2025-07-09 10:30:50","7701e855f2ef39aa3fd6c71abdc6918a","165.73.188.145","Mozilla/5.0 (Windows NT 10.0; Win64; x64) AppleWebKit/537.36 (KHTML, like Gecko) Chrome/138.0.0.0 Safari/537.36","WebKit","Chrome","138.0.0.0","Windows","10.0","https://app.prolific.com/","en-US,en;q=0.9","67db086caaf7ec9f16d9e256","686d226cabeef709c732f8e1","686e312f672c840716e0d356","67db086caaf7ec9f16d9e256","2025-07-09T10:33:50.698Z","","","","","","","","","","","","","","","","","","","","","","","","","","","","","","","","","","","","","","","","","","","","",""
"63817.60000000009","","","","survey-template","17","243381","0.0-7.0-7.0","267","1","2025-07-09 10:30:50","7701e855f2ef39aa3fd6c71abdc6918a","165.73.188.145","Mozilla/5.0 (Windows NT 10.0; Win64; x64) AppleWebKit/537.36 (KHTML, like Gecko) Chrome/138.0.0.0 Safari/537.36","WebKit","Chrome","138.0.0.0","Windows","10.0","https://app.prolific.com/","en-US,en;q=0.9","67db086caaf7ec9f16d9e256","686d226cabeef709c732f8e1","686e312f672c840716e0d356","67db086caaf7ec9f16d9e256","2025-07-09T10:34:54.530Z","","","","","","drsp","{""Q01"":""2"",""Q02"":""2"",""Q03"":""2"",""Q04"":""2"",""Q05"":""2"",""Q06"":""1"",""Q07"":""1"",""Q08"":""0"",""Q09"":""0"",""Q10"":""0"",""Q11"":""0"",""Q12"":""1"",""Q13"":""1"",""Q14"":""1"",""Q15"":""1"",""Q16"":""1"",""Q17"":""1"",""Q18"":""0"",""Q19"":""0"",""Q20"":""1"",""Q21"":""1""}","[0,1,2,3,4,5,6,7,8,9,10,11,12,13,14,15,16,17,18,19,20]","[""Q01"",""Q02"",""Q02"",""Q03"",""Q04"",""Q05"",""Q06"",""Q07"",""Q08"",""Q09"",""Q10"",""Q11"",""Q12"",""Q13"",""Q14"",""Q15"",""Q16"",""Q17"",""Q18"",""Q19"",""Q20"",""Q21""]","[3299.100000000093,5040.9000000003725,5413.300000000279,6901.200000000186,8109.200000000186,10634.80000000028,11975.100000000093,15151.100000000093,16553.600000000093,30041.100000000093,31661.100000000093,33070.40000000037,34611.80000000028,37470.30000000028,38648.10000000009,40437.200000000186,42536.40000000037,44225.5,51445.5,53157.60000000009,58967.700000000186,61345.200000000186]","[]","[0.10000000009313226,3299.100000000093,5040.9000000003725,5413.300000000279,6901.200000000186,8109.200000000186,9263.5,10634.80000000028,11975.100000000093,15151.100000000093,16553.600000000093,24268.80000000028,25067,28095.5,28538.900000000373,30041.100000000093,31661.100000000093,33070.40000000037,34611.80000000028,36114.40000000037,37470.30000000028,38648.10000000009,40437.200000000186,42536.40000000037,44225.5,51445.5,53157.60000000009,58967.700000000186,61345.200000000186,63801.80000000028]","0.47619047619047616","0.25","0","","","","","","","","","","","","","","","","","","","","","","","","","","","","","",""
"7094.200000000186","","","","survey-template","18","250483","0.0-7.0-8.0","267","1","2025-07-09 10:30:50","7701e855f2ef39aa3fd6c71abdc6918a","165.73.188.145","Mozilla/5.0 (Windows NT 10.0; Win64; x64) AppleWebKit/537.36 (KHTML, like Gecko) Chrome/138.0.0.0 Safari/537.36","WebKit","Chrome","138.0.0.0","Windows","10.0","https://app.prolific.com/","en-US,en;q=0.9","67db086caaf7ec9f16d9e256","686d226cabeef709c732f8e1","686e312f672c840716e0d356","67db086caaf7ec9f16d9e256","2025-07-09T10:35:01.632Z","","","","","","stress","{""Q01"":""1"",""Q02"":""4"",""Q03"":""1""}","[0,1,2]","[""Q01"",""Q02"",""Q03""]","[3226.399999999907,4512.799999999814,5752.5]","[]","[3226.399999999907,4512.799999999814,5752.5,7091.399999999907]","1","0","0","","","","","","","","","","","","","","","","","","","","","","","","","","","","","",""
"6298","","","","instructions","19","256785","0.0-8.0-0.0","267","1","2025-07-09 10:30:50","7701e855f2ef39aa3fd6c71abdc6918a","165.73.188.145","Mozilla/5.0 (Windows NT 10.0; Win64; x64) AppleWebKit/537.36 (KHTML, like Gecko) Chrome/138.0.0.0 Safari/537.36","WebKit","Chrome","138.0.0.0","Windows","10.0","https://app.prolific.com/","en-US,en;q=0.9","67db086caaf7ec9f16d9e256","686d226cabeef709c732f8e1","686e312f672c840716e0d356","67db086caaf7ec9f16d9e256","","[{""page_index"":0,""viewing_time"":3726},{""page_index"":1,""viewing_time"":689},{""page_index"":2,""viewing_time"":837},{""page_index"":3,""viewing_time"":1046}]","","","","","","","","","","","","","","","","","","","","","","","","","","","","","","","","","","","","","","","","","","","",""
"","","","","ctl-task-cpt","20","285566","0.0-8.0-1.0","267","1","2025-07-09 10:30:50","7701e855f2ef39aa3fd6c71abdc6918a","165.73.188.145","Mozilla/5.0 (Windows NT 10.0; Win64; x64) AppleWebKit/537.36 (KHTML, like Gecko) Chrome/138.0.0.0 Safari/537.36","WebKit","Chrome","138.0.0.0","Windows","10.0","https://app.prolific.com/","en-US,en;q=0.9","67db086caaf7ec9f16d9e256","686d226cabeef709c732f8e1","686e312f672c840716e0d356","67db086caaf7ec9f16d9e256","","","","","","","","","","","","","","","","","win-only","3","g1:SW,g2:NE","1","0","1","259703.7","2287.7","6306.9","25762.7","2","4","4","6","2","4","4","4","0","0.030303030303030304","1332.5","4000","1420","[""up"",""right""]","{""num_key_presses"":6,""num_perfect"":6,""num_errors"":0,""num_randdir"":0,""num_randdir_good_moves"":0,""num_whilered"":0,""num_whileblue"":0,""num_blue"":1,""num_good_moves"":6}","[293.22232142857143,299.12857142857143,0.6,293.22232142857143,299.12857142857143,104.6,293.22232142857143,299.12857142857143,210.5,293.22232142857143,299.12857142857143,313.6,293.22232142857143,299.12857142857143,414.1,350.22232142857143,239.12857142857143,516.6,535.2223214285714,109.12857142857143,622.3,560.2223214285714,89.12857142857143,725.9,560.2223214285714,89.12857142857143,826.2,560.2223214285714,88.12857142857143,930.1,560.2223214285714,87.12857142857143,1037.8,560.2223214285714,87.12857142857143,1149.4,560.2223214285714,87.12857142857143,1260.2,560.2223214285714,87.12857142857143,1362.5,560.2223214285714,87.12857142857143,1476.3,560.2223214285714,87.12857142857143,1582.3,560.2223214285714,87.12857142857143,1685.4,560.2223214285714,87.12857142857143,1787.4,560.2223214285714,87.12857142857143,1888.1,560.2223214285714,87.12857142857143,1997.7,560.2223214285714,87.12857142857143,2098.6,560.2223214285714,87.12857142857143,2211.8,560.2223214285714,87.12857142857143,2317.2,560.2223214285714,87.12857142857143,2421.6,560.2223214285714,87.12857142857143,2526.1,560.2223214285714,87.12857142857143,2632.5,560.2223214285714,87.12857142857143,2734.3,560.2223214285714,87.12857142857143,2839.2,560.2223214285714,87.12857142857143,2944.1,560.2223214285714,87.12857142857143,3051.6,560.2223214285714,87.12857142857143,3159,560.2223214285714,87.12857142857143,3260.4,560.2223214285714,87.12857142857143,3364.5,560.2223214285714,87.12857142857143,3473.9,560.2223214285714,87.12857142857143,3576.2,560.2223214285714,87.12857142857143,3678.8,560.2223214285714,87.12857142857143,3778.8,560.2223214285714,87.12857142857143,3879.1,560.2223214285714,87.12857142857143,3984.2]","[1592.5,1592.5,1000,0.1,592.4,""smooth"",""up"",""up"",""good_move"",4356.8,2762,2319.1,1594.8,442.9,""smooth"",""up"",""up"",""good_move"",7511.1,3152.4,2284.5,4358.8,867.8,""smooth"",""up"",""up"",""good_move"",11047.8,3535.2,3133,7512.9,402.2,""smooth"",""right"",""right"",""good_move"",12777.9,1726.3,1251.3,11051.6,475,""smooth"",""right"",""right"",""good_move"",19324,6544.4,2649.1,16290.3,384.6,""smooth"",""right"",""right"",""good_move""]","","",""
"4046","","","","instructions","21","289613","0.0-8.0-2.0","267","1","2025-07-09 10:30:50","7701e855f2ef39aa3fd6c71abdc6918a","165.73.188.145","Mozilla/5.0 (Windows NT 10.0; Win64; x64) AppleWebKit/537.36 (KHTML, like Gecko) Chrome/138.0.0.0 Safari/537.36","WebKit","Chrome","138.0.0.0","Windows","10.0","https://app.prolific.com/","en-US,en;q=0.9","67db086caaf7ec9f16d9e256","686d226cabeef709c732f8e1","686e312f672c840716e0d356","67db086caaf7ec9f16d9e256","","[{""page_index"":0,""viewing_time"":4045}]","","","","","","","","","","","","","","","","","","","","","","","","","","","","","","","","","","","","","","","","","","","",""
"","","","","ctl-task-cpt","22","355923","0.0-8.0-3.0","267","1","2025-07-09 10:30:50","7701e855f2ef39aa3fd6c71abdc6918a","165.73.188.145","Mozilla/5.0 (Windows NT 10.0; Win64; x64) AppleWebKit/537.36 (KHTML, like Gecko) Chrome/138.0.0.0 Safari/537.36","WebKit","Chrome","138.0.0.0","Windows","10.0","https://app.prolific.com/","en-US,en;q=0.9","67db086caaf7ec9f16d9e256","686d226cabeef709c732f8e1","686e312f672c840716e0d356","67db086caaf7ec9f16d9e256","","","","","","","","","","","","","","","","","win-only","3","g1:SW,g2:NE","0.35","0","3","292530.4","3403.1","7406.7","63288.9","2","4","8","6","2","-8","-9","0","0","0","1234.4","4000","-2330","[""up"",""right""]","{""num_key_presses"":11,""num_perfect"":4,""num_errors"":1,""num_randdir"":6,""num_randdir_good_moves"":3,""num_whilered"":0,""num_whileblue"":1,""num_blue"":7,""num_good_moves"":7}","[298.22232142857143,287.12857142857143,1.5,298.22232142857143,287.12857142857143,100.7,298.22232142857143,287.12857142857143,203.7,298.22232142857143,287.12857142857143,304.7,298.22232142857143,287.12857142857143,407.7,298.22232142857143,287.12857142857143,510.2,417.22232142857143,171.12857142857143,633.1,513.2223214285714,89.12857142857143,736.9,527.2223214285714,77.12857142857143,851.4,528.2223214285714,77.12857142857143,953.1,528.2223214285714,77.12857142857143,1055.1,528.2223214285714,77.12857142857143,1161.7,528.2223214285714,77.12857142857143,1262.1,528.2223214285714,77.12857142857143,1366.2,528.2223214285714,77.12857142857143,1472.5,528.2223214285714,77.12857142857143,1576.4,528.2223214285714,77.12857142857143,1696.6,528.2223214285714,77.12857142857143,1801.9,528.2223214285714,77.12857142857143,1904,528.2223214285714,77.12857142857143,2004.9,528.2223214285714,77.12857142857143,2106.5,528.2223214285714,77.12857142857143,2212.9,528.2223214285714,77.12857142857143,2315.2,528.2223214285714,77.12857142857143,2424.4,528.2223214285714,77.12857142857143,2535.5,528.2223214285714,77.12857142857143,2638.5,528.2223214285714,77.12857142857143,2747.4,528.2223214285714,77.12857142857143,2856,528.2223214285714,77.12857142857143,2966.6,528.2223214285714,77.12857142857143,3071.1,528.2223214285714,77.12857142857143,3176.1,528.2223214285714,77.12857142857143,3291.4,528.2223214285714,77.12857142857143,3403.4,528.2223214285714,77.12857142857143,3505.1,528.2223214285714,77.12857142857143,3610.3,528.2223214285714,77.12857142857143,3726.4,528.2223214285714,77.12857142857143,3828.3,528.2223214285714,77.12857142857143,3938.1]","[1517.4,1517.5,1000,0,517.5,""smooth"",""up"",""up"",""good_move"",5071.2,3552.3,3088,1518.9,464.4,""smooth"",""up"",""up"",""good_move"",8931.4,3857.6,3315,5073.8,542.6,""oops"",""right"",""right"",""good_move"",11618,2684.5,2284.2,8933.5,400.3,""oops"",""right"",""left"",""bad_move"",14683.7,3063.6,2568.7,11620.1,494.9,""oops"",""right"",""right"",""good_move"",18167.8,3481.8,2785.4,14686.1,696.4,""oops"",""right"",""up"",""good_move"",20968.2,2798.5,2420.5,18169.7,378,""while_blue"",""right"",""left"",""bad_move"",26881.1,5911.2,1874.7,24565.2,441.2,""oops"",""right"",""left"",""bad_move"",36769.5,9887.4,2042.8,34142.2,584.5,""smooth"",""right"",""right"",""good_move"",42830.1,6059.1,2529,39932.3,368.8,""smooth"",""right"",""right"",""good_move"",45935.2,3103.4,2360.4,42831.9,742.9,""oops"",""right"",""down"",""bad_move""]","","",""
"4862","","","","instructions","23","360788","0.0-8.0-4.0","267","1","2025-07-09 10:30:50","7701e855f2ef39aa3fd6c71abdc6918a","165.73.188.145","Mozilla/5.0 (Windows NT 10.0; Win64; x64) AppleWebKit/537.36 (KHTML, like Gecko) Chrome/138.0.0.0 Safari/537.36","WebKit","Chrome","138.0.0.0","Windows","10.0","https://app.prolific.com/","en-US,en;q=0.9","67db086caaf7ec9f16d9e256","686d226cabeef709c732f8e1","686e312f672c840716e0d356","67db086caaf7ec9f16d9e256","","[{""page_index"":0,""viewing_time"":3543},{""page_index"":1,""viewing_time"":1317}]","","","","","","","","","","","","","","","","","","","","","","","","","","","","","","","","","","","","","","","","","","","",""
"18131","","","{""green_ball"":[""Ball always moves in the direction I press""]}","survey-multi-select","24","378934","0.0-8.0-5.0-0.0","267","1","2025-07-09 10:30:50","7701e855f2ef39aa3fd6c71abdc6918a","165.73.188.145","Mozilla/5.0 (Windows NT 10.0; Win64; x64) AppleWebKit/537.36 (KHTML, like Gecko) Chrome/138.0.0.0 Safari/537.36","WebKit","Chrome","138.0.0.0","Windows","10.0","https://app.prolific.com/","en-US,en;q=0.9","67db086caaf7ec9f16d9e256","686d226cabeef709c732f8e1","686e312f672c840716e0d356","67db086caaf7ec9f16d9e256","","","[0]","","","","quiz","","","","","","","","","","","","","","","","","","","","","","","","","","","","","","","","","","","","","false","",""
"1862","","<p align='center'><b>INCORRECT.</b> Usually the green ball moves in the indicated direction, but sometimes it shakes and moves randomly. </p>","0","html-button-response","25","380804","0.0-8.0-5.0-1.0","267","1","2025-07-09 10:30:50","7701e855f2ef39aa3fd6c71abdc6918a","165.73.188.145","Mozilla/5.0 (Windows NT 10.0; Win64; x64) AppleWebKit/537.36 (KHTML, like Gecko) Chrome/138.0.0.0 Safari/537.36","WebKit","Chrome","138.0.0.0","Windows","10.0","https://app.prolific.com/","en-US,en;q=0.9","67db086caaf7ec9f16d9e256","686d226cabeef709c732f8e1","686e312f672c840716e0d356","67db086caaf7ec9f16d9e256","","","","","","","","","","","","","","","","","","","","","","","","","","","","","","","","","","","","","","","","","","","","","",""
"17685","","","{""green_ball"":[""Ball always shakes and moves in a random direction""]}","survey-multi-select","26","398497","0.0-8.0-5.1-0.1","267","1","2025-07-09 10:30:50","7701e855f2ef39aa3fd6c71abdc6918a","165.73.188.145","Mozilla/5.0 (Windows NT 10.0; Win64; x64) AppleWebKit/537.36 (KHTML, like Gecko) Chrome/138.0.0.0 Safari/537.36","WebKit","Chrome","138.0.0.0","Windows","10.0","https://app.prolific.com/","en-US,en;q=0.9","67db086caaf7ec9f16d9e256","686d226cabeef709c732f8e1","686e312f672c840716e0d356","67db086caaf7ec9f16d9e256","","","[0]","","","","quiz","","","","","","","","","","","","","","","","","","","","","","","","","","","","","","","","","","","","","false","",""
"3224","","<p align='center'><b>INCORRECT.</b> Usually the green ball moves in the indicated direction, but sometimes it shakes and moves randomly. </p>","0","html-button-response","27","401726","0.0-8.0-5.1-1.1","267","1","2025-07-09 10:30:50","7701e855f2ef39aa3fd6c71abdc6918a","165.73.188.145","Mozilla/5.0 (Windows NT 10.0; Win64; x64) AppleWebKit/537.36 (KHTML, like Gecko) Chrome/138.0.0.0 Safari/537.36","WebKit","Chrome","138.0.0.0","Windows","10.0","https://app.prolific.com/","en-US,en;q=0.9","67db086caaf7ec9f16d9e256","686d226cabeef709c732f8e1","686e312f672c840716e0d356","67db086caaf7ec9f16d9e256","","","","","","","","","","","","","","","","","","","","","","","","","","","","","","","","","","","","","","","","","","","","","",""
"6833","","","{""green_ball"":[""Ball always shakes and moves in a random direction""]}","survey-multi-select","28","408567","0.0-8.0-5.2-0.2","267","1","2025-07-09 10:30:50","7701e855f2ef39aa3fd6c71abdc6918a","165.73.188.145","Mozilla/5.0 (Windows NT 10.0; Win64; x64) AppleWebKit/537.36 (KHTML, like Gecko) Chrome/138.0.0.0 Safari/537.36","WebKit","Chrome","138.0.0.0","Windows","10.0","https://app.prolific.com/","en-US,en;q=0.9","67db086caaf7ec9f16d9e256","686d226cabeef709c732f8e1","686e312f672c840716e0d356","67db086caaf7ec9f16d9e256","","","[0]","","","","quiz","","","","","","","","","","","","","","","","","","","","","","","","","","","","","","","","","","","","","false","",""
"1635","","<p align='center'><b>INCORRECT.</b> Usually the green ball moves in the indicated direction, but sometimes it shakes and moves randomly. </p>","0","html-button-response","29","410206","0.0-8.0-5.2-1.2","267","1","2025-07-09 10:30:50","7701e855f2ef39aa3fd6c71abdc6918a","165.73.188.145","Mozilla/5.0 (Windows NT 10.0; Win64; x64) AppleWebKit/537.36 (KHTML, like Gecko) Chrome/138.0.0.0 Safari/537.36","WebKit","Chrome","138.0.0.0","Windows","10.0","https://app.prolific.com/","en-US,en;q=0.9","67db086caaf7ec9f16d9e256","686d226cabeef709c732f8e1","686e312f672c840716e0d356","67db086caaf7ec9f16d9e256","","","","","","","","","","","","","","","","","","","","","","","","","","","","","","","","","","","","","","","","","","","","","",""
"3606","","","{""green_ball"":[""Ball sometimes shakes and moves in a random direction""]}","survey-multi-select","30","413817","0.0-8.0-5.3-0.3","267","1","2025-07-09 10:30:50","7701e855f2ef39aa3fd6c71abdc6918a","165.73.188.145","Mozilla/5.0 (Windows NT 10.0; Win64; x64) AppleWebKit/537.36 (KHTML, like Gecko) Chrome/138.0.0.0 Safari/537.36","WebKit","Chrome","138.0.0.0","Windows","10.0","https://app.prolific.com/","en-US,en;q=0.9","67db086caaf7ec9f16d9e256","686d226cabeef709c732f8e1","686e312f672c840716e0d356","67db086caaf7ec9f16d9e256","","","[0]","","","","quiz","","","","","","","","","","","","","","","","","","","","","","","","","","","","","","","","","","","","","true","",""
"1352","","<p align='center'><b>CORRECT!</b> Indeed, the green ball may sometimes shake and move in a random direction.</p>","0","html-button-response","31","415173","0.0-8.0-5.3-1.3","267","1","2025-07-09 10:30:50","7701e855f2ef39aa3fd6c71abdc6918a","165.73.188.145","Mozilla/5.0 (Windows NT 10.0; Win64; x64) AppleWebKit/537.36 (KHTML, like Gecko) Chrome/138.0.0.0 Safari/537.36","WebKit","Chrome","138.0.0.0","Windows","10.0","https://app.prolific.com/","en-US,en;q=0.9","67db086caaf7ec9f16d9e256","686d226cabeef709c732f8e1","686e312f672c840716e0d356","67db086caaf7ec9f16d9e256","","","","","","","","","","","","","","","","","","","","","","","","","","","","","","","","","","","","","","","","","","","","","",""
"6960","","","{""yellow_ball"":[""Ball doesn‘t move and I get -1 penalty point""]}","survey-multi-select","32","422138","0.0-8.0-6.0-0.0","267","1","2025-07-09 10:30:50","7701e855f2ef39aa3fd6c71abdc6918a","165.73.188.145","Mozilla/5.0 (Windows NT 10.0; Win64; x64) AppleWebKit/537.36 (KHTML, like Gecko) Chrome/138.0.0.0 Safari/537.36","WebKit","Chrome","138.0.0.0","Windows","10.0","https://app.prolific.com/","en-US,en;q=0.9","67db086caaf7ec9f16d9e256","686d226cabeef709c732f8e1","686e312f672c840716e0d356","67db086caaf7ec9f16d9e256","","","[0]","","","","quiz","","","","","","","","","","","","","","","","","","","","","","","","","","","","","","","","","","","","","true","",""
"1682","","<p align='center'><b>CORRECT!</b> Indeed, the yellow ball never moves and you receive a penalty.</p>","0","html-button-response","33","423826","0.0-8.0-6.0-1.0","267","1","2025-07-09 10:30:50","7701e855f2ef39aa3fd6c71abdc6918a","165.73.188.145","Mozilla/5.0 (Windows NT 10.0; Win64; x64) AppleWebKit/537.36 (KHTML, like Gecko) Chrome/138.0.0.0 Safari/537.36","WebKit","Chrome","138.0.0.0","Windows","10.0","https://app.prolific.com/","en-US,en;q=0.9","67db086caaf7ec9f16d9e256","686d226cabeef709c732f8e1","686e312f672c840716e0d356","67db086caaf7ec9f16d9e256","","","","","","","","","","","","","","","","","","","","","","","","","","","","","","","","","","","","","","","","","","","","","",""
"6633","","","{""blue_ball"":[""Ball sometimes shakes and moves in a random direction""]}","survey-multi-select","34","430468","0.0-8.0-7.0-0.0","267","1","2025-07-09 10:30:50","7701e855f2ef39aa3fd6c71abdc6918a","165.73.188.145","Mozilla/5.0 (Windows NT 10.0; Win64; x64) AppleWebKit/537.36 (KHTML, like Gecko) Chrome/138.0.0.0 Safari/537.36","WebKit","Chrome","138.0.0.0","Windows","10.0","https://app.prolific.com/","en-US,en;q=0.9","67db086caaf7ec9f16d9e256","686d226cabeef709c732f8e1","686e312f672c840716e0d356","67db086caaf7ec9f16d9e256","","","[0]","","","","quiz","","","","","","","","","","","","","","","","","","","","","","","","","","","","","","","","","","","","","false","",""
"1562","","<p align='center'><b>INCORRECT.</b> The blue ball always shakes and moves randomly.</p>","0","html-button-response","35","432033","0.0-8.0-7.0-1.0","267","1","2025-07-09 10:30:50","7701e855f2ef39aa3fd6c71abdc6918a","165.73.188.145","Mozilla/5.0 (Windows NT 10.0; Win64; x64) AppleWebKit/537.36 (KHTML, like Gecko) Chrome/138.0.0.0 Safari/537.36","WebKit","Chrome","138.0.0.0","Windows","10.0","https://app.prolific.com/","en-US,en;q=0.9","67db086caaf7ec9f16d9e256","686d226cabeef709c732f8e1","686e312f672c840716e0d356","67db086caaf7ec9f16d9e256","","","","","","","","","","","","","","","","","","","","","","","","","","","","","","","","","","","","","","","","","","","","","",""
"4678","","","{""blue_ball"":[""Ball always shakes and moves in a random direction""]}","survey-multi-select","36","436719","0.0-8.0-7.1-0.1","267","1","2025-07-09 10:30:50","7701e855f2ef39aa3fd6c71abdc6918a","165.73.188.145","Mozilla/5.0 (Windows NT 10.0; Win64; x64) AppleWebKit/537.36 (KHTML, like Gecko) Chrome/138.0.0.0 Safari/537.36","WebKit","Chrome","138.0.0.0","Windows","10.0","https://app.prolific.com/","en-US,en;q=0.9","67db086caaf7ec9f16d9e256","686d226cabeef709c732f8e1","686e312f672c840716e0d356","67db086caaf7ec9f16d9e256","","","[0]","","","","quiz","","","","","","","","","","","","","","","","","","","","","","","","","","","","","","","","","","","","","true","",""
"1673","","<p align='center'><b>CORRECT!</b> Indeed, the blue ball always shakes and moves in a random direction. Also there is a penalty of -1 point.</p>","0","html-button-response","37","438401","0.0-8.0-7.1-1.1","267","1","2025-07-09 10:30:50","7701e855f2ef39aa3fd6c71abdc6918a","165.73.188.145","Mozilla/5.0 (Windows NT 10.0; Win64; x64) AppleWebKit/537.36 (KHTML, like Gecko) Chrome/138.0.0.0 Safari/537.36","WebKit","Chrome","138.0.0.0","Windows","10.0","https://app.prolific.com/","en-US,en;q=0.9","67db086caaf7ec9f16d9e256","686d226cabeef709c732f8e1","686e312f672c840716e0d356","67db086caaf7ec9f16d9e256","","","","","","","","","","","","","","","","","","","","","","","","","","","","","","","","","","","","","","","","","","","","","",""
"3386","","","{""bonus"":[""When I reach 50% of points""]}","survey-multi-select","38","441793","0.0-8.0-8.0-0.0","267","1","2025-07-09 10:30:50","7701e855f2ef39aa3fd6c71abdc6918a","165.73.188.145","Mozilla/5.0 (Windows NT 10.0; Win64; x64) AppleWebKit/537.36 (KHTML, like Gecko) Chrome/138.0.0.0 Safari/537.36","WebKit","Chrome","138.0.0.0","Windows","10.0","https://app.prolific.com/","en-US,en;q=0.9","67db086caaf7ec9f16d9e256","686d226cabeef709c732f8e1","686e312f672c840716e0d356","67db086caaf7ec9f16d9e256","","","[0]","","","","quiz","","","","","","","","","","","","","","","","","","","","","","","","","","","","","","","","","","","","","true","",""
"1540","","<p align='center'><b>CORRECT!</b> Indeed, you receive 2 pounds extra when you reach 50% of points.</p>","0","html-button-response","39","443339","0.0-8.0-8.0-1.0","267","1","2025-07-09 10:30:50","7701e855f2ef39aa3fd6c71abdc6918a","165.73.188.145","Mozilla/5.0 (Windows NT 10.0; Win64; x64) AppleWebKit/537.36 (KHTML, like Gecko) Chrome/138.0.0.0 Safari/537.36","WebKit","Chrome","138.0.0.0","Windows","10.0","https://app.prolific.com/","en-US,en;q=0.9","67db086caaf7ec9f16d9e256","686d226cabeef709c732f8e1","686e312f672c840716e0d356","67db086caaf7ec9f16d9e256","","","","","","","","","","","","","","","","","","","","","","","","","","","","","","","","","","","","","","","","","","","","","",""
"2994","","","","instructions","40","446336","0.0-8.0-9.0","267","1","2025-07-09 10:30:50","7701e855f2ef39aa3fd6c71abdc6918a","165.73.188.145","Mozilla/5.0 (Windows NT 10.0; Win64; x64) AppleWebKit/537.36 (KHTML, like Gecko) Chrome/138.0.0.0 Safari/537.36","WebKit","Chrome","138.0.0.0","Windows","10.0","https://app.prolific.com/","en-US,en;q=0.9","67db086caaf7ec9f16d9e256","686d226cabeef709c732f8e1","686e312f672c840716e0d356","67db086caaf7ec9f16d9e256","","[{""page_index"":0,""viewing_time"":2991}]","","","","","","","","","","","","","","","","","","","","","","","","","","","","","","","","","","","","","","","","","","","",""
"6127","","<p>Before you start with this game please answer the following three questions yourself. </p>
  <p>Through this game, we measure several aspects of your cognitive performance, such as reaction times, multi-tasking capabilities </p>
  <p>and the ability to assess the situation you are in.</p>
  <p></p>
  <p><b>How good do you usually are in such tasks?</b></p>","98","html-slider-response","41","452475","0.0-9.0-0.0","267","1","2025-07-09 10:30:50","7701e855f2ef39aa3fd6c71abdc6918a","165.73.188.145","Mozilla/5.0 (Windows NT 10.0; Win64; x64) AppleWebKit/537.36 (KHTML, like Gecko) Chrome/138.0.0.0 Safari/537.36","WebKit","Chrome","138.0.0.0","Windows","10.0","https://app.prolific.com/","en-US,en;q=0.9","67db086caaf7ec9f16d9e256","686d226cabeef709c732f8e1","686e312f672c840716e0d356","67db086caaf7ec9f16d9e256","2025-07-09T10:38:23.624Z","","","","","","PreSkillQ","","","","","","","","","","","","","","","","","","","","","","","","","","","","","","","","","","","","","","50",""
"3276","","<div style=""width:500px;"">
  <p>How well do you think you will perform in this task compared to other participants?</p>
  </div>","100","html-slider-response","42","455755","0.0-9.0-1.0","267","1","2025-07-09 10:30:50","7701e855f2ef39aa3fd6c71abdc6918a","165.73.188.145","Mozilla/5.0 (Windows NT 10.0; Win64; x64) AppleWebKit/537.36 (KHTML, like Gecko) Chrome/138.0.0.0 Safari/537.36","WebKit","Chrome","138.0.0.0","Windows","10.0","https://app.prolific.com/","en-US,en;q=0.9","67db086caaf7ec9f16d9e256","686d226cabeef709c732f8e1","686e312f672c840716e0d356","67db086caaf7ec9f16d9e256","2025-07-09T10:38:26.904Z","","","","","","PrePerfQ","","","","","","","","","","","","","","","","","","","","","","","","","","","","","","","","","","","","","","50",""
"3940","","<div style=""width:500px;"">
  <p>What best describes how you currently feel?</p>
  </div>","100","html-slider-response","43","459699","0.0-9.0-2.0","267","1","2025-07-09 10:30:50","7701e855f2ef39aa3fd6c71abdc6918a","165.73.188.145","Mozilla/5.0 (Windows NT 10.0; Win64; x64) AppleWebKit/537.36 (KHTML, like Gecko) Chrome/138.0.0.0 Safari/537.36","WebKit","Chrome","138.0.0.0","Windows","10.0","https://app.prolific.com/","en-US,en;q=0.9","67db086caaf7ec9f16d9e256","686d226cabeef709c732f8e1","686e312f672c840716e0d356","67db086caaf7ec9f16d9e256","2025-07-09T10:38:30.848Z","","","","","","PreMotivationQ","","","","","","","","","","","","","","","","","","","","","","","","","","","","","","","","","","","","","","50",""
"","","","","ctl-task-cpt","44","493964","0.0-10.0-0.0","267","1","2025-07-09 10:30:50","7701e855f2ef39aa3fd6c71abdc6918a","165.73.188.145","Mozilla/5.0 (Windows NT 10.0; Win64; x64) AppleWebKit/537.36 (KHTML, like Gecko) Chrome/138.0.0.0 Safari/537.36","WebKit","Chrome","138.0.0.0","Windows","10.0","https://app.prolific.com/","en-US,en;q=0.9","67db086caaf7ec9f16d9e256","686d226cabeef709c732f8e1","686e312f672c840716e0d356","67db086caaf7ec9f16d9e256","2025-07-09T10:39:05.113Z","","","","","","","","","","","","","","","","win-only","3","g1:SW,g2:NE","1","1","0","462620.8","1724.6","6736.8","31236.9","1","4","8","6","2","8","8","8","0","0.06060606060606061","1656.9","3000","1415","[""up"",""right""]","{""num_key_presses"":6,""num_perfect"":6,""num_errors"":0,""num_randdir"":0,""num_randdir_good_moves"":0,""num_whilered"":0,""num_whileblue"":0,""num_blue"":2,""num_good_moves"":6}","[293.22232142857143,292.12857142857143,1,293.22232142857143,292.12857142857143,103.9,293.22232142857143,292.12857142857143,206.4,293.22232142857143,292.12857142857143,310.4,293.22232142857143,292.12857142857143,410.6,293.22232142857143,292.12857142857143,515,293.22232142857143,292.12857142857143,617.9,293.22232142857143,292.12857142857143,721.2,376.22232142857143,223.12857142857143,826.9,531.2223214285714,130.12857142857143,931.3,585.2223214285714,89.12857142857143,1041.9,585.2223214285714,89.12857142857143,1143.7,585.2223214285714,89.12857142857143,1246,585.2223214285714,89.12857142857143,1348.2,585.2223214285714,89.12857142857143,1450.3,585.2223214285714,89.12857142857143,1550.9,585.2223214285714,89.12857142857143,1668.7,585.2223214285714,89.12857142857143,1775.8,585.2223214285714,89.12857142857143,1880.6,585.2223214285714,89.12857142857143,1988.7,585.2223214285714,89.12857142857143,2095.9,555.2223214285714,112.12857142857143,2199.7,441.22232142857143,207.12857142857143,2309.6,357.22232142857143,282.12857142857143,2422,336.22232142857143,304.12857142857143,2523.5,332.22232142857143,307.12857142857143,2630.2,332.22232142857143,307.12857142857143,2740.4,340.22232142857143,279.12857142857143,2851.9,364.22232142857143,242.12857142857143,2958.3,369.22232142857143,236.12857142857143,3074.1,369.22232142857143,236.12857142857143,3183,369.22232142857143,236.12857142857143,3294.5,369.22232142857143,236.12857142857143,3397.6,369.22232142857143,236.12857142857143,3498.1,369.22232142857143,236.12857142857143,3609.1,369.22232142857143,236.12857142857143,3712.3,369.22232142857143,236.12857142857143,3815.4,369.22232142857143,236.12857142857143,3915.9,369.22232142857143,236.12857142857143,4016.3,369.22232142857143,236.12857142857143,4138.7,369.22232142857143,236.12857142857143,4242.7,369.22232142857143,236.12857142857143,4349.6,369.22232142857143,236.12857142857143,4458.9,369.22232142857143,236.12857142857143,4561.2,369.22232142857143,236.12857142857143,4667.8,369.22232142857143,236.12857142857143,4784.7,369.22232142857143,236.12857142857143,4901.2]","[1600.3,1600.3,1000,0,600.3,""smooth"",""up"",""up"",""good_move"",4644.6,3033.2,2569.9,1611.4,463.3,""smooth"",""up"",""up"",""good_move"",8294,3638,3143.4,4656,494.6,""smooth"",""up"",""up"",""good_move"",11618.3,3320.9,2914.4,8297.4,406.5,""smooth"",""right"",""right"",""good_move"",21131.9,9511.2,2133.6,18617.9,380.5,""smooth"",""right"",""right"",""good_move"",24306.9,3172.2,2705.4,21134.8,466.7,""smooth"",""right"",""right"",""good_move""]","","",""
"10993","","<div style=""width:500px;"">
  <p>What determined the result of this run?</p>
  </div>","92","html-slider-response","45","504963","0.0-10.0-1.0","267","1","2025-07-09 10:30:50","7701e855f2ef39aa3fd6c71abdc6918a","165.73.188.145","Mozilla/5.0 (Windows NT 10.0; Win64; x64) AppleWebKit/537.36 (KHTML, like Gecko) Chrome/138.0.0.0 Safari/537.36","WebKit","Chrome","138.0.0.0","Windows","10.0","https://app.prolific.com/","en-US,en;q=0.9","67db086caaf7ec9f16d9e256","686d226cabeef709c732f8e1","686e312f672c840716e0d356","67db086caaf7ec9f16d9e256","2025-07-09T10:39:16.112Z","","","","","","AttribQ","","","","","","","","","","","","","","","","","","","","","","","","","","","","","","","","","","","","","","50",""
"3565","","<div style=""width:500px;"">
  <p>How much control did you have over the ball?</p>
  </div>","96","html-slider-response","46","508533","0.0-10.0-2.0","267","1","2025-07-09 10:30:50","7701e855f2ef39aa3fd6c71abdc6918a","165.73.188.145","Mozilla/5.0 (Windows NT 10.0; Win64; x64) AppleWebKit/537.36 (KHTML, like Gecko) Chrome/138.0.0.0 Safari/537.36","WebKit","Chrome","138.0.0.0","Windows","10.0","https://app.prolific.com/","en-US,en;q=0.9","67db086caaf7ec9f16d9e256","686d226cabeef709c732f8e1","686e312f672c840716e0d356","67db086caaf7ec9f16d9e256","2025-07-09T10:39:19.683Z","","","","","","ControlQ","","","","","","","","","","","","","","","","","","","","","","","","","","","","","","","","","","","","","","50",""
"3793","","<div style=""width:500px;"">
  <p>How would you describe your current emotional state?</p>
  </div>","3","html-slider-response","47","512333","0.0-10.0-3.0","267","1","2025-07-09 10:30:50","7701e855f2ef39aa3fd6c71abdc6918a","165.73.188.145","Mozilla/5.0 (Windows NT 10.0; Win64; x64) AppleWebKit/537.36 (KHTML, like Gecko) Chrome/138.0.0.0 Safari/537.36","WebKit","Chrome","138.0.0.0","Windows","10.0","https://app.prolific.com/","en-US,en;q=0.9","67db086caaf7ec9f16d9e256","686d226cabeef709c732f8e1","686e312f672c840716e0d356","67db086caaf7ec9f16d9e256","2025-07-09T10:39:23.482Z","","","","","","StressQ","","","","","","","","","","","","","","","","","","","","","","","","","","","","","","","","","","","","","","50",""
"3746","","<div style=""width:500px;"">
  <p>What best describes how you currently feel?</p>
  </div>","98","html-slider-response","48","516083","0.0-10.0-4.0","267","1","2025-07-09 10:30:50","7701e855f2ef39aa3fd6c71abdc6918a","165.73.188.145","Mozilla/5.0 (Windows NT 10.0; Win64; x64) AppleWebKit/537.36 (KHTML, like Gecko) Chrome/138.0.0.0 Safari/537.36","WebKit","Chrome","138.0.0.0","Windows","10.0","https://app.prolific.com/","en-US,en;q=0.9","67db086caaf7ec9f16d9e256","686d226cabeef709c732f8e1","686e312f672c840716e0d356","67db086caaf7ec9f16d9e256","2025-07-09T10:39:27.232Z","","","","","","MotivationQ","","","","","","","","","","","","","","","","","","","","","","","","","","","","","","","","","","","","","","50",""
"","","","","ctl-task-cpt","49","550122","0.0-10.0-0.1","267","1","2025-07-09 10:30:50","7701e855f2ef39aa3fd6c71abdc6918a","165.73.188.145","Mozilla/5.0 (Windows NT 10.0; Win64; x64) AppleWebKit/537.36 (KHTML, like Gecko) Chrome/138.0.0.0 Safari/537.36","WebKit","Chrome","138.0.0.0","Windows","10.0","https://app.prolific.com/","en-US,en;q=0.9","67db086caaf7ec9f16d9e256","686d226cabeef709c732f8e1","686e312f672c840716e0d356","67db086caaf7ec9f16d9e256","2025-07-09T10:40:01.272Z","","","","","","","","","","","","","","","","win-only","2","g1:SE,g2:NW","0.9","2","0","519002.1","1578.5","6589","31007.7","1","4","4","6","2","4","4","12","8","0.09090909090909091","1632.9","3000","1210","[""left"",""up""]","{""num_key_presses"":6,""num_perfect"":6,""num_errors"":0,""num_randdir"":0,""num_randdir_good_moves"":0,""num_whilered"":0,""num_whileblue"":0,""num_blue"":1,""num_good_moves"":6}","[298.22232142857143,291.12857142857143,1,298.22232142857143,291.12857142857143,105.1,298.22232142857143,291.12857142857143,212,298.22232142857143,291.12857142857143,315.1,299.22232142857143,289.12857142857143,419.7,318.22232142857143,214.12857142857143,526.5,323.22232142857143,186.12857142857143,634.6,326.22232142857143,179.12857142857143,740.4,326.22232142857143,177.12857142857143,843.8,251.22232142857143,186.12857142857143,945.7,78.22232142857143,106.12857142857143,1047.4,29.222321428571426,71.12857142857143,1156.7,9.222321428571426,54.128571428571426,1267.6,8.222321428571426,53.128571428571426,1373.6,8.222321428571426,53.128571428571426,1482,8.222321428571426,53.128571428571426,1594.1,8.222321428571426,53.128571428571426,1700.2,8.222321428571426,53.128571428571426,1807,8.222321428571426,53.128571428571426,1915.5,8.222321428571426,53.128571428571426,2015.5,8.222321428571426,53.128571428571426,2124.3,8.222321428571426,53.128571428571426,2234,8.222321428571426,53.128571428571426,2337.7,8.222321428571426,53.128571428571426,2440.5,8.222321428571426,53.128571428571426,2546.8,8.222321428571426,53.128571428571426,2665.2,8.222321428571426,53.128571428571426,2766.5,8.222321428571426,53.128571428571426,2871.8,8.222321428571426,53.128571428571426,2978.3,8.222321428571426,53.128571428571426,3085.4,8.222321428571426,53.128571428571426,3193.9,8.222321428571426,53.128571428571426,3300.3,8.222321428571426,53.128571428571426,3407.4,8.222321428571426,53.128571428571426,3517.3,8.222321428571426,53.128571428571426,3629.4,8.222321428571426,53.128571428571426,3730.5,8.222321428571426,53.128571428571426,3831.2,8.222321428571426,53.128571428571426,3931.4,8.222321428571426,53.128571428571426,4034,8.222321428571426,53.128571428571426,4136.2,8.222321428571426,53.128571428571426,4240.7,8.222321428571426,53.128571428571426,4341.9,8.222321428571426,53.128571428571426,4452.2,8.222321428571426,53.128571428571426,4560.4,8.222321428571426,53.128571428571426,4664.5,8.222321428571426,53.128571428571426,4773.4,8.222321428571426,53.128571428571426,4882.1,8.222321428571426,53.128571428571426,4987.3]","[1519.1,1519.1,1000,0,519.1,""smooth"",""up"",""up"",""good_move"",8589.5,7068.7,3029.6,5156.4,403.5,""smooth"",""up"",""up"",""good_move"",12138.5,3547.9,2866,8590.6,681.9,""smooth"",""up"",""up"",""good_move"",15192.6,3049.8,2285.9,12142.8,763.9,""smooth"",""left"",""left"",""good_move"",19016.3,3821.1,2602.4,15195.2,1218.7,""smooth"",""left"",""left"",""good_move"",24129.3,5111.3,2443.5,19018.1,2667.8,""smooth"",""left"",""left"",""good_move""]","","",""
"5250","","<div style=""width:500px;"">
  <p>What determined the result of this run?</p>
  </div>","94","html-slider-response","50","555388","0.0-10.0-1.1","267","1","2025-07-09 10:30:50","7701e855f2ef39aa3fd6c71abdc6918a","165.73.188.145","Mozilla/5.0 (Windows NT 10.0; Win64; x64) AppleWebKit/537.36 (KHTML, like Gecko) Chrome/138.0.0.0 Safari/537.36","WebKit","Chrome","138.0.0.0","Windows","10.0","https://app.prolific.com/","en-US,en;q=0.9","67db086caaf7ec9f16d9e256","686d226cabeef709c732f8e1","686e312f672c840716e0d356","67db086caaf7ec9f16d9e256","2025-07-09T10:40:06.538Z","","","","","","AttribQ","","","","","","","","","","","","","","","","","","","","","","","","","","","","","","","","","","","","","","50",""
"6227","","<div style=""width:500px;"">
  <p>How much control did you have over the ball?</p>
  </div>","98","html-slider-response","51","561625","0.0-10.0-2.1","267","1","2025-07-09 10:30:50","7701e855f2ef39aa3fd6c71abdc6918a","165.73.188.145","Mozilla/5.0 (Windows NT 10.0; Win64; x64) AppleWebKit/537.36 (KHTML, like Gecko) Chrome/138.0.0.0 Safari/537.36","WebKit","Chrome","138.0.0.0","Windows","10.0","https://app.prolific.com/","en-US,en;q=0.9","67db086caaf7ec9f16d9e256","686d226cabeef709c732f8e1","686e312f672c840716e0d356","67db086caaf7ec9f16d9e256","2025-07-09T10:40:12.774Z","","","","","","ControlQ","","","","","","","","","","","","","","","","","","","","","","","","","","","","","","","","","","","","","","50",""
"3864","","<div style=""width:500px;"">
  <p>How would you describe your current emotional state?</p>
  </div>","3","html-slider-response","52","565497","0.0-10.0-3.1","267","1","2025-07-09 10:30:50","7701e855f2ef39aa3fd6c71abdc6918a","165.73.188.145","Mozilla/5.0 (Windows NT 10.0; Win64; x64) AppleWebKit/537.36 (KHTML, like Gecko) Chrome/138.0.0.0 Safari/537.36","WebKit","Chrome","138.0.0.0","Windows","10.0","https://app.prolific.com/","en-US,en;q=0.9","67db086caaf7ec9f16d9e256","686d226cabeef709c732f8e1","686e312f672c840716e0d356","67db086caaf7ec9f16d9e256","2025-07-09T10:40:16.646Z","","","","","","StressQ","","","","","","","","","","","","","","","","","","","","","","","","","","","","","","","","","","","","","","50",""
"3732","","<div style=""width:500px;"">
  <p>What best describes how you currently feel?</p>
  </div>","100","html-slider-response","53","569235","0.0-10.0-4.1","267","1","2025-07-09 10:30:50","7701e855f2ef39aa3fd6c71abdc6918a","165.73.188.145","Mozilla/5.0 (Windows NT 10.0; Win64; x64) AppleWebKit/537.36 (KHTML, like Gecko) Chrome/138.0.0.0 Safari/537.36","WebKit","Chrome","138.0.0.0","Windows","10.0","https://app.prolific.com/","en-US,en;q=0.9","67db086caaf7ec9f16d9e256","686d226cabeef709c732f8e1","686e312f672c840716e0d356","67db086caaf7ec9f16d9e256","2025-07-09T10:40:20.384Z","","","","","","MotivationQ","","","","","","","","","","","","","","","","","","","","","","","","","","","","","","","","","","","","","","50",""
"","","","","ctl-task-cpt","54","618135","0.0-10.0-0.2","267","1","2025-07-09 10:30:50","7701e855f2ef39aa3fd6c71abdc6918a","165.73.188.145","Mozilla/5.0 (Windows NT 10.0; Win64; x64) AppleWebKit/537.36 (KHTML, like Gecko) Chrome/138.0.0.0 Safari/537.36","WebKit","Chrome","138.0.0.0","Windows","10.0","https://app.prolific.com/","en-US,en;q=0.9","67db086caaf7ec9f16d9e256","686d226cabeef709c732f8e1","686e312f672c840716e0d356","67db086caaf7ec9f16d9e256","2025-07-09T10:41:09.284Z","","","","","","","","","","","","","","","","win-only","2","g1:SE,g2:NW","0.8","3","0","572154.9","1441.1","6446.1","45863.1","1","4","8","6","2","8","8","20","12","0.15151515151515152","1347.8","3000","1775","[""left"",""up""]","{""num_key_presses"":10,""num_perfect"":8,""num_errors"":0,""num_randdir"":2,""num_randdir_good_moves"":0,""num_whilered"":0,""num_whileblue"":0,""num_blue"":2,""num_good_moves"":8}","[291.22232142857143,293.12857142857143,7,291.22232142857143,293.12857142857143,112.4,291.22232142857143,293.12857142857143,217.8,291.22232142857143,293.12857142857143,330.2,291.22232142857143,292.12857142857143,432.6,311.22232142857143,213.12857142857143,552.2,234.22232142857143,175.12857142857143,669.5,87.22232142857143,109.12857142857143,774.2,16.222321428571426,58.128571428571426,890,7.222321428571426,50.128571428571426,996.7,6.222321428571426,50.128571428571426,1108.5,6.222321428571426,50.128571428571426,1217.6,6.222321428571426,50.128571428571426,1325.1,6.222321428571426,50.128571428571426,1438.7,6.222321428571426,50.128571428571426,1542.3,6.222321428571426,50.128571428571426,1647.7,6.222321428571426,50.128571428571426,1760.5,6.222321428571426,50.128571428571426,1872.9,6.222321428571426,50.128571428571426,1973.3,6.222321428571426,50.128571428571426,2079.4,6.222321428571426,50.128571428571426,2182.6,6.222321428571426,50.128571428571426,2290.4,6.222321428571426,50.128571428571426,2402.5,6.222321428571426,50.128571428571426,2507.1,6.222321428571426,50.128571428571426,2617.5,6.222321428571426,50.128571428571426,2730.6,6.222321428571426,50.128571428571426,2833.9,6.222321428571426,50.128571428571426,2935.9,6.222321428571426,50.128571428571426,3051.2,6.222321428571426,50.128571428571426,3158.3,6.222321428571426,50.128571428571426,3266.7,6.222321428571426,50.128571428571426,3373.6,6.222321428571426,50.128571428571426,3480.1,6.222321428571426,50.128571428571426,3588.5,6.222321428571426,50.128571428571426,3713.5,6.222321428571426,50.128571428571426,3815.2,6.222321428571426,50.128571428571426,3917,6.222321428571426,50.128571428571426,4021.9,6.222321428571426,50.128571428571426,4132.3,6.222321428571426,50.128571428571426,4237,6.222321428571426,50.128571428571426,4344.3,6.222321428571426,50.128571428571426,4444.4,6.222321428571426,50.128571428571426,4555.1,6.222321428571426,50.128571428571426,4657.2,6.222321428571426,50.128571428571426,4757.5,6.222321428571426,50.128571428571426,4864.4,6.222321428571426,50.128571428571426,4972.2]","[1572.8,1572.8,1000,0,572.9,""smooth"",""up"",""up"",""good_move"",4565.6,2990.1,2463,1575.5,527.2,""smooth"",""left"",""left"",""good_move"",7818,3242.8,2809.2,4575.2,433.6,""smooth"",""left"",""left"",""good_move"",10882.6,3062.8,2019.3,7819.9,1043.4,""oops"",""left"",""down"",""bad_move"",16675.7,5790.3,2533.2,13811.5,331,""smooth"",""left"",""left"",""good_move"",20219.6,3537,2540.2,16682.6,996.8,""oops"",""up"",""right"",""bad_move"",26844.1,6614,2817.4,23611,415.7,""smooth"",""up"",""up"",""good_move"",30643.5,3798.1,1555.8,26845.5,2242.3,""smooth"",""up"",""up"",""good_move"",34661,4015,2025.5,30646,1989.5,""smooth"",""up"",""up"",""good_move"",38962.9,4297,2289.8,34665.9,2007.2,""smooth"",""left"",""left"",""good_move""]","","",""
"3074","","<div style=""width:500px;"">
  <p>What determined the result of this run?</p>
  </div>","100","html-slider-response","55","621217","0.0-10.0-1.2","267","1","2025-07-09 10:30:50","7701e855f2ef39aa3fd6c71abdc6918a","165.73.188.145","Mozilla/5.0 (Windows NT 10.0; Win64; x64) AppleWebKit/537.36 (KHTML, like Gecko) Chrome/138.0.0.0 Safari/537.36","WebKit","Chrome","138.0.0.0","Windows","10.0","https://app.prolific.com/","en-US,en;q=0.9","67db086caaf7ec9f16d9e256","686d226cabeef709c732f8e1","686e312f672c840716e0d356","67db086caaf7ec9f16d9e256","2025-07-09T10:41:12.366Z","","","","","","AttribQ","","","","","","","","","","","","","","","","","","","","","","","","","","","","","","","","","","","","","","50",""
"2538","","<div style=""width:500px;"">
  <p>How much control did you have over the ball?</p>
  </div>","100","html-slider-response","56","623760","0.0-10.0-2.2","267","1","2025-07-09 10:30:50","7701e855f2ef39aa3fd6c71abdc6918a","165.73.188.145","Mozilla/5.0 (Windows NT 10.0; Win64; x64) AppleWebKit/537.36 (KHTML, like Gecko) Chrome/138.0.0.0 Safari/537.36","WebKit","Chrome","138.0.0.0","Windows","10.0","https://app.prolific.com/","en-US,en;q=0.9","67db086caaf7ec9f16d9e256","686d226cabeef709c732f8e1","686e312f672c840716e0d356","67db086caaf7ec9f16d9e256","2025-07-09T10:41:14.910Z","","","","","","ControlQ","","","","","","","","","","","","","","","","","","","","","","","","","","","","","","","","","","","","","","50",""
"6110","","<div style=""width:500px;"">
  <p>How would you describe your current emotional state?</p>
  </div>","2","html-slider-response","57","629875","0.0-10.0-3.2","267","1","2025-07-09 10:30:50","7701e855f2ef39aa3fd6c71abdc6918a","165.73.188.145","Mozilla/5.0 (Windows NT 10.0; Win64; x64) AppleWebKit/537.36 (KHTML, like Gecko) Chrome/138.0.0.0 Safari/537.36","WebKit","Chrome","138.0.0.0","Windows","10.0","https://app.prolific.com/","en-US,en;q=0.9","67db086caaf7ec9f16d9e256","686d226cabeef709c732f8e1","686e312f672c840716e0d356","67db086caaf7ec9f16d9e256","2025-07-09T10:41:21.025Z","","","","","","StressQ","","","","","","","","","","","","","","","","","","","","","","","","","","","","","","","","","","","","","","50",""
"3964","","<div style=""width:500px;"">
  <p>What best describes how you currently feel?</p>
  </div>","99","html-slider-response","58","633846","0.0-10.0-4.2","267","1","2025-07-09 10:30:50","7701e855f2ef39aa3fd6c71abdc6918a","165.73.188.145","Mozilla/5.0 (Windows NT 10.0; Win64; x64) AppleWebKit/537.36 (KHTML, like Gecko) Chrome/138.0.0.0 Safari/537.36","WebKit","Chrome","138.0.0.0","Windows","10.0","https://app.prolific.com/","en-US,en;q=0.9","67db086caaf7ec9f16d9e256","686d226cabeef709c732f8e1","686e312f672c840716e0d356","67db086caaf7ec9f16d9e256","2025-07-09T10:41:24.995Z","","","","","","MotivationQ","","","","","","","","","","","","","","","","","","","","","","","","","","","","","","","","","","","","","","50",""
"","","","","ctl-task-cpt","59","686875","0.0-10.0-0.3","267","1","2025-07-09 10:30:50","7701e855f2ef39aa3fd6c71abdc6918a","165.73.188.145","Mozilla/5.0 (Windows NT 10.0; Win64; x64) AppleWebKit/537.36 (KHTML, like Gecko) Chrome/138.0.0.0 Safari/537.36","WebKit","Chrome","138.0.0.0","Windows","10.0","https://app.prolific.com/","en-US,en;q=0.9","67db086caaf7ec9f16d9e256","686d226cabeef709c732f8e1","686e312f672c840716e0d356","67db086caaf7ec9f16d9e256","2025-07-09T10:42:18.025Z","","","","","","","","","","","","","","","","win-only","0","g1:NW,g2:SE","0.7","4","0","636765","1557.7","6619.9","49983.8","1","4","4","6","2","4","4","24","20","0.18181818181818182","2142","3000","1950","[""down"",""right""]","{""num_key_presses"":8,""num_perfect"":7,""num_errors"":0,""num_randdir"":1,""num_randdir_good_moves"":0,""num_whilered"":0,""num_whileblue"":0,""num_blue"":5,""num_good_moves"":7}","[293.22232142857143,291.12857142857143,0.8,293.22232142857143,291.12857142857143,103,293.22232142857143,291.12857142857143,217.4,293.22232142857143,291.12857142857143,328.5,293.22232142857143,290.12857142857143,431.6,299.22232142857143,190.12857142857143,533.8,292.22232142857143,144.12857142857143,643.7,290.22232142857143,141.12857142857143,778.2,309.22232142857143,219.12857142857143,897.5,417.22232142857143,317.12857142857143,1020.3,495.22232142857143,375.12857142857143,1140.4,495.22232142857143,375.12857142857143,1245.8,495.22232142857143,376.12857142857143,1357.6,516.2223214285714,457.12857142857143,1492.1,539.2223214285714,490.12857142857143,1596.4,559.2223214285714,504.12857142857143,1701.4,559.2223214285714,504.12857142857143,1825.8,559.2223214285714,504.12857142857143,1928.3,559.2223214285714,504.12857142857143,2029.4,559.2223214285714,504.12857142857143,2153.8,559.2223214285714,504.12857142857143,2255.9,559.2223214285714,504.12857142857143,2356.8,559.2223214285714,504.12857142857143,2462.3,559.2223214285714,504.12857142857143,2577.3,559.2223214285714,504.12857142857143,2680.1,559.2223214285714,504.12857142857143,2780.1,559.2223214285714,504.12857142857143,2897.7,559.2223214285714,504.12857142857143,3018,559.2223214285714,504.12857142857143,3127.5,559.2223214285714,504.12857142857143,3248.8,559.2223214285714,504.12857142857143,3358,559.2223214285714,504.12857142857143,3475.1,559.2223214285714,504.12857142857143,3579.7,559.2223214285714,504.12857142857143,3704.9,559.2223214285714,504.12857142857143,3804.9,559.2223214285714,504.12857142857143,3919.8,559.2223214285714,504.12857142857143,4040.5,559.2223214285714,504.12857142857143,4144,559.2223214285714,504.12857142857143,4249.3,559.2223214285714,504.12857142857143,4354.2,559.2223214285714,504.12857142857143,4475.8,559.2223214285714,504.12857142857143,4601.7,559.2223214285714,504.12857142857143,4718.3,559.2223214285714,504.12857142857143,4832.3,559.2223214285714,504.12857142857143,4950.1]","[1873.1,1873.1,1000,0,873.1,""oops"",""down"",""left"",""bad_move"",7057.5,5182.9,2291.5,1874.6,2891.4,""smooth"",""right"",""right"",""good_move"",23599.7,16538.2,2145.6,21040.3,413.8,""smooth"",""right"",""right"",""good_move"",30474.6,6868.9,2972.5,27029.6,472.5,""smooth"",""right"",""right"",""good_move"",33728.2,3248.5,2743.3,30479.7,505.2,""smooth"",""right"",""right"",""good_move"",36538.4,2808.5,2411.4,33729.9,397.1,""smooth"",""down"",""down"",""good_move"",39603.9,3063.7,2425.7,36540.3,638,""smooth"",""down"",""down"",""good_move"",42944.5,3338.8,2963.8,39605.9,374.9,""smooth"",""down"",""down"",""good_move""]","","",""
"3681","","<div style=""width:500px;"">
  <p>What determined the result of this run?</p>
  </div>","97","html-slider-response","60","690564","0.0-10.0-1.3","267","1","2025-07-09 10:30:50","7701e855f2ef39aa3fd6c71abdc6918a","165.73.188.145","Mozilla/5.0 (Windows NT 10.0; Win64; x64) AppleWebKit/537.36 (KHTML, like Gecko) Chrome/138.0.0.0 Safari/537.36","WebKit","Chrome","138.0.0.0","Windows","10.0","https://app.prolific.com/","en-US,en;q=0.9","67db086caaf7ec9f16d9e256","686d226cabeef709c732f8e1","686e312f672c840716e0d356","67db086caaf7ec9f16d9e256","2025-07-09T10:42:21.714Z","","","","","","AttribQ","","","","","","","","","","","","","","","","","","","","","","","","","","","","","","","","","","","","","","50",""
"3213","","<div style=""width:500px;"">
  <p>How much control did you have over the ball?</p>
  </div>","53","html-slider-response","61","693785","0.0-10.0-2.3","267","1","2025-07-09 10:30:50","7701e855f2ef39aa3fd6c71abdc6918a","165.73.188.145","Mozilla/5.0 (Windows NT 10.0; Win64; x64) AppleWebKit/537.36 (KHTML, like Gecko) Chrome/138.0.0.0 Safari/537.36","WebKit","Chrome","138.0.0.0","Windows","10.0","https://app.prolific.com/","en-US,en;q=0.9","67db086caaf7ec9f16d9e256","686d226cabeef709c732f8e1","686e312f672c840716e0d356","67db086caaf7ec9f16d9e256","2025-07-09T10:42:24.935Z","","","","","","ControlQ","","","","","","","","","","","","","","","","","","","","","","","","","","","","","","","","","","","","","","50",""
"4094","","<div style=""width:500px;"">
  <p>How would you describe your current emotional state?</p>
  </div>","2","html-slider-response","62","697885","0.0-10.0-3.3","267","1","2025-07-09 10:30:50","7701e855f2ef39aa3fd6c71abdc6918a","165.73.188.145","Mozilla/5.0 (Windows NT 10.0; Win64; x64) AppleWebKit/537.36 (KHTML, like Gecko) Chrome/138.0.0.0 Safari/537.36","WebKit","Chrome","138.0.0.0","Windows","10.0","https://app.prolific.com/","en-US,en;q=0.9","67db086caaf7ec9f16d9e256","686d226cabeef709c732f8e1","686e312f672c840716e0d356","67db086caaf7ec9f16d9e256","2025-07-09T10:42:29.034Z","","","","","","StressQ","","","","","","","","","","","","","","","","","","","","","","","","","","","","","","","","","","","","","","50",""
"4454","","<div style=""width:500px;"">
  <p>What best describes how you currently feel?</p>
  </div>","100","html-slider-response","63","702343","0.0-10.0-4.3","267","1","2025-07-09 10:30:50","7701e855f2ef39aa3fd6c71abdc6918a","165.73.188.145","Mozilla/5.0 (Windows NT 10.0; Win64; x64) AppleWebKit/537.36 (KHTML, like Gecko) Chrome/138.0.0.0 Safari/537.36","WebKit","Chrome","138.0.0.0","Windows","10.0","https://app.prolific.com/","en-US,en;q=0.9","67db086caaf7ec9f16d9e256","686d226cabeef709c732f8e1","686e312f672c840716e0d356","67db086caaf7ec9f16d9e256","2025-07-09T10:42:33.493Z","","","","","","MotivationQ","","","","","","","","","","","","","","","","","","","","","","","","","","","","","","","","","","","","","","50",""
"","","","","ctl-task-cpt","64","801363","0.0-10.0-0.4","267","1","2025-07-09 10:30:50","7701e855f2ef39aa3fd6c71abdc6918a","165.73.188.145","Mozilla/5.0 (Windows NT 10.0; Win64; x64) AppleWebKit/537.36 (KHTML, like Gecko) Chrome/138.0.0.0 Safari/537.36","WebKit","Chrome","138.0.0.0","Windows","10.0","https://app.prolific.com/","en-US,en;q=0.9","67db086caaf7ec9f16d9e256","686d226cabeef709c732f8e1","686e312f672c840716e0d356","67db086caaf7ec9f16d9e256","2025-07-09T10:44:12.512Z","","","","","","","","","","","","","","","","win-only","3","g1:SW,g2:NE","0.6","5","0","705263.3","1505.8","6519.6","95983","1","4","4","6","2","4","2","26","24","0.19696969696969696","1497.5","3000","610","[""up"",""right""]","{""num_key_presses"":16,""num_perfect"":8,""num_errors"":2,""num_randdir"":6,""num_randdir_good_moves"":2,""num_whilered"":0,""num_whileblue"":0,""num_blue"":8,""num_good_moves"":10}","[290.22232142857143,299.12857142857143,1,290.22232142857143,299.12857142857143,113,290.22232142857143,299.12857142857143,228.2,290.22232142857143,299.12857142857143,340.5,290.22232142857143,299.12857142857143,446.3,370.22232142857143,172.12857142857143,575.6,485.22232142857143,57.128571428571426,678.9,489.22232142857143,55.128571428571426,797.4,489.22232142857143,55.128571428571426,908.3,491.22232142857143,55.128571428571426,1017.3,504.22232142857143,48.128571428571426,1141.7,514.2223214285714,46.128571428571426,1254,514.2223214285714,46.128571428571426,1374.9,514.2223214285714,46.128571428571426,1487.5,514.2223214285714,46.128571428571426,1600,514.2223214285714,46.128571428571426,1705.7,514.2223214285714,46.128571428571426,1821.4,514.2223214285714,46.128571428571426,1924.2,514.2223214285714,46.128571428571426,2030,514.2223214285714,46.128571428571426,2149.6,514.2223214285714,46.128571428571426,2261.4,514.2223214285714,46.128571428571426,2362.8,514.2223214285714,46.128571428571426,2481.6,514.2223214285714,46.128571428571426,2586.8,514.2223214285714,46.128571428571426,2691.8,514.2223214285714,46.128571428571426,2815.3,514.2223214285714,46.128571428571426,2923.2,514.2223214285714,46.128571428571426,3043.6,514.2223214285714,46.128571428571426,3159.1,514.2223214285714,46.128571428571426,3285.4,514.2223214285714,46.128571428571426,3391.1,514.2223214285714,46.128571428571426,3514.2,514.2223214285714,46.128571428571426,3637.8,514.2223214285714,46.128571428571426,3739.4,514.2223214285714,46.128571428571426,3861.2,514.2223214285714,46.128571428571426,3981.4,514.2223214285714,46.128571428571426,4092.7,514.2223214285714,46.128571428571426,4204.5,514.2223214285714,46.128571428571426,4330.9,514.2223214285714,46.128571428571426,4441.7,514.2223214285714,46.128571428571426,4543.4,514.2223214285714,46.128571428571426,4644.8,514.2223214285714,46.128571428571426,4749.9,514.2223214285714,46.128571428571426,4852.5,514.2223214285714,46.128571428571426,4957]","[1441,1441,1000,0,441,""smooth"",""up"",""up"",""good_move"",13369.9,11927.4,2434.7,10455.3,479.9,""smooth"",""up"",""up"",""good_move"",16916.1,3537.7,2396.1,13378.4,1141.6,""oops"",""up"",""down"",""bad_move"",26452.1,9526.5,2066.7,23749,636.4,""smooth"",""right"",""right"",""good_move"",29060.1,2605,1766.4,26455.1,838.7,""smooth"",""right"",""right"",""good_move"",31659.6,2594.4,2083.5,29065.2,510.9,""oops"",""right"",""left"",""bad_move"",35667.8,4006,2131.1,31661.8,1874.9,""error"",""-"",""-"",""no_move"",42791.6,7122.4,2287,40068.1,436.6,""smooth"",""right"",""right"",""good_move"",44863.4,2070.4,2346.5,42793,-276.1,""error"",""-"",""-"",""no_move"",49419.8,4555,2457.7,45889.4,1072.7,""oops"",""right"",""up"",""good_move"",55523.7,6101.8,2417.3,49421.9,3684.5,""oops"",""up"",""left"",""bad_move"",65451.1,9925.8,2384.4,62251.6,815.1,""smooth"",""up"",""up"",""good_move"",72988.9,7527.8,2760,69447.1,781.8,""smooth"",""right"",""right"",""good_move"",76664.4,3674.6,2588,72990,1086.5,""oops"",""right"",""left"",""bad_move"",85163.4,8497,2195,81713.7,1254.7,""smooth"",""right"",""right"",""good_move"",88852.4,3685.7,2504.8,85166.9,1180.9,""oops"",""right"",""right"",""good_move""]","","",""
"5063","","<div style=""width:500px;"">
  <p>What determined the result of this run?</p>
  </div>","100","html-slider-response","65","806429","0.0-10.0-1.4","267","1","2025-07-09 10:30:50","7701e855f2ef39aa3fd6c71abdc6918a","165.73.188.145","Mozilla/5.0 (Windows NT 10.0; Win64; x64) AppleWebKit/537.36 (KHTML, like Gecko) Chrome/138.0.0.0 Safari/537.36","WebKit","Chrome","138.0.0.0","Windows","10.0","https://app.prolific.com/","en-US,en;q=0.9","67db086caaf7ec9f16d9e256","686d226cabeef709c732f8e1","686e312f672c840716e0d356","67db086caaf7ec9f16d9e256","2025-07-09T10:44:17.578Z","","","","","","AttribQ","","","","","","","","","","","","","","","","","","","","","","","","","","","","","","","","","","","","","","50",""
"4015","","<div style=""width:500px;"">
  <p>How much control did you have over the ball?</p>
  </div>","100","html-slider-response","66","810450","0.0-10.0-2.4","267","1","2025-07-09 10:30:50","7701e855f2ef39aa3fd6c71abdc6918a","165.73.188.145","Mozilla/5.0 (Windows NT 10.0; Win64; x64) AppleWebKit/537.36 (KHTML, like Gecko) Chrome/138.0.0.0 Safari/537.36","WebKit","Chrome","138.0.0.0","Windows","10.0","https://app.prolific.com/","en-US,en;q=0.9","67db086caaf7ec9f16d9e256","686d226cabeef709c732f8e1","686e312f672c840716e0d356","67db086caaf7ec9f16d9e256","2025-07-09T10:44:21.600Z","","","","","","ControlQ","","","","","","","","","","","","","","","","","","","","","","","","","","","","","","","","","","","","","","50",""
"4226","","<div style=""width:500px;"">
  <p>How would you describe your current emotional state?</p>
  </div>","0","html-slider-response","67","814687","0.0-10.0-3.4","267","1","2025-07-09 10:30:50","7701e855f2ef39aa3fd6c71abdc6918a","165.73.188.145","Mozilla/5.0 (Windows NT 10.0; Win64; x64) AppleWebKit/537.36 (KHTML, like Gecko) Chrome/138.0.0.0 Safari/537.36","WebKit","Chrome","138.0.0.0","Windows","10.0","https://app.prolific.com/","en-US,en;q=0.9","67db086caaf7ec9f16d9e256","686d226cabeef709c732f8e1","686e312f672c840716e0d356","67db086caaf7ec9f16d9e256","2025-07-09T10:44:25.836Z","","","","","","StressQ","","","","","","","","","","","","","","","","","","","","","","","","","","","","","","","","","","","","","","50",""
"4001","","<div style=""width:500px;"">
  <p>What best describes how you currently feel?</p>
  </div>","97","html-slider-response","68","818695","0.0-10.0-4.4","267","1","2025-07-09 10:30:50","7701e855f2ef39aa3fd6c71abdc6918a","165.73.188.145","Mozilla/5.0 (Windows NT 10.0; Win64; x64) AppleWebKit/537.36 (KHTML, like Gecko) Chrome/138.0.0.0 Safari/537.36","WebKit","Chrome","138.0.0.0","Windows","10.0","https://app.prolific.com/","en-US,en;q=0.9","67db086caaf7ec9f16d9e256","686d226cabeef709c732f8e1","686e312f672c840716e0d356","67db086caaf7ec9f16d9e256","2025-07-09T10:44:29.845Z","","","","","","MotivationQ","","","","","","","","","","","","","","","","","","","","","","","","","","","","","","","","","","","","","","50",""
"","","","","ctl-task-cpt","69","908950","0.0-10.0-0.5","267","1","2025-07-09 10:30:50","7701e855f2ef39aa3fd6c71abdc6918a","165.73.188.145","Mozilla/5.0 (Windows NT 10.0; Win64; x64) AppleWebKit/537.36 (KHTML, like Gecko) Chrome/138.0.0.0 Safari/537.36","WebKit","Chrome","138.0.0.0","Windows","10.0","https://app.prolific.com/","en-US,en;q=0.9","67db086caaf7ec9f16d9e256","686d226cabeef709c732f8e1","686e312f672c840716e0d356","67db086caaf7ec9f16d9e256","2025-07-09T10:46:00.100Z","","","","","","","","","","","","","","","","win-only","0","g1:NW,g2:SE","0.5","6","0","821614.4","1659.7","6687.4","87179.8","1","4","8","6","2","8","8","34","26","0.25757575757575757","2100","3000","1880","[""down"",""right""]","{""num_key_presses"":14,""num_perfect"":8,""num_errors"":0,""num_randdir"":6,""num_randdir_good_moves"":2,""num_whilered"":0,""num_whileblue"":0,""num_blue"":4,""num_good_moves"":10}","[296.22232142857143,289.12857142857143,1.4,296.22232142857143,289.12857142857143,135.5,296.22232142857143,289.12857142857143,255.2,296.22232142857143,289.12857142857143,385.1,299.22232142857143,276.12857142857143,486.5,337.22232142857143,188.12857142857143,605,372.22232142857143,150.12857142857143,725,380.22232142857143,146.12857142857143,833.1,396.22232142857143,190.12857142857143,981.2,530.2223214285714,376.12857142857143,1102.8,530.2223214285714,376.12857142857143,1208.7,530.2223214285714,376.12857142857143,1333.5,532.2223214285714,430.12857142857143,1453.1,537.2223214285714,509.12857142857143,1589,538.2223214285714,515.1285714285714,1701.8,538.2223214285714,515.1285714285714,1841.7,538.2223214285714,515.1285714285714,1946.7,538.2223214285714,515.1285714285714,2047.8,538.2223214285714,515.1285714285714,2160.3,538.2223214285714,515.1285714285714,2274.4,538.2223214285714,515.1285714285714,2389.1,538.2223214285714,515.1285714285714,2491.3,538.2223214285714,499.12857142857143,2602.6,94.22232142857143,683.1285714285714,2731.9,94.22232142857143,683.1285714285714,2832.2,94.22232142857143,683.1285714285714,2948.9,94.22232142857143,683.1285714285714,3053.9,94.22232142857143,683.1285714285714,3160.9,94.22232142857143,683.1285714285714,3273.3,94.22232142857143,683.1285714285714,3379.4,94.22232142857143,683.1285714285714,3488.7,94.22232142857143,683.1285714285714,3621.8,94.22232142857143,683.1285714285714,3749.1,94.22232142857143,683.1285714285714,3877.2,94.22232142857143,683.1285714285714,3998.6,94.22232142857143,683.1285714285714,4105.2,94.22232142857143,683.1285714285714,4227.5,94.22232142857143,683.1285714285714,4353.3,94.22232142857143,683.1285714285714,4482.6,94.22232142857143,683.1285714285714,4588.1,94.22232142857143,683.1285714285714,4693.6,94.22232142857143,683.1285714285714,4800.9,94.22232142857143,683.1285714285714,4909.7]","[2046.2,2046.2,1000,0.1,1046.1,""oops"",""down"",""up"",""bad_move"",8915.7,6844.4,1139.2,2071.3,5705.2,""smooth"",""down"",""down"",""good_move"",11995.6,3076.5,2332,8919.1,744.5,""oops"",""down"",""up"",""bad_move"",19247.6,7250,1836.1,11997.7,5413.9,""smooth"",""down"",""down"",""good_move"",23486.7,4237.1,3061.7,19249.6,1175.4,""smooth"",""down"",""down"",""good_move"",31057.9,7568.4,2337.4,28212,508.5,""smooth"",""down"",""down"",""good_move"",33895.8,2836.2,2160,31059.7,676.1,""oops"",""down"",""up"",""bad_move"",44618.6,10720.3,1538.2,42268.6,811.9,""oops"",""down"",""down"",""good_move"",48525.7,3905.4,3270.8,44620.3,634.6,""oops"",""down"",""up"",""bad_move"",61980.4,13452.6,2097.9,59032,850.5,""smooth"",""down"",""down"",""good_move"",64855.8,2874.1,1935.4,61981.8,938.6,""smooth"",""down"",""down"",""good_move"",68553.3,3695.8,2858.8,64857.6,837,""smooth"",""right"",""right"",""good_move"",75518.7,6962.6,2727.6,72191.3,599.8,""oops"",""right"",""right"",""good_move"",78919.8,3399.9,2400,75520,999.9,""smooth"",""right"",""right"",""good_move""]","","",""
"7804","","<div style=""width:500px;"">
  <p>What determined the result of this run?</p>
  </div>","100","html-slider-response","70","916763","0.0-10.0-1.5","267","1","2025-07-09 10:30:50","7701e855f2ef39aa3fd6c71abdc6918a","165.73.188.145","Mozilla/5.0 (Windows NT 10.0; Win64; x64) AppleWebKit/537.36 (KHTML, like Gecko) Chrome/138.0.0.0 Safari/537.36","WebKit","Chrome","138.0.0.0","Windows","10.0","https://app.prolific.com/","en-US,en;q=0.9","67db086caaf7ec9f16d9e256","686d226cabeef709c732f8e1","686e312f672c840716e0d356","67db086caaf7ec9f16d9e256","2025-07-09T10:46:07.912Z","","","","","","AttribQ","","","","","","","","","","","","","","","","","","","","","","","","","","","","","","","","","","","","","","50",""
"3167","","<div style=""width:500px;"">
  <p>How much control did you have over the ball?</p>
  </div>","100","html-slider-response","71","919941","0.0-10.0-2.5","267","1","2025-07-09 10:30:50","7701e855f2ef39aa3fd6c71abdc6918a","165.73.188.145","Mozilla/5.0 (Windows NT 10.0; Win64; x64) AppleWebKit/537.36 (KHTML, like Gecko) Chrome/138.0.0.0 Safari/537.36","WebKit","Chrome","138.0.0.0","Windows","10.0","https://app.prolific.com/","en-US,en;q=0.9","67db086caaf7ec9f16d9e256","686d226cabeef709c732f8e1","686e312f672c840716e0d356","67db086caaf7ec9f16d9e256","2025-07-09T10:46:11.090Z","","","","","","ControlQ","","","","","","","","","","","","","","","","","","","","","","","","","","","","","","","","","","","","","","50",""
"3595","","<div style=""width:500px;"">
  <p>How would you describe your current emotional state?</p>
  </div>","9","html-slider-response","72","923548","0.0-10.0-3.5","267","1","2025-07-09 10:30:50","7701e855f2ef39aa3fd6c71abdc6918a","165.73.188.145","Mozilla/5.0 (Windows NT 10.0; Win64; x64) AppleWebKit/537.36 (KHTML, like Gecko) Chrome/138.0.0.0 Safari/537.36","WebKit","Chrome","138.0.0.0","Windows","10.0","https://app.prolific.com/","en-US,en;q=0.9","67db086caaf7ec9f16d9e256","686d226cabeef709c732f8e1","686e312f672c840716e0d356","67db086caaf7ec9f16d9e256","2025-07-09T10:46:14.697Z","","","","","","StressQ","","","","","","","","","","","","","","","","","","","","","","","","","","","","","","","","","","","","","","50",""
"2950","","<div style=""width:500px;"">
  <p>What best describes how you currently feel?</p>
  </div>","100","html-slider-response","73","926510","0.0-10.0-4.5","267","1","2025-07-09 10:30:50","7701e855f2ef39aa3fd6c71abdc6918a","165.73.188.145","Mozilla/5.0 (Windows NT 10.0; Win64; x64) AppleWebKit/537.36 (KHTML, like Gecko) Chrome/138.0.0.0 Safari/537.36","WebKit","Chrome","138.0.0.0","Windows","10.0","https://app.prolific.com/","en-US,en;q=0.9","67db086caaf7ec9f16d9e256","686d226cabeef709c732f8e1","686e312f672c840716e0d356","67db086caaf7ec9f16d9e256","2025-07-09T10:46:17.659Z","","","","","","MotivationQ","","","","","","","","","","","","","","","","","","","","","","","","","","","","","","","","","","","","","","50",""
"","","","","ctl-task-cpt","74","1021457","0.0-10.0-0.6","267","1","2025-07-09 10:30:50","7701e855f2ef39aa3fd6c71abdc6918a","165.73.188.145","Mozilla/5.0 (Windows NT 10.0; Win64; x64) AppleWebKit/537.36 (KHTML, like Gecko) Chrome/138.0.0.0 Safari/537.36","WebKit","Chrome","138.0.0.0","Windows","10.0","https://app.prolific.com/","en-US,en;q=0.9","67db086caaf7ec9f16d9e256","686d226cabeef709c732f8e1","686e312f672c840716e0d356","67db086caaf7ec9f16d9e256","2025-07-09T10:47:52.606Z","","","","","","","","","","","","","","","","win-only","1","g1:NE,g2:SW","0.4","7","0","929432.8","1393.2","6466","91911.3","1","4","8","6","2","-8","-12","22","34","0.16666666666666666","1756.1","3000","-620","[""down"",""left""]","{""num_key_presses"":21,""num_perfect"":6,""num_errors"":4,""num_randdir"":11,""num_randdir_good_moves"":3,""num_whilered"":0,""num_whileblue"":0,""num_blue"":2,""num_good_moves"":9}","[297.22232142857143,301.12857142857143,1.8,297.22232142857143,301.12857142857143,168.7,297.22232142857143,301.12857142857143,336.2,297.22232142857143,301.12857142857143,485.9,300.22232142857143,294.12857142857143,681.9,212.22232142857143,358.12857142857143,884.5,174.22232142857143,389.12857142857143,994.6,61.222321428571426,489.12857142857143,1167.6,61.222321428571426,489.12857142857143,1339.8,58.222321428571426,516.1285714285714,1526.2,58.222321428571426,516.1285714285714,1678.6,58.222321428571426,516.1285714285714,1854.3,58.222321428571426,516.1285714285714,2016.4,58.222321428571426,516.1285714285714,2199.1,58.222321428571426,516.1285714285714,2360,58.222321428571426,516.1285714285714,2497.9,58.222321428571426,516.1285714285714,2635.2,58.222321428571426,516.1285714285714,2795.1,58.222321428571426,516.1285714285714,2937.6,58.222321428571426,516.1285714285714,3090.8,58.222321428571426,516.1285714285714,3247,58.222321428571426,516.1285714285714,3394.4,58.222321428571426,516.1285714285714,3546.7,58.222321428571426,516.1285714285714,3696.1,58.222321428571426,516.1285714285714,3845.7,58.222321428571426,516.1285714285714,3991.3,58.222321428571426,516.1285714285714,4138.7,58.222321428571426,516.1285714285714,4297.2,58.222321428571426,516.1285714285714,4442.9,58.222321428571426,516.1285714285714,4608.9,58.222321428571426,516.1285714285714,4757.4,58.222321428571426,516.1285714285714,4910]","[3272.5,3272.6,1000,0,2272.6,""oops"",""down"",""right"",""bad_move"",8183.4,4909.6,1680.4,3273.9,3229.2,""smooth"",""down"",""down"",""good_move"",14555.5,6368.4,2086.2,11879,590.3,""oops"",""down"",""down"",""good_move"",18404.8,3841.5,2513.3,14563.3,1328.2,""smooth"",""down"",""down"",""good_move"",21774,3367.3,2454.8,18406.7,912.5,""oops"",""left"",""up"",""bad_move"",26541.3,4765.4,2758.7,21775.9,2006.7,""oops"",""down"",""down"",""good_move"",29025.2,2482.1,1890.7,26543.2,591.4,""oops"",""left"",""up"",""bad_move"",34593.7,5563.4,2145.3,29031,3417.4,""smooth"",""down"",""down"",""good_move"",37616,3020.9,2461.4,34595.1,559.6,""oops"",""left"",""left"",""good_move"",42225.8,4607.6,2085.5,37618.3,2522,""smooth"",""left"",""left"",""good_move"",46399.4,4167.1,2354.8,42232.3,1812.3,""oops"",""left"",""right"",""bad_move"",49733.7,3333.1,2687.1,46400.7,646,""oops"",""left"",""up"",""bad_move"",55172,5434.7,2436.2,49737.3,2998.5,""oops"",""down"",""right"",""bad_move"",55430.8,256.8,2666.5,55174,-2409.7,""error"",""-"",""-"",""no_move"",59078.1,3645.8,2099.1,56463.3,515.7,""oops"",""left"",""up"",""bad_move"",62276.7,3196.6,3127.5,59080.3,69,""error"",""-"",""-"",""no_move"",70416.2,8138.2,2801.5,67038,576.7,""oops"",""left"",""up"",""bad_move"",70874,441.6,2652.9,70432.4,-2211.3,""error"",""-"",""-"",""no_move"",75589.3,4713.7,2567.7,71893.8,1127.8,""smooth"",""left"",""left"",""good_move"",79347.6,3756.6,2727.7,75591.1,1028.8,""smooth"",""left"",""left"",""good_move"",81619,2264.3,2881.7,79354.8,-617.5,""error"",""-"",""-"",""no_move""]","","",""
"6236","","<div style=""width:500px;"">
  <p>What determined the result of this run?</p>
  </div>","92","html-slider-response","75","1027697","0.0-10.0-1.6","267","1","2025-07-09 10:30:50","7701e855f2ef39aa3fd6c71abdc6918a","165.73.188.145","Mozilla/5.0 (Windows NT 10.0; Win64; x64) AppleWebKit/537.36 (KHTML, like Gecko) Chrome/138.0.0.0 Safari/537.36","WebKit","Chrome","138.0.0.0","Windows","10.0","https://app.prolific.com/","en-US,en;q=0.9","67db086caaf7ec9f16d9e256","686d226cabeef709c732f8e1","686e312f672c840716e0d356","67db086caaf7ec9f16d9e256","2025-07-09T10:47:58.847Z","","","","","","AttribQ","","","","","","","","","","","","","","","","","","","","","","","","","","","","","","","","","","","","","","50",""
"3634","","<div style=""width:500px;"">
  <p>How much control did you have over the ball?</p>
  </div>","98","html-slider-response","76","1031338","0.0-10.0-2.6","267","1","2025-07-09 10:30:50","7701e855f2ef39aa3fd6c71abdc6918a","165.73.188.145","Mozilla/5.0 (Windows NT 10.0; Win64; x64) AppleWebKit/537.36 (KHTML, like Gecko) Chrome/138.0.0.0 Safari/537.36","WebKit","Chrome","138.0.0.0","Windows","10.0","https://app.prolific.com/","en-US,en;q=0.9","67db086caaf7ec9f16d9e256","686d226cabeef709c732f8e1","686e312f672c840716e0d356","67db086caaf7ec9f16d9e256","2025-07-09T10:48:02.487Z","","","","","","ControlQ","","","","","","","","","","","","","","","","","","","","","","","","","","","","","","","","","","","","","","50",""
"3660","","<div style=""width:500px;"">
  <p>How would you describe your current emotional state?</p>
  </div>","14","html-slider-response","77","1035002","0.0-10.0-3.6","267","1","2025-07-09 10:30:50","7701e855f2ef39aa3fd6c71abdc6918a","165.73.188.145","Mozilla/5.0 (Windows NT 10.0; Win64; x64) AppleWebKit/537.36 (KHTML, like Gecko) Chrome/138.0.0.0 Safari/537.36","WebKit","Chrome","138.0.0.0","Windows","10.0","https://app.prolific.com/","en-US,en;q=0.9","67db086caaf7ec9f16d9e256","686d226cabeef709c732f8e1","686e312f672c840716e0d356","67db086caaf7ec9f16d9e256","2025-07-09T10:48:06.151Z","","","","","","StressQ","","","","","","","","","","","","","","","","","","","","","","","","","","","","","","","","","","","","","","50",""
"3095","","<div style=""width:500px;"">
  <p>What best describes how you currently feel?</p>
  </div>","93","html-slider-response","78","1038101","0.0-10.0-4.6","267","1","2025-07-09 10:30:50","7701e855f2ef39aa3fd6c71abdc6918a","165.73.188.145","Mozilla/5.0 (Windows NT 10.0; Win64; x64) AppleWebKit/537.36 (KHTML, like Gecko) Chrome/138.0.0.0 Safari/537.36","WebKit","Chrome","138.0.0.0","Windows","10.0","https://app.prolific.com/","en-US,en;q=0.9","67db086caaf7ec9f16d9e256","686d226cabeef709c732f8e1","686e312f672c840716e0d356","67db086caaf7ec9f16d9e256","2025-07-09T10:48:09.250Z","","","","","","MotivationQ","","","","","","","","","","","","","","","","","","","","","","","","","","","","","","","","","","","","","","50",""
"","","","","ctl-task-cpt","79","1139879","0.0-10.0-0.7","267","1","2025-07-09 10:30:50","7701e855f2ef39aa3fd6c71abdc6918a","165.73.188.145","Mozilla/5.0 (Windows NT 10.0; Win64; x64) AppleWebKit/537.36 (KHTML, like Gecko) Chrome/138.0.0.0 Safari/537.36","WebKit","Chrome","138.0.0.0","Windows","10.0","https://app.prolific.com/","en-US,en;q=0.9","67db086caaf7ec9f16d9e256","686d226cabeef709c732f8e1","686e312f672c840716e0d356","67db086caaf7ec9f16d9e256","2025-07-09T10:49:51.028Z","","","","","","","","","","","","","","","","win-only","1","g1:NE,g2:SW","0.3","8","0","1041046","1533.9","6536.8","98700.3","1","4","4","6","2","-4","-5","17","22","0.12878787878787878","1723.1","3000","-475","[""down"",""left""]","{""num_key_presses"":18,""num_perfect"":5,""num_errors"":1,""num_randdir"":12,""num_randdir_good_moves"":6,""num_whilered"":0,""num_whileblue"":0,""num_blue"":1,""num_good_moves"":11}","[293.22232142857143,288.12857142857143,1.1,293.22232142857143,288.12857142857143,112.4,293.22232142857143,288.12857142857143,230.4,293.22232142857143,288.12857142857143,351.2,293.22232142857143,288.12857142857143,462.8,294.22232142857143,285.12857142857143,563.1,310.22232142857143,267.12857142857143,676.9,185.22232142857143,362.12857142857143,800.4,55.222321428571426,474.12857142857143,922.7,55.222321428571426,474.12857142857143,1028.2,55.222321428571426,474.12857142857143,1143.3,54.222321428571426,484.12857142857143,1255.2,54.222321428571426,495.12857142857143,1379.2,54.222321428571426,503.12857142857143,1491.4,54.222321428571426,503.12857142857143,1622.9,54.222321428571426,503.12857142857143,1732.3,54.222321428571426,503.12857142857143,1851.4,54.222321428571426,503.12857142857143,1962.1,54.222321428571426,503.12857142857143,2070.4,54.222321428571426,503.12857142857143,2195.4,54.222321428571426,503.12857142857143,2325.5,54.222321428571426,503.12857142857143,2451.1,54.222321428571426,503.12857142857143,2582.4,54.222321428571426,503.12857142857143,2700.5,54.222321428571426,503.12857142857143,2801.6,54.222321428571426,503.12857142857143,2929.5,54.222321428571426,503.12857142857143,3055.9,54.222321428571426,503.12857142857143,3169.6,54.222321428571426,503.12857142857143,3270.6,54.222321428571426,503.12857142857143,3410.9,54.222321428571426,503.12857142857143,3515.8,54.222321428571426,503.12857142857143,3642,54.222321428571426,503.12857142857143,3775.9,54.222321428571426,503.12857142857143,3880.1,54.222321428571426,503.12857142857143,4010.1,54.222321428571426,503.12857142857143,4119.2,54.222321428571426,503.12857142857143,4243.1,54.222321428571426,503.12857142857143,4343.4,54.222321428571426,503.12857142857143,4444.9,54.222321428571426,503.12857142857143,4576.3,54.222321428571426,503.12857142857143,4681,54.222321428571426,503.12857142857143,4812.3,54.222321428571426,503.12857142857143,4933.2]","[1570.2,1570.2,1000,0,570.2,""smooth"",""down"",""down"",""good_move"",3985.4,2413.7,1770.4,1571.7,643.3,""oops"",""down"",""up"",""bad_move"",10779.3,6791.8,3008.8,3987.5,3783,""oops"",""down"",""down"",""good_move"",13757.2,2976.5,2303,10780.7,673.5,""smooth"",""down"",""down"",""good_move"",17342.9,3581.2,2569.5,13761.8,1011.7,""oops"",""down"",""left"",""good_move"",25511.5,8165.7,2491.6,17345.8,5674.1,""oops"",""down"",""right"",""bad_move"",33076.7,7563.6,2930.5,25513.2,4633,""smooth"",""down"",""down"",""good_move"",36155.8,3077.3,2364.6,33078.5,712.7,""oops"",""left"",""up"",""bad_move"",40154.4,3996.5,2895.4,36158,1101,""error"",""-"",""-"",""no_move"",44581.2,4421.1,2849.8,41174.4,557,""oops"",""left"",""up"",""bad_move"",53148.4,8559.1,2529.9,50125,493.5,""oops"",""left"",""left"",""good_move"",59358.7,6207.9,3815.6,53150.8,2392.3,""oops"",""left"",""down"",""good_move"",63613.3,4252.9,2874.2,59360.4,1378.7,""oops"",""down"",""right"",""bad_move"",66329.7,2714,2019.4,63615.8,694.6,""smooth"",""down"",""down"",""good_move"",70626,4291.4,2494.6,66334.7,1796.7,""smooth"",""left"",""left"",""good_move"",76986.7,6358.6,1669.2,70628.2,4689.3,""oops"",""left"",""right"",""bad_move"",81979.2,4991.2,3050.6,76988.1,1940.6,""oops"",""left"",""left"",""good_move"",86771.4,4790.5,2700.3,81981,2090.1,""oops"",""left"",""left"",""good_move""]","","",""
"4497","","<div style=""width:500px;"">
  <p>What determined the result of this run?</p>
  </div>","18","html-slider-response","80","1144381","0.0-10.0-1.7","267","1","2025-07-09 10:30:50","7701e855f2ef39aa3fd6c71abdc6918a","165.73.188.145","Mozilla/5.0 (Windows NT 10.0; Win64; x64) AppleWebKit/537.36 (KHTML, like Gecko) Chrome/138.0.0.0 Safari/537.36","WebKit","Chrome","138.0.0.0","Windows","10.0","https://app.prolific.com/","en-US,en;q=0.9","67db086caaf7ec9f16d9e256","686d226cabeef709c732f8e1","686e312f672c840716e0d356","67db086caaf7ec9f16d9e256","2025-07-09T10:49:55.530Z","","","","","","AttribQ","","","","","","","","","","","","","","","","","","","","","","","","","","","","","","","","","","","","","","50",""
"4363","","<div style=""width:500px;"">
  <p>How much control did you have over the ball?</p>
  </div>","83","html-slider-response","81","1148750","0.0-10.0-2.7","267","1","2025-07-09 10:30:50","7701e855f2ef39aa3fd6c71abdc6918a","165.73.188.145","Mozilla/5.0 (Windows NT 10.0; Win64; x64) AppleWebKit/537.36 (KHTML, like Gecko) Chrome/138.0.0.0 Safari/537.36","WebKit","Chrome","138.0.0.0","Windows","10.0","https://app.prolific.com/","en-US,en;q=0.9","67db086caaf7ec9f16d9e256","686d226cabeef709c732f8e1","686e312f672c840716e0d356","67db086caaf7ec9f16d9e256","2025-07-09T10:49:59.899Z","","","","","","ControlQ","","","","","","","","","","","","","","","","","","","","","","","","","","","","","","","","","","","","","","50",""
"4656","","<div style=""width:500px;"">
  <p>How would you describe your current emotional state?</p>
  </div>","14","html-slider-response","82","1153415","0.0-10.0-3.7","267","1","2025-07-09 10:30:50","7701e855f2ef39aa3fd6c71abdc6918a","165.73.188.145","Mozilla/5.0 (Windows NT 10.0; Win64; x64) AppleWebKit/537.36 (KHTML, like Gecko) Chrome/138.0.0.0 Safari/537.36","WebKit","Chrome","138.0.0.0","Windows","10.0","https://app.prolific.com/","en-US,en;q=0.9","67db086caaf7ec9f16d9e256","686d226cabeef709c732f8e1","686e312f672c840716e0d356","67db086caaf7ec9f16d9e256","2025-07-09T10:50:04.565Z","","","","","","StressQ","","","","","","","","","","","","","","","","","","","","","","","","","","","","","","","","","","","","","","50",""
"4340","","<div style=""width:500px;"">
  <p>What best describes how you currently feel?</p>
  </div>","74","html-slider-response","83","1157764","0.0-10.0-4.7","267","1","2025-07-09 10:30:50","7701e855f2ef39aa3fd6c71abdc6918a","165.73.188.145","Mozilla/5.0 (Windows NT 10.0; Win64; x64) AppleWebKit/537.36 (KHTML, like Gecko) Chrome/138.0.0.0 Safari/537.36","WebKit","Chrome","138.0.0.0","Windows","10.0","https://app.prolific.com/","en-US,en;q=0.9","67db086caaf7ec9f16d9e256","686d226cabeef709c732f8e1","686e312f672c840716e0d356","67db086caaf7ec9f16d9e256","2025-07-09T10:50:08.913Z","","","","","","MotivationQ","","","","","","","","","","","","","","","","","","","","","","","","","","","","","","","","","","","","","","50",""
"","","","","ctl-task-cpt","84","1321007","0.0-10.0-0.8","267","1","2025-07-09 10:30:50","7701e855f2ef39aa3fd6c71abdc6918a","165.73.188.145","Mozilla/5.0 (Windows NT 10.0; Win64; x64) AppleWebKit/537.36 (KHTML, like Gecko) Chrome/138.0.0.0 Safari/537.36","WebKit","Chrome","138.0.0.0","Windows","10.0","https://app.prolific.com/","en-US,en;q=0.9","67db086caaf7ec9f16d9e256","686d226cabeef709c732f8e1","686e312f672c840716e0d356","67db086caaf7ec9f16d9e256","2025-07-09T10:52:52.156Z","","","","","","","","","","","","","","","","win-only","3","g1:SW,g2:NE","0.2","9","0","1160686.9","1662.9","6686.7","160193.3","1","4","4","6","2","-4","-4","13","17","0.09848484848484848","1774.8","3000","-440","[""up"",""right""]","{""num_key_presses"":22,""num_perfect"":4,""num_errors"":0,""num_randdir"":18,""num_randdir_good_moves"":8,""num_whilered"":0,""num_whileblue"":0,""num_blue"":7,""num_good_moves"":12}","[294.22232142857143,287.12857142857143,0.7,294.22232142857143,287.12857142857143,124.1,294.22232142857143,287.12857142857143,239.8,294.22232142857143,287.12857142857143,360.3,299.22232142857143,279.12857142857143,510.7,403.22232142857143,134.12857142857143,653.4,420.22232142857143,119.12857142857143,781.5,439.22232142857143,101.12857142857143,921.4,439.22232142857143,101.12857142857143,1041.1,439.22232142857143,101.12857142857143,1151.4,439.22232142857143,101.12857142857143,1272.7,505.22232142857143,75.12857142857143,1425.3,511.22232142857143,73.12857142857143,1547.4,511.22232142857143,73.12857142857143,1661.1,511.22232142857143,73.12857142857143,1803.9,511.22232142857143,73.12857142857143,1926.1,511.22232142857143,73.12857142857143,2055.1,511.22232142857143,73.12857142857143,2184.6,511.22232142857143,73.12857142857143,2311.3,511.22232142857143,73.12857142857143,2424.8,511.22232142857143,73.12857142857143,2535.2,511.22232142857143,73.12857142857143,2692.8,511.22232142857143,73.12857142857143,2832.9,511.22232142857143,73.12857142857143,2946.1,511.22232142857143,73.12857142857143,3053.6,511.22232142857143,73.12857142857143,3174.1,511.22232142857143,73.12857142857143,3286.5,511.22232142857143,73.12857142857143,3393.6,511.22232142857143,73.12857142857143,3505.3,511.22232142857143,73.12857142857143,3608.4,511.22232142857143,73.12857142857143,3713.9,511.22232142857143,73.12857142857143,3824.3,511.22232142857143,73.12857142857143,3931.5,511.22232142857143,73.12857142857143,4035.4,511.22232142857143,73.12857142857143,4139.1,511.22232142857143,73.12857142857143,4263,511.22232142857143,73.12857142857143,4370,511.22232142857143,73.12857142857143,4473.1,511.22232142857143,73.12857142857143,4585.9,511.22232142857143,73.12857142857143,4693.7,511.22232142857143,73.12857142857143,4809.4,511.22232142857143,73.12857142857143,4919.6]","[1702.9,1702.9,1000,0,702.9,""smooth"",""up"",""up"",""good_move"",11890.5,10185.8,2508.6,1704.7,7677.2,""oops"",""right"",""up"",""good_move"",20526.4,8629.9,2286.1,17774.2,466.1,""oops"",""right"",""left"",""bad_move"",32194.7,11666.7,1925.8,27697.7,2571.2,""oops"",""right"",""down"",""bad_move"",38445.8,6245.1,1947.2,32200.7,4297.9,""oops"",""right"",""down"",""bad_move"",41794.9,3347.7,2445,38447.2,902.7,""oops"",""right"",""up"",""good_move"",47692.2,5894.7,2064,41797.5,3830.7,""smooth"",""up"",""up"",""good_move"",54123.2,6428.2,1989.7,47695,4438.5,""oops"",""up"",""left"",""bad_move"",61058.3,6931.5,2423.3,54126.8,4508.2,""oops"",""up"",""right"",""good_move"",64792.2,3732.5,2704.3,61059.8,1028.1,""oops"",""up"",""left"",""bad_move"",70082.7,5288.6,2376.8,64794.1,2911.8,""oops"",""up"",""up"",""good_move"",76603.5,6519.6,2472.2,70083.9,4047.4,""oops"",""right"",""down"",""bad_move"",79863.2,3258.6,2116.5,76604.6,1142.1,""oops"",""right"",""down"",""bad_move"",82529.4,2664.5,1943.6,79864.9,720.9,""oops"",""right"",""right"",""good_move"",85526.6,2995.4,2280.4,82531.2,715,""oops"",""right"",""down"",""bad_move"",96326.5,10798.2,2149.9,93519,657.7,""oops"",""right"",""up"",""good_move"",109068.3,12740.4,2255.5,106266.1,546.7,""oops"",""right"",""down"",""bad_move"",113012.1,3942.5,3251,109069.6,691.5,""oops"",""right"",""left"",""bad_move"",119344.3,6328.2,2930.1,113016.3,3398,""smooth"",""up"",""up"",""good_move"",132615.1,13268.9,2528.6,129561.5,525,""smooth"",""up"",""up"",""good_move"",140753.3,8136.8,2887.5,132616.5,5249.3,""oops"",""up"",""up"",""good_move"",148667.4,7912.9,2631.4,140754.5,5281.5,""oops"",""right"",""right"",""good_move""]","","",""
"5957","","<div style=""width:500px;"">
  <p>What determined the result of this run?</p>
  </div>","80","html-slider-response","85","1326970","0.0-10.0-1.8","267","1","2025-07-09 10:30:50","7701e855f2ef39aa3fd6c71abdc6918a","165.73.188.145","Mozilla/5.0 (Windows NT 10.0; Win64; x64) AppleWebKit/537.36 (KHTML, like Gecko) Chrome/138.0.0.0 Safari/537.36","WebKit","Chrome","138.0.0.0","Windows","10.0","https://app.prolific.com/","en-US,en;q=0.9","67db086caaf7ec9f16d9e256","686d226cabeef709c732f8e1","686e312f672c840716e0d356","67db086caaf7ec9f16d9e256","2025-07-09T10:52:58.119Z","","","","","","AttribQ","","","","","","","","","","","","","","","","","","","","","","","","","","","","","","","","","","","","","","50",""
"5262","","<div style=""width:500px;"">
