"rt","response_timestamp","stimulus","response","trial_type","trial_index","time_elapsed","internal_node_id","run_id","condition","recorded_at","source_code_version","ip","user_agent","device","browser","browser_version","platform","platform_version","referer","accept_language","PROLIFIC_PID","STUDY_ID","SESSION_ID","prolific_id","realtime","view_history","question_order","consent","success","question_id","eventType","responses","item_order","radio_event_ids","radio_event_times","key_event_times","mouse_event_times","straightlining","zigzagging","honeypot","which_type","canvas_config","goals_layout","control_level","trial_number","tutorial_trial_number","trial_start_time","phase1_start_time","phase2_start_time","phase3_start_time","goal_1_value","goal_1_distance","goal_2_value","goal_2_distance","goal_selected","outcome","outcome_total","participant_final_score","participant_initial_score","participant_final_score_prop","goal_choice_rt","allocated_time","allocated_time_remaining","goal_direction","counts","mouse_movements","key_presses","correct","slider_start","sub_question"
"4481","1752052538688","<p style='font-size:40px;line-height:1.25'><strong>Welcome to the experiment!</strong></p><p style='font-size:1.1em;line-height:1.25'>Thank you for your interest in our experiment! Before you begin, it is important that we obtain your informed consent to participate in the study.</p><p style='font-size:1.1em;line-height:1.25'>On the next screen will be an <strong>information sheet</strong> for you to read. To participate in the study we need you to read this information sheet and the following consent form carefully. If you agree with all the statements, please click the <strong>I agree</strong> button.</p><p style='font-size:1.1em;line-height:1.25'>Press <strong>Next</strong> to read the information sheet.</p>","0","custom-html-button-response","0","4673","0.0-0.0","193","1","2025-07-09 09:15:29","7701e855f2ef39aa3fd6c71abdc6918a","41.116.75.31","Mozilla/5.0 (Windows NT 10.0; Win64; x64; rv:140.0) Gecko/20100101 Firefox/140.0","","Firefox","140.0","Windows","10.0","https://app.prolific.com/","en-US,en;q=0.5","66bee53cfe67b3e6342cb2ba","686d226cabeef709c732f8e1","686e313c125e7520043d1708","66bee53cfe67b3e6342cb2ba","2025-07-09T09:15:38.689Z","","","","","","","","","","","","","","","","","","","","","","","","","","","","","","","","","","","","","","","","","","","","",""
"42257","","","","instructions","1","46936","0.0-1.0","193","1","2025-07-09 09:15:29","7701e855f2ef39aa3fd6c71abdc6918a","41.116.75.31","Mozilla/5.0 (Windows NT 10.0; Win64; x64; rv:140.0) Gecko/20100101 Firefox/140.0","","Firefox","140.0","Windows","10.0","https://app.prolific.com/","en-US,en;q=0.5","66bee53cfe67b3e6342cb2ba","686d226cabeef709c732f8e1","686e313c125e7520043d1708","66bee53cfe67b3e6342cb2ba","","[{""page_index"":0,""viewing_time"":35906},{""page_index"":1,""viewing_time"":6351}]","","","","","","","","","","","","","","","","","","","","","","","","","","","","","","","","","","","","","","","","","","","",""
"7794","","","{""Q0"":"""",""Q1"":"""",""Q2"":"""",""Q3"":"""",""Q4"":"""",""Q5"":"""",""Q6"":""I agree""}","survey-multi-choice","2","54748","0.0-2.0","193","1","2025-07-09 09:15:29","7701e855f2ef39aa3fd6c71abdc6918a","41.116.75.31","Mozilla/5.0 (Windows NT 10.0; Win64; x64; rv:140.0) Gecko/20100101 Firefox/140.0","","Firefox","140.0","Windows","10.0","https://app.prolific.com/","en-US,en;q=0.5","66bee53cfe67b3e6342cb2ba","686d226cabeef709c732f8e1","686e313c125e7520043d1708","66bee53cfe67b3e6342cb2ba","","","[0,1,2,3,4,5,6]","true","","","","","","","","","","","","","","","","","","","","","","","","","","","","","","","","","","","","","","","","","",""
"5002","","","","fullscreen","3","60772","0.0-4.0","193","1","2025-07-09 09:15:29","7701e855f2ef39aa3fd6c71abdc6918a","41.116.75.31","Mozilla/5.0 (Windows NT 10.0; Win64; x64; rv:140.0) Gecko/20100101 Firefox/140.0","","Firefox","140.0","Windows","10.0","https://app.prolific.com/","en-US,en;q=0.5","66bee53cfe67b3e6342cb2ba","686d226cabeef709c732f8e1","686e313c125e7520043d1708","66bee53cfe67b3e6342cb2ba","","","","","true","","","","","","","","","","","","","","","","","","","","","","","","","","","","","","","","","","","","","","","","",""
"4126","1752052598916"," <p style='font-size:1.1em;line-height:1.25'>Thank you for completing the consent form and closing all other tabs.</p><p style='font-size:1.1em;line-height:1.25'>We will now invite you to fill in some demographic information and questionnaires, before starting the game.<br>This will take about 5 minutes.<br></p><p style='font-size:1.1em;line-height:1.25'>Press the <strong>Next</strong> button to continue.</p>","0","custom-html-button-response","4","64901","0.0-5.0","193","1","2025-07-09 09:15:29","7701e855f2ef39aa3fd6c71abdc6918a","41.116.75.31","Mozilla/5.0 (Windows NT 10.0; Win64; x64; rv:140.0) Gecko/20100101 Firefox/140.0","","Firefox","140.0","Windows","10.0","https://app.prolific.com/","en-US,en;q=0.5","66bee53cfe67b3e6342cb2ba","686d226cabeef709c732f8e1","686e313c125e7520043d1708","66bee53cfe67b3e6342cb2ba","2025-07-09T09:16:38.917Z","","","","","","","","","","","","","","","","","","","","","","","","","","","","","","","","","","","","","","","","","","","","",""
"3893","","","{""age"":""34""}","survey-text","5","69213","0.0-6.0-0.0","193","1","2025-07-09 09:15:29","7701e855f2ef39aa3fd6c71abdc6918a","41.116.75.31","Mozilla/5.0 (Windows NT 10.0; Win64; x64; rv:140.0) Gecko/20100101 Firefox/140.0","","Firefox","140.0","Windows","10.0","https://app.prolific.com/","en-US,en;q=0.5","66bee53cfe67b3e6342cb2ba","686d226cabeef709c732f8e1","686e313c125e7520043d1708","66bee53cfe67b3e6342cb2ba","","","","","","0","demographics","","","","","","","","","","","","","","","","","","","","","","","","","","","","","","","","","","","","","","",""
"2400","","","{""gender_identity"":""female/woman""}","survey-multi-choice","6","71624","0.0-6.0-1.0","193","1","2025-07-09 09:15:29","7701e855f2ef39aa3fd6c71abdc6918a","41.116.75.31","Mozilla/5.0 (Windows NT 10.0; Win64; x64; rv:140.0) Gecko/20100101 Firefox/140.0","","Firefox","140.0","Windows","10.0","https://app.prolific.com/","en-US,en;q=0.5","66bee53cfe67b3e6342cb2ba","686d226cabeef709c732f8e1","686e313c125e7520043d1708","66bee53cfe67b3e6342cb2ba","","","[0]","","","1","demographics","","","","","","","","","","","","","","","","","","","","","","","","","","","","","","","","","","","","","","",""
"3203","","","{""assigned_sex"":""female""}","survey-multi-choice","7","74835","0.0-6.0-2.0","193","1","2025-07-09 09:15:29","7701e855f2ef39aa3fd6c71abdc6918a","41.116.75.31","Mozilla/5.0 (Windows NT 10.0; Win64; x64; rv:140.0) Gecko/20100101 Firefox/140.0","","Firefox","140.0","Windows","10.0","https://app.prolific.com/","en-US,en;q=0.5","66bee53cfe67b3e6342cb2ba","686d226cabeef709c732f8e1","686e313c125e7520043d1708","66bee53cfe67b3e6342cb2ba","","","[0]","","","2","demographics","","","","","","","","","","","","","","","","","","","","","","","","","","","","","","","","","","","","","","",""
"3610","","","{""menstrual_cycle"":""Yes""}","survey-multi-choice","8","78451","0.0-6.0-3.0","193","1","2025-07-09 09:15:29","7701e855f2ef39aa3fd6c71abdc6918a","41.116.75.31","Mozilla/5.0 (Windows NT 10.0; Win64; x64; rv:140.0) Gecko/20100101 Firefox/140.0","","Firefox","140.0","Windows","10.0","https://app.prolific.com/","en-US,en;q=0.5","66bee53cfe67b3e6342cb2ba","686d226cabeef709c732f8e1","686e313c125e7520043d1708","66bee53cfe67b3e6342cb2ba","","","[0]","","","4","demographics","","","","","","","","","","","","","","","","","","","","","","","","","","","","","","","","","","","","","","",""
"6237","","","{""education"":""Master's Degree (e.g., MSc)""}","survey-multi-choice","9","84696","0.0-6.0-4.0","193","1","2025-07-09 09:15:29","7701e855f2ef39aa3fd6c71abdc6918a","41.116.75.31","Mozilla/5.0 (Windows NT 10.0; Win64; x64; rv:140.0) Gecko/20100101 Firefox/140.0","","Firefox","140.0","Windows","10.0","https://app.prolific.com/","en-US,en;q=0.5","66bee53cfe67b3e6342cb2ba","686d226cabeef709c732f8e1","686e313c125e7520043d1708","66bee53cfe67b3e6342cb2ba","","","[0]","","","5","demographics","","","","","","","","","","","","","","","","","","","","","","","","","","","","","","","","","","","","","","",""
"3724","","","{""education"":""Master's Degree (e.g., MSc)""}","survey-multi-choice","10","88425","0.0-6.0-5.0","193","1","2025-07-09 09:15:29","7701e855f2ef39aa3fd6c71abdc6918a","41.116.75.31","Mozilla/5.0 (Windows NT 10.0; Win64; x64; rv:140.0) Gecko/20100101 Firefox/140.0","","Firefox","140.0","Windows","10.0","https://app.prolific.com/","en-US,en;q=0.5","66bee53cfe67b3e6342cb2ba","686d226cabeef709c732f8e1","686e313c125e7520043d1708","66bee53cfe67b3e6342cb2ba","2025-07-09T09:17:02.442Z","","[0]","","","6","demographics","","","","","","","","","","","","","","","","","","","","","","","","","","","","","","","","","","","","","","",""
"16299","","","{""mental_health_condition"":""no"",""mental_health_treatment"":""no"",""psychiatric_medication"":""N/A""}","survey-text","11","104800","0.0-7.0-0.0","193","1","2025-07-09 09:15:29","7701e855f2ef39aa3fd6c71abdc6918a","41.116.75.31","Mozilla/5.0 (Windows NT 10.0; Win64; x64; rv:140.0) Gecko/20100101 Firefox/140.0","","Firefox","140.0","Windows","10.0","https://app.prolific.com/","en-US,en;q=0.5","66bee53cfe67b3e6342cb2ba","686d226cabeef709c732f8e1","686e313c125e7520043d1708","66bee53cfe67b3e6342cb2ba","2025-07-09T09:17:18.817Z","","","","","1","mental_health","","","","","","","","","","","","","","","","","","","","","","","","","","","","","","","","","","","","","","",""
"10339","","","{""depression_history"":[""No""]}","survey-multi-select","12","115147","0.0-7.0-1.0","193","1","2025-07-09 09:15:29","7701e855f2ef39aa3fd6c71abdc6918a","41.116.75.31","Mozilla/5.0 (Windows NT 10.0; Win64; x64; rv:140.0) Gecko/20100101 Firefox/140.0","","Firefox","140.0","Windows","10.0","https://app.prolific.com/","en-US,en;q=0.5","66bee53cfe67b3e6342cb2ba","686d226cabeef709c732f8e1","686e313c125e7520043d1708","66bee53cfe67b3e6342cb2ba","","","[0]","","","","mental_health","","","","","","","","","","","","","","","","","","","","","","","","","","","","","","","","","","","","","","",""
"61591","","","","survey-template","13","176807","0.0-7.0-3.0","193","1","2025-07-09 09:15:29","7701e855f2ef39aa3fd6c71abdc6918a","41.116.75.31","Mozilla/5.0 (Windows NT 10.0; Win64; x64; rv:140.0) Gecko/20100101 Firefox/140.0","","Firefox","140.0","Windows","10.0","https://app.prolific.com/","en-US,en;q=0.5","66bee53cfe67b3e6342cb2ba","686d226cabeef709c732f8e1","686e313c125e7520043d1708","66bee53cfe67b3e6342cb2ba","2025-07-09T09:18:30.823Z","","","","","","ius","{""Q01"":""2"",""Q02"":""4"",""Q03"":""2"",""Q04"":""3"",""Q05"":""3"",""Q06"":""2"",""Q07"":""3"",""Q08"":""0"",""Q09"":""3"",""Q10"":""2"",""Q11"":""2"",""Q12"":""3"",""Q13"":""3""}","[0,1,2,3,4,5,6,7,8,9,10,11,12]","[""Q01"",""Q02"",""Q03"",""Q04"",""Q05"",""Q06"",""Q07"",""Q08"",""Q09"",""Q10"",""Q10"",""Q11"",""Q12"",""Q13""]","[6975,14872,21865,25225,29062,35486,40275,42578,47989,49281,53238,55728,60183,60924]","[]","[6975,14872,21865,25225,29062,35486,40275,41900,42578,45964,47989,49281,53238,55728,58379,60183,60924,61589]","0.46153846153846156","0.4166666666666667","0","","","","","","","","","","","","","","","","","","","","","","","","","","","","","",""
"1809","1752052712648","<p style='font-size:1.1em;line-height:1.25'>In the following, we will ask you a few questions relating to your experiences over the past month.<br></p><p style='font-size:1.1em;line-height:1.25'>Press the <strong>Next</strong> button to continue.</p>","0","custom-html-button-response","14","178633","0.0-7.0-4.0","193","1","2025-07-09 09:15:29","7701e855f2ef39aa3fd6c71abdc6918a","41.116.75.31","Mozilla/5.0 (Windows NT 10.0; Win64; x64; rv:140.0) Gecko/20100101 Firefox/140.0","","Firefox","140.0","Windows","10.0","https://app.prolific.com/","en-US,en;q=0.5","66bee53cfe67b3e6342cb2ba","686d226cabeef709c732f8e1","686e313c125e7520043d1708","66bee53cfe67b3e6342cb2ba","2025-07-09T09:18:32.649Z","","","","","","","","","","","","","","","","","","","","","","","","","","","","","","","","","","","","","","","","","","","","",""
"44244","","","","survey-template","15","222885","0.0-7.0-5.0","193","1","2025-07-09 09:15:29","7701e855f2ef39aa3fd6c71abdc6918a","41.116.75.31","Mozilla/5.0 (Windows NT 10.0; Win64; x64; rv:140.0) Gecko/20100101 Firefox/140.0","","Firefox","140.0","Windows","10.0","https://app.prolific.com/","en-US,en;q=0.5","66bee53cfe67b3e6342cb2ba","686d226cabeef709c732f8e1","686e313c125e7520043d1708","66bee53cfe67b3e6342cb2ba","2025-07-09T09:19:16.901Z","","","","","","pss","{""Q01"":""2"",""Q02"":""2"",""Q03"":""2"",""Q04"":""1"",""Q05"":""1"",""Q06"":""1"",""Q07"":""2"",""Q08"":""1"",""Q09"":""2"",""Q10"":""1""}","[0,1,2,3,4,5,6,7,8,9]","[""Q01"",""Q02"",""Q03"",""Q04"",""Q05"",""Q06"",""Q07"",""Q08"",""Q09"",""Q10""]","[5680,9532,11952,14869,17856,27097,33065,36554,39415,43096]","[]","[0,5680,9532,11952,14869,17856,24059,25553,26493,27097,33065,36554,39415,43096,44242]","0.5","0.5555555555555556","0","","","","","","","","","","","","","","","","","","","","","","","","","","","","","",""
"1719","1752052758637","<p style='font-size:1.1em;line-height:1.25'>Thank you for your answers! Now we will ask you a few more questions relating to your feelings in the last 24 hours.<br></p><p style='font-size:1.1em;line-height:1.25'>Press the <strong>Next</strong> button to continue.</p>","0","custom-html-button-response","16","224623","0.0-7.0-6.0","193","1","2025-07-09 09:15:29","7701e855f2ef39aa3fd6c71abdc6918a","41.116.75.31","Mozilla/5.0 (Windows NT 10.0; Win64; x64; rv:140.0) Gecko/20100101 Firefox/140.0","","Firefox","140.0","Windows","10.0","https://app.prolific.com/","en-US,en;q=0.5","66bee53cfe67b3e6342cb2ba","686d226cabeef709c732f8e1","686e313c125e7520043d1708","66bee53cfe67b3e6342cb2ba","2025-07-09T09:19:18.639Z","","","","","","","","","","","","","","","","","","","","","","","","","","","","","","","","","","","","","","","","","","","","",""
"61747","","","","survey-template","17","286389","0.0-7.0-7.0","193","1","2025-07-09 09:15:29","7701e855f2ef39aa3fd6c71abdc6918a","41.116.75.31","Mozilla/5.0 (Windows NT 10.0; Win64; x64; rv:140.0) Gecko/20100101 Firefox/140.0","","Firefox","140.0","Windows","10.0","https://app.prolific.com/","en-US,en;q=0.5","66bee53cfe67b3e6342cb2ba","686d226cabeef709c732f8e1","686e313c125e7520043d1708","66bee53cfe67b3e6342cb2ba","2025-07-09T09:20:20.405Z","","","","","","drsp","{""Q01"":""0"",""Q02"":""0"",""Q03"":""0"",""Q04"":""0"",""Q05"":""0"",""Q06"":""0"",""Q07"":""0"",""Q08"":""0"",""Q09"":""0"",""Q10"":""0"",""Q11"":""0"",""Q12"":""1"",""Q13"":""1"",""Q14"":""1"",""Q15"":""0"",""Q16"":""1"",""Q17"":""0"",""Q18"":""0"",""Q19"":""0"",""Q20"":""0"",""Q21"":""0""}","[0,1,2,3,4,5,6,7,8,9,10,11,12,13,14,15,16,17,18,19,20]","[""Q01"",""Q02"",""Q01"",""Q02"",""Q03"",""Q04"",""Q05"",""Q06"",""Q07"",""Q08"",""Q10"",""Q09"",""Q11"",""Q12"",""Q12"",""Q12"",""Q13"",""Q14"",""Q14"",""Q15"",""Q16"",""Q16"",""Q17"",""Q18"",""Q19"",""Q19"",""Q20"",""Q21""]","[2501,6176,8577,9593,10791,11916,13764,15438,16377,17899,20741,21225,22842,25396,27165,28472,29305,33371,35885,38745,39725,40130,42236,45069,53747,55256,59303,60569]","[]","[0,2501,5594,6176,8577,9593,10231,10791,11916,13764,15438,16377,17899,19666,20741,21225,22842,23748,24933,25396,27165,28472,29305,33371,35885,37283,38376,38745,39725,40130,42236,45069,53747,55256,56991,57969,58722,59303,60569,61744]","0.8095238095238095","0.2","0","","","","","","","","","","","","","","","","","","","","","","","","","","","","","",""
"14459","","","","survey-template","18","300865","0.0-7.0-8.0","193","1","2025-07-09 09:15:29","7701e855f2ef39aa3fd6c71abdc6918a","41.116.75.31","Mozilla/5.0 (Windows NT 10.0; Win64; x64; rv:140.0) Gecko/20100101 Firefox/140.0","","Firefox","140.0","Windows","10.0","https://app.prolific.com/","en-US,en;q=0.5","66bee53cfe67b3e6342cb2ba","686d226cabeef709c732f8e1","686e313c125e7520043d1708","66bee53cfe67b3e6342cb2ba","2025-07-09T09:20:34.881Z","","","","","","stress","{""Q01"":""0"",""Q02"":""0"",""Q03"":""0""}","[0,1,2]","[""Q01"",""Q02"",""Q03""]","[4260,10208,13577]","[]","[4260,10208,12720,13032,13577,14457]","0.6666666666666666","1","0","","","","","","","","","","","","","","","","","","","","","","","","","","","","","",""
"132141","","","","instructions","19","433009","0.0-8.0-0.0","193","1","2025-07-09 09:15:29","7701e855f2ef39aa3fd6c71abdc6918a","41.116.75.31","Mozilla/5.0 (Windows NT 10.0; Win64; x64; rv:140.0) Gecko/20100101 Firefox/140.0","","Firefox","140.0","Windows","10.0","https://app.prolific.com/","en-US,en;q=0.5","66bee53cfe67b3e6342cb2ba","686d226cabeef709c732f8e1","686e313c125e7520043d1708","66bee53cfe67b3e6342cb2ba","","[{""page_index"":0,""viewing_time"":57858},{""page_index"":1,""viewing_time"":28640},{""page_index"":2,""viewing_time"":24046},{""page_index"":3,""viewing_time"":21597}]","","","","","","","","","","","","","","","","","","","","","","","","","","","","","","","","","","","","","","","","","","","",""
"","","","","ctl-task-cpt","20","474383","0.0-8.0-1.0","193","1","2025-07-09 09:15:29","7701e855f2ef39aa3fd6c71abdc6918a","41.116.75.31","Mozilla/5.0 (Windows NT 10.0; Win64; x64; rv:140.0) Gecko/20100101 Firefox/140.0","","Firefox","140.0","Windows","10.0","https://app.prolific.com/","en-US,en;q=0.5","66bee53cfe67b3e6342cb2ba","686d226cabeef709c732f8e1","686e313c125e7520043d1708","66bee53cfe67b3e6342cb2ba","","","","","","","","","","","","","","","","","win-only","3","g1:SW,g2:NE","1","0","1","443747","5033","9036","38323","2","4","4","6","1","2","-3","0","0","0","2295","4000","3195","[""down"",""left""]","{""num_key_presses"":12,""num_perfect"":4,""num_errors"":5,""num_randdir"":0,""num_randdir_good_moves"":0,""num_whilered"":3,""num_whileblue"":0,""num_blue"":2,""num_good_moves"":4}","[295.0467621245941,292.70129759156856,153,292.86494394277594,292.70129759156856,217,292.86494394277594,292.70129759156856,332,292.86494394277594,292.70129759156856,443,292.86494394277594,292.70129759156856,555,292.86494394277594,292.70129759156856,665,292.86494394277594,292.70129759156856,777,292.86494394277594,292.70129759156856,877,290.68312576095775,294.88311577338675,981,281.95585303368506,311.2467521370231,1093,274.31948939732143,330.88311577338675,1212,783.7740348518668,246.88311577338675,1320,791.4103984882304,201.06493395520494,1430,173.95585303368506,291.6103885006595,1537,-217.68051060267857,415.9740248642958,1646,-188.2259651481331,444.3376612279322,1759,81.22858030641234,529.4285703188413,1873,99.77403485186687,547.9740248642958,1978,77.95585303368506,538.155843046114,2091,39.77403485186688,539.246752137023,2203,39.77403485186688,539.246752137023,2304,39.77403485186688,539.246752137023,2408,37.59221667004869,539.246752137023,2523,35.410398488230506,538.155843046114,2629,31.046762124594146,535.9740248642958,2741,25.592216670048693,533.7922066824776,2852,25.592216670048693,532.7012975915685,2952,23.410398488230506,530.5194794097503,3063,22.319489397321426,530.5194794097503,3174,22.319489397321426,529.4285703188413,3289,22.319489397321426,529.4285703188413,3395,22.319489397321426,529.4285703188413,3509,22.319489397321426,529.4285703188413,3618,22.319489397321426,529.4285703188413,3718,22.319489397321426,529.4285703188413,3824,22.319489397321426,529.4285703188413,3942]","[207,207,1000,0,-793,""error"",""-"",""-"",""no_move"",372,165,1000,0,-628,""while_red"",""-"",""-"",""no_move"",599,392,1000,0,-401,""while_red"",""-"",""-"",""no_move"",784,577,1000,0,-216,""while_red"",""-"",""-"",""no_move"",7992,7785,2581.1,4829,581.9,""smooth"",""left"",""left"",""good_move"",8991,999,2346.6,7993,-1348.6,""error"",""-"",""-"",""no_move"",10103,1112,2413.4,9996,-2306.4,""error"",""-"",""-"",""no_move"",14270,4166,2429.1,11111,729.9,""smooth"",""left"",""left"",""good_move"",15603,1333,3098.3,14270,-1765.3,""error"",""-"",""-"",""no_move"",23361,7757,2716.8,20000,644.2,""smooth"",""down"",""down"",""good_move"",24745,1383,2700.9,23362,-1317.9,""error"",""-"",""-"",""no_move"",29034,4289,2619.6,25748,666.4,""smooth"",""down"",""down"",""good_move""]","","",""
"77518","","","","instructions","21","551903","0.0-8.0-2.0","193","1","2025-07-09 09:15:29","7701e855f2ef39aa3fd6c71abdc6918a","41.116.75.31","Mozilla/5.0 (Windows NT 10.0; Win64; x64; rv:140.0) Gecko/20100101 Firefox/140.0","","Firefox","140.0","Windows","10.0","https://app.prolific.com/","en-US,en;q=0.5","66bee53cfe67b3e6342cb2ba","686d226cabeef709c732f8e1","686e313c125e7520043d1708","66bee53cfe67b3e6342cb2ba","","[{""page_index"":0,""viewing_time"":77517}]","","","","","","","","","","","","","","","","","","","","","","","","","","","","","","","","","","","","","","","","","","","",""
"","","","","ctl-task-cpt","22","614545","0.0-8.0-3.0","193","1","2025-07-09 09:15:29","7701e855f2ef39aa3fd6c71abdc6918a","41.116.75.31","Mozilla/5.0 (Windows NT 10.0; Win64; x64; rv:140.0) Gecko/20100101 Firefox/140.0","","Firefox","140.0","Windows","10.0","https://app.prolific.com/","en-US,en;q=0.5","66bee53cfe67b3e6342cb2ba","686d226cabeef709c732f8e1","686e313c125e7520043d1708","66bee53cfe67b3e6342cb2ba","","","","","","","","","","","","","","","","","win-only","3","g1:SW,g2:NE","0.35","0","3","562612","2712","6723","59627","2","4","8","6","2","8","5","5","0","0.03787878787878788","4011","4000","845","[""up"",""right""]","{""num_key_presses"":15,""num_perfect"":5,""num_errors"":3,""num_randdir"":7,""num_randdir_good_moves"":4,""num_whilered"":0,""num_whileblue"":0,""num_blue"":2,""num_good_moves"":9}","[291.7740348518669,293.7922066824777,0,291.7740348518669,294.88311577338675,106,291.7740348518669,294.88311577338675,214,291.7740348518669,294.88311577338675,324,291.7740348518669,294.88311577338675,436,291.7740348518669,294.88311577338675,548,290.68312576095775,304.70129759156856,662,290.68312576095775,305.7922066824777,770,285.2285803064123,335.2467521370231,881,288.50130757913956,339.6103885006595,981,288.50130757913956,342.88311577338675,1087,288.50130757913956,342.88311577338675,1198,288.50130757913956,342.88311577338675,1313,288.50130757913956,342.88311577338675,1421,288.50130757913956,342.88311577338675,1533,288.50130757913956,342.88311577338675,1646,288.50130757913956,342.88311577338675,1754,288.50130757913956,342.88311577338675,1865,288.50130757913956,342.88311577338675,1976,288.50130757913956,342.88311577338675,2086,288.50130757913956,342.88311577338675,2197,288.50130757913956,342.88311577338675,2300,288.50130757913956,342.88311577338675,2403,288.50130757913956,342.88311577338675,2516,288.50130757913956,342.88311577338675,2628,288.50130757913956,342.88311577338675,2738,288.50130757913956,342.88311577338675,2850,288.50130757913956,342.88311577338675,2962,288.50130757913956,342.88311577338675,3064,288.50130757913956,342.88311577338675,3169,288.50130757913956,342.88311577338675,3280,288.50130757913956,342.88311577338675,3391,288.50130757913956,342.88311577338675,3501,289.5922166700487,340.70129759156856,3613,289.5922166700487,342.88311577338675,3724,284.13767121550325,347.2467521370231,3833,284.13767121550325,350.5194794097504,3944]","[3203,3203,1000,0,2203,""oops"",""right"",""left"",""bad_move"",4159,956,2771.5,3203,-1815.5,""error"",""-"",""-"",""no_move"",7909,3750,2184.3,5161,563.7,""oops"",""up"",""up"",""good_move"",9698,1788,3145.6,7910,-1357.6,""error"",""-"",""-"",""no_move"",13796,4098,2231.7,10705,859.3,""oops"",""up"",""left"",""bad_move"",19963,6165,2104.1,17418,440.9,""oops"",""up"",""up"",""good_move"",24349,4384,3303.1,19965,1080.9,""smooth"",""up"",""up"",""good_move"",27589,3239,2391.3,24350,847.7,""smooth"",""right"",""right"",""good_move"",31188,3599,2861.3,27589,737.7,""smooth"",""right"",""right"",""good_move"",36817,5628,1354.1,34898,564.9,""smooth"",""right"",""right"",""good_move"",38050,1232,1950.4,36818,-718.4,""error"",""-"",""-"",""no_move"",42878,4828,2961.4,39051,865.6,""oops"",""right"",""right"",""good_move"",46328,3449,2488.6,42879,960.4,""oops"",""right"",""left"",""bad_move"",49808,3480,2963.5,46328,516.5,""smooth"",""right"",""right"",""good_move"",52607,2799,2085.7,49808,713.3,""oops"",""right"",""right"",""good_move""]","","",""
"49261","","","","instructions","23","663808","0.0-8.0-4.0","193","1","2025-07-09 09:15:29","7701e855f2ef39aa3fd6c71abdc6918a","41.116.75.31","Mozilla/5.0 (Windows NT 10.0; Win64; x64; rv:140.0) Gecko/20100101 Firefox/140.0","","Firefox","140.0","Windows","10.0","https://app.prolific.com/","en-US,en;q=0.5","66bee53cfe67b3e6342cb2ba","686d226cabeef709c732f8e1","686e313c125e7520043d1708","66bee53cfe67b3e6342cb2ba","","[{""page_index"":0,""viewing_time"":23506},{""page_index"":1,""viewing_time"":25755}]","","","","","","","","","","","","","","","","","","","","","","","","","","","","","","","","","","","","","","","","","","","",""
"16547","","","{""green_ball"":[""Ball sometimes shakes and moves in a random direction""]}","survey-multi-select","24","680366","0.0-8.0-5.0-0.0","193","1","2025-07-09 09:15:29","7701e855f2ef39aa3fd6c71abdc6918a","41.116.75.31","Mozilla/5.0 (Windows NT 10.0; Win64; x64; rv:140.0) Gecko/20100101 Firefox/140.0","","Firefox","140.0","Windows","10.0","https://app.prolific.com/","en-US,en;q=0.5","66bee53cfe67b3e6342cb2ba","686d226cabeef709c732f8e1","686e313c125e7520043d1708","66bee53cfe67b3e6342cb2ba","","","[0]","","","","quiz","","","","","","","","","","","","","","","","","","","","","","","","","","","","","","","","","","","","","true","",""
"3315","","<p align='center'><b>CORRECT!</b> Indeed, the green ball may sometimes shake and move in a random direction.</p>","0","html-button-response","25","683690","0.0-8.0-5.0-1.0","193","1","2025-07-09 09:15:29","7701e855f2ef39aa3fd6c71abdc6918a","41.116.75.31","Mozilla/5.0 (Windows NT 10.0; Win64; x64; rv:140.0) Gecko/20100101 Firefox/140.0","","Firefox","140.0","Windows","10.0","https://app.prolific.com/","en-US,en;q=0.5","66bee53cfe67b3e6342cb2ba","686d226cabeef709c732f8e1","686e313c125e7520043d1708","66bee53cfe67b3e6342cb2ba","","","","","","","","","","","","","","","","","","","","","","","","","","","","","","","","","","","","","","","","","","","","","",""
"5822","","","{""yellow_ball"":[""Ball doesn‘t move and I get -1 penalty point""]}","survey-multi-select","26","689522","0.0-8.0-6.0-0.0","193","1","2025-07-09 09:15:29","7701e855f2ef39aa3fd6c71abdc6918a","41.116.75.31","Mozilla/5.0 (Windows NT 10.0; Win64; x64; rv:140.0) Gecko/20100101 Firefox/140.0","","Firefox","140.0","Windows","10.0","https://app.prolific.com/","en-US,en;q=0.5","66bee53cfe67b3e6342cb2ba","686d226cabeef709c732f8e1","686e313c125e7520043d1708","66bee53cfe67b3e6342cb2ba","","","[0]","","","","quiz","","","","","","","","","","","","","","","","","","","","","","","","","","","","","","","","","","","","","true","",""
"2906","","<p align='center'><b>CORRECT!</b> Indeed, the yellow ball never moves and you receive a penalty.</p>","0","html-button-response","27","692435","0.0-8.0-6.0-1.0","193","1","2025-07-09 09:15:29","7701e855f2ef39aa3fd6c71abdc6918a","41.116.75.31","Mozilla/5.0 (Windows NT 10.0; Win64; x64; rv:140.0) Gecko/20100101 Firefox/140.0","","Firefox","140.0","Windows","10.0","https://app.prolific.com/","en-US,en;q=0.5","66bee53cfe67b3e6342cb2ba","686d226cabeef709c732f8e1","686e313c125e7520043d1708","66bee53cfe67b3e6342cb2ba","","","","","","","","","","","","","","","","","","","","","","","","","","","","","","","","","","","","","","","","","","","","","",""
"4037","","","{""blue_ball"":[""Ball doesn‘t move and I get -1 penalty point""]}","survey-multi-select","28","696477","0.0-8.0-7.0-0.0","193","1","2025-07-09 09:15:29","7701e855f2ef39aa3fd6c71abdc6918a","41.116.75.31","Mozilla/5.0 (Windows NT 10.0; Win64; x64; rv:140.0) Gecko/20100101 Firefox/140.0","","Firefox","140.0","Windows","10.0","https://app.prolific.com/","en-US,en;q=0.5","66bee53cfe67b3e6342cb2ba","686d226cabeef709c732f8e1","686e313c125e7520043d1708","66bee53cfe67b3e6342cb2ba","","","[0]","","","","quiz","","","","","","","","","","","","","","","","","","","","","","","","","","","","","","","","","","","","","false","",""
"3679","","<p align='center'><b>INCORRECT.</b> The blue ball always shakes and moves randomly.</p>","0","html-button-response","29","700160","0.0-8.0-7.0-1.0","193","1","2025-07-09 09:15:29","7701e855f2ef39aa3fd6c71abdc6918a","41.116.75.31","Mozilla/5.0 (Windows NT 10.0; Win64; x64; rv:140.0) Gecko/20100101 Firefox/140.0","","Firefox","140.0","Windows","10.0","https://app.prolific.com/","en-US,en;q=0.5","66bee53cfe67b3e6342cb2ba","686d226cabeef709c732f8e1","686e313c125e7520043d1708","66bee53cfe67b3e6342cb2ba","","","","","","","","","","","","","","","","","","","","","","","","","","","","","","","","","","","","","","","","","","","","","",""
"6859","","","{""blue_ball"":[""Ball always shakes and moves in a random direction""]}","survey-multi-select","30","707023","0.0-8.0-7.1-0.1","193","1","2025-07-09 09:15:29","7701e855f2ef39aa3fd6c71abdc6918a","41.116.75.31","Mozilla/5.0 (Windows NT 10.0; Win64; x64; rv:140.0) Gecko/20100101 Firefox/140.0","","Firefox","140.0","Windows","10.0","https://app.prolific.com/","en-US,en;q=0.5","66bee53cfe67b3e6342cb2ba","686d226cabeef709c732f8e1","686e313c125e7520043d1708","66bee53cfe67b3e6342cb2ba","","","[0]","","","","quiz","","","","","","","","","","","","","","","","","","","","","","","","","","","","","","","","","","","","","true","",""
"1790","","<p align='center'><b>CORRECT!</b> Indeed, the blue ball always shakes and moves in a random direction. Also there is a penalty of -1 point.</p>","0","html-button-response","31","708820","0.0-8.0-7.1-1.1","193","1","2025-07-09 09:15:29","7701e855f2ef39aa3fd6c71abdc6918a","41.116.75.31","Mozilla/5.0 (Windows NT 10.0; Win64; x64; rv:140.0) Gecko/20100101 Firefox/140.0","","Firefox","140.0","Windows","10.0","https://app.prolific.com/","en-US,en;q=0.5","66bee53cfe67b3e6342cb2ba","686d226cabeef709c732f8e1","686e313c125e7520043d1708","66bee53cfe67b3e6342cb2ba","","","","","","","","","","","","","","","","","","","","","","","","","","","","","","","","","","","","","","","","","","","","","",""
"11755","","","{""bonus"":[""When I reach all possible points""]}","survey-multi-select","32","720579","0.0-8.0-8.0-0.0","193","1","2025-07-09 09:15:29","7701e855f2ef39aa3fd6c71abdc6918a","41.116.75.31","Mozilla/5.0 (Windows NT 10.0; Win64; x64; rv:140.0) Gecko/20100101 Firefox/140.0","","Firefox","140.0","Windows","10.0","https://app.prolific.com/","en-US,en;q=0.5","66bee53cfe67b3e6342cb2ba","686d226cabeef709c732f8e1","686e313c125e7520043d1708","66bee53cfe67b3e6342cb2ba","","","[0]","","","","quiz","","","","","","","","","","","","","","","","","","","","","","","","","","","","","","","","","","","","","false","",""
"2620","","<p align='center'><b>INCORRECT.</b> You receive 2 pounds extra when you reach 50% of points </p>","0","html-button-response","33","723202","0.0-8.0-8.0-1.0","193","1","2025-07-09 09:15:29","7701e855f2ef39aa3fd6c71abdc6918a","41.116.75.31","Mozilla/5.0 (Windows NT 10.0; Win64; x64; rv:140.0) Gecko/20100101 Firefox/140.0","","Firefox","140.0","Windows","10.0","https://app.prolific.com/","en-US,en;q=0.5","66bee53cfe67b3e6342cb2ba","686d226cabeef709c732f8e1","686e313c125e7520043d1708","66bee53cfe67b3e6342cb2ba","","","","","","","","","","","","","","","","","","","","","","","","","","","","","","","","","","","","","","","","","","","","","",""
"2411","","","{""bonus"":[""When I reach 50% of points""]}","survey-multi-select","34","725616","0.0-8.0-8.1-0.1","193","1","2025-07-09 09:15:29","7701e855f2ef39aa3fd6c71abdc6918a","41.116.75.31","Mozilla/5.0 (Windows NT 10.0; Win64; x64; rv:140.0) Gecko/20100101 Firefox/140.0","","Firefox","140.0","Windows","10.0","https://app.prolific.com/","en-US,en;q=0.5","66bee53cfe67b3e6342cb2ba","686d226cabeef709c732f8e1","686e313c125e7520043d1708","66bee53cfe67b3e6342cb2ba","","","[0]","","","","quiz","","","","","","","","","","","","","","","","","","","","","","","","","","","","","","","","","","","","","true","",""
"4577","","<p align='center'><b>CORRECT!</b> Indeed, you receive 2 pounds extra when you reach 50% of points.</p>","0","html-button-response","35","730197","0.0-8.0-8.1-1.1","193","1","2025-07-09 09:15:29","7701e855f2ef39aa3fd6c71abdc6918a","41.116.75.31","Mozilla/5.0 (Windows NT 10.0; Win64; x64; rv:140.0) Gecko/20100101 Firefox/140.0","","Firefox","140.0","Windows","10.0","https://app.prolific.com/","en-US,en;q=0.5","66bee53cfe67b3e6342cb2ba","686d226cabeef709c732f8e1","686e313c125e7520043d1708","66bee53cfe67b3e6342cb2ba","","","","","","","","","","","","","","","","","","","","","","","","","","","","","","","","","","","","","","","","","","","","","",""
"3015","","","","instructions","36","733215","0.0-8.0-9.0","193","1","2025-07-09 09:15:29","7701e855f2ef39aa3fd6c71abdc6918a","41.116.75.31","Mozilla/5.0 (Windows NT 10.0; Win64; x64; rv:140.0) Gecko/20100101 Firefox/140.0","","Firefox","140.0","Windows","10.0","https://app.prolific.com/","en-US,en;q=0.5","66bee53cfe67b3e6342cb2ba","686d226cabeef709c732f8e1","686e313c125e7520043d1708","66bee53cfe67b3e6342cb2ba","","[{""page_index"":0,""viewing_time"":3015}]","","","","","","","","","","","","","","","","","","","","","","","","","","","","","","","","","","","","","","","","","","","",""
"6089","","<p>Before you start with this game please answer the following three questions yourself. </p>
  <p>Through this game, we measure several aspects of your cognitive performance, such as reaction times, multi-tasking capabilities </p>
  <p>and the ability to assess the situation you are in.</p>
  <p></p>
  <p><b>How good do you usually are in such tasks?</b></p>","100","html-slider-response","37","739310","0.0-9.0-0.0","193","1","2025-07-09 09:15:29","7701e855f2ef39aa3fd6c71abdc6918a","41.116.75.31","Mozilla/5.0 (Windows NT 10.0; Win64; x64; rv:140.0) Gecko/20100101 Firefox/140.0","","Firefox","140.0","Windows","10.0","https://app.prolific.com/","en-US,en;q=0.5","66bee53cfe67b3e6342cb2ba","686d226cabeef709c732f8e1","686e313c125e7520043d1708","66bee53cfe67b3e6342cb2ba","2025-07-09T09:27:53.326Z","","","","","","PreSkillQ","","","","","","","","","","","","","","","","","","","","","","","","","","","","","","","","","","","","","","50",""
"4996","","<div style=""width:500px;"">
  <p>How well do you think you will perform in this task compared to other participants?</p>
  </div>","94","html-slider-response","38","744307","0.0-9.0-1.0","193","1","2025-07-09 09:15:29","7701e855f2ef39aa3fd6c71abdc6918a","41.116.75.31","Mozilla/5.0 (Windows NT 10.0; Win64; x64; rv:140.0) Gecko/20100101 Firefox/140.0","","Firefox","140.0","Windows","10.0","https://app.prolific.com/","en-US,en;q=0.5","66bee53cfe67b3e6342cb2ba","686d226cabeef709c732f8e1","686e313c125e7520043d1708","66bee53cfe67b3e6342cb2ba","2025-07-09T09:27:58.323Z","","","","","","PrePerfQ","","","","","","","","","","","","","","","","","","","","","","","","","","","","","","","","","","","","","","50",""
"3795","","<div style=""width:500px;"">
  <p>What best describes how you currently feel?</p>
  </div>","100","html-slider-response","39","748111","0.0-9.0-2.0","193","1","2025-07-09 09:15:29","7701e855f2ef39aa3fd6c71abdc6918a","41.116.75.31","Mozilla/5.0 (Windows NT 10.0; Win64; x64; rv:140.0) Gecko/20100101 Firefox/140.0","","Firefox","140.0","Windows","10.0","https://app.prolific.com/","en-US,en;q=0.5","66bee53cfe67b3e6342cb2ba","686d226cabeef709c732f8e1","686e313c125e7520043d1708","66bee53cfe67b3e6342cb2ba","2025-07-09T09:28:02.127Z","","","","","","PreMotivationQ","","","","","","","","","","","","","","","","","","","","","","","","","","","","","","","","","","","","","","50",""
"","","","","ctl-task-cpt","40","791963","0.0-10.0-0.0","193","1","2025-07-09 09:15:29","7701e855f2ef39aa3fd6c71abdc6918a","41.116.75.31","Mozilla/5.0 (Windows NT 10.0; Win64; x64; rv:140.0) Gecko/20100101 Firefox/140.0","","Firefox","140.0","Windows","10.0","https://app.prolific.com/","en-US,en;q=0.5","66bee53cfe67b3e6342cb2ba","686d226cabeef709c732f8e1","686e313c125e7520043d1708","66bee53cfe67b3e6342cb2ba","2025-07-09T09:28:45.979Z","","","","","","","","","","","","","","","","win-only","1","g1:NE,g2:SW","1","1","0","758819","1413","6427","40841","1","4","8","6","2","8","7","7","0","0.05303030303030303","1487","3000","1425","[""down"",""left""]","{""num_key_presses"":9,""num_perfect"":8,""num_errors"":1,""num_randdir"":0,""num_randdir_good_moves"":0,""num_whilered"":0,""num_whileblue"":0,""num_blue"":2,""num_good_moves"":7}","[299.4103984882305,301.4285703188413,1,299.4103984882305,301.4285703188413,105,299.4103984882305,301.4285703188413,216,299.4103984882305,301.4285703188413,321,299.4103984882305,301.4285703188413,433,299.4103984882305,301.4285703188413,539,278.68312576095775,336.3376612279322,654,231.77403485186687,408.3376612279322,782,249.2285803064123,406.155843046114,896,207.77403485186687,445.4285703188413,1007,169.59221667004869,497.7922066824777,1109,140.13767121550325,522.8831157733866,1223,63.77403485186688,555.6103885006594,1336,63.77403485186688,555.6103885006594,1448,63.77403485186688,556.7012975915685,1556,63.77403485186688,556.7012975915685,1665,63.77403485186688,556.7012975915685,1772,63.77403485186688,556.7012975915685,1889,69.22858030641234,554.5194794097503,2003,72.50130757913959,554.5194794097503,2116,72.50130757913959,554.5194794097503,2222,72.50130757913959,554.5194794097503,2332,72.50130757913959,554.5194794097503,2436,74.68312576095778,552.3376612279321,2541,75.77403485186687,552.3376612279321,2650,82.31948939732143,551.246752137023,2781,91.04676212459415,549.0649339552049,2887,91.04676212459415,549.0649339552049,2998,91.04676212459415,549.0649339552049,3098,93.22858030641234,549.0649339552049,3200,106.31948939732143,547.9740248642958,3328,106.31948939732143,547.9740248642958,3429,106.31948939732143,547.9740248642958,3536,106.31948939732143,547.9740248642958,3646,106.31948939732143,547.9740248642958,3758,106.31948939732143,547.9740248642958,3868,106.31948939732143,547.9740248642958,3980,106.31948939732143,547.9740248642958,4082,106.31948939732143,547.9740248642958,4185,106.31948939732143,547.9740248642958,4295,106.31948939732143,547.9740248642958,4409,106.31948939732143,547.9740248642958,4513,106.31948939732143,547.9740248642958,4615,106.31948939732143,547.9740248642958,4725,106.31948939732143,547.9740248642958,4825,106.31948939732143,547.9740248642958,4933]","[5308,5308,2767,2021,520,""smooth"",""left"",""left"",""good_move"",8606,3296,1994.5,5310,1301.5,""smooth"",""right"",""right"",""bad_move"",9869,1262,2801.8,8607,-1539.8,""error"",""-"",""-"",""no_move"",14660,4790,3255.3,10877,527.7,""smooth"",""down"",""down"",""good_move"",21007,6346,2402,17952,653,""smooth"",""down"",""down"",""good_move"",23842,2834,2197.5,21008,636.5,""smooth"",""down"",""down"",""good_move"",26963,3120,2280.9,23843,839.1,""smooth"",""left"",""left"",""good_move"",30941,3977,3213.9,26964,763.1,""smooth"",""left"",""left"",""good_move"",34166,3225,2319,30941,906,""smooth"",""left"",""left"",""good_move""]","","",""
"4550","","<div style=""width:500px;"">
  <p>What determined the result of this run?</p>
  </div>","100","html-slider-response","41","796515","0.0-10.0-1.0","193","1","2025-07-09 09:15:29","7701e855f2ef39aa3fd6c71abdc6918a","41.116.75.31","Mozilla/5.0 (Windows NT 10.0; Win64; x64; rv:140.0) Gecko/20100101 Firefox/140.0","","Firefox","140.0","Windows","10.0","https://app.prolific.com/","en-US,en;q=0.5","66bee53cfe67b3e6342cb2ba","686d226cabeef709c732f8e1","686e313c125e7520043d1708","66bee53cfe67b3e6342cb2ba","2025-07-09T09:28:50.531Z","","","","","","AttribQ","","","","","","","","","","","","","","","","","","","","","","","","","","","","","","","","","","","","","","50",""
"3168","","<div style=""width:500px;"">
  <p>How much control did you have over the ball?</p>
  </div>","100","html-slider-response","42","799685","0.0-10.0-2.0","193","1","2025-07-09 09:15:29","7701e855f2ef39aa3fd6c71abdc6918a","41.116.75.31","Mozilla/5.0 (Windows NT 10.0; Win64; x64; rv:140.0) Gecko/20100101 Firefox/140.0","","Firefox","140.0","Windows","10.0","https://app.prolific.com/","en-US,en;q=0.5","66bee53cfe67b3e6342cb2ba","686d226cabeef709c732f8e1","686e313c125e7520043d1708","66bee53cfe67b3e6342cb2ba","2025-07-09T09:28:53.702Z","","","","","","ControlQ","","","","","","","","","","","","","","","","","","","","","","","","","","","","","","","","","","","","","","50",""
"3301","","<div style=""width:500px;"">
  <p>How would you describe your current emotional state?</p>
  </div>","0","html-slider-response","43","802990","0.0-10.0-3.0","193","1","2025-07-09 09:15:29","7701e855f2ef39aa3fd6c71abdc6918a","41.116.75.31","Mozilla/5.0 (Windows NT 10.0; Win64; x64; rv:140.0) Gecko/20100101 Firefox/140.0","","Firefox","140.0","Windows","10.0","https://app.prolific.com/","en-US,en;q=0.5","66bee53cfe67b3e6342cb2ba","686d226cabeef709c732f8e1","686e313c125e7520043d1708","66bee53cfe67b3e6342cb2ba","2025-07-09T09:28:57.006Z","","","","","","StressQ","","","","","","","","","","","","","","","","","","","","","","","","","","","","","","","","","","","","","","50",""
"3882","","<div style=""width:500px;"">
  <p>What best describes how you currently feel?</p>
  </div>","100","html-slider-response","44","806876","0.0-10.0-4.0","193","1","2025-07-09 09:15:29","7701e855f2ef39aa3fd6c71abdc6918a","41.116.75.31","Mozilla/5.0 (Windows NT 10.0; Win64; x64; rv:140.0) Gecko/20100101 Firefox/140.0","","Firefox","140.0","Windows","10.0","https://app.prolific.com/","en-US,en;q=0.5","66bee53cfe67b3e6342cb2ba","686d226cabeef709c732f8e1","686e313c125e7520043d1708","66bee53cfe67b3e6342cb2ba","2025-07-09T09:29:00.892Z","","","","","","MotivationQ","","","","","","","","","","","","","","","","","","","","","","","","","","","","","","","","","","","","","","50",""
"","","","","ctl-task-cpt","45","845735","0.0-10.0-0.1","193","1","2025-07-09 09:15:29","7701e855f2ef39aa3fd6c71abdc6918a","41.116.75.31","Mozilla/5.0 (Windows NT 10.0; Win64; x64; rv:140.0) Gecko/20100101 Firefox/140.0","","Firefox","140.0","Windows","10.0","https://app.prolific.com/","en-US,en;q=0.5","66bee53cfe67b3e6342cb2ba","686d226cabeef709c732f8e1","686e313c125e7520043d1708","66bee53cfe67b3e6342cb2ba","2025-07-09T09:29:39.751Z","","","","","","","","","","","","","","","","win-only","3","g1:SW,g2:NE","0.9","2","0","817583","1147","6161","35840","1","4","4","6","2","4","4","11","7","0.08333333333333333","1710","3000","1930","[""up"",""right""]","{""num_key_presses"":6,""num_perfect"":5,""num_errors"":0,""num_randdir"":1,""num_randdir_good_moves"":1,""num_whilered"":0,""num_whileblue"":0,""num_blue"":3,""num_good_moves"":6}","[296.13767121550325,298.155843046114,1,296.13767121550325,298.155843046114,110,296.13767121550325,298.155843046114,220,296.13767121550325,298.155843046114,331,296.13767121550325,298.155843046114,444,296.13767121550325,298.155843046114,544,296.13767121550325,300.3376612279322,653,290.68312576095775,321.06493395520494,766,241.59221667004869,343.9740248642958,878,195.77403485186687,373.4285703188413,987,240.50130757913962,338.5194794097504,1098,315.7740348518669,242.51947940975037,1211,469.5922166700487,78.88311577338678,1318,511.04676212459407,37.4285703188413,1430,518.6831257609578,37.4285703188413,1545,536.1376712155031,42.883115773386756,1656,540.5013075791395,50.519479409750396,1763,540.5013075791395,51.61038850065949,1876,551.4103984882304,83.24675213702312,1983,579.7740348518668,153.06493395520494,2099,592.8649439427759,180.33766122793222,2208,592.8649439427759,180.33766122793222,2310,592.8649439427759,180.33766122793222,2413,592.8649439427759,180.33766122793222,2525,592.8649439427759,180.33766122793222,2635,592.8649439427759,180.33766122793222,2746,592.8649439427759,180.33766122793222,2859,592.8649439427759,180.33766122793222,2967,592.8649439427759,180.33766122793222,3084,592.8649439427759,180.33766122793222,3191,592.8649439427759,180.33766122793222,3301,592.8649439427759,180.33766122793222,3415,592.8649439427759,180.33766122793222,3526,592.8649439427759,180.33766122793222,3638,592.8649439427759,180.33766122793222,3749,592.8649439427759,180.33766122793222,3862,592.8649439427759,180.33766122793222,3974,592.8649439427759,180.33766122793222,4097,592.8649439427759,180.33766122793222,4213,592.8649439427759,180.33766122793222,4314,592.8649439427759,180.33766122793222,4425,592.8649439427759,180.33766122793222,4539,592.8649439427759,180.33766122793222,4647,592.8649439427759,180.33766122793222,4759,592.8649439427759,180.33766122793222,4870,592.8649439427759,180.33766122793222,4981]","[5172,5172,2569.8,2006,596.2,""oops"",""up"",""right"",""good_move"",11822,6650,2092.6,9154,575.4,""smooth"",""right"",""right"",""good_move"",14697,2874,1991.5,11823,882.5,""smooth"",""right"",""right"",""good_move"",18433,3735,3151.4,14698,583.6,""smooth"",""up"",""up"",""good_move"",25583,7150,2748.8,22221,613.2,""smooth"",""up"",""up"",""good_move"",29398,3813,3137.4,25585,675.6,""smooth"",""up"",""up"",""good_move""]","","",""
"4216","","<div style=""width:500px;"">
  <p>What determined the result of this run?</p>
  </div>","100","html-slider-response","46","849952","0.0-10.0-1.1","193","1","2025-07-09 09:15:29","7701e855f2ef39aa3fd6c71abdc6918a","41.116.75.31","Mozilla/5.0 (Windows NT 10.0; Win64; x64; rv:140.0) Gecko/20100101 Firefox/140.0","","Firefox","140.0","Windows","10.0","https://app.prolific.com/","en-US,en;q=0.5","66bee53cfe67b3e6342cb2ba","686d226cabeef709c732f8e1","686e313c125e7520043d1708","66bee53cfe67b3e6342cb2ba","2025-07-09T09:29:43.968Z","","","","","","AttribQ","","","","","","","","","","","","","","","","","","","","","","","","","","","","","","","","","","","","","","50",""
"3361","","<div style=""width:500px;"">
  <p>How much control did you have over the ball?</p>
  </div>","100","html-slider-response","47","853318","0.0-10.0-2.1","193","1","2025-07-09 09:15:29","7701e855f2ef39aa3fd6c71abdc6918a","41.116.75.31","Mozilla/5.0 (Windows NT 10.0; Win64; x64; rv:140.0) Gecko/20100101 Firefox/140.0","","Firefox","140.0","Windows","10.0","https://app.prolific.com/","en-US,en;q=0.5","66bee53cfe67b3e6342cb2ba","686d226cabeef709c732f8e1","686e313c125e7520043d1708","66bee53cfe67b3e6342cb2ba","2025-07-09T09:29:47.334Z","","","","","","ControlQ","","","","","","","","","","","","","","","","","","","","","","","","","","","","","","","","","","","","","","50",""
"3446","","<div style=""width:500px;"">
  <p>How would you describe your current emotional state?</p>
  </div>","0","html-slider-response","48","856767","0.0-10.0-3.1","193","1","2025-07-09 09:15:29","7701e855f2ef39aa3fd6c71abdc6918a","41.116.75.31","Mozilla/5.0 (Windows NT 10.0; Win64; x64; rv:140.0) Gecko/20100101 Firefox/140.0","","Firefox","140.0","Windows","10.0","https://app.prolific.com/","en-US,en;q=0.5","66bee53cfe67b3e6342cb2ba","686d226cabeef709c732f8e1","686e313c125e7520043d1708","66bee53cfe67b3e6342cb2ba","2025-07-09T09:29:50.783Z","","","","","","StressQ","","","","","","","","","","","","","","","","","","","","","","","","","","","","","","","","","","","","","","50",""
"2764","","<div style=""width:500px;"">
  <p>What best describes how you currently feel?</p>
  </div>","100","html-slider-response","49","859537","0.0-10.0-4.1","193","1","2025-07-09 09:15:29","7701e855f2ef39aa3fd6c71abdc6918a","41.116.75.31","Mozilla/5.0 (Windows NT 10.0; Win64; x64; rv:140.0) Gecko/20100101 Firefox/140.0","","Firefox","140.0","Windows","10.0","https://app.prolific.com/","en-US,en;q=0.5","66bee53cfe67b3e6342cb2ba","686d226cabeef709c732f8e1","686e313c125e7520043d1708","66bee53cfe67b3e6342cb2ba","2025-07-09T09:29:53.553Z","","","","","","MotivationQ","","","","","","","","","","","","","","","","","","","","","","","","","","","","","","","","","","","","","","50",""
"","","","","ctl-task-cpt","50","886830","0.0-10.0-0.2","193","1","2025-07-09 09:15:29","7701e855f2ef39aa3fd6c71abdc6918a","41.116.75.31","Mozilla/5.0 (Windows NT 10.0; Win64; x64; rv:140.0) Gecko/20100101 Firefox/140.0","","Firefox","140.0","Windows","10.0","https://app.prolific.com/","en-US,en;q=0.5","66bee53cfe67b3e6342cb2ba","686d226cabeef709c732f8e1","686e313c125e7520043d1708","66bee53cfe67b3e6342cb2ba","2025-07-09T09:30:20.846Z","","","","","","","","","","","","","","","","win-only","1","g1:NE,g2:SW","0.8","3","0","870242","1214","6231","24277","1","4","4","6","2","4","4","15","11","0.11363636363636363","1450","3000","1870","[""down"",""left""]","{""num_key_presses"":6,""num_perfect"":6,""num_errors"":0,""num_randdir"":0,""num_randdir_good_moves"":0,""num_whilered"":0,""num_whileblue"":0,""num_blue"":0,""num_good_moves"":6}","[296.13767121550325,297.06493395520494,0,296.13767121550325,297.06493395520494,102,296.13767121550325,297.06493395520494,217,296.13767121550325,297.06493395520494,326,296.13767121550325,297.06493395520494,437,303.7740348518669,297.06493395520494,550,323.4103984882305,297.06493395520494,658,323.4103984882305,297.06493395520494,772,261.2285803064123,343.9740248642958,882,128.13767121550325,498.8831157733867,989,110.68312576095778,519.6103885006594,1100,81.22858030641234,527.246752137023,1218,71.4103984882305,534.8831157733866,1323,45.22858030641233,553.4285703188413,1435,44.13767121550324,553.4285703188413,1546,44.13767121550324,553.4285703188413,1655,60.5013075791396,553.4285703188413,1767,130.31948939732143,551.246752137023,1884,219.77403485186687,558.8831157733866,1986,229.59221667004869,565.4285703188413,2100,219.77403485186687,561.0649339552049,2200,219.77403485186687,561.0649339552049,2303,219.77403485186687,561.0649339552049,2418,219.77403485186687,561.0649339552049,2527,219.77403485186687,561.0649339552049,2639,219.77403485186687,561.0649339552049,2750,219.77403485186687,561.0649339552049,2862,219.77403485186687,561.0649339552049,2972,219.77403485186687,561.0649339552049,3079,219.77403485186687,561.0649339552049,3181,219.77403485186687,561.0649339552049,3301,219.77403485186687,561.0649339552049,3406,219.77403485186687,561.0649339552049,3517,219.77403485186687,561.0649339552049,3630,219.77403485186687,561.0649339552049,3739,219.77403485186687,561.0649339552049,3851,219.77403485186687,561.0649339552049,3963,219.77403485186687,561.0649339552049,4071,219.77403485186687,561.0649339552049,4184,219.77403485186687,561.0649339552049,4303,219.77403485186687,561.0649339552049,4410,219.77403485186687,561.0649339552049,4511,219.77403485186687,561.0649339552049,4620,219.77403485186687,561.0649339552049,4731,219.77403485186687,561.0649339552049,4844,219.77403485186687,561.0649339552049,4945]","[1549,1549,1000,0,549,""smooth"",""down"",""down"",""good_move"",4669,3120,2576.3,1549,543.7,""smooth"",""down"",""down"",""good_move"",8693,4023,3159.7,4670,863.3,""smooth"",""down"",""down"",""good_move"",11273,2580,2019.8,8693,560.2,""smooth"",""left"",""left"",""good_move"",14457,3184,2511.4,11273,672.6,""smooth"",""left"",""left"",""good_move"",17757,3300,2302.7,14457,997.3,""smooth"",""left"",""left"",""good_move""]","","",""
"2758","","<div style=""width:500px;"">
  <p>What determined the result of this run?</p>
  </div>","100","html-slider-response","51","889589","0.0-10.0-1.2","193","1","2025-07-09 09:15:29","7701e855f2ef39aa3fd6c71abdc6918a","41.116.75.31","Mozilla/5.0 (Windows NT 10.0; Win64; x64; rv:140.0) Gecko/20100101 Firefox/140.0","","Firefox","140.0","Windows","10.0","https://app.prolific.com/","en-US,en;q=0.5","66bee53cfe67b3e6342cb2ba","686d226cabeef709c732f8e1","686e313c125e7520043d1708","66bee53cfe67b3e6342cb2ba","2025-07-09T09:30:23.605Z","","","","","","AttribQ","","","","","","","","","","","","","","","","","","","","","","","","","","","","","","","","","","","","","","50",""
"2890","","<div style=""width:500px;"">
  <p>How much control did you have over the ball?</p>
  </div>","100","html-slider-response","52","892481","0.0-10.0-2.2","193","1","2025-07-09 09:15:29","7701e855f2ef39aa3fd6c71abdc6918a","41.116.75.31","Mozilla/5.0 (Windows NT 10.0; Win64; x64; rv:140.0) Gecko/20100101 Firefox/140.0","","Firefox","140.0","Windows","10.0","https://app.prolific.com/","en-US,en;q=0.5","66bee53cfe67b3e6342cb2ba","686d226cabeef709c732f8e1","686e313c125e7520043d1708","66bee53cfe67b3e6342cb2ba","2025-07-09T09:30:26.497Z","","","","","","ControlQ","","","","","","","","","","","","","","","","","","","","","","","","","","","","","","","","","","","","","","50",""
"3009","","<div style=""width:500px;"">
  <p>How would you describe your current emotional state?</p>
  </div>","0","html-slider-response","53","895501","0.0-10.0-3.2","193","1","2025-07-09 09:15:29","7701e855f2ef39aa3fd6c71abdc6918a","41.116.75.31","Mozilla/5.0 (Windows NT 10.0; Win64; x64; rv:140.0) Gecko/20100101 Firefox/140.0","","Firefox","140.0","Windows","10.0","https://app.prolific.com/","en-US,en;q=0.5","66bee53cfe67b3e6342cb2ba","686d226cabeef709c732f8e1","686e313c125e7520043d1708","66bee53cfe67b3e6342cb2ba","2025-07-09T09:30:29.517Z","","","","","","StressQ","","","","","","","","","","","","","","","","","","","","","","","","","","","","","","","","","","","","","","50",""
"2259","","<div style=""width:500px;"">
  <p>What best describes how you currently feel?</p>
  </div>","100","html-slider-response","54","897765","0.0-10.0-4.2","193","1","2025-07-09 09:15:29","7701e855f2ef39aa3fd6c71abdc6918a","41.116.75.31","Mozilla/5.0 (Windows NT 10.0; Win64; x64; rv:140.0) Gecko/20100101 Firefox/140.0","","Firefox","140.0","Windows","10.0","https://app.prolific.com/","en-US,en;q=0.5","66bee53cfe67b3e6342cb2ba","686d226cabeef709c732f8e1","686e313c125e7520043d1708","66bee53cfe67b3e6342cb2ba","2025-07-09T09:30:31.781Z","","","","","","MotivationQ","","","","","","","","","","","","","","","","","","","","","","","","","","","","","","","","","","","","","","50",""
"","","","","ctl-task-cpt","55","949519","0.0-10.0-0.3","193","1","2025-07-09 09:15:29","7701e855f2ef39aa3fd6c71abdc6918a","41.116.75.31","Mozilla/5.0 (Windows NT 10.0; Win64; x64; rv:140.0) Gecko/20100101 Firefox/140.0","","Firefox","140.0","Windows","10.0","https://app.prolific.com/","en-US,en;q=0.5","66bee53cfe67b3e6342cb2ba","686d226cabeef709c732f8e1","686e313c125e7520043d1708","66bee53cfe67b3e6342cb2ba","2025-07-09T09:31:23.535Z","","","","","","","","","","","","","","","","win-only","2","g1:SE,g2:NW","0.7","4","0","908469","1299","6308","48744","1","4","8","6","2","8","7","22","15","0.16666666666666666","1499","3000","910","[""left"",""up""]","{""num_key_presses"":12,""num_perfect"":8,""num_errors"":1,""num_randdir"":3,""num_randdir_good_moves"":1,""num_whilered"":0,""num_whileblue"":1,""num_blue"":2,""num_good_moves"":9}","[292.86494394277594,292.70129759156856,1,292.86494394277594,292.70129759156856,117,292.86494394277594,292.70129759156856,219,292.86494394277594,292.70129759156856,323,292.86494394277594,292.70129759156856,424,297.2285803064123,294.88311577338675,539,301.5922166700487,299.2467521370231,648,277.5922166700487,298.155843046114,758,181.59221667004869,242.51947940975037,870,149.95585303368506,198.88311577338675,983,142.31948939732143,147.6103885006595,1090,119.4103984882305,102.88311577338678,1202,68.13767121550325,42.883115773386756,1318,55.046762124594146,34.155843046114036,1422,55.046762124594146,34.155843046114036,1526,61.59221667004869,36.33766122793221,1637,122.68312576095778,76.70129759156859,1739,329.95585303368506,292.70129759156856,1853,435.7740348518669,364.70129759156856,1970,447.7740348518669,367.9740248642958,2071,449.95585303368506,371.2467521370231,2181,449.95585303368506,371.2467521370231,2291,449.95585303368506,371.2467521370231,2402,449.95585303368506,372.3376612279322,2513,449.95585303368506,372.3376612279322,2623,449.95585303368506,372.3376612279322,2734,449.95585303368506,372.3376612279322,2847,449.95585303368506,372.3376612279322,2956,449.95585303368506,372.3376612279322,3071,449.95585303368506,372.3376612279322,3180,449.95585303368506,372.3376612279322,3296,449.95585303368506,372.3376612279322,3400,449.95585303368506,372.3376612279322,3516,449.95585303368506,372.3376612279322,3621,449.95585303368506,372.3376612279322,3734,449.95585303368506,372.3376612279322,3846,449.95585303368506,372.3376612279322,3957,449.95585303368506,372.3376612279322,4057,449.95585303368506,372.3376612279322,4163,449.95585303368506,372.3376612279322,4277,449.95585303368506,372.3376612279322,4393,449.95585303368506,372.3376612279322,4497,449.95585303368506,372.3376612279322,4613,449.95585303368506,372.3376612279322,4720,449.95585303368506,372.3376612279322,4831,449.95585303368506,372.3376612279322,4946]","[1595,1595,1000,0,595,""smooth"",""left"",""left"",""good_move"",4900,3304,2828.5,1596,475.5,""smooth"",""left"",""left"",""good_move"",8819,3919,3423,4900,496,""smooth"",""left"",""left"",""good_move"",11956,3137,2682,8819,455,""while_blue"",""up"",""down"",""bad_move"",14815,2858,2200.1,11957,657.9,""smooth"",""up"",""up"",""good_move"",18195,3380,2403.8,14815,976.2,""smooth"",""up"",""up"",""good_move"",21555,3360,2687.1,18195,672.9,""oops"",""up"",""down"",""bad_move"",25058,3503,2690.8,21555,812.2,""smooth"",""up"",""up"",""good_move"",28284,3225,2473.2,25059,751.8,""oops"",""up"",""down"",""bad_move"",31092,2807,2224.6,28285,582.4,""oops"",""up"",""up"",""good_move"",38866,7774,3017.7,35183,665.3,""smooth"",""up"",""up"",""good_move"",42160,3293,2034.5,38867,1258.5,""smooth"",""up"",""up"",""good_move""]","","",""
"3802","","<div style=""width:500px;"">
  <p>What determined the result of this run?</p>
  </div>","100","html-slider-response","56","953323","0.0-10.0-1.3","193","1","2025-07-09 09:15:29","7701e855f2ef39aa3fd6c71abdc6918a","41.116.75.31","Mozilla/5.0 (Windows NT 10.0; Win64; x64; rv:140.0) Gecko/20100101 Firefox/140.0","","Firefox","140.0","Windows","10.0","https://app.prolific.com/","en-US,en;q=0.5","66bee53cfe67b3e6342cb2ba","686d226cabeef709c732f8e1","686e313c125e7520043d1708","66bee53cfe67b3e6342cb2ba","2025-07-09T09:31:27.339Z","","","","","","AttribQ","","","","","","","","","","","","","","","","","","","","","","","","","","","","","","","","","","","","","","50",""
"3025","","<div style=""width:500px;"">
  <p>How much control did you have over the ball?</p>
  </div>","100","html-slider-response","57","956354","0.0-10.0-2.3","193","1","2025-07-09 09:15:29","7701e855f2ef39aa3fd6c71abdc6918a","41.116.75.31","Mozilla/5.0 (Windows NT 10.0; Win64; x64; rv:140.0) Gecko/20100101 Firefox/140.0","","Firefox","140.0","Windows","10.0","https://app.prolific.com/","en-US,en;q=0.5","66bee53cfe67b3e6342cb2ba","686d226cabeef709c732f8e1","686e313c125e7520043d1708","66bee53cfe67b3e6342cb2ba","2025-07-09T09:31:30.370Z","","","","","","ControlQ","","","","","","","","","","","","","","","","","","","","","","","","","","","","","","","","","","","","","","50",""
"2955","","<div style=""width:500px;"">
  <p>How would you describe your current emotional state?</p>
  </div>","0","html-slider-response","58","959315","0.0-10.0-3.3","193","1","2025-07-09 09:15:29","7701e855f2ef39aa3fd6c71abdc6918a","41.116.75.31","Mozilla/5.0 (Windows NT 10.0; Win64; x64; rv:140.0) Gecko/20100101 Firefox/140.0","","Firefox","140.0","Windows","10.0","https://app.prolific.com/","en-US,en;q=0.5","66bee53cfe67b3e6342cb2ba","686d226cabeef709c732f8e1","686e313c125e7520043d1708","66bee53cfe67b3e6342cb2ba","2025-07-09T09:31:33.331Z","","","","","","StressQ","","","","","","","","","","","","","","","","","","","","","","","","","","","","","","","","","","","","","","50",""
"3114","","<div style=""width:500px;"">
  <p>What best describes how you currently feel?</p>
  </div>","100","html-slider-response","59","962435","0.0-10.0-4.3","193","1","2025-07-09 09:15:29","7701e855f2ef39aa3fd6c71abdc6918a","41.116.75.31","Mozilla/5.0 (Windows NT 10.0; Win64; x64; rv:140.0) Gecko/20100101 Firefox/140.0","","Firefox","140.0","Windows","10.0","https://app.prolific.com/","en-US,en;q=0.5","66bee53cfe67b3e6342cb2ba","686d226cabeef709c732f8e1","686e313c125e7520043d1708","66bee53cfe67b3e6342cb2ba","2025-07-09T09:31:36.451Z","","","","","","MotivationQ","","","","","","","","","","","","","","","","","","","","","","","","","","","","","","","","","","","","","","50",""
"","","","","ctl-task-cpt","60","1009551","0.0-10.0-0.4","193","1","2025-07-09 09:15:29","7701e855f2ef39aa3fd6c71abdc6918a","41.116.75.31","Mozilla/5.0 (Windows NT 10.0; Win64; x64; rv:140.0) Gecko/20100101 Firefox/140.0","","Firefox","140.0","Windows","10.0","https://app.prolific.com/","en-US,en;q=0.5","66bee53cfe67b3e6342cb2ba","686d226cabeef709c732f8e1","686e313c125e7520043d1708","66bee53cfe67b3e6342cb2ba","2025-07-09T09:32:23.567Z","","","","","","","","","","","","","","","","win-only","1","g1:NE,g2:SW","0.6","5","0","973140","1021","6029","44111","1","4","4","6","2","4","4","26","22","0.19696969696969696","1496","3000","1435","[""down"",""left""]","{""num_key_presses"":8,""num_perfect"":6,""num_errors"":0,""num_randdir"":2,""num_randdir_good_moves"":1,""num_whilered"":0,""num_whileblue"":0,""num_blue"":4,""num_good_moves"":7}","[300.50130757913956,295.9740248642958,0,300.50130757913956,295.9740248642958,104,300.50130757913956,295.9740248642958,216,300.50130757913956,295.9740248642958,333,300.50130757913956,295.9740248642958,441,301.5922166700487,295.9740248642958,550,301.5922166700487,297.06493395520494,664,303.7740348518669,298.155843046114,777,303.7740348518669,298.155843046114,884,256.86494394277594,375.6103885006595,987,206.68312576095775,460.70129759156856,1092,163.04676212459415,484.70129759156856,1201,77.95585303368506,546.8831157733866,1311,82.31948939732143,550.155843046114,1427,80.13767121550325,555.6103885006594,1531,80.13767121550325,555.6103885006594,1648,84.50130757913959,555.6103885006594,1766,113.95585303368506,559.9740248642958,1866,160.86494394277597,561.0649339552049,1975,477.2285803064123,493.4285703188413,2093,517.5922166700486,495.61038850065944,2197,523.046762124594,503.24675213702307,2307,526.3194893973214,506.5194794097503,2419,526.3194893973214,506.5194794097503,2530,526.3194893973214,506.5194794097503,2642,526.3194893973214,506.5194794097503,2744,526.3194893973214,506.5194794097503,2849,526.3194893973214,506.5194794097503,2962,526.3194893973214,506.5194794097503,3097,526.3194893973214,506.5194794097503,3212,526.3194893973214,506.5194794097503,3333,526.3194893973214,506.5194794097503,3433,526.3194893973214,506.5194794097503,3545,526.3194893973214,506.5194794097503,3657,526.3194893973214,506.5194794097503,3767,526.3194893973214,506.5194794097503,3880,526.3194893973214,506.5194794097503,3991,526.3194893973214,506.5194794097503,4116,526.3194893973214,506.5194794097503,4230,526.3194893973214,506.5194794097503,4349,526.3194893973214,506.5194794097503,4454,526.3194893973214,506.5194794097503,4563,526.3194893973214,506.5194794097503,4674,526.3194893973214,506.5194794097503,4774,526.3194893973214,506.5194794097503,4880,526.3194893973214,506.5194794097503,4990]","[1667,1667,1000,0,667,""smooth"",""down"",""down"",""good_move"",8011,6343,2102.4,5282,626.6,""smooth"",""down"",""down"",""good_move"",12141,4129,3305.6,8012,823.4,""smooth"",""down"",""down"",""good_move"",21284,9143,2031.6,18671,582.4,""smooth"",""left"",""left"",""good_move"",24911,3626,3067.5,21285,558.5,""oops"",""left"",""right"",""bad_move"",27463,2552,1949.7,24911,602.3,""smooth"",""left"",""left"",""good_move"",34551,7087,2440.1,31420,690.9,""smooth"",""left"",""left"",""good_move"",37782,3230,2580.3,34552,649.7,""oops"",""left"",""left"",""good_move""]","","",""
"3433","","<div style=""width:500px;"">
  <p>What determined the result of this run?</p>
  </div>","100","html-slider-response","61","1012985","0.0-10.0-1.4","193","1","2025-07-09 09:15:29","7701e855f2ef39aa3fd6c71abdc6918a","41.116.75.31","Mozilla/5.0 (Windows NT 10.0; Win64; x64; rv:140.0) Gecko/20100101 Firefox/140.0","","Firefox","140.0","Windows","10.0","https://app.prolific.com/","en-US,en;q=0.5","66bee53cfe67b3e6342cb2ba","686d226cabeef709c732f8e1","686e313c125e7520043d1708","66bee53cfe67b3e6342cb2ba","2025-07-09T09:32:27.002Z","","","","","","AttribQ","","","","","","","","","","","","","","","","","","","","","","","","","","","","","","","","","","","","","","50",""
"3139","","<div style=""width:500px;"">
  <p>How much control did you have over the ball?</p>
  </div>","100","html-slider-response","62","1016127","0.0-10.0-2.4","193","1","2025-07-09 09:15:29","7701e855f2ef39aa3fd6c71abdc6918a","41.116.75.31","Mozilla/5.0 (Windows NT 10.0; Win64; x64; rv:140.0) Gecko/20100101 Firefox/140.0","","Firefox","140.0","Windows","10.0","https://app.prolific.com/","en-US,en;q=0.5","66bee53cfe67b3e6342cb2ba","686d226cabeef709c732f8e1","686e313c125e7520043d1708","66bee53cfe67b3e6342cb2ba","2025-07-09T09:32:30.143Z","","","","","","ControlQ","","","","","","","","","","","","","","","","","","","","","","","","","","","","","","","","","","","","","","50",""
"2313","","<div style=""width:500px;"">
  <p>How would you describe your current emotional state?</p>
  </div>","0","html-slider-response","63","1018445","0.0-10.0-3.4","193","1","2025-07-09 09:15:29","7701e855f2ef39aa3fd6c71abdc6918a","41.116.75.31","Mozilla/5.0 (Windows NT 10.0; Win64; x64; rv:140.0) Gecko/20100101 Firefox/140.0","","Firefox","140.0","Windows","10.0","https://app.prolific.com/","en-US,en;q=0.5","66bee53cfe67b3e6342cb2ba","686d226cabeef709c732f8e1","686e313c125e7520043d1708","66bee53cfe67b3e6342cb2ba","2025-07-09T09:32:32.461Z","","","","","","StressQ","","","","","","","","","","","","","","","","","","","","","","","","","","","","","","","","","","","","","","50",""
"2247","","<div style=""width:500px;"">
  <p>What best describes how you currently feel?</p>
  </div>","100","html-slider-response","64","1020695","0.0-10.0-4.4","193","1","2025-07-09 09:15:29","7701e855f2ef39aa3fd6c71abdc6918a","41.116.75.31","Mozilla/5.0 (Windows NT 10.0; Win64; x64; rv:140.0) Gecko/20100101 Firefox/140.0","","Firefox","140.0","Windows","10.0","https://app.prolific.com/","en-US,en;q=0.5","66bee53cfe67b3e6342cb2ba","686d226cabeef709c732f8e1","686e313c125e7520043d1708","66bee53cfe67b3e6342cb2ba","2025-07-09T09:32:34.711Z","","","","","","MotivationQ","","","","","","","","","","","","","","","","","","","","","","","","","","","","","","","","","","","","","","50",""
"","","","","ctl-task-cpt","65","1058533","0.0-10.0-0.5","193","1","2025-07-09 09:15:29","7701e855f2ef39aa3fd6c71abdc6918a","41.116.75.31","Mozilla/5.0 (Windows NT 10.0; Win64; x64; rv:140.0) Gecko/20100101 Firefox/140.0","","Firefox","140.0","Windows","10.0","https://app.prolific.com/","en-US,en;q=0.5","66bee53cfe67b3e6342cb2ba","686d226cabeef709c732f8e1","686e313c125e7520043d1708","66bee53cfe67b3e6342cb2ba","2025-07-09T09:33:12.549Z","","","","","","","","","","","","","","","","win-only","2","g1:SE,g2:NW","0.5","6","0","1031400","2481","7495","34823","1","4","8","6","2","8","8","34","26","0.25757575757575757","2004","3000","1950","[""left"",""up""]","{""num_key_presses"":6,""num_perfect"":5,""num_errors"":0,""num_randdir"":1,""num_randdir_good_moves"":1,""num_whilered"":0,""num_whileblue"":0,""num_blue"":2,""num_good_moves"":6}","[291.7740348518669,288.3376612279322,0,291.7740348518669,288.3376612279322,110,291.7740348518669,288.3376612279322,223,291.7740348518669,288.3376612279322,340,291.7740348518669,288.3376612279322,441,297.2285803064123,289.4285703188413,555,300.50130757913956,292.70129759156856,665,298.31948939732143,292.70129759156856,775,295.0467621245941,291.6103885006595,886,303.7740348518669,291.6103885006595,1001,305.95585303368506,291.6103885006595,1115,308.13767121550325,292.70129759156856,1221,288.50130757913956,293.7922066824777,1335,229.59221667004869,270.88311577338675,1450,185.95585303368506,201.06493395520494,1553,137.95585303368506,121.42857031884131,1654,84.50130757913959,52.70129759156858,1765,84.50130757913959,52.70129759156858,1872,82.31948939732143,52.70129759156858,1972,76.86494394277597,52.70129759156858,2075,84.50130757913959,52.70129759156858,2199,159.77403485186687,73.42857031884131,2302,376.86494394277594,222.88311577338675,2415,454.3194893973214,287.2467521370231,2540,472.86494394277594,313.4285703188413,2653,481.5922166700487,323.2467521370231,2757,481.5922166700487,323.2467521370231,2868,481.5922166700487,325.4285703188413,2980,481.5922166700487,325.4285703188413,3095,481.5922166700487,325.4285703188413,3203,481.5922166700487,325.4285703188413,3305,481.5922166700487,325.4285703188413,3411,481.5922166700487,325.4285703188413,3519,481.5922166700487,325.4285703188413,3631,481.5922166700487,325.4285703188413,3746,481.5922166700487,325.4285703188413,3852,481.5922166700487,325.4285703188413,3964,481.5922166700487,325.4285703188413,4089,481.5922166700487,325.4285703188413,4203,481.5922166700487,325.4285703188413,4315,481.5922166700487,325.4285703188413,4426,481.5922166700487,325.4285703188413,4537,481.5922166700487,325.4285703188413,4648,481.5922166700487,325.4285703188413,4762,481.5922166700487,325.4285703188413,4868,481.5922166700487,325.4285703188413,4980]","[4820,4820,2177.8,2018,624.2,""smooth"",""up"",""up"",""good_move"",9002,4182,3500.5,4820,681.5,""smooth"",""up"",""up"",""good_move"",12793,3790,3261.5,9003,528.5,""smooth"",""up"",""up"",""good_move"",16029,3236,2624.5,12793,611.5,""smooth"",""left"",""left"",""good_move"",23941,7911,3427.3,19952,561.7,""oops"",""left"",""left"",""good_move"",27052,3110,2169.9,23942,940.1,""smooth"",""left"",""left"",""good_move""]","","",""
"3912","","<div style=""width:500px;"">
  <p>What determined the result of this run?</p>
  </div>","100","html-slider-response","66","1062447","0.0-10.0-1.5","193","1","2025-07-09 09:15:29","7701e855f2ef39aa3fd6c71abdc6918a","41.116.75.31","Mozilla/5.0 (Windows NT 10.0; Win64; x64; rv:140.0) Gecko/20100101 Firefox/140.0","","Firefox","140.0","Windows","10.0","https://app.prolific.com/","en-US,en;q=0.5","66bee53cfe67b3e6342cb2ba","686d226cabeef709c732f8e1","686e313c125e7520043d1708","66bee53cfe67b3e6342cb2ba","2025-07-09T09:33:16.463Z","","","","","","AttribQ","","","","","","","","","","","","","","","","","","","","","","","","","","","","","","","","","","","","","","50",""
"2603","","<div style=""width:500px;"">
  <p>How much control did you have over the ball?</p>
  </div>","100","html-slider-response","67","1065053","0.0-10.0-2.5","193","1","2025-07-09 09:15:29","7701e855f2ef39aa3fd6c71abdc6918a","41.116.75.31","Mozilla/5.0 (Windows NT 10.0; Win64; x64; rv:140.0) Gecko/20100101 Firefox/140.0","","Firefox","140.0","Windows","10.0","https://app.prolific.com/","en-US,en;q=0.5","66bee53cfe67b3e6342cb2ba","686d226cabeef709c732f8e1","686e313c125e7520043d1708","66bee53cfe67b3e6342cb2ba","2025-07-09T09:33:19.069Z","","","","","","ControlQ","","","","","","","","","","","","","","","","","","","","","","","","","","","","","","","","","","","","","","50",""
"2701","","<div style=""width:500px;"">
  <p>How would you describe your current emotional state?</p>
  </div>","0","html-slider-response","68","1067758","0.0-10.0-3.5","193","1","2025-07-09 09:15:29","7701e855f2ef39aa3fd6c71abdc6918a","41.116.75.31","Mozilla/5.0 (Windows NT 10.0; Win64; x64; rv:140.0) Gecko/20100101 Firefox/140.0","","Firefox","140.0","Windows","10.0","https://app.prolific.com/","en-US,en;q=0.5","66bee53cfe67b3e6342cb2ba","686d226cabeef709c732f8e1","686e313c125e7520043d1708","66bee53cfe67b3e6342cb2ba","2025-07-09T09:33:21.775Z","","","","","","StressQ","","","","","","","","","","","","","","","","","","","","","","","","","","","","","","","","","","","","","","50",""
"4052","","<div style=""width:500px;"">
  <p>What best describes how you currently feel?</p>
  </div>","100","html-slider-response","69","1071813","0.0-10.0-4.5","193","1","2025-07-09 09:15:29","7701e855f2ef39aa3fd6c71abdc6918a","41.116.75.31","Mozilla/5.0 (Windows NT 10.0; Win64; x64; rv:140.0) Gecko/20100101 Firefox/140.0","","Firefox","140.0","Windows","10.0","https://app.prolific.com/","en-US,en;q=0.5","66bee53cfe67b3e6342cb2ba","686d226cabeef709c732f8e1","686e313c125e7520043d1708","66bee53cfe67b3e6342cb2ba","2025-07-09T09:33:25.829Z","","","","","","MotivationQ","","","","","","","","","","","","","","","","","","","","","","","","","","","","","","","","","","","","","","50",""
"","","","","ctl-task-cpt","70","1141904","0.0-10.0-0.6","193","1","2025-07-09 09:15:29","7701e855f2ef39aa3fd6c71abdc6918a","41.116.75.31","Mozilla/5.0 (Windows NT 10.0; Win64; x64; rv:140.0) Gecko/20100101 Firefox/140.0","","Firefox","140.0","Windows","10.0","https://app.prolific.com/","en-US,en;q=0.5","66bee53cfe67b3e6342cb2ba","686d226cabeef709c732f8e1","686e313c125e7520043d1708","66bee53cfe67b3e6342cb2ba","2025-07-09T09:34:35.920Z","","","","","","","","","","","","","","","","win-only","2","g1:SE,g2:NW","0.4","7","0","1082518","1136","6144","67084","1","4","4","6","2","-4","-5","29","34","0.2196969696969697","1415","3000","-965","[""left"",""up""]","{""num_key_presses"":14,""num_perfect"":4,""num_errors"":1,""num_randdir"":9,""num_randdir_good_moves"":2,""num_whilered"":0,""num_whileblue"":0,""num_blue"":4,""num_good_moves"":6}","[295.0467621245941,294.88311577338675,0,295.0467621245941,294.88311577338675,104,295.0467621245941,294.88311577338675,215,295.0467621245941,294.88311577338675,320,298.31948939732143,294.88311577338675,434,309.2285803064123,298.155843046114,552,312.50130757913956,306.88311577338675,668,257.95585303368506,301.4285703188413,770,191.4103984882305,199.97402486429584,880,154.3194893973214,125.79220668247768,997,109.59221667004869,79.97402486429584,1099,87.77403485186687,64.70129759156859,1200,68.13767121550325,60.33766122793221,1311,63.77403485186688,58.155843046114036,1428,63.77403485186688,58.155843046114036,1529,70.3194893973214,59.24675213702313,1641,113.95585303368506,78.88311577338678,1753,302.68312576095775,252.3376612279322,1863,305.95585303368506,303.6103885006595,1978,300.50130757913956,316.70129759156856,2078,300.50130757913956,316.70129759156856,2180,300.50130757913956,316.70129759156856,2298,300.50130757913956,316.70129759156856,2402,300.50130757913956,316.70129759156856,2524,300.50130757913956,316.70129759156856,2625,300.50130757913956,316.70129759156856,2741,300.50130757913956,316.70129759156856,2844,300.50130757913956,316.70129759156856,2946,300.50130757913956,316.70129759156856,3059,300.50130757913956,316.70129759156856,3167,300.50130757913956,316.70129759156856,3279,300.50130757913956,316.70129759156856,3392,300.50130757913956,316.70129759156856,3501,300.50130757913956,316.70129759156856,3602,300.50130757913956,316.70129759156856,3710,300.50130757913956,316.70129759156856,3816,300.50130757913956,316.70129759156856,3928,300.50130757913956,316.70129759156856,4042,300.50130757913956,316.70129759156856,4142,300.50130757913956,316.70129759156856,4245,300.50130757913956,316.70129759156856,4348,300.50130757913956,316.70129759156856,4448,300.50130757913956,316.70129759156856,4559,300.50130757913956,316.70129759156856,4674,300.50130757913956,316.70129759156856,4781,300.50130757913956,316.70129759156856,4892,300.50130757913956,316.70129759156856,4992]","[1613,1614,1000,0,614,""oops"",""up"",""left"",""good_move"",5818,4203,2884.1,1615,1318.9,""oops"",""left"",""down"",""bad_move"",8924,3105,2535.6,5819,569.4,""oops"",""up"",""right"",""bad_move"",12491,3566,3013.9,8925,552.1,""oops"",""left"",""right"",""bad_move"",15709,3218,2610.4,12491,607.6,""oops"",""up"",""down"",""bad_move"",19409,3697,3068.4,15712,628.6,""oops"",""left"",""left"",""good_move"",23413,4001,3447.4,19413,552.6,""smooth"",""left"",""left"",""good_move"",30319,6906,2709.2,27107,502.8,""smooth"",""left"",""left"",""good_move"",37033,6714,2108.9,33881,1043.1,""smooth"",""up"",""up"",""good_move"",40357,3322,2706.7,37035,615.3,""smooth"",""up"",""up"",""good_move"",47042,6685,2594.1,43962,485.9,""oops"",""up"",""right"",""bad_move"",48282,1240,2994.3,47042,-1754.3,""error"",""-"",""-"",""no_move"",55338,7055,2271.4,52567,499.6,""oops"",""left"",""down"",""bad_move"",58616,3278,2486.4,55338,791.6,""oops"",""up"",""right"",""bad_move""]","","",""
"4404","","<div style=""width:500px;"">
  <p>What determined the result of this run?</p>
  </div>","100","html-slider-response","71","1146310","0.0-10.0-1.6","193","1","2025-07-09 09:15:29","7701e855f2ef39aa3fd6c71abdc6918a","41.116.75.31","Mozilla/5.0 (Windows NT 10.0; Win64; x64; rv:140.0) Gecko/20100101 Firefox/140.0","","Firefox","140.0","Windows","10.0","https://app.prolific.com/","en-US,en;q=0.5","66bee53cfe67b3e6342cb2ba","686d226cabeef709c732f8e1","686e313c125e7520043d1708","66bee53cfe67b3e6342cb2ba","2025-07-09T09:34:40.326Z","","","","","","AttribQ","","","","","","","","","","","","","","","","","","","","","","","","","","","","","","","","","","","","","","50",""
"2623","","<div style=""width:500px;"">
  <p>How much control did you have over the ball?</p>
  </div>","100","html-slider-response","72","1148938","0.0-10.0-2.6","193","1","2025-07-09 09:15:29","7701e855f2ef39aa3fd6c71abdc6918a","41.116.75.31","Mozilla/5.0 (Windows NT 10.0; Win64; x64; rv:140.0) Gecko/20100101 Firefox/140.0","","Firefox","140.0","Windows","10.0","https://app.prolific.com/","en-US,en;q=0.5","66bee53cfe67b3e6342cb2ba","686d226cabeef709c732f8e1","686e313c125e7520043d1708","66bee53cfe67b3e6342cb2ba","2025-07-09T09:34:42.954Z","","","","","","ControlQ","","","","","","","","","","","","","","","","","","","","","","","","","","","","","","","","","","","","","","50",""
"3365","","<div style=""width:500px;"">
  <p>How would you describe your current emotional state?</p>
  </div>","0","html-slider-response","73","1152306","0.0-10.0-3.6","193","1","2025-07-09 09:15:29","7701e855f2ef39aa3fd6c71abdc6918a","41.116.75.31","Mozilla/5.0 (Windows NT 10.0; Win64; x64; rv:140.0) Gecko/20100101 Firefox/140.0","","Firefox","140.0","Windows","10.0","https://app.prolific.com/","en-US,en;q=0.5","66bee53cfe67b3e6342cb2ba","686d226cabeef709c732f8e1","686e313c125e7520043d1708","66bee53cfe67b3e6342cb2ba","2025-07-09T09:34:46.323Z","","","","","","StressQ","","","","","","","","","","","","","","","","","","","","","","","","","","","","","","","","","","","","","","50",""
"2614","","<div style=""width:500px;"">
  <p>What best describes how you currently feel?</p>
  </div>","100","html-slider-response","74","1154922","0.0-10.0-4.6","193","1","2025-07-09 09:15:29","7701e855f2ef39aa3fd6c71abdc6918a","41.116.75.31","Mozilla/5.0 (Windows NT 10.0; Win64; x64; rv:140.0) Gecko/20100101 Firefox/140.0","","Firefox","140.0","Windows","10.0","https://app.prolific.com/","en-US,en;q=0.5","66bee53cfe67b3e6342cb2ba","686d226cabeef709c732f8e1","686e313c125e7520043d1708","66bee53cfe67b3e6342cb2ba","2025-07-09T09:34:48.938Z","","","","","","MotivationQ","","","","","","","","","","","","","","","","","","","","","","","","","","","","","","","","","","","","","","50",""
"","","","","ctl-task-cpt","75","1185758","0.0-10.0-0.7","193","1","2025-07-09 09:15:29","7701e855f2ef39aa3fd6c71abdc6918a","41.116.75.31","Mozilla/5.0 (Windows NT 10.0; Win64; x64; rv:140.0) Gecko/20100101 Firefox/140.0","","Firefox","140.0","Windows","10.0","https://app.prolific.com/","en-US,en;q=0.5","66bee53cfe67b3e6342cb2ba","686d226cabeef709c732f8e1","686e313c125e7520043d1708","66bee53cfe67b3e6342cb2ba","2025-07-09T09:35:19.774Z","","","","","","","","","","","","","","","","win-only","3","g1:SW,g2:NE","0.3","8","0","1165626","1665","6707","27823","1","4","8","6","1","1","1","30","29","0.22727272727272727","2083","3000","1810","[""down"",""left""]","{""num_key_presses"":6,""num_perfect"":3,""num_errors"":0,""num_randdir"":3,""num_randdir_good_moves"":2,""num_whilered"":0,""num_whileblue"":0,""num_blue"":1,""num_good_moves"":5}","[293.95585303368506,300.3376612279322,0,293.95585303368506,300.3376612279322,108,293.95585303368506,300.3376612279322,216,293.95585303368506,300.3376612279322,316,293.95585303368506,300.3376612279322,426,293.95585303368506,300.3376612279322,535,293.95585303368506,302.5194794097504,646,293.95585303368506,303.6103885006595,746,291.7740348518669,307.9740248642958,847,291.7740348518669,307.9740248642958,947,291.7740348518669,306.88311577338675,1064,291.7740348518669,306.88311577338675,1168,291.7740348518669,306.88311577338675,1310,285.2285803064123,306.88311577338675,1413,144.5013075791396,402.88311577338675,1515,39.77403485186688,513.0649339552049,1647,14.683125760957786,551.246752137023,1756,26.683125760957786,555.6103885006594,1864,43.046762124594146,554.5194794097503,1976,43.046762124594146,554.5194794097503,2107,43.046762124594146,554.5194794097503,2227,43.046762124594146,554.5194794097503,2339,63.77403485186688,555.6103885006594,2450,72.50130757913959,557.7922066824776,2550,106.31948939732143,564.3376612279321,2663,271.0467621245941,578.5194794097503,2764,300.50130757913956,586.1558430461139,2883,298.31948939732143,599.246752137023,3628,298.31948939732143,599.246752137023,3775,298.31948939732143,599.246752137023,3906,298.31948939732143,599.246752137023,4022,298.31948939732143,599.246752137023,4123,298.31948939732143,599.246752137023,4237,298.31948939732143,599.246752137023,4338,298.31948939732143,599.246752137023,4451,298.31948939732143,599.246752137023,4567,298.31948939732143,599.246752137023,4678,298.31948939732143,599.246752137023,4874]","[1865,1865,1000,0,865,""smooth"",""down"",""down"",""good_move"",9176,7307,2554.2,6087,534.8,""oops"",""down"",""up"",""bad_move"",12573,3395,2224.4,9178,1170.6,""oops"",""left"",""left"",""good_move"",15788,3214,2025.7,12574,1188.3,""smooth"",""down"",""down"",""good_move"",18025,2236,1525.2,15789,710.8,""smooth"",""down"",""down"",""good_move"",20828,2802,2294.9,18026,507.1,""oops"",""left"",""left"",""good_move""]","","",""
"3555","","<div style=""width:500px;"">
  <p>What determined the result of this run?</p>
  </div>","100","html-slider-response","76","1189315","0.0-10.0-1.7","193","1","2025-07-09 09:15:29","7701e855f2ef39aa3fd6c71abdc6918a","41.116.75.31","Mozilla/5.0 (Windows NT 10.0; Win64; x64; rv:140.0) Gecko/20100101 Firefox/140.0","","Firefox","140.0","Windows","10.0","https://app.prolific.com/","en-US,en;q=0.5","66bee53cfe67b3e6342cb2ba","686d226cabeef709c732f8e1","686e313c125e7520043d1708","66bee53cfe67b3e6342cb2ba","2025-07-09T09:35:23.331Z","","","","","","AttribQ","","","","","","","","","","","","","","","","","","","","","","","","","","","","","","","","","","","","","","50",""
"2109","","<div style=""width:500px;"">
  <p>How much control did you have over the ball?</p>
  </div>","100","html-slider-response","77","1191428","0.0-10.0-2.7","193","1","2025-07-09 09:15:29","7701e855f2ef39aa3fd6c71abdc6918a","41.116.75.31","Mozilla/5.0 (Windows NT 10.0; Win64; x64; rv:140.0) Gecko/20100101 Firefox/140.0","","Firefox","140.0","Windows","10.0","https://app.prolific.com/","en-US,en;q=0.5","66bee53cfe67b3e6342cb2ba","686d226cabeef709c732f8e1","686e313c125e7520043d1708","66bee53cfe67b3e6342cb2ba","2025-07-09T09:35:25.444Z","","","","","","ControlQ","","","","","","","","","","","","","","","","","","","","","","","","","","","","","","","","","","","","","","50",""
"3661","","<div style=""width:500px;"">
  <p>How would you describe your current emotional state?</p>
  </div>","0","html-slider-response","78","1195092","0.0-10.0-3.7","193","1","2025-07-09 09:15:29","7701e855f2ef39aa3fd6c71abdc6918a","41.116.75.31","Mozilla/5.0 (Windows NT 10.0; Win64; x64; rv:140.0) Gecko/20100101 Firefox/140.0","","Firefox","140.0","Windows","10.0","https://app.prolific.com/","en-US,en;q=0.5","66bee53cfe67b3e6342cb2ba","686d226cabeef709c732f8e1","686e313c125e7520043d1708","66bee53cfe67b3e6342cb2ba","2025-07-09T09:35:29.108Z","","","","","","StressQ","","","","","","","","","","","","","","","","","","","","","","","","","","","","","","","","","","","","","","50",""
"2484","","<div style=""width:500px;"">
  <p>What best describes how you currently feel?</p>
  </div>","100","html-slider-response","79","1197578","0.0-10.0-4.7","193","1","2025-07-09 09:15:29","7701e855f2ef39aa3fd6c71abdc6918a","41.116.75.31","Mozilla/5.0 (Windows NT 10.0; Win64; x64; rv:140.0) Gecko/20100101 Firefox/140.0","","Firefox","140.0","Windows","10.0","https://app.prolific.com/","en-US,en;q=0.5","66bee53cfe67b3e6342cb2ba","686d226cabeef709c732f8e1","686e313c125e7520043d1708","66bee53cfe67b3e6342cb2ba","2025-07-09T09:35:31.595Z","","","","","","MotivationQ","","","","","","","","","","","","","","","","","","","","","","","","","","","","","","","","","","","","","","50",""
"","","","","ctl-task-cpt","80","1244999","0.0-10.0-0.8","193","1","2025-07-09 09:15:29","7701e855f2ef39aa3fd6c71abdc6918a","41.116.75.31","Mozilla/5.0 (Windows NT 10.0; Win64; x64; rv:140.0) Gecko/20100101 Firefox/140.0","","Firefox","140.0","Windows","10.0","https://app.prolific.com/","en-US,en;q=0.5","66bee53cfe67b3e6342cb2ba","686d226cabeef709c732f8e1","686e313c125e7520043d1708","66bee53cfe67b3e6342cb2ba","2025-07-09T09:36:19.015Z","","","","","","","","","","","","","","","","win-only","1","g1:NE,g2:SW","0.2","9","0","1208286","971","5987","44405","1","4","8","6","1","-1","-1","29","30","0.2196969696969697","5016","3000","-1020","[""up"",""right""]","{""num_key_presses"":11,""num_perfect"":2,""num_errors"":0,""num_randdir"":9,""num_randdir_good_moves"":3,""num_whilered"":0,""num_whileblue"":0,""num_blue"":0,""num_good_moves"":3}","[301.5922166700487,293.7922066824777,0,300.50130757913956,293.7922066824777,120,300.50130757913956,293.7922066824777,222,300.50130757913956,293.7922066824777,345,300.50130757913956,293.7922066824777,456,302.68312576095775,292.70129759156856,571,300.50130757913956,293.7922066824777,685,300.50130757913956,293.7922066824777,791,293.95585303368506,295.9740248642958,906,219.77403485186687,370.155843046114,1018,149.95585303368506,475.9740248642958,1119,137.95585303368506,517.4285703188413,1222,64.86494394277597,574.155843046114,1339,33.22858030641233,590.5194794097503,1440,33.22858030641233,592.7012975915685,1540,33.22858030641233,592.7012975915685,1641,34.319489397321426,592.7012975915685,1741,46.319489397321426,592.7012975915685,1853,95.41039848823053,591.6103885006594,1986,373.5922166700487,591.6103885006594,2093,715.046762124594,564.3376612279321,2202,710.6831257609576,562.155843046114,2320,648.5013075791395,530.5194794097503,2438,590.6831257609576,470.5194794097503,2538,559.046762124594,451.9740248642958,2644,553.5922166700486,450.88311577338675,2754,555.7740348518668,451.9740248642958,2886,555.7740348518668,451.9740248642958,2992,555.7740348518668,451.9740248642958,3106,555.7740348518668,451.9740248642958,3215,555.7740348518668,451.9740248642958,3322,555.7740348518668,450.88311577338675,3442,555.7740348518668,450.88311577338675,3550,553.5922166700486,453.06493395520494,3655,553.5922166700486,455.2467521370231,3756,553.5922166700486,457.4285703188413,3863,553.5922166700486,457.4285703188413,3973,553.5922166700486,457.4285703188413,4083,553.5922166700486,457.4285703188413,4199,553.5922166700486,457.4285703188413,4302,553.5922166700486,457.4285703188413,4416,553.5922166700486,457.4285703188413,4516,553.5922166700486,457.4285703188413,4619,553.5922166700486,457.4285703188413,4732,553.5922166700486,457.4285703188413,4874,553.5922166700486,457.4285703188413,4989]","[1899,1899,1000,0,899,""smooth"",""down"",""down"",""bad_move"",4974,3075,2501.7,1899,573.3,""oops"",""down"",""left"",""bad_move"",8610,3636,2183.8,4974,1452.2,""oops"",""left"",""down"",""bad_move"",12394,3783,2870.7,8611,912.3,""oops"",""down"",""down"",""bad_move"",15946,3551,2971.6,12395,579.4,""oops"",""left"",""left"",""bad_move"",19436,3489,2918.7,15947,570.3,""smooth"",""left"",""left"",""bad_move"",22779,3341,2113.6,19438,1227.4,""oops"",""up"",""up"",""good_move"",26437,3657,2214.2,22780,1442.8,""oops"",""right"",""up"",""good_move"",29938,3500,2883.2,26439,616.8,""oops"",""right"",""down"",""bad_move"",32189,2250,1605.1,29939,644.9,""oops"",""up"",""down"",""bad_move"",35429,3240,2673.7,32189,566.3,""oops"",""up"",""right"",""good_move""]","","",""
"4392","","<div style=""width:500px;"">
  <p>What determined the result of this run?</p>
  </div>","100","html-slider-response","81","1249395","0.0-10.0-1.8","193","1","2025-07-09 09:15:29","7701e855f2ef39aa3fd6c71abdc6918a","41.116.75.31","Mozilla/5.0 (Windows NT 10.0; Win64; x64; rv:140.0) Gecko/20100101 Firefox/140.0","","Firefox","140.0","Windows","10.0","https://app.prolific.com/","en-US,en;q=0.5","66bee53cfe67b3e6342cb2ba","686d226cabeef709c732f8e1","686e313c125e7520043d1708","66bee53cfe67b3e6342cb2ba","2025-07-09T09:36:23.411Z","","","","","","AttribQ","","","","","","","","","","","","","","","","","","","","","","","","","","","","","","","","","","","","","","50",""
"3537","","<div style=""width:500px;"">
  <p>How much control did you have over the ball?</p>
  </div>","0","html-slider-response","82","1252935","0.0-10.0-2.8","193","1","2025-07-09 09:15:29","7701e855f2ef39aa3fd6c71abdc6918a","41.116.75.31","Mozilla/5.0 (Windows NT 10.0; Win64; x64; rv:140.0) Gecko/20100101 Firefox/140.0","","Firefox","140.0","Windows","10.0","https://app.prolific.com/","en-US,en;q=0.5","66bee53cfe67b3e6342cb2ba","686d226cabeef709c732f8e1","686e313c125e7520043d1708","66bee53cfe67b3e6342cb2ba","2025-07-09T09:36:26.951Z","","","","","","ControlQ","","","","","","","","","","","","","","","","","","","","","","","","","","","","","","","","","","","","","","50",""
"3047","","<div style=""width:500px;"">
  <p>How would you describe your current emotional state?</p>
  </div>","2","html-slider-response","83","1255984","0.0-10.0-3.8","193","1","2025-07-09 09:15:29","7701e855f2ef39aa3fd6c71abdc6918a","41.116.75.31","Mozilla/5.0 (Windows NT 10.0; Win64; x64; rv:140.0) Gecko/20100101 Firefox/140.0","","Firefox","140.0","Windows","10.0","https://app.prolific.com/","en-US,en;q=0.5","66bee53cfe67b3e6342cb2ba","686d226cabeef709c732f8e1","686e313c125e7520043d1708","66bee53cfe67b3e6342cb2ba","2025-07-09T09:36:30.000Z","","","","","","StressQ","","","","","","","","","","","","","","","","","","","","","","","","","","","","","","","","","","","","","","50",""
"2478","","<div style=""width:500px;"">
  <p>What best describes how you currently feel?</p>
  </div>","100","html-slider-response","84","1258466","0.0-10.0-4.8","193","1","2025-07-09 09:15:29","7701e855f2ef39aa3fd6c71abdc6918a","41.116.75.31","Mozilla/5.0 (Windows NT 10.0; Win64; x64; rv:140.0) Gecko/20100101 Firefox/140.0","","Firefox","140.0","Windows","10.0","https://app.prolific.com/","en-US,en;q=0.5","66bee53cfe67b3e6342cb2ba","686d226cabeef709c732f8e1","686e313c125e7520043d1708","66bee53cfe67b3e6342cb2ba","2025-07-09T09:36:32.482Z","","","","","","MotivationQ","","","","","","","","","","","","","","","","","","","","","","","","","","","","","","","","","","","","","","50",""
"","","","","ctl-task-cpt","85","1317198","0.0-10.0-0.9","193","1","2025-07-09 09:15:29","7701e855f2ef39aa3fd6c71abdc6918a","41.116.75.31","Mozilla/5.0 (Windows NT 10.0; Win64; x64; rv:140.0) Gecko/20100101 Firefox/140.0","","Firefox","140.0","Windows","10.0","https://app.prolific.com/","en-US,en;q=0.5","66bee53cfe67b3e6342cb2ba","686d226cabeef709c732f8e1","686e313c125e7520043d1708","66bee53cfe67b3e6342cb2ba","2025-07-09T09:37:31.214Z","","","","","","","","","","","","","","","","win-only","3","g1:SW,g2:NE","0.4","10","0","1269170","1186","6200","55726","1","4","4","6","2","-4","-6","23","29","0.17424242424242425","1761","3000","-1035","[""up"",""right""]","{""num_key_presses"":13,""num_perfect"":4,""num_errors"":2,""num_randdir"":7,""num_randdir_good_moves"":4,""num_whilered"":0,""num_whileblue"":0,""num_blue"":1,""num_good_moves"":8}","[298.31948939732143,305.7922066824777,0,297.2285803064123,305.7922066824777,113,297.2285803064123,305.7922066824777,215,297.2285803064123,305.7922066824777,336,297.2285803064123,305.7922066824777,452,298.31948939732143,305.7922066824777,564,298.31948939732143,305.7922066824777,668,298.31948939732143,305.7922066824777,784,298.31948939732143,306.88311577338675,897,289.5922166700487,312.3376612279322,1000,268.86494394277594,336.3376612279322,1114,286.31948939732143,337.4285703188413,1218,555.7740348518668,81.06493395520494,1327,604.8649439427759,4.701297591568583,1434,599.4103984882304,5.792206682477669,1546,562.3194893973214,24.337661227932223,1658,561.2285803064123,25.428570318841302,1809,561.2285803064123,25.428570318841302,1911,561.2285803064123,25.428570318841302,2037,561.2285803064123,25.428570318841302,2148,554.6831257609578,38.519479409750396,2264,543.7740348518668,75.6103885006595,2380,539.4103984882304,151.97402486429584,2481,495.7740348518668,280.70129759156856,2581,500.1376712155032,290.5194794097504,2682,550.3194893973214,290.5194794097504,2784,562.3194893973214,317.7922066824777,2891,562.3194893973214,317.7922066824777,3001,562.3194893973214,317.7922066824777,3112,562.3194893973214,318.88311577338675,3225,562.3194893973214,318.88311577338675,3329,562.3194893973214,316.70129759156856,3430,561.2285803064123,315.6103885006595,3542,560.1376712155031,315.6103885006595,3645,559.046762124594,315.6103885006595,3746,559.046762124594,315.6103885006595,3846,559.046762124594,315.6103885006595,3956,559.046762124594,315.6103885006595,4059,559.046762124594,317.7922066824777,4162,559.046762124594,318.88311577338675,4267,559.046762124594,318.88311577338675,4378,559.046762124594,318.88311577338675,4490,559.046762124594,318.88311577338675,4591,559.046762124594,318.88311577338675,4695,559.046762124594,318.88311577338675,4807,559.046762124594,318.88311577338675,4908]","[5274,5274,2751.9,2024,498.1,""oops"",""right"",""left"",""bad_move"",9238,3962,3163.7,5276,798.3,""smooth"",""up"",""up"",""good_move"",14524,5286,2038.2,9238,3247.8,""oops"",""up"",""left"",""bad_move"",19777,5252,1768.4,14525,3483.6,""oops"",""up"",""down"",""bad_move"",23207,3422,2024.9,19785,1397.1,""smooth"",""right"",""right"",""good_move"",27146,3939,2355.2,23207,1583.8,""smooth"",""up"",""up"",""good_move"",30838,3691,3116.6,27147,574.4,""oops"",""up"",""right"",""good_move"",34365,3523,1620.7,30842,1902.3,""smooth"",""up"",""up"",""good_move"",37328,2962,2473.1,34366,488.9,""oops"",""up"",""right"",""good_move"",40684,3356,2683.5,37328,672.5,""oops"",""up"",""right"",""good_move"",42613,1929,1849.8,40684,79.2,""oops"",""up"",""up"",""good_move"",43851,1237,2017.5,42614,-780.5,""error"",""-"",""-"",""no_move"",46131,2279,2284.8,44856,-1009.8,""error"",""-"",""-"",""no_move""]","","",""
"3091","","<div style=""width:500px;"">
  <p>What determined the result of this run?</p>
  </div>","100","html-slider-response","86","1320289","0.0-10.0-1.9","193","1","2025-07-09 09:15:29","7701e855f2ef39aa3fd6c71abdc6918a","41.116.75.31","Mozilla/5.0 (Windows NT 10.0; Win64; x64; rv:140.0) Gecko/20100101 Firefox/140.0","","Firefox","140.0","Windows","10.0","https://app.prolific.com/","en-US,en;q=0.5","66bee53cfe67b3e6342cb2ba","686d226cabeef709c732f8e1","686e313c125e7520043d1708","66bee53cfe67b3e6342cb2ba","2025-07-09T09:37:34.305Z","","","","","","AttribQ","","","","","","","","","","","","","","","","","","","","","","","","","","","","","","","","","","","","","","50",""
"3156","","<div style=""width:500px;"">
  <p>How much control did you have over the ball?</p>
  </div>","0","html-slider-response","87","1323450","0.0-10.0-2.9","193","1","2025-07-09 09:15:29","7701e855f2ef39aa3fd6c71abdc6918a","41.116.75.31","Mozilla/5.0 (Windows NT 10.0; Win64; x64; rv:140.0) Gecko/20100101 Firefox/140.0","","Firefox","140.0","Windows","10.0","https://app.prolific.com/","en-US,en;q=0.5","66bee53cfe67b3e6342cb2ba","686d226cabeef709c732f8e1","686e313c125e7520043d1708","66bee53cfe67b3e6342cb2ba","2025-07-09T09:37:37.466Z","","","","","","ControlQ","","","","","","","","","","","","","","","","","","","","","","","","","","","","","","","","","","","","","","50",""
"2451","","<div style=""width:500px;"">
  <p>How would you describe your current emotional state?</p>
  </div>","0","html-slider-response","88","1325905","0.0-10.0-3.9","193","1","2025-07-09 09:15:29","7701e855f2ef39aa3fd6c71abdc6918a","41.116.75.31","Mozilla/5.0 (Windows NT 10.0; Win64; x64; rv:140.0) Gecko/20100101 Firefox/140.0","","Firefox","140.0","Windows","10.0","https://app.prolific.com/","en-US,en;q=0.5","66bee53cfe67b3e6342cb2ba","686d226cabeef709c732f8e1","686e313c125e7520043d1708","66bee53cfe67b3e6342cb2ba","2025-07-09T09:37:39.921Z","","","","","","StressQ","","","","","","","","","","","","","","","","","","","","","","","","","","","","","","","","","","","","","","50",""
"2624","","<div style=""width:500px;"">
  <p>What best describes how you currently feel?</p>
  </div>","100","html-slider-response","89","1328534","0.0-10.0-4.9","193","1","2025-07-09 09:15:29","7701e855f2ef39aa3fd6c71abdc6918a","41.116.75.31","Mozilla/5.0 (Windows NT 10.0; Win64; x64; rv:140.0) Gecko/20100101 Firefox/140.0","","Firefox","140.0","Windows","10.0","https://app.prolific.com/","en-US,en;q=0.5","66bee53cfe67b3e6342cb2ba","686d226cabeef709c732f8e1","686e313c125e7520043d1708","66bee53cfe67b3e6342cb2ba","2025-07-09T09:37:42.550Z","","","","","","MotivationQ","","","","","","","","","","","","","","","","","","","","","","","","","","","","","","","","","","","","","","50",""
