"rt","response_timestamp","stimulus","response","trial_type","trial_index","time_elapsed","internal_node_id","run_id","condition","recorded_at","source_code_version","ip","user_agent","device","browser","browser_version","platform","platform_version","referer","accept_language","PROLIFIC_PID","STUDY_ID","SESSION_ID","prolific_id","realtime","view_history","question_order","consent","success","question_id","eventType","responses","item_order","radio_event_ids","radio_event_times","key_event_times","mouse_event_times","straightlining","zigzagging","honeypot","which_type","canvas_config","goals_layout","control_level","trial_number","tutorial_trial_number","trial_start_time","phase1_start_time","phase2_start_time","phase3_start_time","goal_1_value","goal_1_distance","goal_2_value","goal_2_distance","goal_selected","outcome","outcome_total","participant_final_score","participant_initial_score","participant_final_score_prop","goal_choice_rt","allocated_time","allocated_time_remaining","goal_direction","counts","mouse_movements","key_presses","correct","slider_start"
"1752","1752051996909","<p style='font-size:40px;line-height:1.25'><strong>Welcome to the experiment!</strong></p><p style='font-size:1.1em;line-height:1.25'>Thank you for your interest in our experiment! Before you begin, it is important that we obtain your informed consent to participate in the study.</p><p style='font-size:1.1em;line-height:1.25'>On the next screen will be an <strong>information sheet</strong> for you to read. To participate in the study we need you to read this information sheet and the following consent form carefully. If you agree with all the statements, please click the <strong>I agree</strong> button.</p><p style='font-size:1.1em;line-height:1.25'>Press <strong>Next</strong> to read the information sheet.</p>","0","custom-html-button-response","0","1762","0.0-0.0","13","1","2025-07-09 09:06:33","7701e855f2ef39aa3fd6c71abdc6918a","178.212.218.14","Mozilla/5.0 (Windows NT 10.0; Win64; x64; rv:140.0) Gecko/20100101 Firefox/140.0","","Firefox","140.0","Windows","10.0","https://app.prolific.com/","pl,en-US;q=0.7,en;q=0.3","5c2b339a85602a00012ffedd","686d226cabeef709c732f8e1","686e310a24379610fc5cad79","5c2b339a85602a00012ffedd","2025-07-09T09:06:36.909Z","","","","","","","","","","","","","","","","","","","","","","","","","","","","","","","","","","","","","","","","","","","",""
"3269","","","","instructions","1","5031","0.0-1.0","13","1","2025-07-09 09:06:33","7701e855f2ef39aa3fd6c71abdc6918a","178.212.218.14","Mozilla/5.0 (Windows NT 10.0; Win64; x64; rv:140.0) Gecko/20100101 Firefox/140.0","","Firefox","140.0","Windows","10.0","https://app.prolific.com/","pl,en-US;q=0.7,en;q=0.3","5c2b339a85602a00012ffedd","686d226cabeef709c732f8e1","686e310a24379610fc5cad79","5c2b339a85602a00012ffedd","","[{""page_index"":0,""viewing_time"":2058},{""page_index"":1,""viewing_time"":1210}]","","","","","","","","","","","","","","","","","","","","","","","","","","","","","","","","","","","","","","","","","","",""
"13903","","","{""Q0"":"""",""Q1"":"""",""Q2"":"""",""Q3"":"""",""Q4"":"""",""Q5"":"""",""Q6"":""I agree""}","survey-multi-choice","2","18936","0.0-2.0","13","1","2025-07-09 09:06:33","7701e855f2ef39aa3fd6c71abdc6918a","178.212.218.14","Mozilla/5.0 (Windows NT 10.0; Win64; x64; rv:140.0) Gecko/20100101 Firefox/140.0","","Firefox","140.0","Windows","10.0","https://app.prolific.com/","pl,en-US;q=0.7,en;q=0.3","5c2b339a85602a00012ffedd","686d226cabeef709c732f8e1","686e310a24379610fc5cad79","5c2b339a85602a00012ffedd","","","[0,1,2,3,4,5,6]","true","","","","","","","","","","","","","","","","","","","","","","","","","","","","","","","","","","","","","","","","",""
"7421","","","","fullscreen","3","27360","0.0-4.0","13","1","2025-07-09 09:06:33","7701e855f2ef39aa3fd6c71abdc6918a","178.212.218.14","Mozilla/5.0 (Windows NT 10.0; Win64; x64; rv:140.0) Gecko/20100101 Firefox/140.0","","Firefox","140.0","Windows","10.0","https://app.prolific.com/","pl,en-US;q=0.7,en;q=0.3","5c2b339a85602a00012ffedd","686d226cabeef709c732f8e1","686e310a24379610fc5cad79","5c2b339a85602a00012ffedd","","","","","true","","","","","","","","","","","","","","","","","","","","","","","","","","","","","","","","","","","","","","","",""
"2332","1752052024841"," <p style='font-size:1.1em;line-height:1.25'>Thank you for completing the consent form and closing all other tabs.</p><p style='font-size:1.1em;line-height:1.25'>We will now invite you to fill in some demographic information and questionnaires, before starting the game.<br>This will take about 5 minutes.<br></p><p style='font-size:1.1em;line-height:1.25'>Press the <strong>Next</strong> button to continue.</p>","0","custom-html-button-response","4","29694","0.0-5.0","13","1","2025-07-09 09:06:33","7701e855f2ef39aa3fd6c71abdc6918a","178.212.218.14","Mozilla/5.0 (Windows NT 10.0; Win64; x64; rv:140.0) Gecko/20100101 Firefox/140.0","","Firefox","140.0","Windows","10.0","https://app.prolific.com/","pl,en-US;q=0.7,en;q=0.3","5c2b339a85602a00012ffedd","686d226cabeef709c732f8e1","686e310a24379610fc5cad79","5c2b339a85602a00012ffedd","2025-07-09T09:07:04.841Z","","","","","","","","","","","","","","","","","","","","","","","","","","","","","","","","","","","","","","","","","","","",""
"3853","","","{""age"":""34""}","survey-text","5","33589","0.0-6.0-0.0","13","1","2025-07-09 09:06:33","7701e855f2ef39aa3fd6c71abdc6918a","178.212.218.14","Mozilla/5.0 (Windows NT 10.0; Win64; x64; rv:140.0) Gecko/20100101 Firefox/140.0","","Firefox","140.0","Windows","10.0","https://app.prolific.com/","pl,en-US;q=0.7,en;q=0.3","5c2b339a85602a00012ffedd","686d226cabeef709c732f8e1","686e310a24379610fc5cad79","5c2b339a85602a00012ffedd","","","","","","0","demographics","","","","","","","","","","","","","","","","","","","","","","","","","","","","","","","","","","","","","",""
"2657","","","{""gender_identity"":""female/woman""}","survey-multi-choice","6","36247","0.0-6.0-1.0","13","1","2025-07-09 09:06:33","7701e855f2ef39aa3fd6c71abdc6918a","178.212.218.14","Mozilla/5.0 (Windows NT 10.0; Win64; x64; rv:140.0) Gecko/20100101 Firefox/140.0","","Firefox","140.0","Windows","10.0","https://app.prolific.com/","pl,en-US;q=0.7,en;q=0.3","5c2b339a85602a00012ffedd","686d226cabeef709c732f8e1","686e310a24379610fc5cad79","5c2b339a85602a00012ffedd","","","[0]","","","1","demographics","","","","","","","","","","","","","","","","","","","","","","","","","","","","","","","","","","","","","",""
"2771","","","{""assigned_sex"":""female""}","survey-multi-choice","7","39020","0.0-6.0-2.0","13","1","2025-07-09 09:06:33","7701e855f2ef39aa3fd6c71abdc6918a","178.212.218.14","Mozilla/5.0 (Windows NT 10.0; Win64; x64; rv:140.0) Gecko/20100101 Firefox/140.0","","Firefox","140.0","Windows","10.0","https://app.prolific.com/","pl,en-US;q=0.7,en;q=0.3","5c2b339a85602a00012ffedd","686d226cabeef709c732f8e1","686e310a24379610fc5cad79","5c2b339a85602a00012ffedd","","","[0]","","","2","demographics","","","","","","","","","","","","","","","","","","","","","","","","","","","","","","","","","","","","","",""
"5642","","","{""menstrual_cycle"":""Yes""}","survey-multi-choice","8","44663","0.0-6.0-3.0","13","1","2025-07-09 09:06:33","7701e855f2ef39aa3fd6c71abdc6918a","178.212.218.14","Mozilla/5.0 (Windows NT 10.0; Win64; x64; rv:140.0) Gecko/20100101 Firefox/140.0","","Firefox","140.0","Windows","10.0","https://app.prolific.com/","pl,en-US;q=0.7,en;q=0.3","5c2b339a85602a00012ffedd","686d226cabeef709c732f8e1","686e310a24379610fc5cad79","5c2b339a85602a00012ffedd","","","[0]","","","4","demographics","","","","","","","","","","","","","","","","","","","","","","","","","","","","","","","","","","","","","",""
"6094","","","{""education"":""Master's Degree (e.g., MSc)""}","survey-multi-choice","9","50758","0.0-6.0-4.0","13","1","2025-07-09 09:06:33","7701e855f2ef39aa3fd6c71abdc6918a","178.212.218.14","Mozilla/5.0 (Windows NT 10.0; Win64; x64; rv:140.0) Gecko/20100101 Firefox/140.0","","Firefox","140.0","Windows","10.0","https://app.prolific.com/","pl,en-US;q=0.7,en;q=0.3","5c2b339a85602a00012ffedd","686d226cabeef709c732f8e1","686e310a24379610fc5cad79","5c2b339a85602a00012ffedd","","","[0]","","","5","demographics","","","","","","","","","","","","","","","","","","","","","","","","","","","","","","","","","","","","","",""
"8498","","","{""education"":""Higher National Diploma""}","survey-multi-choice","10","59258","0.0-6.0-5.0","13","1","2025-07-09 09:06:33","7701e855f2ef39aa3fd6c71abdc6918a","178.212.218.14","Mozilla/5.0 (Windows NT 10.0; Win64; x64; rv:140.0) Gecko/20100101 Firefox/140.0","","Firefox","140.0","Windows","10.0","https://app.prolific.com/","pl,en-US;q=0.7,en;q=0.3","5c2b339a85602a00012ffedd","686d226cabeef709c732f8e1","686e310a24379610fc5cad79","5c2b339a85602a00012ffedd","2025-07-09T09:07:34.405Z","","[0]","","","6","demographics","","","","","","","","","","","","","","","","","","","","","","","","","","","","","","","","","","","","","",""
"8968","","","{""mental_health_condition"":""no"",""mental_health_treatment"":""no"",""psychiatric_medication"":""no""}","survey-text","11","68243","0.0-7.0-0.0","13","1","2025-07-09 09:06:33","7701e855f2ef39aa3fd6c71abdc6918a","178.212.218.14","Mozilla/5.0 (Windows NT 10.0; Win64; x64; rv:140.0) Gecko/20100101 Firefox/140.0","","Firefox","140.0","Windows","10.0","https://app.prolific.com/","pl,en-US;q=0.7,en;q=0.3","5c2b339a85602a00012ffedd","686d226cabeef709c732f8e1","686e310a24379610fc5cad79","5c2b339a85602a00012ffedd","2025-07-09T09:07:43.390Z","","","","","1","mental_health","","","","","","","","","","","","","","","","","","","","","","","","","","","","","","","","","","","","","",""
"10113","","","{""depression_history"":[""No""]}","survey-multi-select","12","78359","0.0-7.0-1.0","13","1","2025-07-09 09:06:33","7701e855f2ef39aa3fd6c71abdc6918a","178.212.218.14","Mozilla/5.0 (Windows NT 10.0; Win64; x64; rv:140.0) Gecko/20100101 Firefox/140.0","","Firefox","140.0","Windows","10.0","https://app.prolific.com/","pl,en-US;q=0.7,en;q=0.3","5c2b339a85602a00012ffedd","686d226cabeef709c732f8e1","686e310a24379610fc5cad79","5c2b339a85602a00012ffedd","","","[0]","","","","mental_health","","","","","","","","","","","","","","","","","","","","","","","","","","","","","","","","","","","","","",""
"52202","","","","survey-template","13","130567","0.0-7.0-3.0","13","1","2025-07-09 09:06:33","7701e855f2ef39aa3fd6c71abdc6918a","178.212.218.14","Mozilla/5.0 (Windows NT 10.0; Win64; x64; rv:140.0) Gecko/20100101 Firefox/140.0","","Firefox","140.0","Windows","10.0","https://app.prolific.com/","pl,en-US;q=0.7,en;q=0.3","5c2b339a85602a00012ffedd","686d226cabeef709c732f8e1","686e310a24379610fc5cad79","5c2b339a85602a00012ffedd","2025-07-09T09:08:45.714Z","","","","","","ius","{""Q01"":""2"",""Q02"":""2"",""Q03"":""2"",""Q04"":""2"",""Q05"":""1"",""Q06"":""3"",""Q07"":""3"",""Q08"":""0"",""Q09"":""2"",""Q10"":""2"",""Q11"":""2"",""Q12"":""2"",""Q13"":""1""}","[0,1,2,3,4,5,6,7,8,9,10,11,12]","[""Q01"",""Q02"",""Q03"",""Q04"",""Q05"",""Q06"",""Q07"",""Q08"",""Q09"",""Q10"",""Q11"",""Q11"",""Q12"",""Q13""]","[7019,11103,15189,17797,22876,27719,30878,33942,36698,40138,43946,45225,48517,51590]","[]","[5259,6365,7019,11103,15189,17797,22876,27719,30878,33942,36698,39520,40138,43496,43946,45225,48517,51590,52201]","0.6153846153846154","0.16666666666666666","0","","","","","","","","","","","","","","","","","","","","","","","","","","","","",""
"1644","1752052127358","<p style='font-size:1.1em;line-height:1.25'>In the following, we will ask you a few questions relating to your experiences over the past month.<br></p><p style='font-size:1.1em;line-height:1.25'>Press the <strong>Next</strong> button to continue.</p>","0","custom-html-button-response","14","132212","0.0-7.0-4.0","13","1","2025-07-09 09:06:33","7701e855f2ef39aa3fd6c71abdc6918a","178.212.218.14","Mozilla/5.0 (Windows NT 10.0; Win64; x64; rv:140.0) Gecko/20100101 Firefox/140.0","","Firefox","140.0","Windows","10.0","https://app.prolific.com/","pl,en-US;q=0.7,en;q=0.3","5c2b339a85602a00012ffedd","686d226cabeef709c732f8e1","686e310a24379610fc5cad79","5c2b339a85602a00012ffedd","2025-07-09T09:08:47.359Z","","","","","","","","","","","","","","","","","","","","","","","","","","","","","","","","","","","","","","","","","","","",""
"42979","","","","survey-template","15","175194","0.0-7.0-5.0","13","1","2025-07-09 09:06:33","7701e855f2ef39aa3fd6c71abdc6918a","178.212.218.14","Mozilla/5.0 (Windows NT 10.0; Win64; x64; rv:140.0) Gecko/20100101 Firefox/140.0","","Firefox","140.0","Windows","10.0","https://app.prolific.com/","pl,en-US;q=0.7,en;q=0.3","5c2b339a85602a00012ffedd","686d226cabeef709c732f8e1","686e310a24379610fc5cad79","5c2b339a85602a00012ffedd","2025-07-09T09:09:30.342Z","","","","","","pss","{""Q01"":""1"",""Q02"":""1"",""Q03"":""2"",""Q04"":""2"",""Q05"":""1"",""Q06"":""2"",""Q07"":""2"",""Q08"":""3"",""Q09"":""2"",""Q10"":""1""}","[0,1,2,3,4,5,6,7,8,9]","[""Q01"",""Q02"",""Q03"",""Q04"",""Q05"",""Q06"",""Q07"",""Q08"",""Q09"",""Q10""]","[4538,9439,12397,15907,20013,25017,28336,32530,38272,42211]","[]","[1,3912,4538,9439,12397,15907,20013,24627,25017,28336,32530,38272,42211,42979]","0.5","0.6666666666666666","0","","","","","","","","","","","","","","","","","","","","","","","","","","","","",""
"1302","1752052171647","<p style='font-size:1.1em;line-height:1.25'>Thank you for your answers! Now we will ask you a few more questions relating to your feelings in the last 24 hours.<br></p><p style='font-size:1.1em;line-height:1.25'>Press the <strong>Next</strong> button to continue.</p>","0","custom-html-button-response","16","176500","0.0-7.0-6.0","13","1","2025-07-09 09:06:33","7701e855f2ef39aa3fd6c71abdc6918a","178.212.218.14","Mozilla/5.0 (Windows NT 10.0; Win64; x64; rv:140.0) Gecko/20100101 Firefox/140.0","","Firefox","140.0","Windows","10.0","https://app.prolific.com/","pl,en-US;q=0.7,en;q=0.3","5c2b339a85602a00012ffedd","686d226cabeef709c732f8e1","686e310a24379610fc5cad79","5c2b339a85602a00012ffedd","2025-07-09T09:09:31.647Z","","","","","","","","","","","","","","","","","","","","","","","","","","","","","","","","","","","","","","","","","","","",""
"61224","","","","survey-template","17","237727","0.0-7.0-7.0","13","1","2025-07-09 09:06:33","7701e855f2ef39aa3fd6c71abdc6918a","178.212.218.14","Mozilla/5.0 (Windows NT 10.0; Win64; x64; rv:140.0) Gecko/20100101 Firefox/140.0","","Firefox","140.0","Windows","10.0","https://app.prolific.com/","pl,en-US;q=0.7,en;q=0.3","5c2b339a85602a00012ffedd","686d226cabeef709c732f8e1","686e310a24379610fc5cad79","5c2b339a85602a00012ffedd","2025-07-09T09:10:32.874Z","","","","","","drsp","{""Q01"":""2"",""Q02"":""2"",""Q03"":""2"",""Q04"":""2"",""Q05"":""2"",""Q06"":""2"",""Q07"":""2"",""Q08"":""1"",""Q09"":""3"",""Q10"":""3"",""Q11"":""3"",""Q12"":""2"",""Q13"":""3"",""Q14"":""4"",""Q15"":""2"",""Q16"":""3"",""Q17"":""2"",""Q18"":""2"",""Q19"":""3"",""Q20"":""2"",""Q21"":""1""}","[0,1,2,3,4,5,6,7,8,9,10,11,12,13,14,15,16,17,18,19,20]","[""Q01"",""Q02"",""Q04"",""Q03"",""Q05"",""Q06"",""Q07"",""Q08"",""Q09"",""Q10"",""Q11"",""Q12"",""Q13"",""Q14"",""Q15"",""Q16"",""Q17"",""Q18"",""Q19"",""Q20"",""Q21""]","[5796,7463,10168,10926,12671,14782,17103,19588,22993,24292,25316,28323,29598,32483,35250,36766,38027,44848,51290,54692,60616]","[]","[0,5796,7463,9079,10168,10926,12671,14782,17103,19588,22993,24292,25316,28323,29598,32483,35250,36301,36766,38027,44848,51290,54692,60616,61223]","0.5714285714285714","0.45","0","","","","","","","","","","","","","","","","","","","","","","","","","","","","",""
"6771","","","","survey-template","18","244503","0.0-7.0-8.0","13","1","2025-07-09 09:06:33","7701e855f2ef39aa3fd6c71abdc6918a","178.212.218.14","Mozilla/5.0 (Windows NT 10.0; Win64; x64; rv:140.0) Gecko/20100101 Firefox/140.0","","Firefox","140.0","Windows","10.0","https://app.prolific.com/","pl,en-US;q=0.7,en;q=0.3","5c2b339a85602a00012ffedd","686d226cabeef709c732f8e1","686e310a24379610fc5cad79","5c2b339a85602a00012ffedd","2025-07-09T09:10:39.650Z","","","","","","stress","{""Q01"":""2"",""Q02"":""3"",""Q03"":""2""}","[0,1,2]","[""Q01"",""Q02"",""Q03""]","[3810,4902,5459]","[]","[3810,4902,5459,6771]","1","0","0","","","","","","","","","","","","","","","","","","","","","","","","","","","","",""
"74635","","","","instructions","19","319138","0.0-8.0-0.0","13","1","2025-07-09 09:06:33","7701e855f2ef39aa3fd6c71abdc6918a","178.212.218.14","Mozilla/5.0 (Windows NT 10.0; Win64; x64; rv:140.0) Gecko/20100101 Firefox/140.0","","Firefox","140.0","Windows","10.0","https://app.prolific.com/","pl,en-US;q=0.7,en;q=0.3","5c2b339a85602a00012ffedd","686d226cabeef709c732f8e1","686e310a24379610fc5cad79","5c2b339a85602a00012ffedd","","[{""page_index"":0,""viewing_time"":12106},{""page_index"":1,""viewing_time"":8499},{""page_index"":2,""viewing_time"":9624},{""page_index"":3,""viewing_time"":44405}]","","","","","","","","","","","","","","","","","","","","","","","","","","","","","","","","","","","","","","","","","","",""
"","","","","ctl-task-cpt","20","343836","0.0-8.0-1.0","13","1","2025-07-09 09:06:33","7701e855f2ef39aa3fd6c71abdc6918a","178.212.218.14","Mozilla/5.0 (Windows NT 10.0; Win64; x64; rv:140.0) Gecko/20100101 Firefox/140.0","","Firefox","140.0","Windows","10.0","https://app.prolific.com/","pl,en-US;q=0.7,en;q=0.3","5c2b339a85602a00012ffedd","686d226cabeef709c732f8e1","686e310a24379610fc5cad79","5c2b339a85602a00012ffedd","","","","","","","","","","","","","","","","","win-only","2","g1:SE,g2:NW","1","0","1","322122","2797","6801","21692","2","4","4","6","1","2","1","1","0","0.007575757575757576","3698","4000","1910","[""down"",""right""]","{""num_key_presses"":5,""num_perfect"":4,""num_errors"":1,""num_randdir"":0,""num_randdir_good_moves"":0,""num_whilered"":0,""num_whileblue"":0,""num_blue"":1,""num_good_moves"":4}","[548.4285714285714,566.1285683768136,0,548.4285714285714,566.1285683768136,105,548.4285714285714,566.1285683768136,210,548.4285714285714,566.1285683768136,311,548.4285714285714,566.1285683768136,412,548.4285714285714,566.1285683768136,517,548.4285714285714,566.1285683768136,622,548.4285714285714,566.1285683768136,724,548.4285714285714,566.1285683768136,825,548.4285714285714,566.1285683768136,926,548.4285714285714,566.1285683768136,1027,548.4285714285714,566.1285683768136,1128,548.4285714285714,566.1285683768136,1231,548.4285714285714,566.1285683768136,1333,548.4285714285714,566.1285683768136,1437,548.4285714285714,566.1285683768136,1537,548.4285714285714,566.1285683768136,1638,548.4285714285714,566.1285683768136,1738,548.4285714285714,566.1285683768136,1843,548.4285714285714,566.1285683768136,1945,548.4285714285714,566.1285683768136,2045,548.4285714285714,566.1285683768136,2147,548.4285714285714,566.1285683768136,2250,548.4285714285714,566.1285683768136,2351,548.4285714285714,566.1285683768136,2451,548.4285714285714,566.1285683768136,2557,548.4285714285714,566.1285683768136,2657,548.4285714285714,566.1285683768136,2761,548.4285714285714,566.1285683768136,2867,548.4285714285714,566.1285683768136,2971,548.4285714285714,566.1285683768136,3072,548.4285714285714,566.1285683768136,3174,803.4285714285714,1278.1285683768135,3276,841.4285714285714,1209.1285683768135,3378,880.4285714285714,1158.1285683768135,3480,957.4285714285714,1067.1285683768135,3581,988.4285714285714,1032.1285683768135,3686,988.4285714285714,1032.1285683768135,3787,988.4285714285714,1032.1285683768135,3887,988.4285714285714,1032.1285683768135,3987]","[1716,1716,1000,0,716,""smooth"",""right"",""right"",""good_move"",2015,299,2010.6,1716,-1711.6,""error"",""-"",""-"",""no_move"",8932,6917,1701.9,6672,558.1,""smooth"",""right"",""right"",""good_move"",12092,3160,2358.1,8932,801.9,""smooth"",""down"",""down"",""good_move"",14792,2700,2307.2,12092,392.8,""smooth"",""down"",""down"",""good_move""]","",""
"7052","","","","instructions","21","350889","0.0-8.0-2.0","13","1","2025-07-09 09:06:33","7701e855f2ef39aa3fd6c71abdc6918a","178.212.218.14","Mozilla/5.0 (Windows NT 10.0; Win64; x64; rv:140.0) Gecko/20100101 Firefox/140.0","","Firefox","140.0","Windows","10.0","https://app.prolific.com/","pl,en-US;q=0.7,en;q=0.3","5c2b339a85602a00012ffedd","686d226cabeef709c732f8e1","686e310a24379610fc5cad79","5c2b339a85602a00012ffedd","","[{""page_index"":0,""viewing_time"":7052}]","","","","","","","","","","","","","","","","","","","","","","","","","","","","","","","","","","","","","","","","","","",""
"","","","","ctl-task-cpt","22","375365","0.0-8.0-3.0","13","1","2025-07-09 09:06:33","7701e855f2ef39aa3fd6c71abdc6918a","178.212.218.14","Mozilla/5.0 (Windows NT 10.0; Win64; x64; rv:140.0) Gecko/20100101 Firefox/140.0","","Firefox","140.0","Windows","10.0","https://app.prolific.com/","pl,en-US;q=0.7,en;q=0.3","5c2b339a85602a00012ffedd","686d226cabeef709c732f8e1","686e310a24379610fc5cad79","5c2b339a85602a00012ffedd","","","","","","","","","","","","","","","","","win-only","2","g1:SE,g2:NW","0.35","0","3","353870","1134","5138","21473","2","4","8","6","1","2","2","2","0","0.015151515151515152","1165","4000","2490","[""down"",""right""]","{""num_key_presses"":4,""num_perfect"":4,""num_errors"":0,""num_randdir"":0,""num_randdir_good_moves"":0,""num_whilered"":0,""num_whileblue"":0,""num_blue"":2,""num_good_moves"":4}","[567.4285714285714,558.1285683768136,0,567.4285714285714,558.1285683768136,102,567.4285714285714,558.1285683768136,203,567.4285714285714,558.1285683768136,309,567.4285714285714,558.1285683768136,414,567.4285714285714,558.1285683768136,515,570.4285714285714,573.1285683768136,616,824.4285714285714,909.1285683768136,718,902.4285714285714,1024.1285683768135,818,907.4285714285714,1020.1285683768136,921,1011.4285714285714,1010.1285683768136,1026,1026.4285714285713,1026.1285683768135,1126,1026.4285714285713,1026.1285683768135,1226,1026.4285714285713,1026.1285683768135,1328,1026.4285714285713,1026.1285683768135,1430,1026.4285714285713,1026.1285683768135,1530,1026.4285714285713,1026.1285683768135,1631,1026.4285714285713,1026.1285683768135,1732,1214.4285714285713,639.1285683768136,1834,1247.4285714285713,522.1285683768136,1940,1238.4285714285713,546.1285683768136,2043,1238.4285714285713,546.1285683768136,2145,1238.4285714285713,546.1285683768136,2247,1238.4285714285713,546.1285683768136,2347,1238.4285714285713,546.1285683768136,2448,1238.4285714285713,546.1285683768136,2550,1237.4285714285713,546.1285683768136,2651,1237.4285714285713,546.1285683768136,2755,1237.4285714285713,546.1285683768136,2855,1237.4285714285713,546.1285683768136,2955,1237.4285714285713,546.1285683768136,3058,1237.4285714285713,546.1285683768136,3163,1237.4285714285713,546.1285683768136,3269,1237.4285714285713,546.1285683768136,3370,1237.4285714285713,546.1285683768136,3475,1349.4285714285713,261.12856837681363,3576,1349.4285714285713,261.12856837681363,3676,1349.4285714285713,261.12856837681363,3776,1221.4285714285713,565.1285683768136,3876,977.4285714285714,628.1285683768136,3980]","[5462,5462,3009.1,2007,445.9,""smooth"",""down"",""down"",""good_move"",8079,2617,1995,5462,622,""smooth"",""down"",""down"",""good_move"",13335,5256,1952.8,11049,333.2,""smooth"",""right"",""right"",""good_move"",16231,2895,2496,13336,399,""smooth"",""right"",""right"",""good_move""]","",""
"19096","","","","instructions","23","394463","0.0-8.0-4.0","13","1","2025-07-09 09:06:33","7701e855f2ef39aa3fd6c71abdc6918a","178.212.218.14","Mozilla/5.0 (Windows NT 10.0; Win64; x64; rv:140.0) Gecko/20100101 Firefox/140.0","","Firefox","140.0","Windows","10.0","https://app.prolific.com/","pl,en-US;q=0.7,en;q=0.3","5c2b339a85602a00012ffedd","686d226cabeef709c732f8e1","686e310a24379610fc5cad79","5c2b339a85602a00012ffedd","","[{""page_index"":0,""viewing_time"":6507},{""page_index"":1,""viewing_time"":12589}]","","","","","","","","","","","","","","","","","","","","","","","","","","","","","","","","","","","","","","","","","","",""
"13534","","","{""green_ball"":[""Ball sometimes shakes and moves in a random direction""]}","survey-multi-select","24","408001","0.0-8.0-5.0-0.0","13","1","2025-07-09 09:06:33","7701e855f2ef39aa3fd6c71abdc6918a","178.212.218.14","Mozilla/5.0 (Windows NT 10.0; Win64; x64; rv:140.0) Gecko/20100101 Firefox/140.0","","Firefox","140.0","Windows","10.0","https://app.prolific.com/","pl,en-US;q=0.7,en;q=0.3","5c2b339a85602a00012ffedd","686d226cabeef709c732f8e1","686e310a24379610fc5cad79","5c2b339a85602a00012ffedd","","","[0]","","","","quiz","","","","","","","","","","","","","","","","","","","","","","","","","","","","","","","","","","","","","true",""
"2339","","<p align='center'><b>CORRECT!</b> Indeed, the green ball may sometimes shake and move in a random direction.</p>","0","html-button-response","25","410341","0.0-8.0-5.0-1.0","13","1","2025-07-09 09:06:33","7701e855f2ef39aa3fd6c71abdc6918a","178.212.218.14","Mozilla/5.0 (Windows NT 10.0; Win64; x64; rv:140.0) Gecko/20100101 Firefox/140.0","","Firefox","140.0","Windows","10.0","https://app.prolific.com/","pl,en-US;q=0.7,en;q=0.3","5c2b339a85602a00012ffedd","686d226cabeef709c732f8e1","686e310a24379610fc5cad79","5c2b339a85602a00012ffedd","","","","","","","","","","","","","","","","","","","","","","","","","","","","","","","","","","","","","","","","","","","","",""
"7012","","","{""yellow_ball"":[""Ball doesn‘t move and I get -1 penalty point""]}","survey-multi-select","26","417355","0.0-8.0-6.0-0.0","13","1","2025-07-09 09:06:33","7701e855f2ef39aa3fd6c71abdc6918a","178.212.218.14","Mozilla/5.0 (Windows NT 10.0; Win64; x64; rv:140.0) Gecko/20100101 Firefox/140.0","","Firefox","140.0","Windows","10.0","https://app.prolific.com/","pl,en-US;q=0.7,en;q=0.3","5c2b339a85602a00012ffedd","686d226cabeef709c732f8e1","686e310a24379610fc5cad79","5c2b339a85602a00012ffedd","","","[0]","","","","quiz","","","","","","","","","","","","","","","","","","","","","","","","","","","","","","","","","","","","","true",""
"821","","<p align='center'><b>CORRECT!</b> Indeed, the yellow ball never moves and you receive a penalty.</p>","0","html-button-response","27","418179","0.0-8.0-6.0-1.0","13","1","2025-07-09 09:06:33","7701e855f2ef39aa3fd6c71abdc6918a","178.212.218.14","Mozilla/5.0 (Windows NT 10.0; Win64; x64; rv:140.0) Gecko/20100101 Firefox/140.0","","Firefox","140.0","Windows","10.0","https://app.prolific.com/","pl,en-US;q=0.7,en;q=0.3","5c2b339a85602a00012ffedd","686d226cabeef709c732f8e1","686e310a24379610fc5cad79","5c2b339a85602a00012ffedd","","","","","","","","","","","","","","","","","","","","","","","","","","","","","","","","","","","","","","","","","","","","",""
"6457","","","{""blue_ball"":[""Ball doesn‘t move and I get -1 penalty point""]}","survey-multi-select","28","424639","0.0-8.0-7.0-0.0","13","1","2025-07-09 09:06:33","7701e855f2ef39aa3fd6c71abdc6918a","178.212.218.14","Mozilla/5.0 (Windows NT 10.0; Win64; x64; rv:140.0) Gecko/20100101 Firefox/140.0","","Firefox","140.0","Windows","10.0","https://app.prolific.com/","pl,en-US;q=0.7,en;q=0.3","5c2b339a85602a00012ffedd","686d226cabeef709c732f8e1","686e310a24379610fc5cad79","5c2b339a85602a00012ffedd","","","[0]","","","","quiz","","","","","","","","","","","","","","","","","","","","","","","","","","","","","","","","","","","","","false",""
"1840","","<p align='center'><b>INCORRECT.</b> The blue ball always shakes and moves randomly.</p>","0","html-button-response","29","426482","0.0-8.0-7.0-1.0","13","1","2025-07-09 09:06:33","7701e855f2ef39aa3fd6c71abdc6918a","178.212.218.14","Mozilla/5.0 (Windows NT 10.0; Win64; x64; rv:140.0) Gecko/20100101 Firefox/140.0","","Firefox","140.0","Windows","10.0","https://app.prolific.com/","pl,en-US;q=0.7,en;q=0.3","5c2b339a85602a00012ffedd","686d226cabeef709c732f8e1","686e310a24379610fc5cad79","5c2b339a85602a00012ffedd","","","","","","","","","","","","","","","","","","","","","","","","","","","","","","","","","","","","","","","","","","","","",""
"7012","","","{""blue_ball"":[""Ball always shakes and moves in a random direction""]}","survey-multi-select","30","433496","0.0-8.0-7.1-0.1","13","1","2025-07-09 09:06:33","7701e855f2ef39aa3fd6c71abdc6918a","178.212.218.14","Mozilla/5.0 (Windows NT 10.0; Win64; x64; rv:140.0) Gecko/20100101 Firefox/140.0","","Firefox","140.0","Windows","10.0","https://app.prolific.com/","pl,en-US;q=0.7,en;q=0.3","5c2b339a85602a00012ffedd","686d226cabeef709c732f8e1","686e310a24379610fc5cad79","5c2b339a85602a00012ffedd","","","[0]","","","","quiz","","","","","","","","","","","","","","","","","","","","","","","","","","","","","","","","","","","","","true",""
"1238","","<p align='center'><b>CORRECT!</b> Indeed, the blue ball always shakes and moves in a random direction. Also there is a penalty of -1 point.</p>","0","html-button-response","31","434736","0.0-8.0-7.1-1.1","13","1","2025-07-09 09:06:33","7701e855f2ef39aa3fd6c71abdc6918a","178.212.218.14","Mozilla/5.0 (Windows NT 10.0; Win64; x64; rv:140.0) Gecko/20100101 Firefox/140.0","","Firefox","140.0","Windows","10.0","https://app.prolific.com/","pl,en-US;q=0.7,en;q=0.3","5c2b339a85602a00012ffedd","686d226cabeef709c732f8e1","686e310a24379610fc5cad79","5c2b339a85602a00012ffedd","","","","","","","","","","","","","","","","","","","","","","","","","","","","","","","","","","","","","","","","","","","","",""
"3533","","","{""bonus"":[""When I reach all possible points""]}","survey-multi-select","32","438271","0.0-8.0-8.0-0.0","13","1","2025-07-09 09:06:33","7701e855f2ef39aa3fd6c71abdc6918a","178.212.218.14","Mozilla/5.0 (Windows NT 10.0; Win64; x64; rv:140.0) Gecko/20100101 Firefox/140.0","","Firefox","140.0","Windows","10.0","https://app.prolific.com/","pl,en-US;q=0.7,en;q=0.3","5c2b339a85602a00012ffedd","686d226cabeef709c732f8e1","686e310a24379610fc5cad79","5c2b339a85602a00012ffedd","","","[0]","","","","quiz","","","","","","","","","","","","","","","","","","","","","","","","","","","","","","","","","","","","","false",""
"1843","","<p align='center'><b>INCORRECT.</b> You receive 2 pounds extra when you reach 50% of points </p>","0","html-button-response","33","440116","0.0-8.0-8.0-1.0","13","1","2025-07-09 09:06:33","7701e855f2ef39aa3fd6c71abdc6918a","178.212.218.14","Mozilla/5.0 (Windows NT 10.0; Win64; x64; rv:140.0) Gecko/20100101 Firefox/140.0","","Firefox","140.0","Windows","10.0","https://app.prolific.com/","pl,en-US;q=0.7,en;q=0.3","5c2b339a85602a00012ffedd","686d226cabeef709c732f8e1","686e310a24379610fc5cad79","5c2b339a85602a00012ffedd","","","","","","","","","","","","","","","","","","","","","","","","","","","","","","","","","","","","","","","","","","","","",""
"1407","","","{""bonus"":[""When I reach 50% of points""]}","survey-multi-select","34","441525","0.0-8.0-8.1-0.1","13","1","2025-07-09 09:06:33","7701e855f2ef39aa3fd6c71abdc6918a","178.212.218.14","Mozilla/5.0 (Windows NT 10.0; Win64; x64; rv:140.0) Gecko/20100101 Firefox/140.0","","Firefox","140.0","Windows","10.0","https://app.prolific.com/","pl,en-US;q=0.7,en;q=0.3","5c2b339a85602a00012ffedd","686d226cabeef709c732f8e1","686e310a24379610fc5cad79","5c2b339a85602a00012ffedd","","","[0]","","","","quiz","","","","","","","","","","","","","","","","","","","","","","","","","","","","","","","","","","","","","true",""
"1568","","<p align='center'><b>CORRECT!</b> Indeed, you receive 2 pounds extra when you reach 50% of points.</p>","0","html-button-response","35","443095","0.0-8.0-8.1-1.1","13","1","2025-07-09 09:06:33","7701e855f2ef39aa3fd6c71abdc6918a","178.212.218.14","Mozilla/5.0 (Windows NT 10.0; Win64; x64; rv:140.0) Gecko/20100101 Firefox/140.0","","Firefox","140.0","Windows","10.0","https://app.prolific.com/","pl,en-US;q=0.7,en;q=0.3","5c2b339a85602a00012ffedd","686d226cabeef709c732f8e1","686e310a24379610fc5cad79","5c2b339a85602a00012ffedd","","","","","","","","","","","","","","","","","","","","","","","","","","","","","","","","","","","","","","","","","","","","",""
"1212","","","","instructions","36","444307","0.0-8.0-9.0","13","1","2025-07-09 09:06:33","7701e855f2ef39aa3fd6c71abdc6918a","178.212.218.14","Mozilla/5.0 (Windows NT 10.0; Win64; x64; rv:140.0) Gecko/20100101 Firefox/140.0","","Firefox","140.0","Windows","10.0","https://app.prolific.com/","pl,en-US;q=0.7,en;q=0.3","5c2b339a85602a00012ffedd","686d226cabeef709c732f8e1","686e310a24379610fc5cad79","5c2b339a85602a00012ffedd","","[{""page_index"":0,""viewing_time"":1212}]","","","","","","","","","","","","","","","","","","","","","","","","","","","","","","","","","","","","","","","","","","",""
"6448","","<p>Before you start with this game please answer the following three questions yourself. </p>
  <p>Through this game, we measure several aspects of your cognitive performance, such as reaction times, multi-tasking capabilities </p>
  <p>and the ability to assess the situation you are in.</p>
  <p></p>
  <p><b>How good do you usually are in such tasks?</b></p>","68","html-slider-response","37","450756","0.0-9.0-0.0","13","1","2025-07-09 09:06:33","7701e855f2ef39aa3fd6c71abdc6918a","178.212.218.14","Mozilla/5.0 (Windows NT 10.0; Win64; x64; rv:140.0) Gecko/20100101 Firefox/140.0","","Firefox","140.0","Windows","10.0","https://app.prolific.com/","pl,en-US;q=0.7,en;q=0.3","5c2b339a85602a00012ffedd","686d226cabeef709c732f8e1","686e310a24379610fc5cad79","5c2b339a85602a00012ffedd","2025-07-09T09:14:05.903Z","","","","","","PreSkillQ","","","","","","","","","","","","","","","","","","","","","","","","","","","","","","","","","","","","","","50"
"3230","","<div style=""width:500px;"">
  <p>How well do you think you will perform in this task compared to other participants?</p>
  </div>","65","html-slider-response","38","453988","0.0-9.0-1.0","13","1","2025-07-09 09:06:33","7701e855f2ef39aa3fd6c71abdc6918a","178.212.218.14","Mozilla/5.0 (Windows NT 10.0; Win64; x64; rv:140.0) Gecko/20100101 Firefox/140.0","","Firefox","140.0","Windows","10.0","https://app.prolific.com/","pl,en-US;q=0.7,en;q=0.3","5c2b339a85602a00012ffedd","686d226cabeef709c732f8e1","686e310a24379610fc5cad79","5c2b339a85602a00012ffedd","2025-07-09T09:14:09.135Z","","","","","","PrePerfQ","","","","","","","","","","","","","","","","","","","","","","","","","","","","","","","","","","","","","","50"
"3458","","<div style=""width:500px;"">
  <p>What best describes how you currently feel?</p>
  </div>","22","html-slider-response","39","457447","0.0-9.0-2.0","13","1","2025-07-09 09:06:33","7701e855f2ef39aa3fd6c71abdc6918a","178.212.218.14","Mozilla/5.0 (Windows NT 10.0; Win64; x64; rv:140.0) Gecko/20100101 Firefox/140.0","","Firefox","140.0","Windows","10.0","https://app.prolific.com/","pl,en-US;q=0.7,en;q=0.3","5c2b339a85602a00012ffedd","686d226cabeef709c732f8e1","686e310a24379610fc5cad79","5c2b339a85602a00012ffedd","2025-07-09T09:14:12.594Z","","","","","","PreMotivationQ","","","","","","","","","","","","","","","","","","","","","","","","","","","","","","","","","","","","","","50"
"","","","","ctl-task-cpt","40","482272","0.0-10.0-0.0","13","1","2025-07-09 09:06:33","7701e855f2ef39aa3fd6c71abdc6918a","178.212.218.14","Mozilla/5.0 (Windows NT 10.0; Win64; x64; rv:140.0) Gecko/20100101 Firefox/140.0","","Firefox","140.0","Windows","10.0","https://app.prolific.com/","pl,en-US;q=0.7,en;q=0.3","5c2b339a85602a00012ffedd","686d226cabeef709c732f8e1","686e310a24379610fc5cad79","5c2b339a85602a00012ffedd","2025-07-09T09:14:37.419Z","","","","","","","","","","","","","","","","win-only","2","g1:SE,g2:NW","1","1","0","460430","2025","7030","21821","1","4","8","6","1","1","1","1","0","0.007575757575757576","984","3000","1440","[""down"",""right""]","{""num_key_presses"":4,""num_perfect"":4,""num_errors"":0,""num_randdir"":0,""num_randdir_good_moves"":0,""num_whilered"":0,""num_whileblue"":0,""num_blue"":1,""num_good_moves"":4}","[566.4285714285714,557.1285683768136,0,566.4285714285714,557.1285683768136,104,566.4285714285714,557.1285683768136,205,566.4285714285714,557.1285683768136,308,566.4285714285714,557.1285683768136,412,566.4285714285714,557.1285683768136,515,740.4285714285714,752.1285683768136,615,982.4285714285714,1008.1285683768136,715,982.4285714285714,1009.1285683768136,819,982.4285714285714,1009.1285683768136,922,982.4285714285714,1009.1285683768136,1028,982.4285714285714,1009.1285683768136,1128,982.4285714285714,1009.1285683768136,1230,1215.4285714285713,981.1285683768136,1334,1337.4285714285713,819.1285683768136,1438,1308.4285714285713,611.1285683768136,1541,1310.4285714285713,601.1285683768136,1645,1310.4285714285713,602.1285683768136,1745,1310.4285714285713,602.1285683768136,1849,1310.4285714285713,602.1285683768136,1954,1310.4285714285713,602.1285683768136,2055,1310.4285714285713,602.1285683768136,2161,1310.4285714285713,602.1285683768136,2262,1310.4285714285713,602.1285683768136,2362,1310.4285714285713,602.1285683768136,2463,1310.4285714285713,602.1285683768136,2565,1310.4285714285713,602.1285683768136,2669,1310.4285714285713,602.1285683768136,2769,1310.4285714285713,602.1285683768136,2874,1310.4285714285713,602.1285683768136,2979,1310.4285714285713,602.1285683768136,3081,1310.4285714285713,602.1285683768136,3182,1310.4285714285713,602.1285683768136,3286,1310.4285714285713,602.1285683768136,3388,1310.4285714285713,602.1285683768136,3489,1310.4285714285713,602.1285683768136,3594,1310.4285714285713,602.1285683768136,3698,1310.4285714285713,602.1285683768136,3800,1310.4285714285713,602.1285683768136,3901,1310.4285714285713,602.1285683768136,4005,1310.4285714285713,602.1285683768136,4106,1310.4285714285713,602.1285683768136,4208,1310.4285714285713,602.1285683768136,4308,1310.4285714285713,602.1285683768136,4412,1310.4285714285713,602.1285683768136,4514,1310.4285714285713,602.1285683768136,4615,1310.4285714285713,602.1285683768136,4718,1310.4285714285713,602.1285683768136,4819,1310.4285714285713,602.1285683768136,4981]","[1364,1364,1000,0,364,""smooth"",""down"",""down"",""good_move"",3949,2584,2012.3,1365,571.7,""smooth"",""down"",""down"",""good_move"",11713,7764,3074,8213,426,""smooth"",""right"",""right"",""good_move"",14687,2974,2485.6,11713,488.4,""smooth"",""right"",""right"",""good_move""]","",""
"6532","","<div style=""width:500px;"">
  <p>What determined the result of this run?</p>
  </div>","100","html-slider-response","41","488805","0.0-10.0-1.0","13","1","2025-07-09 09:06:33","7701e855f2ef39aa3fd6c71abdc6918a","178.212.218.14","Mozilla/5.0 (Windows NT 10.0; Win64; x64; rv:140.0) Gecko/20100101 Firefox/140.0","","Firefox","140.0","Windows","10.0","https://app.prolific.com/","pl,en-US;q=0.7,en;q=0.3","5c2b339a85602a00012ffedd","686d226cabeef709c732f8e1","686e310a24379610fc5cad79","5c2b339a85602a00012ffedd","2025-07-09T09:14:43.952Z","","","","","","AttribQ","","","","","","","","","","","","","","","","","","","","","","","","","","","","","","","","","","","","","","50"
"3016","","<div style=""width:500px;"">
  <p>How much control did you have over the ball?</p>
  </div>","100","html-slider-response","42","491824","0.0-10.0-2.0","13","1","2025-07-09 09:06:33","7701e855f2ef39aa3fd6c71abdc6918a","178.212.218.14","Mozilla/5.0 (Windows NT 10.0; Win64; x64; rv:140.0) Gecko/20100101 Firefox/140.0","","Firefox","140.0","Windows","10.0","https://app.prolific.com/","pl,en-US;q=0.7,en;q=0.3","5c2b339a85602a00012ffedd","686d226cabeef709c732f8e1","686e310a24379610fc5cad79","5c2b339a85602a00012ffedd","2025-07-09T09:14:46.971Z","","","","","","ControlQ","","","","","","","","","","","","","","","","","","","","","","","","","","","","","","","","","","","","","","50"
"2771","","<div style=""width:500px;"">
  <p>How would you describe your current emotional state?</p>
  </div>","68","html-slider-response","43","494596","0.0-10.0-3.0","13","1","2025-07-09 09:06:33","7701e855f2ef39aa3fd6c71abdc6918a","178.212.218.14","Mozilla/5.0 (Windows NT 10.0; Win64; x64; rv:140.0) Gecko/20100101 Firefox/140.0","","Firefox","140.0","Windows","10.0","https://app.prolific.com/","pl,en-US;q=0.7,en;q=0.3","5c2b339a85602a00012ffedd","686d226cabeef709c732f8e1","686e310a24379610fc5cad79","5c2b339a85602a00012ffedd","2025-07-09T09:14:49.743Z","","","","","","StressQ","","","","","","","","","","","","","","","","","","","","","","","","","","","","","","","","","","","","","","50"
"2587","","<div style=""width:500px;"">
  <p>What best describes how you currently feel?</p>
  </div>","60","html-slider-response","44","497184","0.0-10.0-4.0","13","1","2025-07-09 09:06:33","7701e855f2ef39aa3fd6c71abdc6918a","178.212.218.14","Mozilla/5.0 (Windows NT 10.0; Win64; x64; rv:140.0) Gecko/20100101 Firefox/140.0","","Firefox","140.0","Windows","10.0","https://app.prolific.com/","pl,en-US;q=0.7,en;q=0.3","5c2b339a85602a00012ffedd","686d226cabeef709c732f8e1","686e310a24379610fc5cad79","5c2b339a85602a00012ffedd","2025-07-09T09:14:52.331Z","","","","","","MotivationQ","","","","","","","","","","","","","","","","","","","","","","","","","","","","","","","","","","","","","","50"
"","","","","ctl-task-cpt","45","519231","0.0-10.0-0.1","13","1","2025-07-09 09:06:33","7701e855f2ef39aa3fd6c71abdc6918a","178.212.218.14","Mozilla/5.0 (Windows NT 10.0; Win64; x64; rv:140.0) Gecko/20100101 Firefox/140.0","","Firefox","140.0","Windows","10.0","https://app.prolific.com/","pl,en-US;q=0.7,en;q=0.3","5c2b339a85602a00012ffedd","686d226cabeef709c732f8e1","686e310a24379610fc5cad79","5c2b339a85602a00012ffedd","2025-07-09T09:15:14.379Z","","","","","","","","","","","","","","","","win-only","3","g1:SW,g2:NE","0.9","2","0","500166","1080","6082","19044","1","4","4","6","1","1","-1","0","1","0","1032","3000","1850","[""down"",""left""]","{""num_key_presses"":5,""num_perfect"":3,""num_errors"":2,""num_randdir"":0,""num_randdir_good_moves"":0,""num_whilered"":0,""num_whileblue"":1,""num_blue"":1,""num_good_moves"":4}","[566.4285714285714,550.1285683768136,0,566.4285714285714,550.1285683768136,101,566.4285714285714,550.1285683768136,204,566.4285714285714,550.1285683768136,304,566.4285714285714,550.1285683768136,405,565.4285714285714,550.1285683768136,509,297.42857142857144,793.1285683768136,616,268.42857142857144,827.1285683768136,716,170.42857142857144,975.1285683768136,817,141.42857142857144,1020.1285683768136,921,140.42857142857144,1021.1285683768136,1021,140.42857142857144,1021.1285683768136,1124,168.42857142857144,1017.1285683768136,1224,685.4285714285714,839.1285683768136,1324,770.4285714285714,819.1285683768136,1425,770.4285714285714,819.1285683768136,1525,770.4285714285714,819.1285683768136,1628,770.4285714285714,819.1285683768136,1732,770.4285714285714,819.1285683768136,1835,770.4285714285714,819.1285683768136,1939,770.4285714285714,819.1285683768136,2044,770.4285714285714,819.1285683768136,2148,770.4285714285714,819.1285683768136,2249,770.4285714285714,819.1285683768136,2349,770.4285714285714,819.1285683768136,2449,770.4285714285714,819.1285683768136,2551,770.4285714285714,819.1285683768136,2653,770.4285714285714,819.1285683768136,2758,770.4285714285714,819.1285683768136,2862,770.4285714285714,819.1285683768136,2962,770.4285714285714,819.1285683768136,3067,770.4285714285714,819.1285683768136,3168,770.4285714285714,819.1285683768136,3270,770.4285714285714,819.1285683768136,3370,770.4285714285714,819.1285683768136,3470,770.4285714285714,819.1285683768136,3570,770.4285714285714,819.1285683768136,3671,770.4285714285714,819.1285683768136,3772,770.4285714285714,819.1285683768136,3872,770.4285714285714,819.1285683768136,3976,770.4285714285714,819.1285683768136,4081,770.4285714285714,819.1285683768136,4184,770.4285714285714,819.1285683768136,4286,770.4285714285714,819.1285683768136,4388,770.4285714285714,819.1285683768136,4492,770.4285714285714,819.1285683768136,4594,770.4285714285714,819.1285683768136,4699,770.4285714285714,819.1285683768136,4799,770.4285714285714,819.1285683768136,4900]","[443,443,1000,0,-557,""error"",""-"",""-"",""no_move"",4303,3860,2394.2,1445,464.8,""smooth"",""down"",""down"",""good_move"",8040,3736,3291.4,4304,444.6,""smooth"",""left"",""left"",""good_move"",11088,3048,2576.2,8040,471.8,""smooth"",""left"",""left"",""good_move"",12861,1773,1241,11088,532,""while_blue"",""down"",""down"",""good_move""]","",""
"3657","","<div style=""width:500px;"">
  <p>What determined the result of this run?</p>
  </div>","100","html-slider-response","46","522892","0.0-10.0-1.1","13","1","2025-07-09 09:06:33","7701e855f2ef39aa3fd6c71abdc6918a","178.212.218.14","Mozilla/5.0 (Windows NT 10.0; Win64; x64; rv:140.0) Gecko/20100101 Firefox/140.0","","Firefox","140.0","Windows","10.0","https://app.prolific.com/","pl,en-US;q=0.7,en;q=0.3","5c2b339a85602a00012ffedd","686d226cabeef709c732f8e1","686e310a24379610fc5cad79","5c2b339a85602a00012ffedd","2025-07-09T09:15:18.039Z","","","","","","AttribQ","","","","","","","","","","","","","","","","","","","","","","","","","","","","","","","","","","","","","","50"
"2598","","<div style=""width:500px;"">
  <p>How much control did you have over the ball?</p>
  </div>","0","html-slider-response","47","525490","0.0-10.0-2.1","13","1","2025-07-09 09:06:33","7701e855f2ef39aa3fd6c71abdc6918a","178.212.218.14","Mozilla/5.0 (Windows NT 10.0; Win64; x64; rv:140.0) Gecko/20100101 Firefox/140.0","","Firefox","140.0","Windows","10.0","https://app.prolific.com/","pl,en-US;q=0.7,en;q=0.3","5c2b339a85602a00012ffedd","686d226cabeef709c732f8e1","686e310a24379610fc5cad79","5c2b339a85602a00012ffedd","2025-07-09T09:15:20.637Z","","","","","","ControlQ","","","","","","","","","","","","","","","","","","","","","","","","","","","","","","","","","","","","","","50"
"2230","","<div style=""width:500px;"">
  <p>How would you describe your current emotional state?</p>
  </div>","100","html-slider-response","48","527722","0.0-10.0-3.1","13","1","2025-07-09 09:06:33","7701e855f2ef39aa3fd6c71abdc6918a","178.212.218.14","Mozilla/5.0 (Windows NT 10.0; Win64; x64; rv:140.0) Gecko/20100101 Firefox/140.0","","Firefox","140.0","Windows","10.0","https://app.prolific.com/","pl,en-US;q=0.7,en;q=0.3","5c2b339a85602a00012ffedd","686d226cabeef709c732f8e1","686e310a24379610fc5cad79","5c2b339a85602a00012ffedd","2025-07-09T09:15:22.869Z","","","","","","StressQ","","","","","","","","","","","","","","","","","","","","","","","","","","","","","","","","","","","","","","50"
"3768","","<div style=""width:500px;"">
  <p>What best describes how you currently feel?</p>
  </div>","40","html-slider-response","49","531492","0.0-10.0-4.1","13","1","2025-07-09 09:06:33","7701e855f2ef39aa3fd6c71abdc6918a","178.212.218.14","Mozilla/5.0 (Windows NT 10.0; Win64; x64; rv:140.0) Gecko/20100101 Firefox/140.0","","Firefox","140.0","Windows","10.0","https://app.prolific.com/","pl,en-US;q=0.7,en;q=0.3","5c2b339a85602a00012ffedd","686d226cabeef709c732f8e1","686e310a24379610fc5cad79","5c2b339a85602a00012ffedd","2025-07-09T09:15:26.639Z","","","","","","MotivationQ","","","","","","","","","","","","","","","","","","","","","","","","","","","","","","","","","","","","","","50"
"","","","","ctl-task-cpt","50","573801","0.0-10.0-0.2","13","1","2025-07-09 09:06:33","7701e855f2ef39aa3fd6c71abdc6918a","178.212.218.14","Mozilla/5.0 (Windows NT 10.0; Win64; x64; rv:140.0) Gecko/20100101 Firefox/140.0","","Firefox","140.0","Windows","10.0","https://app.prolific.com/","pl,en-US;q=0.7,en;q=0.3","5c2b339a85602a00012ffedd","686d226cabeef709c732f8e1","686e310a24379610fc5cad79","5c2b339a85602a00012ffedd","2025-07-09T09:16:08.948Z","","","","","","","","","","","","","","","","win-only","3","g1:SW,g2:NE","0.8","3","0","534473","811","5816","39306","1","4","8","6","1","-1","-1","0","0","0","2751","3000","-2550","[""down"",""left""]","{""num_key_presses"":7,""num_perfect"":5,""num_errors"":0,""num_randdir"":2,""num_randdir_good_moves"":0,""num_whilered"":0,""num_whileblue"":0,""num_blue"":3,""num_good_moves"":5}","[556.4285714285714,560.1285683768136,0,556.4285714285714,559.1285683768136,102,556.4285714285714,559.1285683768136,204,556.4285714285714,559.1285683768136,304,520.4285714285714,585.1285683768136,406,468.42857142857144,633.1285683768136,506,464.42857142857144,640.1285683768136,607,464.42857142857144,640.1285683768136,707,640.4285714285714,621.1285683768136,808,687.4285714285714,578.1285683768136,910,674.4285714285714,593.1285683768136,1012,674.4285714285714,593.1285683768136,1115,674.4285714285714,593.1285683768136,1216,674.4285714285714,593.1285683768136,1316,674.4285714285714,593.1285683768136,1416,674.4285714285714,593.1285683768136,1518,674.4285714285714,593.1285683768136,1619,674.4285714285714,593.1285683768136,1720,674.4285714285714,593.1285683768136,1820,674.4285714285714,593.1285683768136,1925,546.4285714285714,625.1285683768136,2029,226.42857142857144,974.1285683768136,2129,33.42857142857143,1145.1285683768135,2231,33.42857142857143,1165.1285683768135,2336,207.42857142857144,1064.1285683768135,2438,230.42857142857144,998.1285683768136,2539,145.42857142857144,1001.1285683768136,2639,106.42857142857143,1009.1285683768136,2742,106.42857142857143,1009.1285683768136,2842,106.42857142857143,1009.1285683768136,2942,106.42857142857143,1009.1285683768136,3047,106.42857142857143,1009.1285683768136,3151,106.42857142857143,1009.1285683768136,3254,106.42857142857143,1009.1285683768136,3354,106.42857142857143,1009.1285683768136,3455,106.42857142857143,1009.1285683768136,3556,106.42857142857143,1009.1285683768136,3660,106.42857142857143,1009.1285683768136,3761,106.42857142857143,1009.1285683768136,3864,106.42857142857143,1009.1285683768136,3965,106.42857142857143,1009.1285683768136,4066,106.42857142857143,1009.1285683768136,4169,106.42857142857143,1009.1285683768136,4269,106.42857142857143,1009.1285683768136,4369,106.42857142857143,1009.1285683768136,4472,106.42857142857143,1009.1285683768136,4572,106.42857142857143,1009.1285683768136,4674,106.42857142857143,1009.1285683768136,4778,106.42857142857143,1009.1285683768136,4878,106.42857142857143,1009.1285683768136,4983]","[1542,1542,1000,0,542,""oops"",""left"",""right"",""bad_move"",5229,3686,3117.8,1543,568.2,""oops"",""left"",""up"",""bad_move"",7759,2530,2026.8,5229,503.2,""smooth"",""down"",""down"",""good_move"",10326,2567,2046.9,7759,520.1,""smooth"",""down"",""down"",""good_move"",13290,2964,2595.5,10326,368.5,""smooth"",""down"",""down"",""good_move"",23690,10399,2867.4,20433,389.6,""smooth"",""left"",""left"",""good_move"",30770,7080,2741.5,27588,440.5,""smooth"",""left"",""left"",""good_move""]","",""
"4595","","<div style=""width:500px;"">
  <p>What determined the result of this run?</p>
  </div>","0","html-slider-response","51","578399","0.0-10.0-1.2","13","1","2025-07-09 09:06:33","7701e855f2ef39aa3fd6c71abdc6918a","178.212.218.14","Mozilla/5.0 (Windows NT 10.0; Win64; x64; rv:140.0) Gecko/20100101 Firefox/140.0","","Firefox","140.0","Windows","10.0","https://app.prolific.com/","pl,en-US;q=0.7,en;q=0.3","5c2b339a85602a00012ffedd","686d226cabeef709c732f8e1","686e310a24379610fc5cad79","5c2b339a85602a00012ffedd","2025-07-09T09:16:13.546Z","","","","","","AttribQ","","","","","","","","","","","","","","","","","","","","","","","","","","","","","","","","","","","","","","50"
"2107","","<div style=""width:500px;"">
  <p>How much control did you have over the ball?</p>
  </div>","17","html-slider-response","52","580507","0.0-10.0-2.2","13","1","2025-07-09 09:06:33","7701e855f2ef39aa3fd6c71abdc6918a","178.212.218.14","Mozilla/5.0 (Windows NT 10.0; Win64; x64; rv:140.0) Gecko/20100101 Firefox/140.0","","Firefox","140.0","Windows","10.0","https://app.prolific.com/","pl,en-US;q=0.7,en;q=0.3","5c2b339a85602a00012ffedd","686d226cabeef709c732f8e1","686e310a24379610fc5cad79","5c2b339a85602a00012ffedd","2025-07-09T09:16:15.654Z","","","","","","ControlQ","","","","","","","","","","","","","","","","","","","","","","","","","","","","","","","","","","","","","","50"
"2012","","<div style=""width:500px;"">
  <p>How would you describe your current emotional state?</p>
  </div>","100","html-slider-response","53","582520","0.0-10.0-3.2","13","1","2025-07-09 09:06:33","7701e855f2ef39aa3fd6c71abdc6918a","178.212.218.14","Mozilla/5.0 (Windows NT 10.0; Win64; x64; rv:140.0) Gecko/20100101 Firefox/140.0","","Firefox","140.0","Windows","10.0","https://app.prolific.com/","pl,en-US;q=0.7,en;q=0.3","5c2b339a85602a00012ffedd","686d226cabeef709c732f8e1","686e310a24379610fc5cad79","5c2b339a85602a00012ffedd","2025-07-09T09:16:17.667Z","","","","","","StressQ","","","","","","","","","","","","","","","","","","","","","","","","","","","","","","","","","","","","","","50"
"2131","","<div style=""width:500px;"">
  <p>What best describes how you currently feel?</p>
  </div>","13","html-slider-response","54","584652","0.0-10.0-4.2","13","1","2025-07-09 09:06:33","7701e855f2ef39aa3fd6c71abdc6918a","178.212.218.14","Mozilla/5.0 (Windows NT 10.0; Win64; x64; rv:140.0) Gecko/20100101 Firefox/140.0","","Firefox","140.0","Windows","10.0","https://app.prolific.com/","pl,en-US;q=0.7,en;q=0.3","5c2b339a85602a00012ffedd","686d226cabeef709c732f8e1","686e310a24379610fc5cad79","5c2b339a85602a00012ffedd","2025-07-09T09:16:19.799Z","","","","","","MotivationQ","","","","","","","","","","","","","","","","","","","","","","","","","","","","","","","","","","","","","","50"
"","","","","ctl-task-cpt","55","618361","0.0-10.0-0.3","13","1","2025-07-09 09:06:33","7701e855f2ef39aa3fd6c71abdc6918a","178.212.218.14","Mozilla/5.0 (Windows NT 10.0; Win64; x64; rv:140.0) Gecko/20100101 Firefox/140.0","","Firefox","140.0","Windows","10.0","https://app.prolific.com/","pl,en-US;q=0.7,en;q=0.3","5c2b339a85602a00012ffedd","686d226cabeef709c732f8e1","686e310a24379610fc5cad79","5c2b339a85602a00012ffedd","2025-07-09T09:16:53.508Z","","","","","","","","","","","","","","","","win-only","2","g1:SE,g2:NW","0.7","4","0","587634","902","5908","30706","1","4","4","6","1","1","1","1","0","0.007575757575757576","1028","3000","1530","[""down"",""right""]","{""num_key_presses"":4,""num_perfect"":4,""num_errors"":0,""num_randdir"":0,""num_randdir_good_moves"":0,""num_whilered"":0,""num_whileblue"":0,""num_blue"":4,""num_good_moves"":4}","[557.4285714285714,553.1285683768136,1,557.4285714285714,553.1285683768136,105,557.4285714285714,553.1285683768136,210,557.4285714285714,553.1285683768136,310,557.4285714285714,553.1285683768136,413,557.4285714285714,553.1285683768136,519,635.4285714285714,732.1285683768136,626,713.4285714285714,927.1285683768136,728,885.4285714285714,989.1285683768136,830,927.4285714285714,1006.1285683768136,930,1002.4285714285714,1005.1285683768136,1030,1002.4285714285714,1005.1285683768136,1134,1002.4285714285714,1005.1285683768136,1235,1081.4285714285713,883.1285683768136,1336,1250.4285714285713,677.1285683768136,1440,1259.4285714285713,662.1285683768136,1543,1453.4285714285713,588.1285683768136,1647,1691.4285714285713,541.1285683768136,1750,1691.4285714285713,539.1285683768136,1856,1691.4285714285713,539.1285683768136,1957,1691.4285714285713,539.1285683768136,2057,1691.4285714285713,539.1285683768136,2159,1691.4285714285713,539.1285683768136,2260,1691.4285714285713,539.1285683768136,2365,1691.4285714285713,539.1285683768136,2465,1691.4285714285713,539.1285683768136,2567,1691.4285714285713,539.1285683768136,2667,1691.4285714285713,539.1285683768136,2771,1691.4285714285713,539.1285683768136,2872,1691.4285714285713,539.1285683768136,2972,1691.4285714285713,539.1285683768136,3073,1691.4285714285713,539.1285683768136,3174,1691.4285714285713,539.1285683768136,3278,1691.4285714285713,539.1285683768136,3379,1691.4285714285713,539.1285683768136,3480,1691.4285714285713,539.1285683768136,3584,1691.4285714285713,539.1285683768136,3689,1691.4285714285713,539.1285683768136,3789,1691.4285714285713,539.1285683768136,3891,1691.4285714285713,539.1285683768136,3994,1691.4285714285713,539.1285683768136,4098,1691.4285714285713,539.1285683768136,4204,1691.4285714285713,539.1285683768136,4304,1691.4285714285713,539.1285683768136,4406,1691.4285714285713,539.1285683768136,4509,1691.4285714285713,539.1285683768136,4612,1691.4285714285713,539.1285683768136,4714,1691.4285714285713,539.1285683768136,4820,1691.4285714285713,539.1285683768136,4921]","[9486,9486,3018.9,6070,397.1,""smooth"",""down"",""down"",""good_move"",15837,6351,2499.9,12956,381.1,""smooth"",""down"",""down"",""good_move"",19051,3214,2628.9,15837,585.1,""smooth"",""right"",""right"",""good_move"",24689,5638,2432.7,21881,375.3,""smooth"",""right"",""right"",""good_move""]","",""
"2901","","<div style=""width:500px;"">
  <p>What determined the result of this run?</p>
  </div>","100","html-slider-response","56","621264","0.0-10.0-1.3","13","1","2025-07-09 09:06:33","7701e855f2ef39aa3fd6c71abdc6918a","178.212.218.14","Mozilla/5.0 (Windows NT 10.0; Win64; x64; rv:140.0) Gecko/20100101 Firefox/140.0","","Firefox","140.0","Windows","10.0","https://app.prolific.com/","pl,en-US;q=0.7,en;q=0.3","5c2b339a85602a00012ffedd","686d226cabeef709c732f8e1","686e310a24379610fc5cad79","5c2b339a85602a00012ffedd","2025-07-09T09:16:56.411Z","","","","","","AttribQ","","","","","","","","","","","","","","","","","","","","","","","","","","","","","","","","","","","","","","50"
"1882","","<div style=""width:500px;"">
  <p>How much control did you have over the ball?</p>
  </div>","100","html-slider-response","57","623148","0.0-10.0-2.3","13","1","2025-07-09 09:06:33","7701e855f2ef39aa3fd6c71abdc6918a","178.212.218.14","Mozilla/5.0 (Windows NT 10.0; Win64; x64; rv:140.0) Gecko/20100101 Firefox/140.0","","Firefox","140.0","Windows","10.0","https://app.prolific.com/","pl,en-US;q=0.7,en;q=0.3","5c2b339a85602a00012ffedd","686d226cabeef709c732f8e1","686e310a24379610fc5cad79","5c2b339a85602a00012ffedd","2025-07-09T09:16:58.295Z","","","","","","ControlQ","","","","","","","","","","","","","","","","","","","","","","","","","","","","","","","","","","","","","","50"
"1786","","<div style=""width:500px;"">
  <p>How would you describe your current emotional state?</p>
  </div>","23","html-slider-response","58","624935","0.0-10.0-3.3","13","1","2025-07-09 09:06:33","7701e855f2ef39aa3fd6c71abdc6918a","178.212.218.14","Mozilla/5.0 (Windows NT 10.0; Win64; x64; rv:140.0) Gecko/20100101 Firefox/140.0","","Firefox","140.0","Windows","10.0","https://app.prolific.com/","pl,en-US;q=0.7,en;q=0.3","5c2b339a85602a00012ffedd","686d226cabeef709c732f8e1","686e310a24379610fc5cad79","5c2b339a85602a00012ffedd","2025-07-09T09:17:00.082Z","","","","","","StressQ","","","","","","","","","","","","","","","","","","","","","","","","","","","","","","","","","","","","","","50"
"2364","","<div style=""width:500px;"">
  <p>What best describes how you currently feel?</p>
  </div>","75","html-slider-response","59","627300","0.0-10.0-4.3","13","1","2025-07-09 09:06:33","7701e855f2ef39aa3fd6c71abdc6918a","178.212.218.14","Mozilla/5.0 (Windows NT 10.0; Win64; x64; rv:140.0) Gecko/20100101 Firefox/140.0","","Firefox","140.0","Windows","10.0","https://app.prolific.com/","pl,en-US;q=0.7,en;q=0.3","5c2b339a85602a00012ffedd","686d226cabeef709c732f8e1","686e310a24379610fc5cad79","5c2b339a85602a00012ffedd","2025-07-09T09:17:02.447Z","","","","","","MotivationQ","","","","","","","","","","","","","","","","","","","","","","","","","","","","","","","","","","","","","","50"
"","","","","ctl-task-cpt","60","657510","0.0-10.0-0.4","13","1","2025-07-09 09:06:33","7701e855f2ef39aa3fd6c71abdc6918a","178.212.218.14","Mozilla/5.0 (Windows NT 10.0; Win64; x64; rv:140.0) Gecko/20100101 Firefox/140.0","","Firefox","140.0","Windows","10.0","https://app.prolific.com/","pl,en-US;q=0.7,en;q=0.3","5c2b339a85602a00012ffedd","686d226cabeef709c732f8e1","686e310a24379610fc5cad79","5c2b339a85602a00012ffedd","2025-07-09T09:17:32.657Z","","","","","","","","","","","","","","","","win-only","0","g1:NW,g2:SE","0.6","5","0","630281","779","5785","27208","1","4","8","6","2","8","8","9","1","0.06818181818181818","912","3000","820","[""down"",""right""]","{""num_key_presses"":6,""num_perfect"":5,""num_errors"":0,""num_randdir"":1,""num_randdir_good_moves"":1,""num_whilered"":0,""num_whileblue"":0,""num_blue"":1,""num_good_moves"":6}","[554.4285714285714,542.1285683768136,0,554.4285714285714,542.1285683768136,106,554.4285714285714,542.1285683768136,206,554.4285714285714,542.1285683768136,307,554.4285714285714,542.1285683768136,408,676.4285714285714,714.1285683768136,512,943.4285714285714,1024.1285683768135,613,948.4285714285714,1040.1285683768135,717,948.4285714285714,1040.1285683768135,821,970.4285714285714,1025.1285683768135,923,970.4285714285714,1025.1285683768135,1028,1019.4285714285714,1014.1285683768136,1130,1577.4285714285713,873.1285683768136,1231,1704.4285714285713,831.1285683768136,1334,1700.4285714285713,823.1285683768136,1438,1700.4285714285713,823.1285683768136,1543,1700.4285714285713,823.1285683768136,1645,1700.4285714285713,823.1285683768136,1747,1700.4285714285713,823.1285683768136,1848,1700.4285714285713,823.1285683768136,1953,1700.4285714285713,823.1285683768136,2057,1700.4285714285713,823.1285683768136,2161,1700.4285714285713,823.1285683768136,2261,1700.4285714285713,823.1285683768136,2366,1700.4285714285713,823.1285683768136,2466,1700.4285714285713,823.1285683768136,2567,1700.4285714285713,823.1285683768136,2672,1700.4285714285713,823.1285683768136,2772,1700.4285714285713,823.1285683768136,2873,1700.4285714285713,823.1285683768136,2974,1700.4285714285713,823.1285683768136,3077,1700.4285714285713,823.1285683768136,3177,1700.4285714285713,823.1285683768136,3277,1700.4285714285713,823.1285683768136,3377,1700.4285714285713,823.1285683768136,3479,1700.4285714285713,823.1285683768136,3584,1700.4285714285713,823.1285683768136,3685,1700.4285714285713,823.1285683768136,3789,1700.4285714285713,823.1285683768136,3894,1700.4285714285713,823.1285683768136,3995,1700.4285714285713,823.1285683768136,4095,1700.4285714285713,823.1285683768136,4197,1700.4285714285713,823.1285683768136,4298,1700.4285714285713,823.1285683768136,4400,1700.4285714285713,823.1285683768136,4501,1700.4285714285713,823.1285683768136,4602,1700.4285714285713,823.1285683768136,4706,1700.4285714285713,823.1285683768136,4810,1700.4285714285713,823.1285683768136,4910]","[1576,1576,1000,0,576,""smooth"",""down"",""down"",""good_move"",4818,3242,2804.4,1576,437.6,""smooth"",""down"",""down"",""good_move"",7998,3180,2692.5,4818,487.5,""smooth"",""down"",""down"",""good_move"",13963,5965,2336.5,11288,338.5,""smooth"",""right"",""right"",""good_move"",17898,3935,3535.8,13963,399.2,""smooth"",""right"",""right"",""good_move"",21311,3413,3028.6,17898,384.4,""oops"",""right"",""right"",""good_move""]","",""
"5774","","<div style=""width:500px;"">
  <p>What determined the result of this run?</p>
  </div>","100","html-slider-response","61","663286","0.0-10.0-1.4","13","1","2025-07-09 09:06:33","7701e855f2ef39aa3fd6c71abdc6918a","178.212.218.14","Mozilla/5.0 (Windows NT 10.0; Win64; x64; rv:140.0) Gecko/20100101 Firefox/140.0","","Firefox","140.0","Windows","10.0","https://app.prolific.com/","pl,en-US;q=0.7,en;q=0.3","5c2b339a85602a00012ffedd","686d226cabeef709c732f8e1","686e310a24379610fc5cad79","5c2b339a85602a00012ffedd","2025-07-09T09:17:38.433Z","","","","","","AttribQ","","","","","","","","","","","","","","","","","","","","","","","","","","","","","","","","","","","","","","50"
"1965","","<div style=""width:500px;"">
  <p>How much control did you have over the ball?</p>
  </div>","100","html-slider-response","62","665253","0.0-10.0-2.4","13","1","2025-07-09 09:06:33","7701e855f2ef39aa3fd6c71abdc6918a","178.212.218.14","Mozilla/5.0 (Windows NT 10.0; Win64; x64; rv:140.0) Gecko/20100101 Firefox/140.0","","Firefox","140.0","Windows","10.0","https://app.prolific.com/","pl,en-US;q=0.7,en;q=0.3","5c2b339a85602a00012ffedd","686d226cabeef709c732f8e1","686e310a24379610fc5cad79","5c2b339a85602a00012ffedd","2025-07-09T09:17:40.401Z","","","","","","ControlQ","","","","","","","","","","","","","","","","","","","","","","","","","","","","","","","","","","","","","","50"
"3723","","<div style=""width:500px;"">
  <p>How would you describe your current emotional state?</p>
  </div>","0","html-slider-response","63","668979","0.0-10.0-3.4","13","1","2025-07-09 09:06:33","7701e855f2ef39aa3fd6c71abdc6918a","178.212.218.14","Mozilla/5.0 (Windows NT 10.0; Win64; x64; rv:140.0) Gecko/20100101 Firefox/140.0","","Firefox","140.0","Windows","10.0","https://app.prolific.com/","pl,en-US;q=0.7,en;q=0.3","5c2b339a85602a00012ffedd","686d226cabeef709c732f8e1","686e310a24379610fc5cad79","5c2b339a85602a00012ffedd","2025-07-09T09:17:44.126Z","","","","","","StressQ","","","","","","","","","","","","","","","","","","","","","","","","","","","","","","","","","","","","","","50"
"1794","","<div style=""width:500px;"">
  <p>What best describes how you currently feel?</p>
  </div>","100","html-slider-response","64","670775","0.0-10.0-4.4","13","1","2025-07-09 09:06:33","7701e855f2ef39aa3fd6c71abdc6918a","178.212.218.14","Mozilla/5.0 (Windows NT 10.0; Win64; x64; rv:140.0) Gecko/20100101 Firefox/140.0","","Firefox","140.0","Windows","10.0","https://app.prolific.com/","pl,en-US;q=0.7,en;q=0.3","5c2b339a85602a00012ffedd","686d226cabeef709c732f8e1","686e310a24379610fc5cad79","5c2b339a85602a00012ffedd","2025-07-09T09:17:45.922Z","","","","","","MotivationQ","","","","","","","","","","","","","","","","","","","","","","","","","","","","","","","","","","","","","","50"
"","","","","ctl-task-cpt","65","714104","0.0-10.0-0.5","13","1","2025-07-09 09:06:33","7701e855f2ef39aa3fd6c71abdc6918a","178.212.218.14","Mozilla/5.0 (Windows NT 10.0; Win64; x64; rv:140.0) Gecko/20100101 Firefox/140.0","","Firefox","140.0","Windows","10.0","https://app.prolific.com/","pl,en-US;q=0.7,en;q=0.3","5c2b339a85602a00012ffedd","686d226cabeef709c732f8e1","686e310a24379610fc5cad79","5c2b339a85602a00012ffedd","2025-07-09T09:18:29.251Z","","","","","","","","","","","","","","","","win-only","0","g1:NW,g2:SE","0.5","6","0","673756","968","5970","40326","1","4","4","6","2","-4","-5","4","9","0.030303030303030304","1020","3000","-2550","[""down"",""right""]","{""num_key_presses"":8,""num_perfect"":4,""num_errors"":1,""num_randdir"":3,""num_randdir_good_moves"":1,""num_whilered"":0,""num_whileblue"":0,""num_blue"":3,""num_good_moves"":5}","[557.4285714285714,545.1285683768136,0,557.4285714285714,544.1285683768136,105,557.4285714285714,544.1285683768136,208,557.4285714285714,544.1285683768136,310,557.4285714285714,544.1285683768136,412,557.4285714285714,544.1285683768136,513,903.4285714285714,773.1285683768136,613,1043.4285714285713,856.1285683768136,717,1033.4285714285713,929.1285683768136,822,1029.4285714285713,1011.1285683768136,924,1032.4285714285713,1031.1285683768135,1024,1037.4285714285713,1031.1285683768135,1124,1037.4285714285713,1031.1285683768135,1229,1037.4285714285713,1031.1285683768135,1335,1149.4285714285713,833.1285683768136,1439,1563.4285714285713,515.1285683768136,1543,1672.4285714285713,483.12856837681363,1645,1672.4285714285713,482.12856837681363,1747,1672.4285714285713,482.12856837681363,1851,1672.4285714285713,482.12856837681363,1951,1672.4285714285713,482.12856837681363,2054,1672.4285714285713,482.12856837681363,2160,1672.4285714285713,482.12856837681363,2261,1672.4285714285713,482.12856837681363,2362,1672.4285714285713,482.12856837681363,2464,1672.4285714285713,482.12856837681363,2565,1672.4285714285713,482.12856837681363,2670,1672.4285714285713,482.12856837681363,2770,1672.4285714285713,482.12856837681363,2874,1672.4285714285713,482.12856837681363,2975,1672.4285714285713,482.12856837681363,3081,1672.4285714285713,482.12856837681363,3183,1672.4285714285713,482.12856837681363,3288,1672.4285714285713,482.12856837681363,3391,1672.4285714285713,482.12856837681363,3497,1672.4285714285713,482.12856837681363,3599,1672.4285714285713,482.12856837681363,3703,1672.4285714285713,482.12856837681363,3806,1672.4285714285713,482.12856837681363,3907,1672.4285714285713,482.12856837681363,4012,1672.4285714285713,482.12856837681363,4113,1672.4285714285713,482.12856837681363,4217,1672.4285714285713,482.12856837681363,4319,1672.4285714285713,482.12856837681363,4419,1672.4285714285713,482.12856837681363,4522,1672.4285714285713,482.12856837681363,4627,1672.4285714285713,482.12856837681363,4728,1672.4285714285713,482.12856837681363,4841,1672.4285714285713,482.12856837681363,4943]","[1597,1597,1000,0,597,""smooth"",""down"",""down"",""good_move"",8455,6858,2523.4,5524,407.6,""oops"",""down"",""down"",""good_move"",13999,5544,2538,11147,314,""smooth"",""right"",""right"",""good_move"",19762,5763,2505.2,16867,389.8,""smooth"",""right"",""right"",""good_move"",23310,3548,3032.8,19762,515.2,""smooth"",""right"",""right"",""good_move"",26452,3142,2558.5,23310,583.5,""oops"",""down"",""up"",""bad_move"",27170,718,2204.2,26452,-1486.2,""error"",""-"",""-"",""no_move"",31673,4503,3135.4,28172,365.6,""oops"",""down"",""up"",""bad_move""]","",""
"2833","","<div style=""width:500px;"">
  <p>What determined the result of this run?</p>
  </div>","0","html-slider-response","66","716940","0.0-10.0-1.5","13","1","2025-07-09 09:06:33","7701e855f2ef39aa3fd6c71abdc6918a","178.212.218.14","Mozilla/5.0 (Windows NT 10.0; Win64; x64; rv:140.0) Gecko/20100101 Firefox/140.0","","Firefox","140.0","Windows","10.0","https://app.prolific.com/","pl,en-US;q=0.7,en;q=0.3","5c2b339a85602a00012ffedd","686d226cabeef709c732f8e1","686e310a24379610fc5cad79","5c2b339a85602a00012ffedd","2025-07-09T09:18:32.087Z","","","","","","AttribQ","","","","","","","","","","","","","","","","","","","","","","","","","","","","","","","","","","","","","","50"
"2159","","<div style=""width:500px;"">
  <p>How much control did you have over the ball?</p>
  </div>","0","html-slider-response","67","719100","0.0-10.0-2.5","13","1","2025-07-09 09:06:33","7701e855f2ef39aa3fd6c71abdc6918a","178.212.218.14","Mozilla/5.0 (Windows NT 10.0; Win64; x64; rv:140.0) Gecko/20100101 Firefox/140.0","","Firefox","140.0","Windows","10.0","https://app.prolific.com/","pl,en-US;q=0.7,en;q=0.3","5c2b339a85602a00012ffedd","686d226cabeef709c732f8e1","686e310a24379610fc5cad79","5c2b339a85602a00012ffedd","2025-07-09T09:18:34.247Z","","","","","","ControlQ","","","","","","","","","","","","","","","","","","","","","","","","","","","","","","","","","","","","","","50"
"2693","","<div style=""width:500px;"">
  <p>How would you describe your current emotional state?</p>
  </div>","100","html-slider-response","68","721795","0.0-10.0-3.5","13","1","2025-07-09 09:06:33","7701e855f2ef39aa3fd6c71abdc6918a","178.212.218.14","Mozilla/5.0 (Windows NT 10.0; Win64; x64; rv:140.0) Gecko/20100101 Firefox/140.0","","Firefox","140.0","Windows","10.0","https://app.prolific.com/","pl,en-US;q=0.7,en;q=0.3","5c2b339a85602a00012ffedd","686d226cabeef709c732f8e1","686e310a24379610fc5cad79","5c2b339a85602a00012ffedd","2025-07-09T09:18:36.942Z","","","","","","StressQ","","","","","","","","","","","","","","","","","","","","","","","","","","","","","","","","","","","","","","50"
"2253","","<div style=""width:500px;"">
  <p>What best describes how you currently feel?</p>
  </div>","0","html-slider-response","69","724049","0.0-10.0-4.5","13","1","2025-07-09 09:06:33","7701e855f2ef39aa3fd6c71abdc6918a","178.212.218.14","Mozilla/5.0 (Windows NT 10.0; Win64; x64; rv:140.0) Gecko/20100101 Firefox/140.0","","Firefox","140.0","Windows","10.0","https://app.prolific.com/","pl,en-US;q=0.7,en;q=0.3","5c2b339a85602a00012ffedd","686d226cabeef709c732f8e1","686e310a24379610fc5cad79","5c2b339a85602a00012ffedd","2025-07-09T09:18:39.196Z","","","","","","MotivationQ","","","","","","","","","","","","","","","","","","","","","","","","","","","","","","","","","","","","","","50"
"","","","","ctl-task-cpt","70","762202","0.0-10.0-0.6","13","1","2025-07-09 09:06:33","7701e855f2ef39aa3fd6c71abdc6918a","178.212.218.14","Mozilla/5.0 (Windows NT 10.0; Win64; x64; rv:140.0) Gecko/20100101 Firefox/140.0","","Firefox","140.0","Windows","10.0","https://app.prolific.com/","pl,en-US;q=0.7,en;q=0.3","5c2b339a85602a00012ffedd","686d226cabeef709c732f8e1","686e310a24379610fc5cad79","5c2b339a85602a00012ffedd","2025-07-09T09:19:17.349Z","","","","","","","","","","","","","","","","win-only","2","g1:SE,g2:NW","0.4","7","0","727031","1026","6030","35150","1","4","8","6","2","-8","-8","0","4","0","1148","3000","-2545","[""left"",""up""]","{""num_key_presses"":7,""num_perfect"":2,""num_errors"":0,""num_randdir"":5,""num_randdir_good_moves"":2,""num_whilered"":0,""num_whileblue"":0,""num_blue"":2,""num_good_moves"":4}","[562.4285714285714,539.1285683768136,0,562.4285714285714,539.1285683768136,102,562.4285714285714,539.1285683768136,205,562.4285714285714,539.1285683768136,310,562.4285714285714,539.1285683768136,412,562.4285714285714,539.1285683768136,512,562.4285714285714,539.1285683768136,616,562.4285714285714,539.1285683768136,716,406.42857142857144,348.12856837681363,819,232.42857142857144,226.12856837681363,921,97.42857142857143,148.12856837681363,1023,97.42857142857143,113.12856837681362,1124,97.42857142857143,112.12856837681362,1225,97.42857142857143,112.12856837681362,1327,97.42857142857143,112.12856837681362,1431,97.42857142857143,112.12856837681362,1533,97.42857142857143,112.12856837681362,1635,97.42857142857143,112.12856837681362,1737,97.42857142857143,112.12856837681362,1838,97.42857142857143,112.12856837681362,1938,97.42857142857143,112.12856837681362,2038,97.42857142857143,112.12856837681362,2138,97.42857142857143,112.12856837681362,2238,97.42857142857143,112.12856837681362,2342,97.42857142857143,112.12856837681362,2446,97.42857142857143,112.12856837681362,2547,97.42857142857143,112.12856837681362,2647,97.42857142857143,112.12856837681362,2751,97.42857142857143,112.12856837681362,2855,97.42857142857143,112.12856837681362,2955,97.42857142857143,112.12856837681362,3060,97.42857142857143,112.12856837681362,3162,97.42857142857143,112.12856837681362,3262,97.42857142857143,112.12856837681362,3364,97.42857142857143,112.12856837681362,3468,97.42857142857143,112.12856837681362,3573,97.42857142857143,112.12856837681362,3673,97.42857142857143,112.12856837681362,3773,97.42857142857143,112.12856837681362,3874,97.42857142857143,112.12856837681362,3978,97.42857142857143,112.12856837681362,4080,97.42857142857143,112.12856837681362,4180,97.42857142857143,112.12856837681362,4285,97.42857142857143,112.12856837681362,4388,97.42857142857143,112.12856837681362,4489,97.42857142857143,112.12856837681362,4594,97.42857142857143,112.12856837681362,4694,97.42857142857143,112.12856837681362,4799,97.42857142857143,112.12856837681362,4905]","[1419,1419,1000,0,419,""oops"",""up"",""down"",""bad_move"",4247,2828,2449.3,1419,378.7,""smooth"",""up"",""up"",""good_move"",7131,2884,2563,4247,321,""oops"",""up"",""right"",""bad_move"",16976,9845,1949.3,14603,423.7,""oops"",""left"",""up"",""good_move"",19877,2901,2310.1,16976,590.9,""oops"",""left"",""right"",""bad_move"",23216,3339,2755.8,19877,583.2,""smooth"",""up"",""up"",""good_move"",25990,2774,2395.7,23216,378.3,""oops"",""up"",""left"",""good_move""]","",""
"4290","","<div style=""width:500px;"">
  <p>What determined the result of this run?</p>
  </div>","0","html-slider-response","71","766494","0.0-10.0-1.6","13","1","2025-07-09 09:06:33","7701e855f2ef39aa3fd6c71abdc6918a","178.212.218.14","Mozilla/5.0 (Windows NT 10.0; Win64; x64; rv:140.0) Gecko/20100101 Firefox/140.0","","Firefox","140.0","Windows","10.0","https://app.prolific.com/","pl,en-US;q=0.7,en;q=0.3","5c2b339a85602a00012ffedd","686d226cabeef709c732f8e1","686e310a24379610fc5cad79","5c2b339a85602a00012ffedd","2025-07-09T09:19:21.641Z","","","","","","AttribQ","","","","","","","","","","","","","","","","","","","","","","","","","","","","","","","","","","","","","","50"
"1684","","<div style=""width:500px;"">
  <p>How much control did you have over the ball?</p>
  </div>","0","html-slider-response","72","768177","0.0-10.0-2.6","13","1","2025-07-09 09:06:33","7701e855f2ef39aa3fd6c71abdc6918a","178.212.218.14","Mozilla/5.0 (Windows NT 10.0; Win64; x64; rv:140.0) Gecko/20100101 Firefox/140.0","","Firefox","140.0","Windows","10.0","https://app.prolific.com/","pl,en-US;q=0.7,en;q=0.3","5c2b339a85602a00012ffedd","686d226cabeef709c732f8e1","686e310a24379610fc5cad79","5c2b339a85602a00012ffedd","2025-07-09T09:19:23.325Z","","","","","","ControlQ","","","","","","","","","","","","","","","","","","","","","","","","","","","","","","","","","","","","","","50"
"2321","","<div style=""width:500px;"">
  <p>How would you describe your current emotional state?</p>
  </div>","97","html-slider-response","73","770501","0.0-10.0-3.6","13","1","2025-07-09 09:06:33","7701e855f2ef39aa3fd6c71abdc6918a","178.212.218.14","Mozilla/5.0 (Windows NT 10.0; Win64; x64; rv:140.0) Gecko/20100101 Firefox/140.0","","Firefox","140.0","Windows","10.0","https://app.prolific.com/","pl,en-US;q=0.7,en;q=0.3","5c2b339a85602a00012ffedd","686d226cabeef709c732f8e1","686e310a24379610fc5cad79","5c2b339a85602a00012ffedd","2025-07-09T09:19:25.648Z","","","","","","StressQ","","","","","","","","","","","","","","","","","","","","","","","","","","","","","","","","","","","","","","50"
"2379","","<div style=""width:500px;"">
  <p>What best describes how you currently feel?</p>
  </div>","3","html-slider-response","74","772882","0.0-10.0-4.6","13","1","2025-07-09 09:06:33","7701e855f2ef39aa3fd6c71abdc6918a","178.212.218.14","Mozilla/5.0 (Windows NT 10.0; Win64; x64; rv:140.0) Gecko/20100101 Firefox/140.0","","Firefox","140.0","Windows","10.0","https://app.prolific.com/","pl,en-US;q=0.7,en;q=0.3","5c2b339a85602a00012ffedd","686d226cabeef709c732f8e1","686e310a24379610fc5cad79","5c2b339a85602a00012ffedd","2025-07-09T09:19:28.029Z","","","","","","MotivationQ","","","","","","","","","","","","","","","","","","","","","","","","","","","","","","","","","","","","","","50"
"","","","","ctl-task-cpt","75","812124","0.0-10.0-0.7","13","1","2025-07-09 09:06:33","7701e855f2ef39aa3fd6c71abdc6918a","178.212.218.14","Mozilla/5.0 (Windows NT 10.0; Win64; x64; rv:140.0) Gecko/20100101 Firefox/140.0","","Firefox","140.0","Windows","10.0","https://app.prolific.com/","pl,en-US;q=0.7,en;q=0.3","5c2b339a85602a00012ffedd","686d226cabeef709c732f8e1","686e310a24379610fc5cad79","5c2b339a85602a00012ffedd","2025-07-09T09:20:07.271Z","","","","","","","","","","","","","","","","win-only","1","g1:NE,g2:SW","0.3","8","0","775864","727","5732","36238","1","4","4","6","2","4","3","3","0","0.022727272727272728","1113","3000","570","[""down"",""left""]","{""num_key_presses"":7,""num_perfect"":3,""num_errors"":1,""num_randdir"":3,""num_randdir_good_moves"":3,""num_whilered"":0,""num_whileblue"":0,""num_blue"":3,""num_good_moves"":6}","[553.4285714285714,542.1285683768136,0,553.4285714285714,542.1285683768136,101,553.4285714285714,542.1285683768136,201,553.4285714285714,542.1285683768136,303,553.4285714285714,542.1285683768136,405,553.4285714285714,542.1285683768136,510,553.4285714285714,542.1285683768136,614,553.4285714285714,542.1285683768136,716,347.42857142857144,789.1285683768136,820,178.42857142857144,955.1285683768136,925,178.42857142857144,954.1285683768136,1027,178.42857142857144,953.1285683768136,1128,177.42857142857144,950.1285683768136,1230,177.42857142857144,950.1285683768136,1331,177.42857142857144,950.1285683768136,1432,177.42857142857144,950.1285683768136,1532,177.42857142857144,950.1285683768136,1637,177.42857142857144,950.1285683768136,1740,177.42857142857144,950.1285683768136,1840,177.42857142857144,950.1285683768136,1942,177.42857142857144,950.1285683768136,2042,177.42857142857144,950.1285683768136,2144,177.42857142857144,950.1285683768136,2247,177.42857142857144,950.1285683768136,2347,177.42857142857144,950.1285683768136,2447,177.42857142857144,950.1285683768136,2552,177.42857142857144,950.1285683768136,2655,177.42857142857144,950.1285683768136,2757,177.42857142857144,950.1285683768136,2861,177.42857142857144,950.1285683768136,2962,177.42857142857144,950.1285683768136,3063,177.42857142857144,950.1285683768136,3167,177.42857142857144,950.1285683768136,3269,177.42857142857144,950.1285683768136,3375,177.42857142857144,950.1285683768136,3479,177.42857142857144,950.1285683768136,3583,177.42857142857144,950.1285683768136,3683,177.42857142857144,950.1285683768136,3789,177.42857142857144,950.1285683768136,3890,177.42857142857144,950.1285683768136,3996,177.42857142857144,950.1285683768136,4097,177.42857142857144,950.1285683768136,4197,177.42857142857144,950.1285683768136,4298,177.42857142857144,950.1285683768136,4403,177.42857142857144,950.1285683768136,4506,177.42857142857144,950.1285683768136,4606,177.42857142857144,950.1285683768136,4708,177.42857142857144,950.1285683768136,4810,177.42857142857144,950.1285683768136,4910]","[324,324,1000,0,-676,""error"",""-"",""-"",""no_move"",11254,10930,2237.3,8596,420.7,""oops"",""left"",""left"",""good_move"",14506,3252,2621.5,11254,630.5,""oops"",""left"",""left"",""good_move"",18159,3653,3237.8,14506,415.2,""oops"",""left"",""left"",""good_move"",25132,6972,2641.6,22123,367.4,""smooth"",""down"",""down"",""good_move"",28021,2889,2271.8,25132,617.2,""smooth"",""down"",""down"",""good_move"",30401,2380,1923.8,28021,456.2,""smooth"",""down"",""down"",""good_move""]","",""
"4146","","<div style=""width:500px;"">
  <p>What determined the result of this run?</p>
  </div>","92","html-slider-response","76","816273","0.0-10.0-1.7","13","1","2025-07-09 09:06:33","7701e855f2ef39aa3fd6c71abdc6918a","178.212.218.14","Mozilla/5.0 (Windows NT 10.0; Win64; x64; rv:140.0) Gecko/20100101 Firefox/140.0","","Firefox","140.0","Windows","10.0","https://app.prolific.com/","pl,en-US;q=0.7,en;q=0.3","5c2b339a85602a00012ffedd","686d226cabeef709c732f8e1","686e310a24379610fc5cad79","5c2b339a85602a00012ffedd","2025-07-09T09:20:11.420Z","","","","","","AttribQ","","","","","","","","","","","","","","","","","","","","","","","","","","","","","","","","","","","","","","50"
"1664","","<div style=""width:500px;"">
  <p>How much control did you have over the ball?</p>
  </div>","57","html-slider-response","77","817937","0.0-10.0-2.7","13","1","2025-07-09 09:06:33","7701e855f2ef39aa3fd6c71abdc6918a","178.212.218.14","Mozilla/5.0 (Windows NT 10.0; Win64; x64; rv:140.0) Gecko/20100101 Firefox/140.0","","Firefox","140.0","Windows","10.0","https://app.prolific.com/","pl,en-US;q=0.7,en;q=0.3","5c2b339a85602a00012ffedd","686d226cabeef709c732f8e1","686e310a24379610fc5cad79","5c2b339a85602a00012ffedd","2025-07-09T09:20:13.085Z","","","","","","ControlQ","","","","","","","","","","","","","","","","","","","","","","","","","","","","","","","","","","","","","","50"
"1839","","<div style=""width:500px;"">
  <p>How would you describe your current emotional state?</p>
  </div>","61","html-slider-response","78","819777","0.0-10.0-3.7","13","1","2025-07-09 09:06:33","7701e855f2ef39aa3fd6c71abdc6918a","178.212.218.14","Mozilla/5.0 (Windows NT 10.0; Win64; x64; rv:140.0) Gecko/20100101 Firefox/140.0","","Firefox","140.0","Windows","10.0","https://app.prolific.com/","pl,en-US;q=0.7,en;q=0.3","5c2b339a85602a00012ffedd","686d226cabeef709c732f8e1","686e310a24379610fc5cad79","5c2b339a85602a00012ffedd","2025-07-09T09:20:14.924Z","","","","","","StressQ","","","","","","","","","","","","","","","","","","","","","","","","","","","","","","","","","","","","","","50"
"1957","","<div style=""width:500px;"">
  <p>What best describes how you currently feel?</p>
  </div>","60","html-slider-response","79","821735","0.0-10.0-4.7","13","1","2025-07-09 09:06:33","7701e855f2ef39aa3fd6c71abdc6918a","178.212.218.14","Mozilla/5.0 (Windows NT 10.0; Win64; x64; rv:140.0) Gecko/20100101 Firefox/140.0","","Firefox","140.0","Windows","10.0","https://app.prolific.com/","pl,en-US;q=0.7,en;q=0.3","5c2b339a85602a00012ffedd","686d226cabeef709c732f8e1","686e310a24379610fc5cad79","5c2b339a85602a00012ffedd","2025-07-09T09:20:16.882Z","","","","","","MotivationQ","","","","","","","","","","","","","","","","","","","","","","","","","","","","","","","","","","","","","","50"
"","","","","ctl-task-cpt","80","858730","0.0-10.0-0.8","13","1","2025-07-09 09:06:33","7701e855f2ef39aa3fd6c71abdc6918a","178.212.218.14","Mozilla/5.0 (Windows NT 10.0; Win64; x64; rv:140.0) Gecko/20100101 Firefox/140.0","","Firefox","140.0","Windows","10.0","https://app.prolific.com/","pl,en-US;q=0.7,en;q=0.3","5c2b339a85602a00012ffedd","686d226cabeef709c732f8e1","686e310a24379610fc5cad79","5c2b339a85602a00012ffedd","2025-07-09T09:20:53.877Z","","","","","","","","","","","","","","","","win-only","3","g1:SW,g2:NE","0.2","9","0","824716","718","5722","33993","1","4","4","6","2","-4","-4","0","3","0","1600","3000","-2470","[""up"",""right""]","{""num_key_presses"":6,""num_perfect"":2,""num_errors"":0,""num_randdir"":4,""num_randdir_good_moves"":2,""num_whilered"":0,""num_whileblue"":0,""num_blue"":2,""num_good_moves"":4}","[550.4285714285714,550.1285683768136,0,550.4285714285714,550.1285683768136,102,550.4285714285714,550.1285683768136,203,550.4285714285714,550.1285683768136,308,550.4285714285714,550.1285683768136,408,550.4285714285714,550.1285683768136,508,550.4285714285714,550.1285683768136,613,550.4285714285714,550.1285683768136,713,550.4285714285714,550.1285683768136,817,480.42857142857144,697.1285683768136,922,365.42857142857144,864.1285683768136,1022,400.42857142857144,838.1285683768136,1126,929.4285714285714,376.12856837681363,1229,1049.4285714285713,229.12856837681363,1333,1103.4285714285713,158.12856837681363,1434,1057.4285714285713,90.12856837681362,1534,1048.4285714285713,78.12856837681362,1634,1048.4285714285713,78.12856837681362,1735,1048.4285714285713,78.12856837681362,1839,1048.4285714285713,78.12856837681362,1940,1048.4285714285713,78.12856837681362,2041,1048.4285714285713,78.12856837681362,2141,1048.4285714285713,78.12856837681362,2243,1048.4285714285713,78.12856837681362,2344,1048.4285714285713,78.12856837681362,2450,1048.4285714285713,78.12856837681362,2556,1048.4285714285713,78.12856837681362,2658,1048.4285714285713,78.12856837681362,2758,1048.4285714285713,78.12856837681362,2859,1048.4285714285713,78.12856837681362,2959,1048.4285714285713,78.12856837681362,3065,1048.4285714285713,78.12856837681362,3165,1048.4285714285713,78.12856837681362,3270,1048.4285714285713,78.12856837681362,3374,1048.4285714285713,78.12856837681362,3478,1048.4285714285713,78.12856837681362,3581,1048.4285714285713,78.12856837681362,3683,1048.4285714285713,78.12856837681362,3783,1048.4285714285713,78.12856837681362,3888,1048.4285714285713,78.12856837681362,3988,1048.4285714285713,78.12856837681362,4090,1048.4285714285713,78.12856837681362,4193,1048.4285714285713,78.12856837681362,4293,1048.4285714285713,78.12856837681362,4397,1048.4285714285713,78.12856837681362,4499,1048.4285714285713,78.12856837681362,4599,1048.4285714285713,78.12856837681362,4703,1048.4285714285713,78.12856837681362,4806,1048.4285714285713,78.12856837681362,4911]","[1728,1728,1000,0,728,""oops"",""right"",""right"",""good_move"",5636,3908,3031.1,1728,876.9,""oops"",""right"",""up"",""good_move"",12386,6750,2494.3,9447,444.7,""smooth"",""right"",""right"",""good_move"",15823,3437,2782.4,12386,654.6,""oops"",""right"",""down"",""bad_move"",23355,7531,3641.2,19327,386.8,""oops"",""up"",""down"",""bad_move"",25851,2496,2161.6,23355,334.4,""smooth"",""up"",""up"",""good_move""]","",""
"3095","","<div style=""width:500px;"">
  <p>What determined the result of this run?</p>
  </div>","2","html-slider-response","81","861827","0.0-10.0-1.8","13","1","2025-07-09 09:06:33","7701e855f2ef39aa3fd6c71abdc6918a","178.212.218.14","Mozilla/5.0 (Windows NT 10.0; Win64; x64; rv:140.0) Gecko/20100101 Firefox/140.0","","Firefox","140.0","Windows","10.0","https://app.prolific.com/","pl,en-US;q=0.7,en;q=0.3","5c2b339a85602a00012ffedd","686d226cabeef709c732f8e1","686e310a24379610fc5cad79","5c2b339a85602a00012ffedd","2025-07-09T09:20:56.974Z","","","","","","AttribQ","","","","","","","","","","","","","","","","","","","","","","","","","","","","","","","","","","","","","","50"
"1857","","<div style=""width:500px;"">
  <p>How much control did you have over the ball?</p>
  </div>","11","html-slider-response","82","863686","0.0-10.0-2.8","13","1","2025-07-09 09:06:33","7701e855f2ef39aa3fd6c71abdc6918a","178.212.218.14","Mozilla/5.0 (Windows NT 10.0; Win64; x64; rv:140.0) Gecko/20100101 Firefox/140.0","","Firefox","140.0","Windows","10.0","https://app.prolific.com/","pl,en-US;q=0.7,en;q=0.3","5c2b339a85602a00012ffedd","686d226cabeef709c732f8e1","686e310a24379610fc5cad79","5c2b339a85602a00012ffedd","2025-07-09T09:20:58.833Z","","","","","","ControlQ","","","","","","","","","","","","","","","","","","","","","","","","","","","","","","","","","","","","","","50"
"2239","","<div style=""width:500px;"">
  <p>How would you describe your current emotional state?</p>
  </div>","80","html-slider-response","83","865928","0.0-10.0-3.8","13","1","2025-07-09 09:06:33","7701e855f2ef39aa3fd6c71abdc6918a","178.212.218.14","Mozilla/5.0 (Windows NT 10.0; Win64; x64; rv:140.0) Gecko/20100101 Firefox/140.0","","Firefox","140.0","Windows","10.0","https://app.prolific.com/","pl,en-US;q=0.7,en;q=0.3","5c2b339a85602a00012ffedd","686d226cabeef709c732f8e1","686e310a24379610fc5cad79","5c2b339a85602a00012ffedd","2025-07-09T09:21:01.075Z","","","","","","StressQ","","","","","","","","","","","","","","","","","","","","","","","","","","","","","","","","","","","","","","50"
"2818","","<div style=""width:500px;"">
  <p>What best describes how you currently feel?</p>
  </div>","57","html-slider-response","84","868747","0.0-10.0-4.8","13","1","2025-07-09 09:06:33","7701e855f2ef39aa3fd6c71abdc6918a","178.212.218.14","Mozilla/5.0 (Windows NT 10.0; Win64; x64; rv:140.0) Gecko/20100101 Firefox/140.0","","Firefox","140.0","Windows","10.0","https://app.prolific.com/","pl,en-US;q=0.7,en;q=0.3","5c2b339a85602a00012ffedd","686d226cabeef709c732f8e1","686e310a24379610fc5cad79","5c2b339a85602a00012ffedd","2025-07-09T09:21:03.894Z","","","","","","MotivationQ","","","","","","","","","","","","","","","","","","","","","","","","","","","","","","","","","","","","","","50"
"","","","","ctl-task-cpt","85","904205","0.0-10.0-0.9","13","1","2025-07-09 09:06:33","7701e855f2ef39aa3fd6c71abdc6918a","178.212.218.14","Mozilla/5.0 (Windows NT 10.0; Win64; x64; rv:140.0) Gecko/20100101 Firefox/140.0","","Firefox","140.0","Windows","10.0","https://app.prolific.com/","pl,en-US;q=0.7,en;q=0.3","5c2b339a85602a00012ffedd","686d226cabeef709c732f8e1","686e310a24379610fc5cad79","5c2b339a85602a00012ffedd","2025-07-09T09:21:39.352Z","","","","","","","","","","","","","","","","win-only","1","g1:NE,g2:SW","0.4","10","0","871730","879","5882","32452","1","4","8","6","2","8","8","8","0","0.06060606060606061","924","3000","210","[""down"",""left""]","{""num_key_presses"":8,""num_perfect"":2,""num_errors"":0,""num_randdir"":6,""num_randdir_good_moves"":5,""num_whilered"":0,""num_whileblue"":0,""num_blue"":1,""num_good_moves"":7}","[566.4285714285714,542.1285683768136,0,566.4285714285714,542.1285683768136,102,566.4285714285714,542.1285683768136,206,566.4285714285714,542.1285683768136,307,566.4285714285714,542.1285683768136,409,566.4285714285714,542.1285683768136,514,443.42857142857144,705.1285683768136,617,170.42857142857144,1029.1285683768135,721,156.42857142857144,1044.1285683768135,822,154.42857142857144,1042.1285683768135,924,154.42857142857144,1039.1285683768135,1028,154.42857142857144,1039.1285683768135,1130,154.42857142857144,1039.1285683768135,1234,154.42857142857144,1039.1285683768135,1339,154.42857142857144,1039.1285683768135,1443,154.42857142857144,1039.1285683768135,1543,154.42857142857144,1039.1285683768135,1645,154.42857142857144,1039.1285683768135,1749,154.42857142857144,1039.1285683768135,1850,154.42857142857144,1039.1285683768135,1957,154.42857142857144,1039.1285683768135,2060,154.42857142857144,1039.1285683768135,2164,154.42857142857144,1039.1285683768135,2269,154.42857142857144,1039.1285683768135,2372,154.42857142857144,1039.1285683768135,2478,154.42857142857144,1039.1285683768135,2578,154.42857142857144,1039.1285683768135,2683,154.42857142857144,1039.1285683768135,2786,154.42857142857144,1039.1285683768135,2890,154.42857142857144,1039.1285683768135,2990,154.42857142857144,1039.1285683768135,3096,154.42857142857144,1039.1285683768135,3196,154.42857142857144,1039.1285683768135,3299,154.42857142857144,1039.1285683768135,3401,154.42857142857144,1039.1285683768135,3505,154.42857142857144,1039.1285683768135,3606,154.42857142857144,1039.1285683768135,3711,154.42857142857144,1039.1285683768135,3812,154.42857142857144,1039.1285683768135,3977,154.42857142857144,1039.1285683768135,4079,154.42857142857144,1039.1285683768135,4179,154.42857142857144,1039.1285683768135,4283,154.42857142857144,1039.1285683768135,4383,154.42857142857144,1039.1285683768135,4486,154.42857142857144,1039.1285683768135,4590,154.42857142857144,1039.1285683768135,4690,154.42857142857144,1039.1285683768135,4791,154.42857142857144,1039.1285683768135,4892,154.42857142857144,1039.1285683768135,4996]","[1423,1423,1000,0,423,""oops"",""left"",""left"",""good_move"",4377,2954,2596.7,1423,357.3,""oops"",""left"",""down"",""good_move"",11728,7351,3043.1,8316,368.9,""smooth"",""left"",""left"",""good_move"",14680,2952,2380.6,11728,571.4,""oops"",""left"",""down"",""good_move"",17816,3136,2742.4,14680,393.6,""oops"",""left"",""up"",""bad_move"",20323,2507,1988.2,17816,518.8,""oops"",""down"",""left"",""good_move"",23035,2712,2335.5,20323,376.5,""smooth"",""down"",""down"",""good_move"",26456,3421,3036.9,23035,384.1,""oops"",""down"",""down"",""good_move""]","",""
"2695","","<div style=""width:500px;"">
  <p>What determined the result of this run?</p>
  </div>","31","html-slider-response","86","906903","0.0-10.0-1.9","13","1","2025-07-09 09:06:33","7701e855f2ef39aa3fd6c71abdc6918a","178.212.218.14","Mozilla/5.0 (Windows NT 10.0; Win64; x64; rv:140.0) Gecko/20100101 Firefox/140.0","","Firefox","140.0","Windows","10.0","https://app.prolific.com/","pl,en-US;q=0.7,en;q=0.3","5c2b339a85602a00012ffedd","686d226cabeef709c732f8e1","686e310a24379610fc5cad79","5c2b339a85602a00012ffedd","2025-07-09T09:21:42.050Z","","","","","","AttribQ","","","","","","","","","","","","","","","","","","","","","","","","","","","","","","","","","","","","","","50"
"2390","","<div style=""width:500px;"">
  <p>How much control did you have over the ball?</p>
  </div>","37","html-slider-response","87","909295","0.0-10.0-2.9","13","1","2025-07-09 09:06:33","7701e855f2ef39aa3fd6c71abdc6918a","178.212.218.14","Mozilla/5.0 (Windows NT 10.0; Win64; x64; rv:140.0) Gecko/20100101 Firefox/140.0","","Firefox","140.0","Windows","10.0","https://app.prolific.com/","pl,en-US;q=0.7,en;q=0.3","5c2b339a85602a00012ffedd","686d226cabeef709c732f8e1","686e310a24379610fc5cad79","5c2b339a85602a00012ffedd","2025-07-09T09:21:44.442Z","","","","","","ControlQ","","","","","","","","","","","","","","","","","","","","","","","","","","","","","","","","","","","","","","50"
"1405","","<div style=""width:500px;"">
  <p>How would you describe your current emotional state?</p>
  </div>","35","html-slider-response","88","910702","0.0-10.0-3.9","13","1","2025-07-09 09:06:33","7701e855f2ef39aa3fd6c71abdc6918a","178.212.218.14","Mozilla/5.0 (Windows NT 10.0; Win64; x64; rv:140.0) Gecko/20100101 Firefox/140.0","","Firefox","140.0","Windows","10.0","https://app.prolific.com/","pl,en-US;q=0.7,en;q=0.3","5c2b339a85602a00012ffedd","686d226cabeef709c732f8e1","686e310a24379610fc5cad79","5c2b339a85602a00012ffedd","2025-07-09T09:21:45.849Z","","","","","","StressQ","","","","","","","","","","","","","","","","","","","","","","","","","","","","","","","","","","","","","","50"
"2776","","<div style=""width:500px;"">
  <p>What best describes how you currently feel?</p>
  </div>","63","html-slider-response","89","913480","0.0-10.0-4.9","13","1","2025-07-09 09:06:33","7701e855f2ef39aa3fd6c71abdc6918a","178.212.218.14","Mozilla/5.0 (Windows NT 10.0; Win64; x64; rv:140.0) Gecko/20100101 Firefox/140.0","","Firefox","140.0","Windows","10.0","https://app.prolific.com/","pl,en-US;q=0.7,en;q=0.3","5c2b339a85602a00012ffedd","686d226cabeef709c732f8e1","686e310a24379610fc5cad79","5c2b339a85602a00012ffedd","2025-07-09T09:21:48.627Z","","","","","","MotivationQ","","","","","","","","","","","","","","","","","","","","","","","","","","","","","","","","","","","","","","50"
"","","","","ctl-task-cpt","90","934377","0.0-10.0-0.10","13","1","2025-07-09 09:06:33","7701e855f2ef39aa3fd6c71abdc6918a","178.212.218.14","Mozilla/5.0 (Windows NT 10.0; Win64; x64; rv:140.0) Gecko/20100101 Firefox/140.0","","Firefox","140.0","Windows","10.0","https://app.prolific.com/","pl,en-US;q=0.7,en;q=0.3","5c2b339a85602a00012ffedd","686d226cabeef709c732f8e1","686e310a24379610fc5cad79","5c2b339a85602a00012ffedd","2025-07-09T09:22:09.524Z","","","","","","","","","","","","","","","","win-only","3","g1:SW,g2:NE","0.5","11","0","916461","863","5864","17894","1","4","4","6","1","1","1","9","8","0.06818181818181818","1844","3000","950","[""down"",""left""]","{""num_key_presses"":4,""num_perfect"":3,""num_errors"":0,""num_randdir"":1,""num_randdir_good_moves"":1,""num_whilered"":0,""num_whileblue"":0,""num_blue"":0,""num_good_moves"":4}","[557.4285714285714,541.1285683768136,0,557.4285714285714,541.1285683768136,104,557.4285714285714,541.1285683768136,208,557.4285714285714,541.1285683768136,308,557.4285714285714,541.1285683768136,410,557.4285714285714,541.1285683768136,511,557.4285714285714,541.1285683768136,613,557.4285714285714,541.1285683768136,715,557.4285714285714,541.1285683768136,815,557.4285714285714,541.1285683768136,917,757.4285714285714,405.12856837681363,1021,884.4285714285714,238.12856837681363,1124,911.4285714285714,191.12856837681363,1227,643.4285714285714,395.12856837681363,1330,-66.57142857142857,1198.1285683768135,1430,-89.57142857142857,1173.1285683768135,1535,-77.57142857142857,1145.1285683768135,1635,4.428571428571431,1063.1285683768135,1736,33.42857142857143,1037.1285683768135,1839,33.42857142857143,1037.1285683768135,1940,33.42857142857143,1037.1285683768135,2045,33.42857142857143,1037.1285683768135,2145,33.42857142857143,1037.1285683768135,2245,33.42857142857143,1037.1285683768135,2349,33.42857142857143,1037.1285683768135,2450,33.42857142857143,1037.1285683768135,2550,33.42857142857143,1037.1285683768135,2654,33.42857142857143,1037.1285683768135,2755,33.42857142857143,1037.1285683768135,2858,33.42857142857143,1037.1285683768135,2962,33.42857142857143,1037.1285683768135,3067,33.42857142857143,1037.1285683768135,3167,33.42857142857143,1037.1285683768135,3271,33.42857142857143,1037.1285683768135,3373,33.42857142857143,1037.1285683768135,3475,33.42857142857143,1037.1285683768135,3578,33.42857142857143,1037.1285683768135,3678,33.42857142857143,1037.1285683768135,3780,33.42857142857143,1037.1285683768135,3882,33.42857142857143,1037.1285683768135,3983,33.42857142857143,1037.1285683768135,4083,33.42857142857143,1037.1285683768135,4184,33.42857142857143,1037.1285683768135,4286,33.42857142857143,1037.1285683768135,4388,33.42857142857143,1037.1285683768135,4488,33.42857142857143,1037.1285683768135,4590,33.42857142857143,1037.1285683768135,4695,33.42857142857143,1037.1285683768135,4795,33.42857142857143,1037.1285683768135,4895,33.42857142857143,1037.1285683768135,4995]","[2259,2259,1000,0,1259,""smooth"",""left"",""left"",""good_move"",5499,3240,2722.4,2259,517.6,""oops"",""left"",""down"",""good_move"",8790,3291,2949.3,5499,341.7,""smooth"",""left"",""left"",""good_move"",11926,3136,2796.3,8790,339.7,""smooth"",""down"",""down"",""good_move""]","",""
"1462","","<div style=""width:500px;"">
  <p>What determined the result of this run?</p>
