"rt","response_timestamp","stimulus","response","trial_type","trial_index","time_elapsed","internal_node_id","run_id","condition","recorded_at","source_code_version","ip","user_agent","device","browser","browser_version","platform","platform_version","referer","accept_language","PROLIFIC_PID","STUDY_ID","SESSION_ID","prolific_id","realtime","view_history","question_order","consent","success","question_id","eventType","responses","item_order","radio_event_ids","radio_event_times","key_event_times","mouse_event_times","straightlining","zigzagging","honeypot","which_type","canvas_config","goals_layout","control_level","trial_number","tutorial_trial_number","trial_start_time","phase1_start_time","phase2_start_time","phase3_start_time","goal_1_value","goal_1_distance","goal_2_value","goal_2_distance","goal_selected","outcome","outcome_total","participant_final_score","participant_initial_score","participant_final_score_prop","goal_choice_rt","allocated_time","allocated_time_remaining","goal_direction","counts","mouse_movements","key_presses","correct","slider_start"
"21394","1752054200496","<p style='font-size:40px;line-height:1.25'><strong>Welcome to the experiment!</strong></p><p style='font-size:1.1em;line-height:1.25'>Thank you for your interest in our experiment! Before you begin, it is important that we obtain your informed consent to participate in the study.</p><p style='font-size:1.1em;line-height:1.25'>On the next screen will be an <strong>information sheet</strong> for you to read. To participate in the study we need you to read this information sheet and the following consent form carefully. If you agree with all the statements, please click the <strong>I agree</strong> button.</p><p style='font-size:1.1em;line-height:1.25'>Press <strong>Next</strong> to read the information sheet.</p>","0","custom-html-button-response","0","21397","0.0-0.0","236","1","2025-07-09 09:42:58","7701e855f2ef39aa3fd6c71abdc6918a","71.138.89.249","Mozilla/5.0 (Windows NT 10.0; Win64; x64) AppleWebKit/537.36 (KHTML, like Gecko) Chrome/138.0.0.0 Safari/537.36","WebKit","Chrome","138.0.0.0","Windows","10.0","https://app.prolific.com/","en-US,en;q=0.9","5f0a7dec44c42c19a6c9f6d9","686d226cabeef709c732f8e1","686e31475a02ab40e526ca71","5f0a7dec44c42c19a6c9f6d9","2025-07-09T09:43:20.497Z","","","","","","","","","","","","","","","","","","","","","","","","","","","","","","","","","","","","","","","","","","","",""
"63124","","","","instructions","1","84522","0.0-1.0","236","1","2025-07-09 09:42:58","7701e855f2ef39aa3fd6c71abdc6918a","71.138.89.249","Mozilla/5.0 (Windows NT 10.0; Win64; x64) AppleWebKit/537.36 (KHTML, like Gecko) Chrome/138.0.0.0 Safari/537.36","WebKit","Chrome","138.0.0.0","Windows","10.0","https://app.prolific.com/","en-US,en;q=0.9","5f0a7dec44c42c19a6c9f6d9","686d226cabeef709c732f8e1","686e31475a02ab40e526ca71","5f0a7dec44c42c19a6c9f6d9","","[{""page_index"":0,""viewing_time"":49609},{""page_index"":1,""viewing_time"":13513}]","","","","","","","","","","","","","","","","","","","","","","","","","","","","","","","","","","","","","","","","","","",""
"8112","","","{""Q0"":"""",""Q1"":"""",""Q2"":"""",""Q3"":"""",""Q4"":"""",""Q5"":"""",""Q6"":""I agree""}","survey-multi-choice","2","92638","0.0-2.0","236","1","2025-07-09 09:42:58","7701e855f2ef39aa3fd6c71abdc6918a","71.138.89.249","Mozilla/5.0 (Windows NT 10.0; Win64; x64) AppleWebKit/537.36 (KHTML, like Gecko) Chrome/138.0.0.0 Safari/537.36","WebKit","Chrome","138.0.0.0","Windows","10.0","https://app.prolific.com/","en-US,en;q=0.9","5f0a7dec44c42c19a6c9f6d9","686d226cabeef709c732f8e1","686e31475a02ab40e526ca71","5f0a7dec44c42c19a6c9f6d9","","","[0,1,2,3,4,5,6]","true","","","","","","","","","","","","","","","","","","","","","","","","","","","","","","","","","","","","","","","","",""
"14082","","","","fullscreen","3","107725","0.0-4.0","236","1","2025-07-09 09:42:58","7701e855f2ef39aa3fd6c71abdc6918a","71.138.89.249","Mozilla/5.0 (Windows NT 10.0; Win64; x64) AppleWebKit/537.36 (KHTML, like Gecko) Chrome/138.0.0.0 Safari/537.36","WebKit","Chrome","138.0.0.0","Windows","10.0","https://app.prolific.com/","en-US,en;q=0.9","5f0a7dec44c42c19a6c9f6d9","686d226cabeef709c732f8e1","686e31475a02ab40e526ca71","5f0a7dec44c42c19a6c9f6d9","","","","","true","","","","","","","","","","","","","","","","","","","","","","","","","","","","","","","","","","","","","","","",""
"4492","1752054291319"," <p style='font-size:1.1em;line-height:1.25'>Thank you for completing the consent form and closing all other tabs.</p><p style='font-size:1.1em;line-height:1.25'>We will now invite you to fill in some demographic information and questionnaires, before starting the game.<br>This will take about 5 minutes.<br></p><p style='font-size:1.1em;line-height:1.25'>Press the <strong>Next</strong> button to continue.</p>","0","custom-html-button-response","4","112220","0.0-5.0","236","1","2025-07-09 09:42:58","7701e855f2ef39aa3fd6c71abdc6918a","71.138.89.249","Mozilla/5.0 (Windows NT 10.0; Win64; x64) AppleWebKit/537.36 (KHTML, like Gecko) Chrome/138.0.0.0 Safari/537.36","WebKit","Chrome","138.0.0.0","Windows","10.0","https://app.prolific.com/","en-US,en;q=0.9","5f0a7dec44c42c19a6c9f6d9","686d226cabeef709c732f8e1","686e31475a02ab40e526ca71","5f0a7dec44c42c19a6c9f6d9","2025-07-09T09:44:51.320Z","","","","","","","","","","","","","","","","","","","","","","","","","","","","","","","","","","","","","","","","","","","",""
"4709","","","{""age"":""37""}","survey-text","5","116934","0.0-6.0-0.0","236","1","2025-07-09 09:42:58","7701e855f2ef39aa3fd6c71abdc6918a","71.138.89.249","Mozilla/5.0 (Windows NT 10.0; Win64; x64) AppleWebKit/537.36 (KHTML, like Gecko) Chrome/138.0.0.0 Safari/537.36","WebKit","Chrome","138.0.0.0","Windows","10.0","https://app.prolific.com/","en-US,en;q=0.9","5f0a7dec44c42c19a6c9f6d9","686d226cabeef709c732f8e1","686e31475a02ab40e526ca71","5f0a7dec44c42c19a6c9f6d9","","","","","","0","demographics","","","","","","","","","","","","","","","","","","","","","","","","","","","","","","","","","","","","","",""
"6467","","","{""gender_identity"":""female/woman""}","survey-multi-choice","6","123402","0.0-6.0-1.0","236","1","2025-07-09 09:42:58","7701e855f2ef39aa3fd6c71abdc6918a","71.138.89.249","Mozilla/5.0 (Windows NT 10.0; Win64; x64) AppleWebKit/537.36 (KHTML, like Gecko) Chrome/138.0.0.0 Safari/537.36","WebKit","Chrome","138.0.0.0","Windows","10.0","https://app.prolific.com/","en-US,en;q=0.9","5f0a7dec44c42c19a6c9f6d9","686d226cabeef709c732f8e1","686e31475a02ab40e526ca71","5f0a7dec44c42c19a6c9f6d9","","","[0]","","","1","demographics","","","","","","","","","","","","","","","","","","","","","","","","","","","","","","","","","","","","","",""
"4094","","","{""assigned_sex"":""female""}","survey-multi-choice","7","127497","0.0-6.0-2.0","236","1","2025-07-09 09:42:58","7701e855f2ef39aa3fd6c71abdc6918a","71.138.89.249","Mozilla/5.0 (Windows NT 10.0; Win64; x64) AppleWebKit/537.36 (KHTML, like Gecko) Chrome/138.0.0.0 Safari/537.36","WebKit","Chrome","138.0.0.0","Windows","10.0","https://app.prolific.com/","en-US,en;q=0.9","5f0a7dec44c42c19a6c9f6d9","686d226cabeef709c732f8e1","686e31475a02ab40e526ca71","5f0a7dec44c42c19a6c9f6d9","","","[0]","","","2","demographics","","","","","","","","","","","","","","","","","","","","","","","","","","","","","","","","","","","","","",""
"6767","","","{""menstrual_cycle"":""Yes""}","survey-multi-choice","8","134266","0.0-6.0-3.0","236","1","2025-07-09 09:42:58","7701e855f2ef39aa3fd6c71abdc6918a","71.138.89.249","Mozilla/5.0 (Windows NT 10.0; Win64; x64) AppleWebKit/537.36 (KHTML, like Gecko) Chrome/138.0.0.0 Safari/537.36","WebKit","Chrome","138.0.0.0","Windows","10.0","https://app.prolific.com/","en-US,en;q=0.9","5f0a7dec44c42c19a6c9f6d9","686d226cabeef709c732f8e1","686e31475a02ab40e526ca71","5f0a7dec44c42c19a6c9f6d9","","","[0]","","","4","demographics","","","","","","","","","","","","","","","","","","","","","","","","","","","","","","","","","","","","","",""
"15823","","","{""education"":""Higher National Diploma""}","survey-multi-choice","9","150090","0.0-6.0-4.0","236","1","2025-07-09 09:42:58","7701e855f2ef39aa3fd6c71abdc6918a","71.138.89.249","Mozilla/5.0 (Windows NT 10.0; Win64; x64) AppleWebKit/537.36 (KHTML, like Gecko) Chrome/138.0.0.0 Safari/537.36","WebKit","Chrome","138.0.0.0","Windows","10.0","https://app.prolific.com/","en-US,en;q=0.9","5f0a7dec44c42c19a6c9f6d9","686d226cabeef709c732f8e1","686e31475a02ab40e526ca71","5f0a7dec44c42c19a6c9f6d9","","","[0]","","","5","demographics","","","","","","","","","","","","","","","","","","","","","","","","","","","","","","","","","","","","","",""
"7383","","","{""education"":""Higher National Diploma""}","survey-multi-choice","10","157476","0.0-6.0-5.0","236","1","2025-07-09 09:42:58","7701e855f2ef39aa3fd6c71abdc6918a","71.138.89.249","Mozilla/5.0 (Windows NT 10.0; Win64; x64) AppleWebKit/537.36 (KHTML, like Gecko) Chrome/138.0.0.0 Safari/537.36","WebKit","Chrome","138.0.0.0","Windows","10.0","https://app.prolific.com/","en-US,en;q=0.9","5f0a7dec44c42c19a6c9f6d9","686d226cabeef709c732f8e1","686e31475a02ab40e526ca71","5f0a7dec44c42c19a6c9f6d9","2025-07-09T09:45:36.576Z","","[0]","","","6","demographics","","","","","","","","","","","","","","","","","","","","","","","","","","","","","","","","","","","","","",""
"24344","","","{""mental_health_condition"":""n/a"",""mental_health_treatment"":""n/a"",""psychiatric_medication"":""n/a""}","survey-text","11","181822","0.0-7.0-0.0","236","1","2025-07-09 09:42:58","7701e855f2ef39aa3fd6c71abdc6918a","71.138.89.249","Mozilla/5.0 (Windows NT 10.0; Win64; x64) AppleWebKit/537.36 (KHTML, like Gecko) Chrome/138.0.0.0 Safari/537.36","WebKit","Chrome","138.0.0.0","Windows","10.0","https://app.prolific.com/","en-US,en;q=0.9","5f0a7dec44c42c19a6c9f6d9","686d226cabeef709c732f8e1","686e31475a02ab40e526ca71","5f0a7dec44c42c19a6c9f6d9","2025-07-09T09:46:00.922Z","","","","","1","mental_health","","","","","","","","","","","","","","","","","","","","","","","","","","","","","","","","","","","","","",""
"11583","","","{""depression_history"":[""Yes""]}","survey-multi-select","12","193408","0.0-7.0-1.0","236","1","2025-07-09 09:42:58","7701e855f2ef39aa3fd6c71abdc6918a","71.138.89.249","Mozilla/5.0 (Windows NT 10.0; Win64; x64) AppleWebKit/537.36 (KHTML, like Gecko) Chrome/138.0.0.0 Safari/537.36","WebKit","Chrome","138.0.0.0","Windows","10.0","https://app.prolific.com/","en-US,en;q=0.9","5f0a7dec44c42c19a6c9f6d9","686d226cabeef709c732f8e1","686e31475a02ab40e526ca71","5f0a7dec44c42c19a6c9f6d9","","","[0]","","","","mental_health","","","","","","","","","","","","","","","","","","","","","","","","","","","","","","","","","","","","","",""
"14147","","","{""depression_episodes"":""3-5"",""depression_recent"":""More than 1 year ago""}","survey-multi-choice","13","207556","0.0-7.0-2.0-0.0","236","1","2025-07-09 09:42:58","7701e855f2ef39aa3fd6c71abdc6918a","71.138.89.249","Mozilla/5.0 (Windows NT 10.0; Win64; x64) AppleWebKit/537.36 (KHTML, like Gecko) Chrome/138.0.0.0 Safari/537.36","WebKit","Chrome","138.0.0.0","Windows","10.0","https://app.prolific.com/","en-US,en;q=0.9","5f0a7dec44c42c19a6c9f6d9","686d226cabeef709c732f8e1","686e31475a02ab40e526ca71","5f0a7dec44c42c19a6c9f6d9","2025-07-09T09:46:26.656Z","","[0,1]","","","3","mental_health","","","","","","","","","","","","","","","","","","","","","","","","","","","","","","","","","","","","","",""
"56118.10000000149","","","","survey-template","14","263679","0.0-7.0-3.0","236","1","2025-07-09 09:42:58","7701e855f2ef39aa3fd6c71abdc6918a","71.138.89.249","Mozilla/5.0 (Windows NT 10.0; Win64; x64) AppleWebKit/537.36 (KHTML, like Gecko) Chrome/138.0.0.0 Safari/537.36","WebKit","Chrome","138.0.0.0","Windows","10.0","https://app.prolific.com/","en-US,en;q=0.9","5f0a7dec44c42c19a6c9f6d9","686d226cabeef709c732f8e1","686e31475a02ab40e526ca71","5f0a7dec44c42c19a6c9f6d9","2025-07-09T09:47:22.780Z","","","","","","ius","{""Q01"":""4"",""Q02"":""4"",""Q03"":""3"",""Q04"":""4"",""Q05"":""3"",""Q06"":""3"",""Q07"":""3"",""Q08"":""0"",""Q09"":""3"",""Q10"":""4"",""Q11"":""3"",""Q12"":""4"",""Q13"":""3""}","[0,1,2,3,4,5,6,7,8,9,10,11,12]","[""Q01"",""Q02"",""Q03"",""Q04"",""Q05"",""Q05"",""Q06"",""Q07"",""Q08"",""Q09"",""Q10"",""Q10"",""Q11"",""Q12"",""Q13""]","[5571.80000000447,9425.90000000596,11592.40000000596,14433.20000000298,17705.70000000298,22110.30000000447,27540,30127.70000000298,32745.60000000149,38697.60000000149,41669.80000000447,42397.70000000298,48067.40000000596,51555.10000000149,55327.60000000149]","[]","[4905.5,5571.80000000447,8832.30000000447,9425.90000000596,11592.40000000596,13971.90000000596,14433.20000000298,17705.70000000298,22110.30000000447,26434.10000000149,26955.10000000149,27540,30127.70000000298,32745.60000000149,38697.60000000149,41669.80000000447,42397.70000000298,48067.40000000596,50579.40000000596,51012.70000000298,51161.70000000298,51555.10000000149,55327.60000000149,56115.90000000596]","0.5384615384615384","0.5833333333333334","0","","","","","","","","","","","","","","","","","","","","","","","","","","","","",""
"2844","1752054445624","<p style='font-size:1.1em;line-height:1.25'>In the following, we will ask you a few questions relating to your experiences over the past month.<br></p><p style='font-size:1.1em;line-height:1.25'>Press the <strong>Next</strong> button to continue.</p>","0","custom-html-button-response","15","266525","0.0-7.0-4.0","236","1","2025-07-09 09:42:58","7701e855f2ef39aa3fd6c71abdc6918a","71.138.89.249","Mozilla/5.0 (Windows NT 10.0; Win64; x64) AppleWebKit/537.36 (KHTML, like Gecko) Chrome/138.0.0.0 Safari/537.36","WebKit","Chrome","138.0.0.0","Windows","10.0","https://app.prolific.com/","en-US,en;q=0.9","5f0a7dec44c42c19a6c9f6d9","686d226cabeef709c732f8e1","686e31475a02ab40e526ca71","5f0a7dec44c42c19a6c9f6d9","2025-07-09T09:47:25.625Z","","","","","","","","","","","","","","","","","","","","","","","","","","","","","","","","","","","","","","","","","","","",""
"48609.39999999851","","","","survey-template","16","315136","0.0-7.0-5.0","236","1","2025-07-09 09:42:58","7701e855f2ef39aa3fd6c71abdc6918a","71.138.89.249","Mozilla/5.0 (Windows NT 10.0; Win64; x64) AppleWebKit/537.36 (KHTML, like Gecko) Chrome/138.0.0.0 Safari/537.36","WebKit","Chrome","138.0.0.0","Windows","10.0","https://app.prolific.com/","en-US,en;q=0.9","5f0a7dec44c42c19a6c9f6d9","686d226cabeef709c732f8e1","686e31475a02ab40e526ca71","5f0a7dec44c42c19a6c9f6d9","2025-07-09T09:48:14.237Z","","","","","","pss","{""Q01"":""2"",""Q02"":""1"",""Q03"":""2"",""Q04"":""1"",""Q05"":""1"",""Q06"":""1"",""Q07"":""1"",""Q08"":""1"",""Q09"":""2"",""Q10"":""1""}","[0,1,2,3,4,5,6,7,8,9]","[""Q01"",""Q02"",""Q03"",""Q04"",""Q05"",""Q06"",""Q07"",""Q08"",""Q09"",""Q10""]","[8496.5,12776,16296.60000000149,20264.29999999702,22913.5,26566.5,32182.79999999702,38546.70000000298,42034.39999999851,45502.29999999702]","[]","[0.10000000149011612,8496.5,12065.5,12776,16296.60000000149,19682.89999999851,20264.29999999702,22913.5,26566.5,32182.79999999702,37653.89999999851,38546.70000000298,42034.39999999851,45502.29999999702,48608]","0.4","0.5555555555555556","0","","","","","","","","","","","","","","","","","","","","","","","","","","","","",""
"3056","1752054497294","<p style='font-size:1.1em;line-height:1.25'>Thank you for your answers! Now we will ask you a few more questions relating to your feelings in the last 24 hours.<br></p><p style='font-size:1.1em;line-height:1.25'>Press the <strong>Next</strong> button to continue.</p>","0","custom-html-button-response","17","318195","0.0-7.0-6.0","236","1","2025-07-09 09:42:58","7701e855f2ef39aa3fd6c71abdc6918a","71.138.89.249","Mozilla/5.0 (Windows NT 10.0; Win64; x64) AppleWebKit/537.36 (KHTML, like Gecko) Chrome/138.0.0.0 Safari/537.36","WebKit","Chrome","138.0.0.0","Windows","10.0","https://app.prolific.com/","en-US,en;q=0.9","5f0a7dec44c42c19a6c9f6d9","686d226cabeef709c732f8e1","686e31475a02ab40e526ca71","5f0a7dec44c42c19a6c9f6d9","2025-07-09T09:48:17.295Z","","","","","","","","","","","","","","","","","","","","","","","","","","","","","","","","","","","","","","","","","","","",""
"85454.60000000149","","","","survey-template","18","403653","0.0-7.0-7.0","236","1","2025-07-09 09:42:58","7701e855f2ef39aa3fd6c71abdc6918a","71.138.89.249","Mozilla/5.0 (Windows NT 10.0; Win64; x64) AppleWebKit/537.36 (KHTML, like Gecko) Chrome/138.0.0.0 Safari/537.36","WebKit","Chrome","138.0.0.0","Windows","10.0","https://app.prolific.com/","en-US,en;q=0.9","5f0a7dec44c42c19a6c9f6d9","686d226cabeef709c732f8e1","686e31475a02ab40e526ca71","5f0a7dec44c42c19a6c9f6d9","2025-07-09T09:49:42.753Z","","","","","","drsp","{""Q01"":""0"",""Q02"":""0"",""Q03"":""0"",""Q04"":""2"",""Q05"":""1"",""Q06"":""1"",""Q07"":""1"",""Q08"":""0"",""Q09"":""1"",""Q10"":""0"",""Q11"":""1"",""Q12"":""2"",""Q13"":""2"",""Q14"":""0"",""Q15"":""1"",""Q16"":""1"",""Q17"":""0"",""Q18"":""1"",""Q19"":""0"",""Q20"":""1"",""Q21"":""1""}","[0,1,2,3,4,5,6,7,8,9,10,11,12,13,14,15,16,17,18,19,20]","[""Q01"",""Q02"",""Q03"",""Q04"",""Q05"",""Q05"",""Q06"",""Q07"",""Q08"",""Q08"",""Q09"",""Q10"",""Q10"",""Q11"",""Q12"",""Q13"",""Q14"",""Q15"",""Q15"",""Q16"",""Q17"",""Q18"",""Q18"",""Q19"",""Q20"",""Q21"",""Q20""]","[6361.5,8846.30000000447,10153,13250,15799.5,19616.30000000447,25820.89999999851,27881.20000000298,29991.89999999851,32760.5,36386.60000000149,38413.30000000447,39871.39999999851,41649,43715,45681.30000000447,48394.70000000298,50432.20000000298,52768.10000000149,54953,57021.70000000298,61373.30000000447,63701.30000000447,68963.10000000149,73359,78586.39999999851,82245.10000000149]","[]","[0,6361.5,8846.30000000447,10153,13250,15799.5,17799.60000000149,18612.60000000149,19616.30000000447,25820.89999999851,27881.20000000298,29991.89999999851,32760.5,35761,36386.60000000149,38413.30000000447,39871.39999999851,41649,43715,45681.30000000447,48394.70000000298,50432.20000000298,51579.20000000298,52768.10000000149,54525.30000000447,54953,57021.70000000298,60585.60000000149,61373.30000000447,63701.30000000447,68434,68963.10000000149,73359,76154.89999999851,77129,78586.39999999851,79497,82245.10000000149,85450.89999999851]","0.47619047619047616","0.55","0","","","","","","","","","","","","","","","","","","","","","","","","","","","","",""
"16460.79999999702","","","","survey-template","19","420116","0.0-7.0-8.0","236","1","2025-07-09 09:42:58","7701e855f2ef39aa3fd6c71abdc6918a","71.138.89.249","Mozilla/5.0 (Windows NT 10.0; Win64; x64) AppleWebKit/537.36 (KHTML, like Gecko) Chrome/138.0.0.0 Safari/537.36","WebKit","Chrome","138.0.0.0","Windows","10.0","https://app.prolific.com/","en-US,en;q=0.9","5f0a7dec44c42c19a6c9f6d9","686d226cabeef709c732f8e1","686e31475a02ab40e526ca71","5f0a7dec44c42c19a6c9f6d9","2025-07-09T09:49:59.217Z","","","","","","stress","{""Q01"":""3"",""Q02"":""2"",""Q03"":""0""}","[0,1,2]","[""Q01"",""Q01"",""Q02"",""Q02"",""Q03""]","[4125.5,6646.79999999702,9442.79999999702,10728.60000000149,13488.79999999702]","[]","[4125.5,6198.79999999702,6646.79999999702,9442.79999999702,10397.60000000149,10728.60000000149,13488.79999999702,16459.79999999702]","0.6666666666666666","0","0","","","","","","","","","","","","","","","","","","","","","","","","","","","","",""
"128244","","","","instructions","20","548362","0.0-8.0-0.0","236","1","2025-07-09 09:42:58","7701e855f2ef39aa3fd6c71abdc6918a","71.138.89.249","Mozilla/5.0 (Windows NT 10.0; Win64; x64) AppleWebKit/537.36 (KHTML, like Gecko) Chrome/138.0.0.0 Safari/537.36","WebKit","Chrome","138.0.0.0","Windows","10.0","https://app.prolific.com/","en-US,en;q=0.9","5f0a7dec44c42c19a6c9f6d9","686d226cabeef709c732f8e1","686e31475a02ab40e526ca71","5f0a7dec44c42c19a6c9f6d9","","[{""page_index"":0,""viewing_time"":25175},{""page_index"":1,""viewing_time"":37832},{""page_index"":2,""viewing_time"":21801},{""page_index"":3,""viewing_time"":43436}]","","","","","","","","","","","","","","","","","","","","","","","","","","","","","","","","","","","","","","","","","","",""
"","","","","ctl-task-cpt","21","563740","0.0-8.0-1.0","236","1","2025-07-09 09:42:58","7701e855f2ef39aa3fd6c71abdc6918a","71.138.89.249","Mozilla/5.0 (Windows NT 10.0; Win64; x64) AppleWebKit/537.36 (KHTML, like Gecko) Chrome/138.0.0.0 Safari/537.36","WebKit","Chrome","138.0.0.0","Windows","10.0","https://app.prolific.com/","en-US,en;q=0.9","5f0a7dec44c42c19a6c9f6d9","686d226cabeef709c732f8e1","686e31475a02ab40e526ca71","5f0a7dec44c42c19a6c9f6d9","","","","","","","","","","","","","","","","","win-only","0","g1:NW,g2:SE","1","0","1","550912.9","3215.5","7217.8","12370.5","2","4","4","6","1","-2","-2","0","0","0","4002.2","4000","-2980","[""left"",""up""]","{""num_key_presses"":0,""num_perfect"":0,""num_errors"":0,""num_randdir"":0,""num_randdir_good_moves"":0,""num_whilered"":0,""num_whileblue"":0,""num_blue"":0,""num_good_moves"":0}","[414.6523017883301,419.13671788573265,1,416.2929267883301,419.13671788573265,100.2,416.2929267883301,419.13671788573265,200.6,416.2929267883301,419.13671788573265,305.8,416.2929267883301,419.13671788573265,410.5,416.2929267883301,419.13671788573265,510.5,416.2929267883301,417.49609288573265,610.7,411.3710517883301,412.57421788573265,710.7,367.0741767883301,353.51171788573265,817.1,362.1523017883301,350.23046788573265,920.7,360.5116767883301,346.94921788573265,1021,316.2148017883301,302.65234288573265,1125.1,312.9335517883301,296.08984288573265,1225.1,319.4960517883301,305.93359288573265,1326.9,324.4179267883301,317.41796788573265,1434.1,278.4804267883301,286.24609288573265,1536.1,276.8398017883301,284.60546788573265,1636.1,276.8398017883301,286.24609288573265,1740.3,276.8398017883301,286.24609288573265,1840.6,268.6366767883301,286.24609288573265,1940.8,268.6366767883301,286.24609288573265,2050.9,266.9960517883301,289.52734288573265,2155.2,266.9960517883301,289.52734288573265,2260.5,266.9960517883301,289.52734288573265,2366.6,266.9960517883301,289.52734288573265,2470.8,266.9960517883301,291.16796788573265,2575.6,266.9960517883301,291.16796788573265,2682.7,266.9960517883301,291.16796788573265,2783.3,266.9960517883301,291.16796788573265,2883.5,266.9960517883301,291.16796788573265,2984.5,266.9960517883301,291.16796788573265,3086.7,266.9960517883301,291.16796788573265,3190.5,266.9960517883301,291.16796788573265,3290.7,266.9960517883301,291.16796788573265,3401.1,266.9960517883301,292.80859288573265,3502.8,266.9960517883301,294.44921788573265,3605.7,266.9960517883301,294.44921788573265,3711.5,268.6366767883301,296.08984288573265,3816.9,257.1523017883301,269.83984288573265,3918.5]","[]","",""
"18735","","","","instructions","22","582475","0.0-8.0-2.0","236","1","2025-07-09 09:42:58","7701e855f2ef39aa3fd6c71abdc6918a","71.138.89.249","Mozilla/5.0 (Windows NT 10.0; Win64; x64) AppleWebKit/537.36 (KHTML, like Gecko) Chrome/138.0.0.0 Safari/537.36","WebKit","Chrome","138.0.0.0","Windows","10.0","https://app.prolific.com/","en-US,en;q=0.9","5f0a7dec44c42c19a6c9f6d9","686d226cabeef709c732f8e1","686e31475a02ab40e526ca71","5f0a7dec44c42c19a6c9f6d9","","[{""page_index"":0,""viewing_time"":18734}]","","","","","","","","","","","","","","","","","","","","","","","","","","","","","","","","","","","","","","","","","","",""
"","","","","ctl-task-cpt","23","590597","0.0-8.0-3.0","236","1","2025-07-09 09:42:58","7701e855f2ef39aa3fd6c71abdc6918a","71.138.89.249","Mozilla/5.0 (Windows NT 10.0; Win64; x64) AppleWebKit/537.36 (KHTML, like Gecko) Chrome/138.0.0.0 Safari/537.36","WebKit","Chrome","138.0.0.0","Windows","10.0","https://app.prolific.com/","en-US,en;q=0.9","5f0a7dec44c42c19a6c9f6d9","686d226cabeef709c732f8e1","686e31475a02ab40e526ca71","5f0a7dec44c42c19a6c9f6d9","","","","","","","","","","","","","","","","","win-only","0","g1:NW,g2:SE","0.35","0","3","585025.4","1095.4","-9999","5101.9","2","4","8","6","-9999","-4","-4","0","0","0","-9999","4000","4000","[]","{""num_key_presses"":0,""num_perfect"":0,""num_errors"":0,""num_randdir"":0,""num_randdir_good_moves"":0,""num_whilered"":0,""num_whileblue"":0,""num_blue"":0,""num_good_moves"":0}","[417.9335517883301,404.37109288573265,0.7,417.9335517883301,404.37109288573265,101,417.9335517883301,404.37109288573265,207.5,414.6523017883301,410.93359288573265,307.5,406.4491767883301,412.57421788573265,410.1,380.1991767883301,399.44921788573265,510.3,365.4335517883301,389.60546788573265,611.5,365.4335517883301,389.60546788573265,716.8,365.4335517883301,389.60546788573265,821.2,365.4335517883301,389.60546788573265,924.9,365.4335517883301,389.60546788573265,1025.6,365.4335517883301,389.60546788573265,1125.7,365.4335517883301,389.60546788573265,1230.6,365.4335517883301,389.60546788573265,1337,365.4335517883301,389.60546788573265,1441.8,365.4335517883301,389.60546788573265,1545,365.4335517883301,389.60546788573265,1645.3,365.4335517883301,389.60546788573265,1745.4,365.4335517883301,389.60546788573265,1845.8,365.4335517883301,389.60546788573265,1951.1,365.4335517883301,389.60546788573265,2056.1,365.4335517883301,389.60546788573265,2160.3,365.4335517883301,389.60546788573265,2260.4,365.4335517883301,389.60546788573265,2360.6,365.4335517883301,389.60546788573265,2465.3,365.4335517883301,389.60546788573265,2573.8,365.4335517883301,389.60546788573265,2675.3,365.4335517883301,389.60546788573265,2775.5,365.4335517883301,389.60546788573265,2875.6,365.4335517883301,389.60546788573265,2980.8,365.4335517883301,389.60546788573265,3085.1,365.4335517883301,389.60546788573265,3187.4,365.4335517883301,389.60546788573265,3291.3,365.4335517883301,389.60546788573265,3391.3,365.4335517883301,389.60546788573265,3495.8,365.4335517883301,389.60546788573265,3600.1,365.4335517883301,389.60546788573265,3701.6,365.4335517883301,389.60546788573265,3806.3,365.4335517883301,389.60546788573265,3911.1]","[]","",""
"42939","","","","instructions","24","633536","0.0-8.0-4.0","236","1","2025-07-09 09:42:58","7701e855f2ef39aa3fd6c71abdc6918a","71.138.89.249","Mozilla/5.0 (Windows NT 10.0; Win64; x64) AppleWebKit/537.36 (KHTML, like Gecko) Chrome/138.0.0.0 Safari/537.36","WebKit","Chrome","138.0.0.0","Windows","10.0","https://app.prolific.com/","en-US,en;q=0.9","5f0a7dec44c42c19a6c9f6d9","686d226cabeef709c732f8e1","686e31475a02ab40e526ca71","5f0a7dec44c42c19a6c9f6d9","","[{""page_index"":0,""viewing_time"":7666},{""page_index"":1,""viewing_time"":35273}]","","","","","","","","","","","","","","","","","","","","","","","","","","","","","","","","","","","","","","","","","","",""
"29766","","","{""green_ball"":[""Ball sometimes shakes and moves in a random direction""]}","survey-multi-select","25","663305","0.0-8.0-5.0-0.0","236","1","2025-07-09 09:42:58","7701e855f2ef39aa3fd6c71abdc6918a","71.138.89.249","Mozilla/5.0 (Windows NT 10.0; Win64; x64) AppleWebKit/537.36 (KHTML, like Gecko) Chrome/138.0.0.0 Safari/537.36","WebKit","Chrome","138.0.0.0","Windows","10.0","https://app.prolific.com/","en-US,en;q=0.9","5f0a7dec44c42c19a6c9f6d9","686d226cabeef709c732f8e1","686e31475a02ab40e526ca71","5f0a7dec44c42c19a6c9f6d9","","","[0]","","","","quiz","","","","","","","","","","","","","","","","","","","","","","","","","","","","","","","","","","","","","true",""
"3227","","<p align='center'><b>CORRECT!</b> Indeed, the green ball may sometimes shake and move in a random direction.</p>","0","html-button-response","26","666534","0.0-8.0-5.0-1.0","236","1","2025-07-09 09:42:58","7701e855f2ef39aa3fd6c71abdc6918a","71.138.89.249","Mozilla/5.0 (Windows NT 10.0; Win64; x64) AppleWebKit/537.36 (KHTML, like Gecko) Chrome/138.0.0.0 Safari/537.36","WebKit","Chrome","138.0.0.0","Windows","10.0","https://app.prolific.com/","en-US,en;q=0.9","5f0a7dec44c42c19a6c9f6d9","686d226cabeef709c732f8e1","686e31475a02ab40e526ca71","5f0a7dec44c42c19a6c9f6d9","","","","","","","","","","","","","","","","","","","","","","","","","","","","","","","","","","","","","","","","","","","","",""
"14777","","","{""yellow_ball"":[""Ball doesn‘t move and I get -1 penalty point""]}","survey-multi-select","27","681314","0.0-8.0-6.0-0.0","236","1","2025-07-09 09:42:58","7701e855f2ef39aa3fd6c71abdc6918a","71.138.89.249","Mozilla/5.0 (Windows NT 10.0; Win64; x64) AppleWebKit/537.36 (KHTML, like Gecko) Chrome/138.0.0.0 Safari/537.36","WebKit","Chrome","138.0.0.0","Windows","10.0","https://app.prolific.com/","en-US,en;q=0.9","5f0a7dec44c42c19a6c9f6d9","686d226cabeef709c732f8e1","686e31475a02ab40e526ca71","5f0a7dec44c42c19a6c9f6d9","","","[0]","","","","quiz","","","","","","","","","","","","","","","","","","","","","","","","","","","","","","","","","","","","","true",""
"1399","","<p align='center'><b>CORRECT!</b> Indeed, the yellow ball never moves and you receive a penalty.</p>","0","html-button-response","28","682718","0.0-8.0-6.0-1.0","236","1","2025-07-09 09:42:58","7701e855f2ef39aa3fd6c71abdc6918a","71.138.89.249","Mozilla/5.0 (Windows NT 10.0; Win64; x64) AppleWebKit/537.36 (KHTML, like Gecko) Chrome/138.0.0.0 Safari/537.36","WebKit","Chrome","138.0.0.0","Windows","10.0","https://app.prolific.com/","en-US,en;q=0.9","5f0a7dec44c42c19a6c9f6d9","686d226cabeef709c732f8e1","686e31475a02ab40e526ca71","5f0a7dec44c42c19a6c9f6d9","","","","","","","","","","","","","","","","","","","","","","","","","","","","","","","","","","","","","","","","","","","","",""
"7927","","","{""blue_ball"":[""Ball doesn‘t move and I get -1 penalty point""]}","survey-multi-select","29","690646","0.0-8.0-7.0-0.0","236","1","2025-07-09 09:42:58","7701e855f2ef39aa3fd6c71abdc6918a","71.138.89.249","Mozilla/5.0 (Windows NT 10.0; Win64; x64) AppleWebKit/537.36 (KHTML, like Gecko) Chrome/138.0.0.0 Safari/537.36","WebKit","Chrome","138.0.0.0","Windows","10.0","https://app.prolific.com/","en-US,en;q=0.9","5f0a7dec44c42c19a6c9f6d9","686d226cabeef709c732f8e1","686e31475a02ab40e526ca71","5f0a7dec44c42c19a6c9f6d9","","","[0]","","","","quiz","","","","","","","","","","","","","","","","","","","","","","","","","","","","","","","","","","","","","false",""
"6728","","<p align='center'><b>INCORRECT.</b> The blue ball always shakes and moves randomly.</p>","0","html-button-response","30","697376","0.0-8.0-7.0-1.0","236","1","2025-07-09 09:42:58","7701e855f2ef39aa3fd6c71abdc6918a","71.138.89.249","Mozilla/5.0 (Windows NT 10.0; Win64; x64) AppleWebKit/537.36 (KHTML, like Gecko) Chrome/138.0.0.0 Safari/537.36","WebKit","Chrome","138.0.0.0","Windows","10.0","https://app.prolific.com/","en-US,en;q=0.9","5f0a7dec44c42c19a6c9f6d9","686d226cabeef709c732f8e1","686e31475a02ab40e526ca71","5f0a7dec44c42c19a6c9f6d9","","","","","","","","","","","","","","","","","","","","","","","","","","","","","","","","","","","","","","","","","","","","",""
"15148","","","{""blue_ball"":[""Ball always shakes and moves in a random direction""]}","survey-multi-select","31","712529","0.0-8.0-7.1-0.1","236","1","2025-07-09 09:42:58","7701e855f2ef39aa3fd6c71abdc6918a","71.138.89.249","Mozilla/5.0 (Windows NT 10.0; Win64; x64) AppleWebKit/537.36 (KHTML, like Gecko) Chrome/138.0.0.0 Safari/537.36","WebKit","Chrome","138.0.0.0","Windows","10.0","https://app.prolific.com/","en-US,en;q=0.9","5f0a7dec44c42c19a6c9f6d9","686d226cabeef709c732f8e1","686e31475a02ab40e526ca71","5f0a7dec44c42c19a6c9f6d9","","","[0]","","","","quiz","","","","","","","","","","","","","","","","","","","","","","","","","","","","","","","","","","","","","true",""
"1630","","<p align='center'><b>CORRECT!</b> Indeed, the blue ball always shakes and moves in a random direction. Also there is a penalty of -1 point.</p>","0","html-button-response","32","714164","0.0-8.0-7.1-1.1","236","1","2025-07-09 09:42:58","7701e855f2ef39aa3fd6c71abdc6918a","71.138.89.249","Mozilla/5.0 (Windows NT 10.0; Win64; x64) AppleWebKit/537.36 (KHTML, like Gecko) Chrome/138.0.0.0 Safari/537.36","WebKit","Chrome","138.0.0.0","Windows","10.0","https://app.prolific.com/","en-US,en;q=0.9","5f0a7dec44c42c19a6c9f6d9","686d226cabeef709c732f8e1","686e31475a02ab40e526ca71","5f0a7dec44c42c19a6c9f6d9","","","","","","","","","","","","","","","","","","","","","","","","","","","","","","","","","","","","","","","","","","","","",""
"10655","","","{""bonus"":[""When I reach 50% of points""]}","survey-multi-select","33","724822","0.0-8.0-8.0-0.0","236","1","2025-07-09 09:42:58","7701e855f2ef39aa3fd6c71abdc6918a","71.138.89.249","Mozilla/5.0 (Windows NT 10.0; Win64; x64) AppleWebKit/537.36 (KHTML, like Gecko) Chrome/138.0.0.0 Safari/537.36","WebKit","Chrome","138.0.0.0","Windows","10.0","https://app.prolific.com/","en-US,en;q=0.9","5f0a7dec44c42c19a6c9f6d9","686d226cabeef709c732f8e1","686e31475a02ab40e526ca71","5f0a7dec44c42c19a6c9f6d9","","","[0]","","","","quiz","","","","","","","","","","","","","","","","","","","","","","","","","","","","","","","","","","","","","true",""
"3554","","<p align='center'><b>CORRECT!</b> Indeed, you receive 2 pounds extra when you reach 50% of points.</p>","0","html-button-response","34","728383","0.0-8.0-8.0-1.0","236","1","2025-07-09 09:42:58","7701e855f2ef39aa3fd6c71abdc6918a","71.138.89.249","Mozilla/5.0 (Windows NT 10.0; Win64; x64) AppleWebKit/537.36 (KHTML, like Gecko) Chrome/138.0.0.0 Safari/537.36","WebKit","Chrome","138.0.0.0","Windows","10.0","https://app.prolific.com/","en-US,en;q=0.9","5f0a7dec44c42c19a6c9f6d9","686d226cabeef709c732f8e1","686e31475a02ab40e526ca71","5f0a7dec44c42c19a6c9f6d9","","","","","","","","","","","","","","","","","","","","","","","","","","","","","","","","","","","","","","","","","","","","",""
"4141","","","","instructions","35","732527","0.0-8.0-9.0","236","1","2025-07-09 09:42:58","7701e855f2ef39aa3fd6c71abdc6918a","71.138.89.249","Mozilla/5.0 (Windows NT 10.0; Win64; x64) AppleWebKit/537.36 (KHTML, like Gecko) Chrome/138.0.0.0 Safari/537.36","WebKit","Chrome","138.0.0.0","Windows","10.0","https://app.prolific.com/","en-US,en;q=0.9","5f0a7dec44c42c19a6c9f6d9","686d226cabeef709c732f8e1","686e31475a02ab40e526ca71","5f0a7dec44c42c19a6c9f6d9","","[{""page_index"":0,""viewing_time"":4140}]","","","","","","","","","","","","","","","","","","","","","","","","","","","","","","","","","","","","","","","","","","",""
"71157","","<p>Before you start with this game please answer the following three questions yourself. </p>
  <p>Through this game, we measure several aspects of your cognitive performance, such as reaction times, multi-tasking capabilities </p>
  <p>and the ability to assess the situation you are in.</p>
  <p></p>
  <p><b>How good do you usually are in such tasks?</b></p>","75","html-slider-response","36","803689","0.0-9.0-0.0","236","1","2025-07-09 09:42:58","7701e855f2ef39aa3fd6c71abdc6918a","71.138.89.249","Mozilla/5.0 (Windows NT 10.0; Win64; x64) AppleWebKit/537.36 (KHTML, like Gecko) Chrome/138.0.0.0 Safari/537.36","WebKit","Chrome","138.0.0.0","Windows","10.0","https://app.prolific.com/","en-US,en;q=0.9","5f0a7dec44c42c19a6c9f6d9","686d226cabeef709c732f8e1","686e31475a02ab40e526ca71","5f0a7dec44c42c19a6c9f6d9","2025-07-09T09:56:22.789Z","","","","","","PreSkillQ","","","","","","","","","","","","","","","","","","","","","","","","","","","","","","","","","","","","","","50"
"8909","","<div style=""width:500px;"">
  <p>How well do you think you will perform in this task compared to other participants?</p>
  </div>","65","html-slider-response","37","812602","0.0-9.0-1.0","236","1","2025-07-09 09:42:58","7701e855f2ef39aa3fd6c71abdc6918a","71.138.89.249","Mozilla/5.0 (Windows NT 10.0; Win64; x64) AppleWebKit/537.36 (KHTML, like Gecko) Chrome/138.0.0.0 Safari/537.36","WebKit","Chrome","138.0.0.0","Windows","10.0","https://app.prolific.com/","en-US,en;q=0.9","5f0a7dec44c42c19a6c9f6d9","686d226cabeef709c732f8e1","686e31475a02ab40e526ca71","5f0a7dec44c42c19a6c9f6d9","2025-07-09T09:56:31.702Z","","","","","","PrePerfQ","","","","","","","","","","","","","","","","","","","","","","","","","","","","","","","","","","","","","","50"
"5997","","<div style=""width:500px;"">
  <p>What best describes how you currently feel?</p>
  </div>","74","html-slider-response","38","818601","0.0-9.0-2.0","236","1","2025-07-09 09:42:58","7701e855f2ef39aa3fd6c71abdc6918a","71.138.89.249","Mozilla/5.0 (Windows NT 10.0; Win64; x64) AppleWebKit/537.36 (KHTML, like Gecko) Chrome/138.0.0.0 Safari/537.36","WebKit","Chrome","138.0.0.0","Windows","10.0","https://app.prolific.com/","en-US,en;q=0.9","5f0a7dec44c42c19a6c9f6d9","686d226cabeef709c732f8e1","686e31475a02ab40e526ca71","5f0a7dec44c42c19a6c9f6d9","2025-07-09T09:56:37.702Z","","","","","","PreMotivationQ","","","","","","","","","","","","","","","","","","","","","","","","","","","","","","","","","","","","","","50"
"","","","","ctl-task-cpt","39","853850","0.0-10.0-0.0","236","1","2025-07-09 09:42:58","7701e855f2ef39aa3fd6c71abdc6918a","71.138.89.249","Mozilla/5.0 (Windows NT 10.0; Win64; x64) AppleWebKit/537.36 (KHTML, like Gecko) Chrome/138.0.0.0 Safari/537.36","WebKit","Chrome","138.0.0.0","Windows","10.0","https://app.prolific.com/","en-US,en;q=0.9","5f0a7dec44c42c19a6c9f6d9","686d226cabeef709c732f8e1","686e31475a02ab40e526ca71","5f0a7dec44c42c19a6c9f6d9","2025-07-09T09:57:12.950Z","","","","","","","","","","","","","","","","win-only","0","g1:NW,g2:SE","1","1","0","821153.3","2997.7","8002.5","32222.8","1","4","8","6","1","-1","-4","0","0","0","5004.8","3000","-2420","[""left"",""up""]","{""num_key_presses"":6,""num_perfect"":3,""num_errors"":3,""num_randdir"":0,""num_randdir_good_moves"":0,""num_whilered"":0,""num_whileblue"":0,""num_blue"":2,""num_good_moves"":2}","[421.2148017883301,417.49609288573265,0.5,421.2148017883301,417.49609288573265,103.4,421.2148017883301,417.49609288573265,203.9,421.2148017883301,417.49609288573265,304.6,421.2148017883301,417.49609288573265,410.7,399.8866767883301,404.37109288573265,514.1,393.3241767883301,389.60546788573265,618.3,393.3241767883301,387.96484288573265,719.1,393.3241767883301,387.96484288573265,824.7,393.3241767883301,387.96484288573265,925.5,393.3241767883301,387.96484288573265,1028.9,393.3241767883301,387.96484288573265,1133.4,393.3241767883301,387.96484288573265,1238,393.3241767883301,387.96484288573265,1344.2,393.3241767883301,387.96484288573265,1448.2,393.3241767883301,387.96484288573265,1549.3,393.3241767883301,387.96484288573265,1653.2,393.3241767883301,387.96484288573265,1753.6,393.3241767883301,387.96484288573265,1854.4,393.3241767883301,387.96484288573265,1959.4,393.3241767883301,387.96484288573265,2061.4,393.3241767883301,386.32421788573265,2163.9,393.3241767883301,386.32421788573265,2268.5,393.3241767883301,386.32421788573265,2368.8,398.2460517883301,386.32421788573265,2475.9,398.2460517883301,386.32421788573265,2581,398.2460517883301,386.32421788573265,2682.6,398.2460517883301,386.32421788573265,2784.2,398.2460517883301,386.32421788573265,2889.4,398.2460517883301,386.32421788573265,2999.2,398.2460517883301,386.32421788573265,3099.3,398.2460517883301,386.32421788573265,3203.9,398.2460517883301,386.32421788573265,3308,398.2460517883301,386.32421788573265,3413.5,398.2460517883301,386.32421788573265,3513.6,398.2460517883301,386.32421788573265,3618.1,398.2460517883301,386.32421788573265,3723.9,398.2460517883301,386.32421788573265,3828.5,398.2460517883301,386.32421788573265,3930.3,398.2460517883301,386.32421788573265,4034.6,398.2460517883301,386.32421788573265,4138,398.2460517883301,386.32421788573265,4246.4,398.2460517883301,386.32421788573265,4347.5,398.2460517883301,386.32421788573265,4449,398.2460517883301,386.32421788573265,4553.2,398.2460517883301,386.32421788573265,4653.7,398.2460517883301,386.32421788573265,4753.7,398.2460517883301,386.32421788573265,4858.2,398.2460517883301,386.32421788573265,4965]","[3497.8,3497.8,1310.4,2006,181.4,""smooth"",""down"",""down"",""bad_move"",4306.7,807.2,2294.5,3499.5,-1487.3,""error"",""-"",""-"",""no_move"",8922.3,4615.2,2295.4,5309.3,1317.6,""smooth"",""up"",""up"",""good_move"",10177.2,1254.3,2527.3,8922.9,-1273,""error"",""-"",""-"",""no_move"",15173.5,4996.1,2165,11179.5,1829.1,""smooth"",""left"",""left"",""good_move"",15847.2,673.3,2810.8,15173.9,-2137.5,""error"",""-"",""-"",""no_move""]","",""
"5164","","<div style=""width:500px;"">
  <p>What determined the result of this run?</p>
  </div>","90","html-slider-response","40","859015","0.0-10.0-1.0","236","1","2025-07-09 09:42:58","7701e855f2ef39aa3fd6c71abdc6918a","71.138.89.249","Mozilla/5.0 (Windows NT 10.0; Win64; x64) AppleWebKit/537.36 (KHTML, like Gecko) Chrome/138.0.0.0 Safari/537.36","WebKit","Chrome","138.0.0.0","Windows","10.0","https://app.prolific.com/","en-US,en;q=0.9","5f0a7dec44c42c19a6c9f6d9","686d226cabeef709c732f8e1","686e31475a02ab40e526ca71","5f0a7dec44c42c19a6c9f6d9","2025-07-09T09:57:18.115Z","","","","","","AttribQ","","","","","","","","","","","","","","","","","","","","","","","","","","","","","","","","","","","","","","50"
"4576","","<div style=""width:500px;"">
  <p>How much control did you have over the ball?</p>
  </div>","52","html-slider-response","41","863593","0.0-10.0-2.0","236","1","2025-07-09 09:42:58","7701e855f2ef39aa3fd6c71abdc6918a","71.138.89.249","Mozilla/5.0 (Windows NT 10.0; Win64; x64) AppleWebKit/537.36 (KHTML, like Gecko) Chrome/138.0.0.0 Safari/537.36","WebKit","Chrome","138.0.0.0","Windows","10.0","https://app.prolific.com/","en-US,en;q=0.9","5f0a7dec44c42c19a6c9f6d9","686d226cabeef709c732f8e1","686e31475a02ab40e526ca71","5f0a7dec44c42c19a6c9f6d9","2025-07-09T09:57:22.694Z","","","","","","ControlQ","","","","","","","","","","","","","","","","","","","","","","","","","","","","","","","","","","","","","","50"
"5885","","<div style=""width:500px;"">
  <p>How would you describe your current emotional state?</p>
  </div>","64","html-slider-response","42","869481","0.0-10.0-3.0","236","1","2025-07-09 09:42:58","7701e855f2ef39aa3fd6c71abdc6918a","71.138.89.249","Mozilla/5.0 (Windows NT 10.0; Win64; x64) AppleWebKit/537.36 (KHTML, like Gecko) Chrome/138.0.0.0 Safari/537.36","WebKit","Chrome","138.0.0.0","Windows","10.0","https://app.prolific.com/","en-US,en;q=0.9","5f0a7dec44c42c19a6c9f6d9","686d226cabeef709c732f8e1","686e31475a02ab40e526ca71","5f0a7dec44c42c19a6c9f6d9","2025-07-09T09:57:28.581Z","","","","","","StressQ","","","","","","","","","","","","","","","","","","","","","","","","","","","","","","","","","","","","","","50"
"5005","","<div style=""width:500px;"">
  <p>What best describes how you currently feel?</p>
  </div>","83","html-slider-response","43","874489","0.0-10.0-4.0","236","1","2025-07-09 09:42:58","7701e855f2ef39aa3fd6c71abdc6918a","71.138.89.249","Mozilla/5.0 (Windows NT 10.0; Win64; x64) AppleWebKit/537.36 (KHTML, like Gecko) Chrome/138.0.0.0 Safari/537.36","WebKit","Chrome","138.0.0.0","Windows","10.0","https://app.prolific.com/","en-US,en;q=0.9","5f0a7dec44c42c19a6c9f6d9","686d226cabeef709c732f8e1","686e31475a02ab40e526ca71","5f0a7dec44c42c19a6c9f6d9","2025-07-09T09:57:33.589Z","","","","","","MotivationQ","","","","","","","","","","","","","","","","","","","","","","","","","","","","","","","","","","","","","","50"
"","","","","ctl-task-cpt","44","923018","0.0-10.0-0.1","236","1","2025-07-09 09:42:58","7701e855f2ef39aa3fd6c71abdc6918a","71.138.89.249","Mozilla/5.0 (Windows NT 10.0; Win64; x64) AppleWebKit/537.36 (KHTML, like Gecko) Chrome/138.0.0.0 Safari/537.36","WebKit","Chrome","138.0.0.0","Windows","10.0","https://app.prolific.com/","en-US,en;q=0.9","5f0a7dec44c42c19a6c9f6d9","686d226cabeef709c732f8e1","686e31475a02ab40e526ca71","5f0a7dec44c42c19a6c9f6d9","2025-07-09T09:58:22.118Z","","","","","","","","","","","","","","","","win-only","3","g1:SW,g2:NE","0.9","2","0","877039.3","3275.8","8278","45512.7","1","4","4","6","2","-4","-7","0","0","0","5002.2","3000","-2600","[""up"",""right""]","{""num_key_presses"":10,""num_perfect"":6,""num_errors"":3,""num_randdir"":0,""num_randdir_good_moves"":0,""num_whilered"":1,""num_whileblue"":1,""num_blue"":3,""num_good_moves"":6}","[411.3710517883301,414.21484288573265,0.4,411.3710517883301,414.21484288573265,100,411.3710517883301,414.21484288573265,201.3,411.3710517883301,414.21484288573265,305.1,411.3710517883301,414.21484288573265,405.6,411.3710517883301,414.21484288573265,510.2,411.3710517883301,414.21484288573265,615.5,411.3710517883301,422.41796788573265,720.5,408.0898017883301,432.26171788573265,820.8,403.1679267883301,445.38671788573265,927.6,403.1679267883301,447.02734288573265,1035.5,403.1679267883301,447.02734288573265,1151.2,403.1679267883301,447.02734288573265,1254.6,403.1679267883301,447.02734288573265,1355.3,403.1679267883301,447.02734288573265,1455.6,403.1679267883301,447.02734288573265,1569.2,403.1679267883301,447.02734288573265,1670.1,403.1679267883301,447.02734288573265,1776.5,403.1679267883301,447.02734288573265,1884,403.1679267883301,447.02734288573265,1984.9,403.1679267883301,447.02734288573265,2086.9,403.1679267883301,447.02734288573265,2189.7,403.1679267883301,447.02734288573265,2296.4,403.1679267883301,447.02734288573265,2396.6,403.1679267883301,447.02734288573265,2500,403.1679267883301,447.02734288573265,2601.5,403.1679267883301,447.02734288573265,2705.3,403.1679267883301,447.02734288573265,2805.4,403.1679267883301,447.02734288573265,2918,403.1679267883301,447.02734288573265,3018.3,403.1679267883301,447.02734288573265,3120.4,403.1679267883301,447.02734288573265,3234.5,403.1679267883301,447.02734288573265,3335.6,403.1679267883301,447.02734288573265,3435.9,403.1679267883301,447.02734288573265,3540,403.1679267883301,447.02734288573265,3646.4,403.1679267883301,447.02734288573265,3746.8,403.1679267883301,447.02734288573265,3850.5,403.1679267883301,447.02734288573265,3955.1,403.1679267883301,447.02734288573265,4055.2,403.1679267883301,447.02734288573265,4169.6,403.1679267883301,447.02734288573265,4269.8,403.1679267883301,447.02734288573265,4376.6,403.1679267883301,447.02734288573265,4482,403.1679267883301,447.02734288573265,4585.1,403.1679267883301,447.02734288573265,4685.3,403.1679267883301,447.02734288573265,4789.9,403.1679267883301,447.02734288573265,4901.1]","[5900,5900,3345.6,2015.9,538.5,""smooth"",""up"",""up"",""good_move"",6714.6,814.1,2432.9,5900.5,-1618.8,""error"",""-"",""-"",""no_move"",7115.9,400.9,2432.9,5900.5,-1217.5,""while_red"",""-"",""-"",""no_move"",8581.2,1866.2,2410.6,7715.9,-1545.3,""error"",""-"",""-"",""no_move"",13843.8,5262,3341.8,9584.1,917.9,""smooth"",""up"",""up"",""good_move"",16547.1,2702.6,2087.8,13844.5,614.8,""smooth"",""up"",""up"",""good_move"",20480.8,3931.8,3284.6,16549.1,647.1,""smooth"",""right"",""right"",""good_move"",23793.7,3311.5,2856.7,20482.2,454.8,""smooth"",""right"",""right"",""good_move"",27330.7,3536.2,3218.4,23794.5,317.8,""while_blue"",""right"",""left"",""bad_move"",34113.3,6781.8,2937,30603.8,572.5,""smooth"",""right"",""right"",""good_move""]","",""
"3200","","<div style=""width:500px;"">
  <p>What determined the result of this run?</p>
  </div>","87","html-slider-response","45","926220","0.0-10.0-1.1","236","1","2025-07-09 09:42:58","7701e855f2ef39aa3fd6c71abdc6918a","71.138.89.249","Mozilla/5.0 (Windows NT 10.0; Win64; x64) AppleWebKit/537.36 (KHTML, like Gecko) Chrome/138.0.0.0 Safari/537.36","WebKit","Chrome","138.0.0.0","Windows","10.0","https://app.prolific.com/","en-US,en;q=0.9","5f0a7dec44c42c19a6c9f6d9","686d226cabeef709c732f8e1","686e31475a02ab40e526ca71","5f0a7dec44c42c19a6c9f6d9","2025-07-09T09:58:25.320Z","","","","","","AttribQ","","","","","","","","","","","","","","","","","","","","","","","","","","","","","","","","","","","","","","50"
"3444","","<div style=""width:500px;"">
  <p>How much control did you have over the ball?</p>
  </div>","56","html-slider-response","46","929666","0.0-10.0-2.1","236","1","2025-07-09 09:42:58","7701e855f2ef39aa3fd6c71abdc6918a","71.138.89.249","Mozilla/5.0 (Windows NT 10.0; Win64; x64) AppleWebKit/537.36 (KHTML, like Gecko) Chrome/138.0.0.0 Safari/537.36","WebKit","Chrome","138.0.0.0","Windows","10.0","https://app.prolific.com/","en-US,en;q=0.9","5f0a7dec44c42c19a6c9f6d9","686d226cabeef709c732f8e1","686e31475a02ab40e526ca71","5f0a7dec44c42c19a6c9f6d9","2025-07-09T09:58:28.766Z","","","","","","ControlQ","","","","","","","","","","","","","","","","","","","","","","","","","","","","","","","","","","","","","","50"
"3278","","<div style=""width:500px;"">
  <p>How would you describe your current emotional state?</p>
  </div>","81","html-slider-response","47","932945","0.0-10.0-3.1","236","1","2025-07-09 09:42:58","7701e855f2ef39aa3fd6c71abdc6918a","71.138.89.249","Mozilla/5.0 (Windows NT 10.0; Win64; x64) AppleWebKit/537.36 (KHTML, like Gecko) Chrome/138.0.0.0 Safari/537.36","WebKit","Chrome","138.0.0.0","Windows","10.0","https://app.prolific.com/","en-US,en;q=0.9","5f0a7dec44c42c19a6c9f6d9","686d226cabeef709c732f8e1","686e31475a02ab40e526ca71","5f0a7dec44c42c19a6c9f6d9","2025-07-09T09:58:32.046Z","","","","","","StressQ","","","","","","","","","","","","","","","","","","","","","","","","","","","","","","","","","","","","","","50"
"3059","","<div style=""width:500px;"">
  <p>What best describes how you currently feel?</p>
  </div>","67","html-slider-response","48","936006","0.0-10.0-4.1","236","1","2025-07-09 09:42:58","7701e855f2ef39aa3fd6c71abdc6918a","71.138.89.249","Mozilla/5.0 (Windows NT 10.0; Win64; x64) AppleWebKit/537.36 (KHTML, like Gecko) Chrome/138.0.0.0 Safari/537.36","WebKit","Chrome","138.0.0.0","Windows","10.0","https://app.prolific.com/","en-US,en;q=0.9","5f0a7dec44c42c19a6c9f6d9","686d226cabeef709c732f8e1","686e31475a02ab40e526ca71","5f0a7dec44c42c19a6c9f6d9","2025-07-09T09:58:35.106Z","","","","","","MotivationQ","","","","","","","","","","","","","","","","","","","","","","","","","","","","","","","","","","","","","","50"
"","","","","ctl-task-cpt","49","966972","0.0-10.0-0.2","236","1","2025-07-09 09:42:58","7701e855f2ef39aa3fd6c71abdc6918a","71.138.89.249","Mozilla/5.0 (Windows NT 10.0; Win64; x64) AppleWebKit/537.36 (KHTML, like Gecko) Chrome/138.0.0.0 Safari/537.36","WebKit","Chrome","138.0.0.0","Windows","10.0","https://app.prolific.com/","en-US,en;q=0.9","5f0a7dec44c42c19a6c9f6d9","686d226cabeef709c732f8e1","686e31475a02ab40e526ca71","5f0a7dec44c42c19a6c9f6d9","2025-07-09T09:59:06.072Z","","","","","","","","","","","","","","","","win-only","0","g1:NW,g2:SE","0.8","3","0","938557.5","1104.2","6108","27946.3","1","4","8","6","1","1","1","1","0","0.007575757575757576","5003.8","3000","210","[""left"",""up""]","{""num_key_presses"":8,""num_perfect"":7,""num_errors"":0,""num_randdir"":1,""num_randdir_good_moves"":1,""num_whilered"":0,""num_whileblue"":0,""num_blue"":0,""num_good_moves"":6}","[421.2148017883301,414.21484288573265,0.6,421.2148017883301,414.21484288573265,102.1,421.2148017883301,414.21484288573265,206.6,476.9960517883301,427.33984288573265,307,509.8085517883301,427.33984288573265,416,509.8085517883301,427.33984288573265,516.5,509.8085517883301,427.33984288573265,617.8,509.8085517883301,427.33984288573265,722,509.8085517883301,427.33984288573265,827.5,509.8085517883301,427.33984288573265,931.6,509.8085517883301,427.33984288573265,1042.2,509.8085517883301,427.33984288573265,1154.5,509.8085517883301,427.33984288573265,1254.6,509.8085517883301,427.33984288573265,1355.7,509.8085517883301,427.33984288573265,1456.6,509.8085517883301,427.33984288573265,1561.5,509.8085517883301,427.33984288573265,1670.7,509.8085517883301,427.33984288573265,1771.5,509.8085517883301,427.33984288573265,1871.7,509.8085517883301,427.33984288573265,1988.3,509.8085517883301,427.33984288573265,2089,509.8085517883301,427.33984288573265,2191.5,509.8085517883301,427.33984288573265,2306,509.8085517883301,427.33984288573265,2406.8,509.8085517883301,427.33984288573265,2507.4,641.0585517883301,383.04296788573265,2613.7,1077.46480178833,332.18359288573265,2713.7,1100.43355178833,330.54296788573265,2816.1,1100.43355178833,330.54296788573265,2916.2,1100.43355178833,330.54296788573265,3024.7,1100.43355178833,330.54296788573265,3126.9,1100.43355178833,330.54296788573265,3227.4,1100.43355178833,330.54296788573265,3327.4,1100.43355178833,330.54296788573265,3442.7,1100.43355178833,330.54296788573265,3555.9,1100.43355178833,330.54296788573265,3656.5,1100.43355178833,332.18359288573265,3756.5,1100.43355178833,332.18359288573265,3856.9,1098.79292678833,332.18359288573265,3957.5,1098.79292678833,332.18359288573265,4062,1098.79292678833,332.18359288573265,4164.1,1097.15230178833,332.18359288573265,4270.5,1095.51167678833,332.18359288573265,4371.5,1095.51167678833,332.18359288573265,4475.5,1095.51167678833,332.18359288573265,4577.2,1095.51167678833,332.18359288573265,4684.3,1095.51167678833,332.18359288573265,4785.3,1095.51167678833,332.18359288573265,4887.8,1095.51167678833,332.18359288573265,4992]","[1515.3,1515.3,1000,0,515.3,""smooth"",""right"",""right"",""bad_move"",4802.3,3286.5,2667.9,1515.9,618.5,""smooth"",""down"",""down"",""bad_move"",7837.3,3033.8,2392.4,4803.5,641.4,""smooth"",""left"",""left"",""good_move"",10812.6,2974.7,2529,7838,445.6,""smooth"",""up"",""up"",""good_move"",14003.9,3190.9,2793.5,10813.1,397.3,""smooth"",""up"",""up"",""good_move"",16350.5,2345.7,1943.2,14004.8,402.5,""oops"",""left"",""up"",""good_move"",19067.3,2716.2,2330.4,16351.1,385.8,""smooth"",""left"",""left"",""good_move"",21718.8,2651.1,2254,19067.7,397.1,""smooth"",""left"",""left"",""good_move""]","",""
"3260","","<div style=""width:500px;"">
  <p>What determined the result of this run?</p>
  </div>","84","html-slider-response","50","970235","0.0-10.0-1.2","236","1","2025-07-09 09:42:58","7701e855f2ef39aa3fd6c71abdc6918a","71.138.89.249","Mozilla/5.0 (Windows NT 10.0; Win64; x64) AppleWebKit/537.36 (KHTML, like Gecko) Chrome/138.0.0.0 Safari/537.36","WebKit","Chrome","138.0.0.0","Windows","10.0","https://app.prolific.com/","en-US,en;q=0.9","5f0a7dec44c42c19a6c9f6d9","686d226cabeef709c732f8e1","686e31475a02ab40e526ca71","5f0a7dec44c42c19a6c9f6d9","2025-07-09T09:59:09.336Z","","","","","","AttribQ","","","","","","","","","","","","","","","","","","","","","","","","","","","","","","","","","","","","","","50"
"2992","","<div style=""width:500px;"">
  <p>How much control did you have over the ball?</p>
  </div>","74","html-slider-response","51","973230","0.0-10.0-2.2","236","1","2025-07-09 09:42:58","7701e855f2ef39aa3fd6c71abdc6918a","71.138.89.249","Mozilla/5.0 (Windows NT 10.0; Win64; x64) AppleWebKit/537.36 (KHTML, like Gecko) Chrome/138.0.0.0 Safari/537.36","WebKit","Chrome","138.0.0.0","Windows","10.0","https://app.prolific.com/","en-US,en;q=0.9","5f0a7dec44c42c19a6c9f6d9","686d226cabeef709c732f8e1","686e31475a02ab40e526ca71","5f0a7dec44c42c19a6c9f6d9","2025-07-09T09:59:12.330Z","","","","","","ControlQ","","","","","","","","","","","","","","","","","","","","","","","","","","","","","","","","","","","","","","50"
"4513","","<div style=""width:500px;"">
  <p>How would you describe your current emotional state?</p>
  </div>","70","html-slider-response","52","977744","0.0-10.0-3.2","236","1","2025-07-09 09:42:58","7701e855f2ef39aa3fd6c71abdc6918a","71.138.89.249","Mozilla/5.0 (Windows NT 10.0; Win64; x64) AppleWebKit/537.36 (KHTML, like Gecko) Chrome/138.0.0.0 Safari/537.36","WebKit","Chrome","138.0.0.0","Windows","10.0","https://app.prolific.com/","en-US,en;q=0.9","5f0a7dec44c42c19a6c9f6d9","686d226cabeef709c732f8e1","686e31475a02ab40e526ca71","5f0a7dec44c42c19a6c9f6d9","2025-07-09T09:59:16.844Z","","","","","","StressQ","","","","","","","","","","","","","","","","","","","","","","","","","","","","","","","","","","","","","","50"
"3293","","<div style=""width:500px;"">
  <p>What best describes how you currently feel?</p>
  </div>","74","html-slider-response","53","981039","0.0-10.0-4.2","236","1","2025-07-09 09:42:58","7701e855f2ef39aa3fd6c71abdc6918a","71.138.89.249","Mozilla/5.0 (Windows NT 10.0; Win64; x64) AppleWebKit/537.36 (KHTML, like Gecko) Chrome/138.0.0.0 Safari/537.36","WebKit","Chrome","138.0.0.0","Windows","10.0","https://app.prolific.com/","en-US,en;q=0.9","5f0a7dec44c42c19a6c9f6d9","686d226cabeef709c732f8e1","686e31475a02ab40e526ca71","5f0a7dec44c42c19a6c9f6d9","2025-07-09T09:59:20.139Z","","","","","","MotivationQ","","","","","","","","","","","","","","","","","","","","","","","","","","","","","","","","","","","","","","50"
"","","","","ctl-task-cpt","54","1015084","0.0-10.0-0.3","236","1","2025-07-09 09:42:58","7701e855f2ef39aa3fd6c71abdc6918a","71.138.89.249","Mozilla/5.0 (Windows NT 10.0; Win64; x64) AppleWebKit/537.36 (KHTML, like Gecko) Chrome/138.0.0.0 Safari/537.36","WebKit","Chrome","138.0.0.0","Windows","10.0","https://app.prolific.com/","en-US,en;q=0.9","5f0a7dec44c42c19a6c9f6d9","686d226cabeef709c732f8e1","686e31475a02ab40e526ca71","5f0a7dec44c42c19a6c9f6d9","2025-07-09T09:59:54.184Z","","","","","","","","","","","","","","","","win-only","1","g1:NE,g2:SW","0.7","4","0","983591.7","2555.1","7561","31017.2","1","4","4","6","2","4","3","4","1","0.030303030303030304","5005.9","3000","1035","[""down"",""left""]","{""num_key_presses"":6,""num_perfect"":4,""num_errors"":1,""num_randdir"":1,""num_randdir_good_moves"":1,""num_whilered"":0,""num_whileblue"":1,""num_blue"":3,""num_good_moves"":6}","[413.0116767883301,422.41796788573265,0.6,413.0116767883301,422.41796788573265,104.5,416.2929267883301,422.41796788573265,206.9,490.1210517883301,415.85546788573265,306.9,493.4023017883301,401.08984288573265,409.9,493.4023017883301,401.08984288573265,521.4,493.4023017883301,401.08984288573265,622.3,493.4023017883301,401.08984288573265,722.7,498.3241767883301,401.08984288573265,823.2,516.3710517883301,402.73046788573265,923.4,583.6366767883301,394.52734288573265,1038.3,583.6366767883301,394.52734288573265,1138.3,583.6366767883301,394.52734288573265,1239,583.6366767883301,396.16796788573265,1341.2,583.6366767883301,396.16796788573265,1441.2,583.6366767883301,397.80859288573265,1541.5,583.6366767883301,397.80859288573265,1645.2,583.6366767883301,397.80859288573265,1754.3,583.6366767883301,397.80859288573265,1855.2,583.6366767883301,397.80859288573265,1956.6,583.6366767883301,397.80859288573265,2060.8,583.6366767883301,397.80859288573265,2166.5,583.6366767883301,397.80859288573265,2267,583.6366767883301,397.80859288573265,2371.8,583.6366767883301,397.80859288573265,2488.4,583.6366767883301,397.80859288573265,2590.9,583.6366767883301,397.80859288573265,2691.9,583.6366767883301,397.80859288573265,2804.7,581.9960517883301,399.44921788573265,2908.1,581.9960517883301,399.44921788573265,3011.2,581.9960517883301,399.44921788573265,3116.5,581.9960517883301,399.44921788573265,3216.6,581.9960517883301,399.44921788573265,3316.8,581.9960517883301,399.44921788573265,3420.4,581.9960517883301,399.44921788573265,3520.5,581.9960517883301,399.44921788573265,3621.8,581.9960517883301,399.44921788573265,3736.2,581.9960517883301,399.44921788573265,3839.9,581.9960517883301,399.44921788573265,3941.9,581.9960517883301,399.44921788573265,4045.9,581.9960517883301,399.44921788573265,4146.6,581.9960517883301,399.44921788573265,4250.7,581.9960517883301,399.44921788573265,4351.4,581.9960517883301,399.44921788573265,4456.6,581.9960517883301,399.44921788573265,4571.9,581.9960517883301,399.44921788573265,4672.2,581.9960517883301,399.44921788573265,4776.4,581.9960517883301,399.44921788573265,4882.1,581.9960517883301,399.44921788573265,4982.3]","[5472.5,5472.5,3116.7,2007.9,347.9,""while_blue"",""down"",""down"",""good_move"",8362.5,2889,2205.6,5473.5,683.4,""oops"",""left"",""down"",""good_move"",11080.1,2717.3,1961.5,8362.8,755.8,""smooth"",""left"",""left"",""good_move"",14345.1,3264.3,2776.6,11080.9,487.7,""smooth"",""left"",""left"",""good_move"",21224.1,6877.9,2846,17982.4,395.7,""smooth"",""down"",""down"",""good_move"",23312.3,2087.3,1641.9,21225,445.4,""smooth"",""left"",""left"",""good_move""]","",""
"3335","","<div style=""width:500px;"">
  <p>What determined the result of this run?</p>
  </div>","93","html-slider-response","55","1018422","0.0-10.0-1.3","236","1","2025-07-09 09:42:58","7701e855f2ef39aa3fd6c71abdc6918a","71.138.89.249","Mozilla/5.0 (Windows NT 10.0; Win64; x64) AppleWebKit/537.36 (KHTML, like Gecko) Chrome/138.0.0.0 Safari/537.36","WebKit","Chrome","138.0.0.0","Windows","10.0","https://app.prolific.com/","en-US,en;q=0.9","5f0a7dec44c42c19a6c9f6d9","686d226cabeef709c732f8e1","686e31475a02ab40e526ca71","5f0a7dec44c42c19a6c9f6d9","2025-07-09T09:59:57.522Z","","","","","","AttribQ","","","","","","","","","","","","","","","","","","","","","","","","","","","","","","","","","","","","","","50"
"4016","","<div style=""width:500px;"">
  <p>How much control did you have over the ball?</p>
  </div>","63","html-slider-response","56","1022439","0.0-10.0-2.3","236","1","2025-07-09 09:42:58","7701e855f2ef39aa3fd6c71abdc6918a","71.138.89.249","Mozilla/5.0 (Windows NT 10.0; Win64; x64) AppleWebKit/537.36 (KHTML, like Gecko) Chrome/138.0.0.0 Safari/537.36","WebKit","Chrome","138.0.0.0","Windows","10.0","https://app.prolific.com/","en-US,en;q=0.9","5f0a7dec44c42c19a6c9f6d9","686d226cabeef709c732f8e1","686e31475a02ab40e526ca71","5f0a7dec44c42c19a6c9f6d9","2025-07-09T10:00:01.540Z","","","","","","ControlQ","","","","","","","","","","","","","","","","","","","","","","","","","","","","","","","","","","","","","","50"
"3386","","<div style=""width:500px;"">
  <p>How would you describe your current emotional state?</p>
  </div>","70","html-slider-response","57","1025833","0.0-10.0-3.3","236","1","2025-07-09 09:42:58","7701e855f2ef39aa3fd6c71abdc6918a","71.138.89.249","Mozilla/5.0 (Windows NT 10.0; Win64; x64) AppleWebKit/537.36 (KHTML, like Gecko) Chrome/138.0.0.0 Safari/537.36","WebKit","Chrome","138.0.0.0","Windows","10.0","https://app.prolific.com/","en-US,en;q=0.9","5f0a7dec44c42c19a6c9f6d9","686d226cabeef709c732f8e1","686e31475a02ab40e526ca71","5f0a7dec44c42c19a6c9f6d9","2025-07-09T10:00:04.933Z","","","","","","StressQ","","","","","","","","","","","","","","","","","","","","","","","","","","","","","","","","","","","","","","50"
"2848","","<div style=""width:500px;"">
  <p>What best describes how you currently feel?</p>
  </div>","75","html-slider-response","58","1028683","0.0-10.0-4.3","236","1","2025-07-09 09:42:58","7701e855f2ef39aa3fd6c71abdc6918a","71.138.89.249","Mozilla/5.0 (Windows NT 10.0; Win64; x64) AppleWebKit/537.36 (KHTML, like Gecko) Chrome/138.0.0.0 Safari/537.36","WebKit","Chrome","138.0.0.0","Windows","10.0","https://app.prolific.com/","en-US,en;q=0.9","5f0a7dec44c42c19a6c9f6d9","686d226cabeef709c732f8e1","686e31475a02ab40e526ca71","5f0a7dec44c42c19a6c9f6d9","2025-07-09T10:00:07.783Z","","","","","","MotivationQ","","","","","","","","","","","","","","","","","","","","","","","","","","","","","","","","","","","","","","50"
"","","","","ctl-task-cpt","59","1051175","0.0-10.0-0.4","236","1","2025-07-09 09:42:58","7701e855f2ef39aa3fd6c71abdc6918a","71.138.89.249","Mozilla/5.0 (Windows NT 10.0; Win64; x64) AppleWebKit/537.36 (KHTML, like Gecko) Chrome/138.0.0.0 Safari/537.36","WebKit","Chrome","138.0.0.0","Windows","10.0","https://app.prolific.com/","en-US,en;q=0.9","5f0a7dec44c42c19a6c9f6d9","686d226cabeef709c732f8e1","686e31475a02ab40e526ca71","5f0a7dec44c42c19a6c9f6d9","2025-07-09T10:00:30.275Z","","","","","","","","","","","","","","","","win-only","2","g1:SE,g2:NW","0.6","5","0","1031233.2","1716.1","6721.2","19455.6","1","4","8","6","1","1","1","5","4","0.03787878787878788","5005.1","3000","1830","[""down"",""right""]","{""num_key_presses"":4,""num_perfect"":3,""num_errors"":0,""num_randdir"":1,""num_randdir_good_moves"":1,""num_whilered"":0,""num_whileblue"":0,""num_blue"":1,""num_good_moves"":4}","[414.6523017883301,412.57421788573265,0.3,417.9335517883301,412.57421788573265,106.5,603.3241767883301,506.08984288573265,218.5,603.3241767883301,509.37109288573265,320.1,603.3241767883301,509.37109288573265,427.6,603.3241767883301,509.37109288573265,531.1,603.3241767883301,509.37109288573265,634.4,603.3241767883301,509.37109288573265,736.7,603.3241767883301,509.37109288573265,837.1,603.3241767883301,509.37109288573265,938.4,603.3241767883301,509.37109288573265,1039.1,603.3241767883301,509.37109288573265,1139.7,603.3241767883301,509.37109288573265,1240.2,603.3241767883301,509.37109288573265,1345.6,603.3241767883301,509.37109288573265,1445.7,603.3241767883301,509.37109288573265,1545.9,603.3241767883301,509.37109288573265,1658.5,603.3241767883301,509.37109288573265,1760.1,603.3241767883301,509.37109288573265,1865,603.3241767883301,509.37109288573265,1969.6,603.3241767883301,509.37109288573265,2088.8,603.3241767883301,509.37109288573265,2193.5,603.3241767883301,509.37109288573265,2304.4,603.3241767883301,509.37109288573265,2409.3,603.3241767883301,509.37109288573265,2510.1,603.3241767883301,509.37109288573265,2610.5,603.3241767883301,509.37109288573265,2712.8,603.3241767883301,509.37109288573265,2814.9,603.3241767883301,509.37109288573265,2915.2,603.3241767883301,509.37109288573265,3019.4,603.3241767883301,509.37109288573265,3119.4,603.3241767883301,509.37109288573265,3220.7,603.3241767883301,509.37109288573265,3323.9,603.3241767883301,509.37109288573265,3427.3,603.3241767883301,509.37109288573265,3539,603.3241767883301,509.37109288573265,3643.2,603.3241767883301,509.37109288573265,3745.7,603.3241767883301,509.37109288573265,3849.7,603.3241767883301,509.37109288573265,3954.4,603.3241767883301,509.37109288573265,4054.6,603.3241767883301,509.37109288573265,4155.1,603.3241767883301,509.37109288573265,4270.8,603.3241767883301,509.37109288573265,4389.2,603.3241767883301,509.37109288573265,4489.2,603.3241767883301,509.37109288573265,4589.5,603.3241767883301,509.37109288573265,4690.8,603.3241767883301,509.37109288573265,4794.9,603.3241767883301,509.37109288573265,4896.1,603.3241767883301,509.37109288573265,4999.8]","[4162.3,4162.3,1909.5,2017.5,235.3,""oops"",""left"",""right"",""good_move"",7180.8,3017.1,2568.5,4163.7,448.6,""smooth"",""down"",""down"",""good_move"",9730.4,2548.7,2002.3,7181.7,546.4,""smooth"",""down"",""down"",""good_move"",12599.2,2868.4,2227.8,9730.8,640.6,""smooth"",""right"",""right"",""good_move""]","",""
"3266","","<div style=""width:500px;"">
  <p>What determined the result of this run?</p>
  </div>","80","html-slider-response","60","1054444","0.0-10.0-1.4","236","1","2025-07-09 09:42:58","7701e855f2ef39aa3fd6c71abdc6918a","71.138.89.249","Mozilla/5.0 (Windows NT 10.0; Win64; x64) AppleWebKit/537.36 (KHTML, like Gecko) Chrome/138.0.0.0 Safari/537.36","WebKit","Chrome","138.0.0.0","Windows","10.0","https://app.prolific.com/","en-US,en;q=0.9","5f0a7dec44c42c19a6c9f6d9","686d226cabeef709c732f8e1","686e31475a02ab40e526ca71","5f0a7dec44c42c19a6c9f6d9","2025-07-09T10:00:33.544Z","","","","","","AttribQ","","","","","","","","","","","","","","","","","","","","","","","","","","","","","","","","","","","","","","50"
"2744","","<div style=""width:500px;"">
  <p>How much control did you have over the ball?</p>
  </div>","81","html-slider-response","61","1057190","0.0-10.0-2.4","236","1","2025-07-09 09:42:58","7701e855f2ef39aa3fd6c71abdc6918a","71.138.89.249","Mozilla/5.0 (Windows NT 10.0; Win64; x64) AppleWebKit/537.36 (KHTML, like Gecko) Chrome/138.0.0.0 Safari/537.36","WebKit","Chrome","138.0.0.0","Windows","10.0","https://app.prolific.com/","en-US,en;q=0.9","5f0a7dec44c42c19a6c9f6d9","686d226cabeef709c732f8e1","686e31475a02ab40e526ca71","5f0a7dec44c42c19a6c9f6d9","2025-07-09T10:00:36.290Z","","","","","","ControlQ","","","","","","","","","","","","","","","","","","","","","","","","","","","","","","","","","","","","","","50"
"2899","","<div style=""width:500px;"">
  <p>How would you describe your current emotional state?</p>
  </div>","76","html-slider-response","62","1060091","0.0-10.0-3.4","236","1","2025-07-09 09:42:58","7701e855f2ef39aa3fd6c71abdc6918a","71.138.89.249","Mozilla/5.0 (Windows NT 10.0; Win64; x64) AppleWebKit/537.36 (KHTML, like Gecko) Chrome/138.0.0.0 Safari/537.36","WebKit","Chrome","138.0.0.0","Windows","10.0","https://app.prolific.com/","en-US,en;q=0.9","5f0a7dec44c42c19a6c9f6d9","686d226cabeef709c732f8e1","686e31475a02ab40e526ca71","5f0a7dec44c42c19a6c9f6d9","2025-07-09T10:00:39.193Z","","","","","","StressQ","","","","","","","","","","","","","","","","","","","","","","","","","","","","","","","","","","","","","","50"
"2892","","<div style=""width:500px;"">
  <p>What best describes how you currently feel?</p>
  </div>","79","html-slider-response","63","1062987","0.0-10.0-4.4","236","1","2025-07-09 09:42:58","7701e855f2ef39aa3fd6c71abdc6918a","71.138.89.249","Mozilla/5.0 (Windows NT 10.0; Win64; x64) AppleWebKit/537.36 (KHTML, like Gecko) Chrome/138.0.0.0 Safari/537.36","WebKit","Chrome","138.0.0.0","Windows","10.0","https://app.prolific.com/","en-US,en;q=0.9","5f0a7dec44c42c19a6c9f6d9","686d226cabeef709c732f8e1","686e31475a02ab40e526ca71","5f0a7dec44c42c19a6c9f6d9","2025-07-09T10:00:42.087Z","","","","","","MotivationQ","","","","","","","","","","","","","","","","","","","","","","","","","","","","","","","","","","","","","","50"
"","","","","ctl-task-cpt","64","1095876","0.0-10.0-0.5","236","1","2025-07-09 09:42:58","7701e855f2ef39aa3fd6c71abdc6918a","71.138.89.249","Mozilla/5.0 (Windows NT 10.0; Win64; x64) AppleWebKit/537.36 (KHTML, like Gecko) Chrome/138.0.0.0 Safari/537.36","WebKit","Chrome","138.0.0.0","Windows","10.0","https://app.prolific.com/","en-US,en;q=0.9","5f0a7dec44c42c19a6c9f6d9","686d226cabeef709c732f8e1","686e31475a02ab40e526ca71","5f0a7dec44c42c19a6c9f6d9","2025-07-09T10:01:14.976Z","","","","","","","","","","","","","","","","win-only","0","g1:NW,g2:SE","0.5","6","0","1065537.4","1562.6","6567","29869.1","1","4","4","6","2","4","4","9","5","0.06818181818181818","5004.4","3000","870","[""down"",""right""]","{""num_key_presses"":6,""num_perfect"":4,""num_errors"":0,""num_randdir"":2,""num_randdir_good_moves"":2,""num_whilered"":0,""num_whileblue"":0,""num_blue"":2,""num_good_moves"":6}","[409.7304267883301,406.01171788573265,0.3,409.7304267883301,406.01171788573265,100.1,424.4960517883301,407.65234288573265,201.3,709.9648017883301,448.66796788573265,303.5,713.2460517883301,451.94921788573265,408.6,713.2460517883301,451.94921788573265,509.4,713.2460517883301,451.94921788573265,614.4,713.2460517883301,451.94921788573265,718.2,713.2460517883301,451.94921788573265,819.4,713.2460517883301,451.94921788573265,932.2,713.2460517883301,451.94921788573265,1033.6,713.2460517883301,451.94921788573265,1133.7,713.2460517883301,451.94921788573265,1234.8,713.2460517883301,451.94921788573265,1338,816.6054267883301,397.80859288573265,1448.1,900.2773017883301,340.38671788573265,1552.8,900.2773017883301,340.38671788573265,1653.7,900.2773017883301,340.38671788573265,1755.9,900.2773017883301,340.38671788573265,1864.8,900.2773017883301,340.38671788573265,1969.8,896.9960517883301,355.15234288573265,2070,892.0741767883301,355.15234288573265,2172.8,890.4335517883301,355.15234288573265,2273.8,890.4335517883301,355.15234288573265,2381.5,890.4335517883301,355.15234288573265,2482.8,890.4335517883301,355.15234288573265,2586.5,890.4335517883301,355.15234288573265,2689.5,890.4335517883301,355.15234288573265,2802,890.4335517883301,355.15234288573265,2902.5,890.4335517883301,355.15234288573265,3003.3,890.4335517883301,355.15234288573265,3103.7,890.4335517883301,355.15234288573265,3207.8,890.4335517883301,355.15234288573265,3308.9,890.4335517883301,355.15234288573265,3411.3,890.4335517883301,355.15234288573265,3513.3,890.4335517883301,355.15234288573265,3620.2,890.4335517883301,355.15234288573265,3735.5,890.4335517883301,355.15234288573265,3838,890.4335517883301,355.15234288573265,3939.6,890.4335517883301,355.15234288573265,4044.3,890.4335517883301,355.15234288573265,4148.1,890.4335517883301,355.15234288573265,4254.8,890.4335517883301,355.15234288573265,4371.8,890.4335517883301,355.15234288573265,4474,890.4335517883301,355.15234288573265,4577.8,890.4335517883301,355.15234288573265,4680.9,890.4335517883301,355.15234288573265,4782.6,890.4335517883301,355.15234288573265,4884.4,890.4335517883301,355.15234288573265,4987.9]","[1495.8,1495.8,1000,0,495.8,""oops"",""right"",""down"",""good_move"",4895.8,3398.4,2999,1497.4,399.4,""oops"",""right"",""right"",""good_move"",11246.8,6350.7,1887.4,8935.3,424.1,""smooth"",""right"",""right"",""good_move"",17110.4,5863.3,2379.3,14368,363.1,""smooth"",""down"",""down"",""good_move"",20051.5,2940.8,1931.6,17110.9,1009.1,""smooth"",""down"",""down"",""good_move"",23177.6,3125.4,2753.9,20052.2,371.5,""smooth"",""right"",""right"",""good_move""]","",""
"5333","","<div style=""width:500px;"">
  <p>What determined the result of this run?</p>
  </div>","99","html-slider-response","65","1101212","0.0-10.0-1.5","236","1","2025-07-09 09:42:58","7701e855f2ef39aa3fd6c71abdc6918a","71.138.89.249","Mozilla/5.0 (Windows NT 10.0; Win64; x64) AppleWebKit/537.36 (KHTML, like Gecko) Chrome/138.0.0.0 Safari/537.36","WebKit","Chrome","138.0.0.0","Windows","10.0","https://app.prolific.com/","en-US,en;q=0.9","5f0a7dec44c42c19a6c9f6d9","686d226cabeef709c732f8e1","686e31475a02ab40e526ca71","5f0a7dec44c42c19a6c9f6d9","2025-07-09T10:01:20.312Z","","","","","","AttribQ","","","","","","","","","","","","","","","","","","","","","","","","","","","","","","","","","","","","","","50"
"4252","","<div style=""width:500px;"">
  <p>How much control did you have over the ball?</p>
  </div>","81","html-slider-response","66","1105465","0.0-10.0-2.5","236","1","2025-07-09 09:42:58","7701e855f2ef39aa3fd6c71abdc6918a","71.138.89.249","Mozilla/5.0 (Windows NT 10.0; Win64; x64) AppleWebKit/537.36 (KHTML, like Gecko) Chrome/138.0.0.0 Safari/537.36","WebKit","Chrome","138.0.0.0","Windows","10.0","https://app.prolific.com/","en-US,en;q=0.9","5f0a7dec44c42c19a6c9f6d9","686d226cabeef709c732f8e1","686e31475a02ab40e526ca71","5f0a7dec44c42c19a6c9f6d9","2025-07-09T10:01:24.565Z","","","","","","ControlQ","","","","","","","","","","","","","","","","","","","","","","","","","","","","","","","","","","","","","","50"
"5765","","<div style=""width:500px;"">
  <p>How would you describe your current emotional state?</p>
  </div>","58","html-slider-response","67","1111232","0.0-10.0-3.5","236","1","2025-07-09 09:42:58","7701e855f2ef39aa3fd6c71abdc6918a","71.138.89.249","Mozilla/5.0 (Windows NT 10.0; Win64; x64) AppleWebKit/537.36 (KHTML, like Gecko) Chrome/138.0.0.0 Safari/537.36","WebKit","Chrome","138.0.0.0","Windows","10.0","https://app.prolific.com/","en-US,en;q=0.9","5f0a7dec44c42c19a6c9f6d9","686d226cabeef709c732f8e1","686e31475a02ab40e526ca71","5f0a7dec44c42c19a6c9f6d9","2025-07-09T10:01:30.332Z","","","","","","StressQ","","","","","","","","","","","","","","","","","","","","","","","","","","","","","","","","","","","","","","50"
"2981","","<div style=""width:500px;"">
  <p>What best describes how you currently feel?</p>
  </div>","81","html-slider-response","68","1114215","0.0-10.0-4.5","236","1","2025-07-09 09:42:58","7701e855f2ef39aa3fd6c71abdc6918a","71.138.89.249","Mozilla/5.0 (Windows NT 10.0; Win64; x64) AppleWebKit/537.36 (KHTML, like Gecko) Chrome/138.0.0.0 Safari/537.36","WebKit","Chrome","138.0.0.0","Windows","10.0","https://app.prolific.com/","en-US,en;q=0.9","5f0a7dec44c42c19a6c9f6d9","686d226cabeef709c732f8e1","686e31475a02ab40e526ca71","5f0a7dec44c42c19a6c9f6d9","2025-07-09T10:01:33.315Z","","","","","","MotivationQ","","","","","","","","","","","","","","","","","","","","","","","","","","","","","","","","","","","","","","50"
"","","","","ctl-task-cpt","69","1162821","0.0-10.0-0.6","236","1","2025-07-09 09:42:58","7701e855f2ef39aa3fd6c71abdc6918a","71.138.89.249","Mozilla/5.0 (Windows NT 10.0; Win64; x64) AppleWebKit/537.36 (KHTML, like Gecko) Chrome/138.0.0.0 Safari/537.36","WebKit","Chrome","138.0.0.0","Windows","10.0","https://app.prolific.com/","en-US,en;q=0.9","5f0a7dec44c42c19a6c9f6d9","686d226cabeef709c732f8e1","686e31475a02ab40e526ca71","5f0a7dec44c42c19a6c9f6d9","2025-07-09T10:02:21.921Z","","","","","","","","","","","","","","","","win-only","2","g1:SE,g2:NW","0.4","7","0","1116767.2","1934.8","6935.7","45579.1","1","4","4","6","2","4","4","13","9","0.09848484848484848","5000.9","3000","495","[""left"",""up""]","{""num_key_presses"":8,""num_perfect"":3,""num_errors"":0,""num_randdir"":5,""num_randdir_good_moves"":4,""num_whilered"":0,""num_whileblue"":0,""num_blue"":4,""num_good_moves"":7}","[417.9335517883301,412.57421788573265,0.4,417.9335517883301,412.57421788573265,107.2,417.9335517883301,412.57421788573265,212.1,417.9335517883301,412.57421788573265,317.2,417.9335517883301,414.21484288573265,437.9,417.9335517883301,414.21484288573265,542.4,417.9335517883301,414.21484288573265,648.8,417.9335517883301,414.21484288573265,753.2,417.9335517883301,414.21484288573265,857.6,417.9335517883301,414.21484288573265,967.3,417.9335517883301,414.21484288573265,1067.3,417.9335517883301,414.21484288573265,1167.4,417.9335517883301,414.21484288573265,1277.2,417.9335517883301,414.21484288573265,1378.6,417.9335517883301,414.21484288573265,1480.5,417.9335517883301,414.21484288573265,1581.4,417.9335517883301,414.21484288573265,1683.6,417.9335517883301,414.21484288573265,1786.2,417.9335517883301,414.21484288573265,1892.9,417.9335517883301,414.21484288573265,1995.1,417.9335517883301,412.57421788573265,2099.6,440.9023017883301,396.16796788573265,2201.2,445.8241767883301,392.88671788573265,2302.4,488.4804267883301,378.12109288573265,2419.3,536.0585517883301,356.79296788573265,2519.4,536.0585517883301,356.79296788573265,2621.5,536.0585517883301,356.79296788573265,2721.6,536.0585517883301,356.79296788573265,2822.2,536.0585517883301,356.79296788573265,2926.5,536.0585517883301,356.79296788573265,3037,536.0585517883301,356.79296788573265,3156.5,536.0585517883301,356.79296788573265,3265.2,536.0585517883301,356.79296788573265,3369,536.0585517883301,356.79296788573265,3471.5,536.0585517883301,356.79296788573265,3585.3,536.0585517883301,356.79296788573265,3687.7,536.0585517883301,356.79296788573265,3792.1,536.0585517883301,356.79296788573265,3893.1,536.0585517883301,356.79296788573265,3996.5,536.0585517883301,356.79296788573265,4102,536.0585517883301,356.79296788573265,4216.1,536.0585517883301,356.79296788573265,4320.9,536.0585517883301,356.79296788573265,4434.2,536.0585517883301,356.79296788573265,4536.4,536.0585517883301,356.79296788573265,4642.9,536.0585517883301,356.79296788573265,4746,536.0585517883301,356.79296788573265,4847.9,536.0585517883301,356.79296788573265,4952.2]","[1459.2,1459.2,1000,0,459.2,""smooth"",""left"",""left"",""good_move"",4832.2,3371.6,2889.5,1460.7,482,""oops"",""up"",""up"",""good_move"",11631.6,6798.5,2567.1,8575.7,488.8,""smooth"",""left"",""left"",""good_move"",14574.7,2942.5,2504.1,11632.3,438.4,""oops"",""left"",""left"",""good_move"",21893.8,7318.6,3250.6,18181.8,461.4,""oops"",""up"",""down"",""bad_move"",28455.4,6560.7,2274.2,25771.1,410.2,""oops"",""up"",""up"",""good_move"",31268.4,2808.8,2293.1,28459.6,515.7,""smooth"",""up"",""up"",""good_move"",38513.6,7244.8,2918,35218.5,377.1,""oops"",""up"",""up"",""good_move""]","",""
"3025","","<div style=""width:500px;"">
  <p>What determined the result of this run?</p>
  </div>","91","html-slider-response","70","1165848","0.0-10.0-1.6","236","1","2025-07-09 09:42:58","7701e855f2ef39aa3fd6c71abdc6918a","71.138.89.249","Mozilla/5.0 (Windows NT 10.0; Win64; x64) AppleWebKit/537.36 (KHTML, like Gecko) Chrome/138.0.0.0 Safari/537.36","WebKit","Chrome","138.0.0.0","Windows","10.0","https://app.prolific.com/","en-US,en;q=0.9","5f0a7dec44c42c19a6c9f6d9","686d226cabeef709c732f8e1","686e31475a02ab40e526ca71","5f0a7dec44c42c19a6c9f6d9","2025-07-09T10:02:24.948Z","","","","","","AttribQ","","","","","","","","","","","","","","","","","","","","","","","","","","","","","","","","","","","","","","50"
"3807","","<div style=""width:500px;"">
  <p>How much control did you have over the ball?</p>
  </div>","53","html-slider-response","71","1169660","0.0-10.0-2.6","236","1","2025-07-09 09:42:58","7701e855f2ef39aa3fd6c71abdc6918a","71.138.89.249","Mozilla/5.0 (Windows NT 10.0; Win64; x64) AppleWebKit/537.36 (KHTML, like Gecko) Chrome/138.0.0.0 Safari/537.36","WebKit","Chrome","138.0.0.0","Windows","10.0","https://app.prolific.com/","en-US,en;q=0.9","5f0a7dec44c42c19a6c9f6d9","686d226cabeef709c732f8e1","686e31475a02ab40e526ca71","5f0a7dec44c42c19a6c9f6d9","2025-07-09T10:02:28.761Z","","","","","","ControlQ","","","","","","","","","","","","","","","","","","","","","","","","","","","","","","","","","","","","","","50"
"5549","","<div style=""width:500px;"">
  <p>How would you describe your current emotional state?</p>
  </div>","50","html-slider-response","72","1175213","0.0-10.0-3.6","236","1","2025-07-09 09:42:58","7701e855f2ef39aa3fd6c71abdc6918a","71.138.89.249","Mozilla/5.0 (Windows NT 10.0; Win64; x64) AppleWebKit/537.36 (KHTML, like Gecko) Chrome/138.0.0.0 Safari/537.36","WebKit","Chrome","138.0.0.0","Windows","10.0","https://app.prolific.com/","en-US,en;q=0.9","5f0a7dec44c42c19a6c9f6d9","686d226cabeef709c732f8e1","686e31475a02ab40e526ca71","5f0a7dec44c42c19a6c9f6d9","2025-07-09T10:02:34.313Z","","","","","","StressQ","","","","","","","","","","","","","","","","","","","","","","","","","","","","","","","","","","","","","","50"
"2553","","<div style=""width:500px;"">
  <p>What best describes how you currently feel?</p>
  </div>","87","html-slider-response","73","1177768","0.0-10.0-4.6","236","1","2025-07-09 09:42:58","7701e855f2ef39aa3fd6c71abdc6918a","71.138.89.249","Mozilla/5.0 (Windows NT 10.0; Win64; x64) AppleWebKit/537.36 (KHTML, like Gecko) Chrome/138.0.0.0 Safari/537.36","WebKit","Chrome","138.0.0.0","Windows","10.0","https://app.prolific.com/","en-US,en;q=0.9","5f0a7dec44c42c19a6c9f6d9","686d226cabeef709c732f8e1","686e31475a02ab40e526ca71","5f0a7dec44c42c19a6c9f6d9","2025-07-09T10:02:36.868Z","","","","","","MotivationQ","","","","","","","","","","","","","","","","","","","","","","","","","","","","","","","","","","","","","","50"
"","","","","ctl-task-cpt","74","1239502","0.0-10.0-0.7","236","1","2025-07-09 09:42:58","7701e855f2ef39aa3fd6c71abdc6918a","71.138.89.249","Mozilla/5.0 (Windows NT 10.0; Win64; x64) AppleWebKit/537.36 (KHTML, like Gecko) Chrome/138.0.0.0 Safari/537.36","WebKit","Chrome","138.0.0.0","Windows","10.0","https://app.prolific.com/","en-US,en;q=0.9","5f0a7dec44c42c19a6c9f6d9","686d226cabeef709c732f8e1","686e31475a02ab40e526ca71","5f0a7dec44c42c19a6c9f6d9","2025-07-09T10:03:38.602Z","","","","","","","","","","","","","","","","win-only","2","g1:SE,g2:NW","0.3","8","0","1180320.5","1331.6","6349.7","58713","1","4","8","6","2","-8","-8","5","13","0.03787878787878788","5018.1","3000","-1795","[""left"",""up""]","{""num_key_presses"":12,""num_perfect"":3,""num_errors"":0,""num_randdir"":9,""num_randdir_good_moves"":4,""num_whilered"":0,""num_whileblue"":0,""num_blue"":4,""num_good_moves"":7}","[417.9335517883301,406.01171788573265,0.4,417.9335517883301,406.01171788573265,109,429.4179267883301,417.49609288573265,215.3,514.7304267883301,461.79296788573265,318,514.7304267883301,461.79296788573265,420.5,514.7304267883301,461.79296788573265,521.3,514.7304267883301,461.79296788573265,623.7,514.7304267883301,461.79296788573265,734,514.7304267883301,461.79296788573265,834.1,514.7304267883301,461.79296788573265,935.1,514.7304267883301,461.79296788573265,1055.1,514.7304267883301,461.79296788573265,1167.6,514.7304267883301,461.79296788573265,1268.8,514.7304267883301,461.79296788573265,1368.8,514.7304267883301,461.79296788573265,1471.3,514.7304267883301,461.79296788573265,1590.5,514.7304267883301,461.79296788573265,1692.8,514.7304267883301,461.79296788573265,1797.6,514.7304267883301,461.79296788573265,1902.1,514.7304267883301,461.79296788573265,2015.8,514.7304267883301,461.79296788573265,2119,514.7304267883301,461.79296788573265,2225.7,514.7304267883301,461.79296788573265,2326.3,514.7304267883301,461.79296788573265,2430.8,514.7304267883301,461.79296788573265,2533.3,514.7304267883301,461.79296788573265,2637.6,514.7304267883301,461.79296788573265,2755.1,514.7304267883301,461.79296788573265,2860.1,514.7304267883301,461.79296788573265,2966.8,514.7304267883301,461.79296788573265,3068.9,514.7304267883301,461.79296788573265,3170.2,514.7304267883301,461.79296788573265,3285.5,514.7304267883301,461.79296788573265,3390.2,514.7304267883301,461.79296788573265,3494.5,514.7304267883301,461.79296788573265,3595,514.7304267883301,461.79296788573265,3700.6,514.7304267883301,461.79296788573265,3806.3,514.7304267883301,461.79296788573265,3909.3,549.1835517883301,458.51171788573265,4020.2,586.9179267883301,456.87109288573265,4141.2,586.9179267883301,456.87109288573265,4245,586.9179267883301,456.87109288573265,4348.8,586.9179267883301,456.87109288573265,4449.7,586.9179267883301,456.87109288573265,4550.1,586.9179267883301,456.87109288573265,4651.9,586.9179267883301,456.87109288573265,4754.1,586.9179267883301,456.87109288573265,4854.4,586.9179267883301,456.87109288573265,4958.8]","[1466.1,1466.1,1000,0,466.1,""oops"",""left"",""right"",""bad_move"",4394.9,2927.8,2414.5,1467.2,513.2,""oops"",""up"",""up"",""good_move"",10983.3,6588.1,2669.2,7867.4,446.7,""oops"",""left"",""right"",""bad_move"",17916.6,6931.1,3175.7,14313.8,427.1,""oops"",""left"",""down"",""bad_move"",20879.9,2962.6,2515.5,17917.3,447.1,""oops"",""left"",""down"",""bad_move"",24458,3577.8,3062.3,20880.2,515.5,""oops"",""left"",""up"",""good_move"",27541.8,3083.4,2631.5,24458.5,451.9,""oops"",""left"",""down"",""bad_move"",33571.9,6028.6,2967.2,30154.5,450.2,""smooth"",""up"",""up"",""good_move"",36067.4,2493.7,1992.3,33573.7,501.4,""smooth"",""up"",""up"",""good_move"",43268.5,7200.6,3115.6,39698.9,454,""smooth"",""up"",""up"",""good_move"",46440.5,3171.7,2702.7,43268.8,469,""oops"",""up"",""left"",""good_move"",49409.6,2968.6,2457.5,46441,511.1,""oops"",""up"",""up"",""good_move""]","",""
"8683","","<div style=""width:500px;"">
  <p>What determined the result of this run?</p>
  </div>","40","html-slider-response","75","1248188","0.0-10.0-1.7","236","1","2025-07-09 09:42:58","7701e855f2ef39aa3fd6c71abdc6918a","71.138.89.249","Mozilla/5.0 (Windows NT 10.0; Win64; x64) AppleWebKit/537.36 (KHTML, like Gecko) Chrome/138.0.0.0 Safari/537.36","WebKit","Chrome","138.0.0.0","Windows","10.0","https://app.prolific.com/","en-US,en;q=0.9","5f0a7dec44c42c19a6c9f6d9","686d226cabeef709c732f8e1","686e31475a02ab40e526ca71","5f0a7dec44c42c19a6c9f6d9","2025-07-09T10:03:47.288Z","","","","","","AttribQ","","","","","","","","","","","","","","","","","","","","","","","","","","","","","","","","","","","","","","50"
"4144","","<div style=""width:500px;"">
  <p>How much control did you have over the ball?</p>
  </div>","4","html-slider-response","76","1252333","0.0-10.0-2.7","236","1","2025-07-09 09:42:58","7701e855f2ef39aa3fd6c71abdc6918a","71.138.89.249","Mozilla/5.0 (Windows NT 10.0; Win64; x64) AppleWebKit/537.36 (KHTML, like Gecko) Chrome/138.0.0.0 Safari/537.36","WebKit","Chrome","138.0.0.0","Windows","10.0","https://app.prolific.com/","en-US,en;q=0.9","5f0a7dec44c42c19a6c9f6d9","686d226cabeef709c732f8e1","686e31475a02ab40e526ca71","5f0a7dec44c42c19a6c9f6d9","2025-07-09T10:03:51.433Z","","","","","","ControlQ","","","","","","","","","","","","","","","","","","","","","","","","","","","","","","","","","","","","","","50"
"4011","","<div style=""width:500px;"">
  <p>How would you describe your current emotional state?</p>
  </div>","93","html-slider-response","77","1256345","0.0-10.0-3.7","236","1","2025-07-09 09:42:58","7701e855f2ef39aa3fd6c71abdc6918a","71.138.89.249","Mozilla/5.0 (Windows NT 10.0; Win64; x64) AppleWebKit/537.36 (KHTML, like Gecko) Chrome/138.0.0.0 Safari/537.36","WebKit","Chrome","138.0.0.0","Windows","10.0","https://app.prolific.com/","en-US,en;q=0.9","5f0a7dec44c42c19a6c9f6d9","686d226cabeef709c732f8e1","686e31475a02ab40e526ca71","5f0a7dec44c42c19a6c9f6d9","2025-07-09T10:03:55.445Z","","","","","","StressQ","","","","","","","","","","","","","","","","","","","","","","","","","","","","","","","","","","","","","","50"
"3780","","<div style=""width:500px;"">
  <p>What best describes how you currently feel?</p>
  </div>","80","html-slider-response","78","1260128","0.0-10.0-4.7","236","1","2025-07-09 09:42:58","7701e855f2ef39aa3fd6c71abdc6918a","71.138.89.249","Mozilla/5.0 (Windows NT 10.0; Win64; x64) AppleWebKit/537.36 (KHTML, like Gecko) Chrome/138.0.0.0 Safari/537.36","WebKit","Chrome","138.0.0.0","Windows","10.0","https://app.prolific.com/","en-US,en;q=0.9","5f0a7dec44c42c19a6c9f6d9","686d226cabeef709c732f8e1","686e31475a02ab40e526ca71","5f0a7dec44c42c19a6c9f6d9","2025-07-09T10:03:59.229Z","","","","","","MotivationQ","","","","","","","","","","","","","","","","","","","","","","","","","","","","","","","","","","","","","","50"
"","","","","ctl-task-cpt","79","1298619","0.0-10.0-0.8","236","1","2025-07-09 09:42:58","7701e855f2ef39aa3fd6c71abdc6918a","71.138.89.249","Mozilla/5.0 (Windows NT 10.0; Win64; x64) AppleWebKit/537.36 (KHTML, like Gecko) Chrome/138.0.0.0 Safari/537.36","WebKit","Chrome","138.0.0.0","Windows","10.0","https://app.prolific.com/","en-US,en;q=0.9","5f0a7dec44c42c19a6c9f6d9","686d226cabeef709c732f8e1","686e31475a02ab40e526ca71","5f0a7dec44c42c19a6c9f6d9","2025-07-09T10:04:37.719Z","","","","","","","","","","","","","","","","win-only","2","g1:SE,g2:NW","0.2","9","0","1262685.3","1564.9","6568.5","35460","1","4","4","6","1","-1","-1","4","5","0.030303030303030304","5003.6","3000","-1110","[""down"",""right""]","{""num_key_presses"":10,""num_perfect"":2,""num_errors"":0,""num_randdir"":8,""num_randdir_good_moves"":3,""num_whilered"":0,""num_whileblue"":0,""num_blue"":0,""num_good_moves"":4}","[417.9335517883301,410.93359288573265,0.5,417.9335517883301,410.93359288573265,103.5,417.9335517883301,410.93359288573265,203.5,417.9335517883301,410.93359288573265,306.9,417.9335517883301,410.93359288573265,407.4,417.9335517883301,410.93359288573265,511.3,417.9335517883301,410.93359288573265,611.5,417.9335517883301,410.93359288573265,713.7,417.9335517883301,410.93359288573265,819.3,417.9335517883301,407.65234288573265,919.4,417.9335517883301,407.65234288573265,1020,417.9335517883301,407.65234288573265,1121.9,417.9335517883301,407.65234288573265,1222.7,450.7460517883301,402.73046788573265,1322.7,490.1210517883301,396.16796788573265,1440.5,524.5741767883301,376.48046788573265,1555.7,685.3554267883301,333.82421788573265,1671.8,685.3554267883301,333.82421788573265,1786.2,686.9960517883301,333.82421788573265,1893.2,686.9960517883301,333.82421788573265,2004.8,686.9960517883301,333.82421788573265,2110.6,686.9960517883301,333.82421788573265,2212.7,686.9960517883301,333.82421788573265,2318.1,686.9960517883301,333.82421788573265,2418.2,686.9960517883301,333.82421788573265,2523.3,686.9960517883301,333.82421788573265,2627.1,686.9960517883301,333.82421788573265,2727.6,686.9960517883301,333.82421788573265,2832.3,686.9960517883301,333.82421788573265,2945,686.9960517883301,333.82421788573265,3050.2,686.9960517883301,333.82421788573265,3154.3,686.9960517883301,333.82421788573265,3270.8,686.9960517883301,333.82421788573265,3385.3,686.9960517883301,333.82421788573265,3488.9,686.9960517883301,333.82421788573265,3593.5,686.9960517883301,333.82421788573265,3697.9,686.9960517883301,333.82421788573265,3801.1,686.9960517883301,333.82421788573265,3901.7,686.9960517883301,333.82421788573265,4002.1,686.9960517883301,333.82421788573265,4107.7,686.9960517883301,333.82421788573265,4212.1,686.9960517883301,333.82421788573265,4312.6,686.9960517883301,335.46484288573265,4413.3,686.9960517883301,335.46484288573265,4519.5,686.9960517883301,335.46484288573265,4636.3,686.9960517883301,335.46484288573265,4740.8,686.9960517883301,335.46484288573265,4846,686.9960517883301,335.46484288573265,4948.6]","[1700.6,1700.6,1000,0,700.6,""oops"",""up"",""down"",""good_move"",5142,3440.3,3018.9,1701.7,421.4,""oops"",""right"",""right"",""good_move"",7392.5,2248.7,1824.8,5143.8,423.9,""smooth"",""right"",""right"",""good_move"",10362.2,2968.9,2572.2,7393.3,396.7,""oops"",""down"",""up"",""bad_move"",13243.8,2880.8,2387.9,10363,492.9,""oops"",""down"",""up"",""bad_move"",15715.1,2470.8,1865.7,13244.3,605.1,""oops"",""down"",""up"",""bad_move"",18505.6,2790,2402.2,15715.6,387.8,""smooth"",""left"",""left"",""bad_move"",21097.4,2591.3,2133,18506.1,458.3,""oops"",""down"",""left"",""bad_move"",23884.1,2786.4,2316.4,21097.7,470,""oops"",""down"",""right"",""good_move"",26717.1,2832.5,2511.8,23884.6,320.7,""oops"",""down"",""up"",""bad_move""]","",""
"3550","","<div style=""width:500px;"">
  <p>What determined the result of this run?</p>
  </div>","14","html-slider-response","80","1302174","0.0-10.0-1.8","236","1","2025-07-09 09:42:58","7701e855f2ef39aa3fd6c71abdc6918a","71.138.89.249","Mozilla/5.0 (Windows NT 10.0; Win64; x64) AppleWebKit/537.36 (KHTML, like Gecko) Chrome/138.0.0.0 Safari/537.36","WebKit","Chrome","138.0.0.0","Windows","10.0","https://app.prolific.com/","en-US,en;q=0.9","5f0a7dec44c42c19a6c9f6d9","686d226cabeef709c732f8e1","686e31475a02ab40e526ca71","5f0a7dec44c42c19a6c9f6d9","2025-07-09T10:04:41.274Z","","","","","","AttribQ","","","","","","","","","","","","","","","","","","","","","","","","","","","","","","","","","","","","","","50"
"3546","","<div style=""width:500px;"">
  <p>How much control did you have over the ball?</p>
  </div>","4","html-slider-response","81","1305721","0.0-10.0-2.8","236","1","2025-07-09 09:42:58","7701e855f2ef39aa3fd6c71abdc6918a","71.138.89.249","Mozilla/5.0 (Windows NT 10.0; Win64; x64) AppleWebKit/537.36 (KHTML, like Gecko) Chrome/138.0.0.0 Safari/537.36","WebKit","Chrome","138.0.0.0","Windows","10.0","https://app.prolific.com/","en-US,en;q=0.9","5f0a7dec44c42c19a6c9f6d9","686d226cabeef709c732f8e1","686e31475a02ab40e526ca71","5f0a7dec44c42c19a6c9f6d9","2025-07-09T10:04:44.821Z","","","","","","ControlQ","","","","","","","","","","","","","","","","","","","","","","","","","","","","","","","","","","","","","","50"
"2836","","<div style=""width:500px;"">
  <p>How would you describe your current emotional state?</p>
  </div>","90","html-slider-response","82","1308559","0.0-10.0-3.8","236","1","2025-07-09 09:42:58","7701e855f2ef39aa3fd6c71abdc6918a","71.138.89.249","Mozilla/5.0 (Windows NT 10.0; Win64; x64) AppleWebKit/537.36 (KHTML, like Gecko) Chrome/138.0.0.0 Safari/537.36","WebKit","Chrome","138.0.0.0","Windows","10.0","https://app.prolific.com/","en-US,en;q=0.9","5f0a7dec44c42c19a6c9f6d9","686d226cabeef709c732f8e1","686e31475a02ab40e526ca71","5f0a7dec44c42c19a6c9f6d9","2025-07-09T10:04:47.659Z","","","","","","StressQ","","","","","","","","","","","","","","","","","","","","","","","","","","","","","","","","","","","","","","50"
"2968","","<div style=""width:500px;"">
  <p>What best describes how you currently feel?</p>
  </div>","89","html-slider-response","83","1311528","0.0-10.0-4.8","236","1","2025-07-09 09:42:58","7701e855f2ef39aa3fd6c71abdc6918a","71.138.89.249","Mozilla/5.0 (Windows NT 10.0; Win64; x64) AppleWebKit/537.36 (KHTML, like Gecko) Chrome/138.0.0.0 Safari/537.36","WebKit","Chrome","138.0.0.0","Windows","10.0","https://app.prolific.com/","en-US,en;q=0.9","5f0a7dec44c42c19a6c9f6d9","686d226cabeef709c732f8e1","686e31475a02ab40e526ca71","5f0a7dec44c42c19a6c9f6d9","2025-07-09T10:04:50.628Z","","","","","","MotivationQ","","","","","","","","","","","","","","","","","","","","","","","","","","","","","","","","","","","","","","50"
"","","","","ctl-task-cpt","84","1368227","0.0-10.0-0.9","236","1","2025-07-09 09:42:58","7701e855f2ef39aa3fd6c71abdc6918a","71.138.89.249","Mozilla/5.0 (Windows NT 10.0; Win64; x64) AppleWebKit/537.36 (KHTML, like Gecko) Chrome/138.0.0.0 Safari/537.36","WebKit","Chrome","138.0.0.0","Windows","10.0","https://app.prolific.com/","en-US,en;q=0.9","5f0a7dec44c42c19a6c9f6d9","686d226cabeef709c732f8e1","686e31475a02ab40e526ca71","5f0a7dec44c42c19a6c9f6d9","2025-07-09T10:05:47.327Z","","","","","","","","","","","","","","","","win-only","2","g1:SE,g2:NW","0.4","10","0","1314078.4","2481","7488.4","53671.3","1","4","8","6","2","-8","-11","0","4","0","5007.4","3000","-1490","[""left"",""up""]","{""num_key_presses"":14,""num_perfect"":4,""num_errors"":3,""num_randdir"":7,""num_randdir_good_moves"":2,""num_whilered"":0,""num_whileblue"":2,""num_blue"":3,""num_good_moves"":7}","[417.9335517883301,419.13671788573265,0.5,417.9335517883301,419.13671788573265,100.7,417.9335517883301,419.13671788573265,203,440.9023017883301,427.33984288573265,306.5,442.5429267883301,427.33984288573265,416.1,442.5429267883301,433.90234288573265,527.7,442.5429267883301,433.90234288573265,630.8,442.5429267883301,433.90234288573265,738.2,442.5429267883301,433.90234288573265,844.1,442.5429267883301,433.90234288573265,944.5,442.5429267883301,433.90234288573265,1053.8,442.5429267883301,433.90234288573265,1160,442.5429267883301,433.90234288573265,1265.3,442.5429267883301,433.90234288573265,1367.9,442.5429267883301,433.90234288573265,1479.2,442.5429267883301,433.90234288573265,1582.4,439.2616767883301,435.54296788573265,1687.8,439.2616767883301,435.54296788573265,1790.7,439.2616767883301,435.54296788573265,1891.9,439.2616767883301,435.54296788573265,2012.1,439.2616767883301,435.54296788573265,2127.7,411.3710517883301,425.69921788573265,2228.1,367.0741767883301,394.52734288573265,2343.9,367.0741767883301,394.52734288573265,2446.5,367.0741767883301,394.52734288573265,2562.4,365.4335517883301,394.52734288573265,2662.8,365.4335517883301,394.52734288573265,2765.9,363.7929267883301,394.52734288573265,2868.6,360.5116767883301,394.52734288573265,2970.8,335.9023017883301,373.19921788573265,3075.5,334.2616767883301,371.55859288573265,3176.6,334.2616767883301,366.63671788573265,3283.2,360.5116767883301,358.43359288573265,3386.4,485.1991767883301,345.30859288573265,3489.9,485.1991767883301,345.30859288573265,3596.8,476.9960517883301,345.30859288573265,3703.3,476.9960517883301,345.30859288573265,3805.8,476.9960517883301,345.30859288573265,3909.8,476.9960517883301,345.30859288573265,4013.1,476.9960517883301,345.30859288573265,4131.1,476.9960517883301,345.30859288573265,4236.3,476.9960517883301,345.30859288573265,4340,476.9960517883301,345.30859288573265,4446,476.9960517883301,345.30859288573265,4546.9,476.9960517883301,345.30859288573265,4663.9,476.9960517883301,345.30859288573265,4779.8,476.9960517883301,345.30859288573265,4881.8,476.9960517883301,345.30859288573265,4985.9]","[2732.8,2732.8,1000,0,1732.8,""smooth"",""right"",""right"",""bad_move"",3046.5,313,2777,2733.6,-2464.1,""error"",""-"",""-"",""no_move"",7367.1,4320.2,2568,4049,750.1,""smooth"",""up"",""up"",""good_move"",9729.9,2361.9,1881.5,7368,480.4,""oops"",""left"",""right"",""bad_move"",12586.1,2855.8,1820.3,9730.3,1035.5,""oops"",""left"",""left"",""good_move"",15873.4,3286.3,2927,12587.1,359.3,""oops"",""left"",""down"",""bad_move"",19831.4,3957.4,3636.3,15874,321.1,""oops"",""left"",""right"",""bad_move"",22642.5,2810.7,2431.7,19831.8,379,""while_blue"",""up"",""up"",""good_move"",29055.8,6409.1,2163.1,26528.8,363.9,""oops"",""up"",""up"",""good_move"",32114.6,3058.2,2662.8,29056.4,395.4,""smooth"",""left"",""left"",""good_move"",34657.5,2542.4,1979.9,32115.1,562.5,""while_blue"",""left"",""left"",""good_move"",37852,3194.3,2583.9,34657.8,610.4,""smooth"",""left"",""left"",""good_move"",40373.5,2520.7,1416.7,37852.8,1104,""oops"",""left"",""right"",""bad_move"",42802.1,2428,1921.9,40374.1,506.1,""oops"",""up"",""right"",""bad_move""]","",""
"4345","","<div style=""width:500px;"">
  <p>What determined the result of this run?</p>
  </div>","5","html-slider-response","85","1372575","0.0-10.0-1.9","236","1","2025-07-09 09:42:58","7701e855f2ef39aa3fd6c71abdc6918a","71.138.89.249","Mozilla/5.0 (Windows NT 10.0; Win64; x64) AppleWebKit/537.36 (KHTML, like Gecko) Chrome/138.0.0.0 Safari/537.36","WebKit","Chrome","138.0.0.0","Windows","10.0","https://app.prolific.com/","en-US,en;q=0.9","5f0a7dec44c42c19a6c9f6d9","686d226cabeef709c732f8e1","686e31475a02ab40e526ca71","5f0a7dec44c42c19a6c9f6d9","2025-07-09T10:05:51.675Z","","","","","","AttribQ","","","","","","","","","","","","","","","","","","","","","","","","","","","","","","","","","","","","","","50"
"3200","","<div style=""width:500px;"">
