"rt","response_timestamp","stimulus","response","trial_type","trial_index","time_elapsed","internal_node_id","run_id","condition","recorded_at","source_code_version","ip","user_agent","device","browser","browser_version","platform","platform_version","referer","accept_language","PROLIFIC_PID","STUDY_ID","SESSION_ID","prolific_id","realtime","view_history","question_order","consent","success","question_id","eventType","responses","item_order","radio_event_ids","radio_event_times","key_event_times","mouse_event_times","straightlining","zigzagging","honeypot","which_type","canvas_config","goals_layout","control_level","trial_number","tutorial_trial_number","trial_start_time","phase1_start_time","phase2_start_time","phase3_start_time","goal_1_value","goal_1_distance","goal_2_value","goal_2_distance","goal_selected","outcome","outcome_total","participant_final_score","participant_initial_score","participant_final_score_prop","goal_choice_rt","allocated_time","allocated_time_remaining","goal_direction","counts","mouse_movements","key_presses","correct","slider_start"
"3875","1752052007677","<p style='font-size:40px;line-height:1.25'><strong>Welcome to the experiment!</strong></p><p style='font-size:1.1em;line-height:1.25'>Thank you for your interest in our experiment! Before you begin, it is important that we obtain your informed consent to participate in the study.</p><p style='font-size:1.1em;line-height:1.25'>On the next screen will be an <strong>information sheet</strong> for you to read. To participate in the study we need you to read this information sheet and the following consent form carefully. If you agree with all the statements, please click the <strong>I agree</strong> button.</p><p style='font-size:1.1em;line-height:1.25'>Press <strong>Next</strong> to read the information sheet.</p>","0","custom-html-button-response","0","3877","0.0-0.0","18","1","2025-07-09 09:06:42","7701e855f2ef39aa3fd6c71abdc6918a","78.33.241.66","Mozilla/5.0 (Windows NT 10.0; Win64; x64) AppleWebKit/537.36 (KHTML, like Gecko) Chrome/138.0.0.0 Safari/537.36","WebKit","Chrome","138.0.0.0","Windows","10.0","https://app.prolific.com/","en-GB,en;q=0.9","5e203085ac30fa331b586690","686d226cabeef709c732f8e1","686e311c859d8a80b5bb9f48","5e203085ac30fa331b586690","2025-07-09T09:06:47.679Z","","","","","","","","","","","","","","","","","","","","","","","","","","","","","","","","","","","","","","","","","","","",""
"25204","","","","instructions","1","29083","0.0-1.0","18","1","2025-07-09 09:06:42","7701e855f2ef39aa3fd6c71abdc6918a","78.33.241.66","Mozilla/5.0 (Windows NT 10.0; Win64; x64) AppleWebKit/537.36 (KHTML, like Gecko) Chrome/138.0.0.0 Safari/537.36","WebKit","Chrome","138.0.0.0","Windows","10.0","https://app.prolific.com/","en-GB,en;q=0.9","5e203085ac30fa331b586690","686d226cabeef709c732f8e1","686e311c859d8a80b5bb9f48","5e203085ac30fa331b586690","","[{""page_index"":0,""viewing_time"":14202},{""page_index"":1,""viewing_time"":11002}]","","","","","","","","","","","","","","","","","","","","","","","","","","","","","","","","","","","","","","","","","","",""
"2960","","","{""Q0"":"""",""Q1"":"""",""Q2"":"""",""Q3"":"""",""Q4"":"""",""Q5"":"""",""Q6"":""I agree""}","survey-multi-choice","2","32047","0.0-2.0","18","1","2025-07-09 09:06:42","7701e855f2ef39aa3fd6c71abdc6918a","78.33.241.66","Mozilla/5.0 (Windows NT 10.0; Win64; x64) AppleWebKit/537.36 (KHTML, like Gecko) Chrome/138.0.0.0 Safari/537.36","WebKit","Chrome","138.0.0.0","Windows","10.0","https://app.prolific.com/","en-GB,en;q=0.9","5e203085ac30fa331b586690","686d226cabeef709c732f8e1","686e311c859d8a80b5bb9f48","5e203085ac30fa331b586690","","","[0,1,2,3,4,5,6]","true","","","","","","","","","","","","","","","","","","","","","","","","","","","","","","","","","","","","","","","","",""
"3624","","","","fullscreen","3","36684","0.0-4.0","18","1","2025-07-09 09:06:42","7701e855f2ef39aa3fd6c71abdc6918a","78.33.241.66","Mozilla/5.0 (Windows NT 10.0; Win64; x64) AppleWebKit/537.36 (KHTML, like Gecko) Chrome/138.0.0.0 Safari/537.36","WebKit","Chrome","138.0.0.0","Windows","10.0","https://app.prolific.com/","en-GB,en;q=0.9","5e203085ac30fa331b586690","686d226cabeef709c732f8e1","686e311c859d8a80b5bb9f48","5e203085ac30fa331b586690","","","","","true","","","","","","","","","","","","","","","","","","","","","","","","","","","","","","","","","","","","","","","",""
"1800","1752052042287"," <p style='font-size:1.1em;line-height:1.25'>Thank you for completing the consent form and closing all other tabs.</p><p style='font-size:1.1em;line-height:1.25'>We will now invite you to fill in some demographic information and questionnaires, before starting the game.<br>This will take about 5 minutes.<br></p><p style='font-size:1.1em;line-height:1.25'>Press the <strong>Next</strong> button to continue.</p>","0","custom-html-button-response","4","38486","0.0-5.0","18","1","2025-07-09 09:06:42","7701e855f2ef39aa3fd6c71abdc6918a","78.33.241.66","Mozilla/5.0 (Windows NT 10.0; Win64; x64) AppleWebKit/537.36 (KHTML, like Gecko) Chrome/138.0.0.0 Safari/537.36","WebKit","Chrome","138.0.0.0","Windows","10.0","https://app.prolific.com/","en-GB,en;q=0.9","5e203085ac30fa331b586690","686d226cabeef709c732f8e1","686e311c859d8a80b5bb9f48","5e203085ac30fa331b586690","2025-07-09T09:07:22.288Z","","","","","","","","","","","","","","","","","","","","","","","","","","","","","","","","","","","","","","","","","","","",""
"2281","","","{""age"":""32""}","survey-text","5","40771","0.0-6.0-0.0","18","1","2025-07-09 09:06:42","7701e855f2ef39aa3fd6c71abdc6918a","78.33.241.66","Mozilla/5.0 (Windows NT 10.0; Win64; x64) AppleWebKit/537.36 (KHTML, like Gecko) Chrome/138.0.0.0 Safari/537.36","WebKit","Chrome","138.0.0.0","Windows","10.0","https://app.prolific.com/","en-GB,en;q=0.9","5e203085ac30fa331b586690","686d226cabeef709c732f8e1","686e311c859d8a80b5bb9f48","5e203085ac30fa331b586690","","","","","","0","demographics","","","","","","","","","","","","","","","","","","","","","","","","","","","","","","","","","","","","","",""
"2324","","","{""gender_identity"":""female/woman""}","survey-multi-choice","6","43096","0.0-6.0-1.0","18","1","2025-07-09 09:06:42","7701e855f2ef39aa3fd6c71abdc6918a","78.33.241.66","Mozilla/5.0 (Windows NT 10.0; Win64; x64) AppleWebKit/537.36 (KHTML, like Gecko) Chrome/138.0.0.0 Safari/537.36","WebKit","Chrome","138.0.0.0","Windows","10.0","https://app.prolific.com/","en-GB,en;q=0.9","5e203085ac30fa331b586690","686d226cabeef709c732f8e1","686e311c859d8a80b5bb9f48","5e203085ac30fa331b586690","","","[0]","","","1","demographics","","","","","","","","","","","","","","","","","","","","","","","","","","","","","","","","","","","","","",""
"2037","","","{""assigned_sex"":""female""}","survey-multi-choice","7","45134","0.0-6.0-2.0","18","1","2025-07-09 09:06:42","7701e855f2ef39aa3fd6c71abdc6918a","78.33.241.66","Mozilla/5.0 (Windows NT 10.0; Win64; x64) AppleWebKit/537.36 (KHTML, like Gecko) Chrome/138.0.0.0 Safari/537.36","WebKit","Chrome","138.0.0.0","Windows","10.0","https://app.prolific.com/","en-GB,en;q=0.9","5e203085ac30fa331b586690","686d226cabeef709c732f8e1","686e311c859d8a80b5bb9f48","5e203085ac30fa331b586690","","","[0]","","","2","demographics","","","","","","","","","","","","","","","","","","","","","","","","","","","","","","","","","","","","","",""
"1985","","","{""menstrual_cycle"":""Yes""}","survey-multi-choice","8","47120","0.0-6.0-3.0","18","1","2025-07-09 09:06:42","7701e855f2ef39aa3fd6c71abdc6918a","78.33.241.66","Mozilla/5.0 (Windows NT 10.0; Win64; x64) AppleWebKit/537.36 (KHTML, like Gecko) Chrome/138.0.0.0 Safari/537.36","WebKit","Chrome","138.0.0.0","Windows","10.0","https://app.prolific.com/","en-GB,en;q=0.9","5e203085ac30fa331b586690","686d226cabeef709c732f8e1","686e311c859d8a80b5bb9f48","5e203085ac30fa331b586690","","","[0]","","","4","demographics","","","","","","","","","","","","","","","","","","","","","","","","","","","","","","","","","","","","","",""
"5550","","","{""education"":""Higher National Diploma""}","survey-multi-choice","9","52672","0.0-6.0-4.0","18","1","2025-07-09 09:06:42","7701e855f2ef39aa3fd6c71abdc6918a","78.33.241.66","Mozilla/5.0 (Windows NT 10.0; Win64; x64) AppleWebKit/537.36 (KHTML, like Gecko) Chrome/138.0.0.0 Safari/537.36","WebKit","Chrome","138.0.0.0","Windows","10.0","https://app.prolific.com/","en-GB,en;q=0.9","5e203085ac30fa331b586690","686d226cabeef709c732f8e1","686e311c859d8a80b5bb9f48","5e203085ac30fa331b586690","","","[0]","","","5","demographics","","","","","","","","","","","","","","","","","","","","","","","","","","","","","","","","","","","","","",""
"4687","","","{""education"":""Bachelor's Degree (e.g., BA)""}","survey-multi-choice","10","57360","0.0-6.0-5.0","18","1","2025-07-09 09:06:42","7701e855f2ef39aa3fd6c71abdc6918a","78.33.241.66","Mozilla/5.0 (Windows NT 10.0; Win64; x64) AppleWebKit/537.36 (KHTML, like Gecko) Chrome/138.0.0.0 Safari/537.36","WebKit","Chrome","138.0.0.0","Windows","10.0","https://app.prolific.com/","en-GB,en;q=0.9","5e203085ac30fa331b586690","686d226cabeef709c732f8e1","686e311c859d8a80b5bb9f48","5e203085ac30fa331b586690","2025-07-09T09:07:41.162Z","","[0]","","","6","demographics","","","","","","","","","","","","","","","","","","","","","","","","","","","","","","","","","","","","","",""
"3399","","","{""mental_health_condition"":"""",""mental_health_treatment"":"""",""psychiatric_medication"":""""}","survey-text","11","60761","0.0-7.0-0.0","18","1","2025-07-09 09:06:42","7701e855f2ef39aa3fd6c71abdc6918a","78.33.241.66","Mozilla/5.0 (Windows NT 10.0; Win64; x64) AppleWebKit/537.36 (KHTML, like Gecko) Chrome/138.0.0.0 Safari/537.36","WebKit","Chrome","138.0.0.0","Windows","10.0","https://app.prolific.com/","en-GB,en;q=0.9","5e203085ac30fa331b586690","686d226cabeef709c732f8e1","686e311c859d8a80b5bb9f48","5e203085ac30fa331b586690","2025-07-09T09:07:44.563Z","","","","","1","mental_health","","","","","","","","","","","","","","","","","","","","","","","","","","","","","","","","","","","","","",""
"8633","","","{""depression_history"":[""Yes""]}","survey-multi-select","12","69396","0.0-7.0-1.0","18","1","2025-07-09 09:06:42","7701e855f2ef39aa3fd6c71abdc6918a","78.33.241.66","Mozilla/5.0 (Windows NT 10.0; Win64; x64) AppleWebKit/537.36 (KHTML, like Gecko) Chrome/138.0.0.0 Safari/537.36","WebKit","Chrome","138.0.0.0","Windows","10.0","https://app.prolific.com/","en-GB,en;q=0.9","5e203085ac30fa331b586690","686d226cabeef709c732f8e1","686e311c859d8a80b5bb9f48","5e203085ac30fa331b586690","","","[0]","","","","mental_health","","","","","","","","","","","","","","","","","","","","","","","","","","","","","","","","","","","","","",""
"7240","","","{""depression_episodes"":""1-2"",""depression_recent"":""More than 1 year ago""}","survey-multi-choice","13","76638","0.0-7.0-2.0-0.0","18","1","2025-07-09 09:06:42","7701e855f2ef39aa3fd6c71abdc6918a","78.33.241.66","Mozilla/5.0 (Windows NT 10.0; Win64; x64) AppleWebKit/537.36 (KHTML, like Gecko) Chrome/138.0.0.0 Safari/537.36","WebKit","Chrome","138.0.0.0","Windows","10.0","https://app.prolific.com/","en-GB,en;q=0.9","5e203085ac30fa331b586690","686d226cabeef709c732f8e1","686e311c859d8a80b5bb9f48","5e203085ac30fa331b586690","2025-07-09T09:08:00.440Z","","[0,1]","","","3","mental_health","","","","","","","","","","","","","","","","","","","","","","","","","","","","","","","","","","","","","",""
"34272.40000000037","","","","survey-template","14","110914","0.0-7.0-3.0","18","1","2025-07-09 09:06:42","7701e855f2ef39aa3fd6c71abdc6918a","78.33.241.66","Mozilla/5.0 (Windows NT 10.0; Win64; x64) AppleWebKit/537.36 (KHTML, like Gecko) Chrome/138.0.0.0 Safari/537.36","WebKit","Chrome","138.0.0.0","Windows","10.0","https://app.prolific.com/","en-GB,en;q=0.9","5e203085ac30fa331b586690","686d226cabeef709c732f8e1","686e311c859d8a80b5bb9f48","5e203085ac30fa331b586690","2025-07-09T09:08:34.716Z","","","","","","ius","{""Q01"":""1"",""Q02"":""2"",""Q03"":""0"",""Q04"":""1"",""Q05"":""1"",""Q06"":""0"",""Q07"":""2"",""Q08"":""0"",""Q09"":""1"",""Q10"":""1"",""Q11"":""0"",""Q12"":""2"",""Q13"":""0""}","[0,1,2,3,4,5,6,7,8,9,10,11,12]","[""Q01"",""Q02"",""Q03"",""Q04"",""Q05"",""Q06"",""Q06"",""Q07"",""Q08"",""Q09"",""Q10"",""Q11"",""Q12"",""Q13""]","[3312.7000000001863,4713.799999999814,7467.799999999814,9992.900000000373,12353,14392.799999999814,16184.200000000186,19042.599999999627,21497.799999999814,24184.799999999814,26815.299999999814,28917.400000000373,30051.599999999627,33426.799999999814]","[]","[3312.7000000001863,4383.5999999996275,4713.799999999814,7467.799999999814,9992.900000000373,11990.799999999814,12353,14392.799999999814,15772.799999999814,16184.200000000186,19042.599999999627,21047.700000000186,21497.799999999814,23500.700000000186,24184.799999999814,26815.299999999814,28917.400000000373,30051.599999999627,33426.799999999814,34271.200000000186]","0.38461538461538464","0.4166666666666667","0","","","","","","","","","","","","","","","","","","","","","","","","","","","","",""
"1464","1752052116181","<p style='font-size:1.1em;line-height:1.25'>In the following, we will ask you a few questions relating to your experiences over the past month.<br></p><p style='font-size:1.1em;line-height:1.25'>Press the <strong>Next</strong> button to continue.</p>","0","custom-html-button-response","15","112380","0.0-7.0-4.0","18","1","2025-07-09 09:06:42","7701e855f2ef39aa3fd6c71abdc6918a","78.33.241.66","Mozilla/5.0 (Windows NT 10.0; Win64; x64) AppleWebKit/537.36 (KHTML, like Gecko) Chrome/138.0.0.0 Safari/537.36","WebKit","Chrome","138.0.0.0","Windows","10.0","https://app.prolific.com/","en-GB,en;q=0.9","5e203085ac30fa331b586690","686d226cabeef709c732f8e1","686e311c859d8a80b5bb9f48","5e203085ac30fa331b586690","2025-07-09T09:08:36.182Z","","","","","","","","","","","","","","","","","","","","","","","","","","","","","","","","","","","","","","","","","","","",""
"38965.10000000056","","","","survey-template","16","151347","0.0-7.0-5.0","18","1","2025-07-09 09:06:42","7701e855f2ef39aa3fd6c71abdc6918a","78.33.241.66","Mozilla/5.0 (Windows NT 10.0; Win64; x64) AppleWebKit/537.36 (KHTML, like Gecko) Chrome/138.0.0.0 Safari/537.36","WebKit","Chrome","138.0.0.0","Windows","10.0","https://app.prolific.com/","en-GB,en;q=0.9","5e203085ac30fa331b586690","686d226cabeef709c732f8e1","686e311c859d8a80b5bb9f48","5e203085ac30fa331b586690","2025-07-09T09:09:15.149Z","","","","","","pss","{""Q01"":""1"",""Q02"":""1"",""Q03"":""1"",""Q04"":""1"",""Q05"":""2"",""Q06"":""2"",""Q07"":""2"",""Q08"":""1"",""Q09"":""3"",""Q10"":""2""}","[0,1,2,3,4,5,6,7,8,9]","[""Q01"",""Q02"",""Q03"",""Q03"",""Q04"",""Q05"",""Q06"",""Q07"",""Q07"",""Q08"",""Q09"",""Q10""]","[5294.9000000003725,7866.799999999814,9689.400000000373,11737.799999999814,15894,18643.900000000373,24485.799999999814,27763,29042,31180.700000000186,34718.799999999814,38175.200000000186]","[]","[0,5294.9000000003725,7866.799999999814,9689.400000000373,11737.799999999814,15318.900000000373,15894,18643.900000000373,24101.10000000056,24485.799999999814,27763,29042,31180.700000000186,34718.799999999814,37812.700000000186,38175.200000000186,38962.60000000056]","0.4","0.3333333333333333","0","","","","","","","","","","","","","","","","","","","","","","","","","","","","",""
"1480","1752052156630","<p style='font-size:1.1em;line-height:1.25'>Thank you for your answers! Now we will ask you a few more questions relating to your feelings in the last 24 hours.<br></p><p style='font-size:1.1em;line-height:1.25'>Press the <strong>Next</strong> button to continue.</p>","0","custom-html-button-response","17","152829","0.0-7.0-6.0","18","1","2025-07-09 09:06:42","7701e855f2ef39aa3fd6c71abdc6918a","78.33.241.66","Mozilla/5.0 (Windows NT 10.0; Win64; x64) AppleWebKit/537.36 (KHTML, like Gecko) Chrome/138.0.0.0 Safari/537.36","WebKit","Chrome","138.0.0.0","Windows","10.0","https://app.prolific.com/","en-GB,en;q=0.9","5e203085ac30fa331b586690","686d226cabeef709c732f8e1","686e311c859d8a80b5bb9f48","5e203085ac30fa331b586690","2025-07-09T09:09:16.631Z","","","","","","","","","","","","","","","","","","","","","","","","","","","","","","","","","","","","","","","","","","","",""
"47570.40000000037","","","","survey-template","18","200403","0.0-7.0-7.0","18","1","2025-07-09 09:06:42","7701e855f2ef39aa3fd6c71abdc6918a","78.33.241.66","Mozilla/5.0 (Windows NT 10.0; Win64; x64) AppleWebKit/537.36 (KHTML, like Gecko) Chrome/138.0.0.0 Safari/537.36","WebKit","Chrome","138.0.0.0","Windows","10.0","https://app.prolific.com/","en-GB,en;q=0.9","5e203085ac30fa331b586690","686d226cabeef709c732f8e1","686e311c859d8a80b5bb9f48","5e203085ac30fa331b586690","2025-07-09T09:10:04.205Z","","","","","","drsp","{""Q01"":""1"",""Q02"":""0"",""Q03"":""1"",""Q04"":""0"",""Q05"":""1"",""Q06"":""0"",""Q07"":""2"",""Q08"":""1"",""Q09"":""1"",""Q10"":""1"",""Q11"":""2"",""Q12"":""1"",""Q13"":""1"",""Q14"":""1"",""Q15"":""1"",""Q16"":""1"",""Q17"":""1"",""Q18"":""3"",""Q19"":""1"",""Q20"":""1"",""Q21"":""1""}","[0,1,2,3,4,5,6,7,8,9,10,11,12,13,14,15,16,17,18,19,20]","[""Q01"",""Q01"",""Q02"",""Q03"",""Q05"",""Q04"",""Q06"",""Q07"",""Q08"",""Q09"",""Q10"",""Q11"",""Q12"",""Q13"",""Q14"",""Q15"",""Q16"",""Q17"",""Q18"",""Q19"",""Q20"",""Q21""]","[3195.5,4546.5,7348,8254.299999999814,10699.400000000373,11433.299999999814,14787.100000000559,17207.5,18269.200000000186,19619.299999999814,20632,22997.400000000373,24573.60000000056,26416.900000000373,28405.700000000186,29922.200000000186,32675.799999999814,33959.90000000037,37705,42332.200000000186,44830.60000000056,46837.90000000037]","[]","[0,3195.5,4546.5,5865.700000000186,7348,8254.299999999814,9341.100000000559,10699.400000000373,11433.299999999814,14787.100000000559,17207.5,18269.200000000186,19619.299999999814,20632,22997.400000000373,24573.60000000056,26416.900000000373,28405.700000000186,29922.200000000186,32675.799999999814,33492.200000000186,33959.90000000037,37705,42332.200000000186,44830.60000000056,46837.90000000037,47568.10000000056]","0.7142857142857143","0.4","0","","","","","","","","","","","","","","","","","","","","","","","","","","","","",""
"8273.899999999441","","","","survey-template","19","208678","0.0-7.0-8.0","18","1","2025-07-09 09:06:42","7701e855f2ef39aa3fd6c71abdc6918a","78.33.241.66","Mozilla/5.0 (Windows NT 10.0; Win64; x64) AppleWebKit/537.36 (KHTML, like Gecko) Chrome/138.0.0.0 Safari/537.36","WebKit","Chrome","138.0.0.0","Windows","10.0","https://app.prolific.com/","en-GB,en;q=0.9","5e203085ac30fa331b586690","686d226cabeef709c732f8e1","686e311c859d8a80b5bb9f48","5e203085ac30fa331b586690","2025-07-09T09:10:12.481Z","","","","","","stress","{""Q01"":""1"",""Q02"":""2"",""Q03"":""1""}","[0,1,2]","[""Q01"",""Q03"",""Q02""]","[4241.199999999255,6688.399999999441,7557.0999999996275]","[]","[4241.199999999255,5215.5999999996275,6688.399999999441,7557.0999999996275,8272.899999999441]","0.6666666666666666","0","0","","","","","","","","","","","","","","","","","","","","","","","","","","","","",""
"43561","","","","instructions","20","252240","0.0-8.0-0.0","18","1","2025-07-09 09:06:42","7701e855f2ef39aa3fd6c71abdc6918a","78.33.241.66","Mozilla/5.0 (Windows NT 10.0; Win64; x64) AppleWebKit/537.36 (KHTML, like Gecko) Chrome/138.0.0.0 Safari/537.36","WebKit","Chrome","138.0.0.0","Windows","10.0","https://app.prolific.com/","en-GB,en;q=0.9","5e203085ac30fa331b586690","686d226cabeef709c732f8e1","686e311c859d8a80b5bb9f48","5e203085ac30fa331b586690","","[{""page_index"":0,""viewing_time"":8855},{""page_index"":1,""viewing_time"":11010},{""page_index"":2,""viewing_time"":7884},{""page_index"":3,""viewing_time"":15811}]","","","","","","","","","","","","","","","","","","","","","","","","","","","","","","","","","","","","","","","","","","",""
"","","","","ctl-task-cpt","21","276025","0.0-8.0-1.0","18","1","2025-07-09 09:06:42","7701e855f2ef39aa3fd6c71abdc6918a","78.33.241.66","Mozilla/5.0 (Windows NT 10.0; Win64; x64) AppleWebKit/537.36 (KHTML, like Gecko) Chrome/138.0.0.0 Safari/537.36","WebKit","Chrome","138.0.0.0","Windows","10.0","https://app.prolific.com/","en-GB,en;q=0.9","5e203085ac30fa331b586690","686d226cabeef709c732f8e1","686e311c859d8a80b5bb9f48","5e203085ac30fa331b586690","","","","","","","","","","","","","","","","","win-only","1","g1:NE,g2:SW","1","0","1","254044.7","2204.4","6206.4","20773.8","2","4","4","6","1","2","0","0","0","0","4002","4000","2670","[""up"",""right""]","{""num_key_presses"":9,""num_perfect"":4,""num_errors"":2,""num_randdir"":0,""num_randdir_good_moves"":0,""num_whilered"":3,""num_whileblue"":0,""num_blue"":0,""num_good_moves"":4}","[422.57142857142856,418.47767857142856,0.1,422.57142857142856,418.47767857142856,109.6,422.57142857142856,418.47767857142856,210,431.57142857142856,427.47767857142856,311.7,460.57142857142856,475.47767857142856,416.9,468.57142857142856,491.47767857142856,526.9,468.57142857142856,491.47767857142856,627.4,468.57142857142856,491.47767857142856,731.9,468.57142857142856,491.47767857142856,836.1,468.57142857142856,491.47767857142856,936.2,468.57142857142856,491.47767857142856,1036.8,468.57142857142856,491.47767857142856,1137.6,468.57142857142856,491.47767857142856,1243.6,468.57142857142856,491.47767857142856,1343.9,468.57142857142856,491.47767857142856,1444,468.57142857142856,491.47767857142856,1547.5,468.57142857142856,491.47767857142856,1651.7,468.57142857142856,491.47767857142856,1751.7,468.57142857142856,491.47767857142856,1851.8,468.57142857142856,491.47767857142856,1951.8,468.57142857142856,491.47767857142856,2052,468.57142857142856,491.47767857142856,2160.1,468.57142857142856,491.47767857142856,2260.3,468.57142857142856,491.47767857142856,2360.5,468.57142857142856,491.47767857142856,2461,468.57142857142856,491.47767857142856,2566.5,468.57142857142856,491.47767857142856,2676.9,468.57142857142856,491.47767857142856,2777.1,468.57142857142856,491.47767857142856,2881.8,468.57142857142856,491.47767857142856,2981.8,468.57142857142856,491.47767857142856,3082.7,468.57142857142856,491.47767857142856,3182.8,468.57142857142856,491.47767857142856,3287,468.57142857142856,491.47767857142856,3387.5,468.57142857142856,491.47767857142856,3487.5,468.57142857142856,491.47767857142856,3593.6,468.57142857142856,491.47767857142856,3697.3,468.57142857142856,491.47767857142856,3797.6,468.57142857142856,491.47767857142856,3902]","[409.1,409.1,1000,0,-590.9,""error"",""-"",""-"",""no_move"",574.4,164.8,1000,0,-425.6,""while_red"",""-"",""-"",""no_move"",4494.3,4084.7,2668,1415.2,411.1,""smooth"",""up"",""up"",""good_move"",4676.2,181.6,2700.2,4494.6,-2518.6,""error"",""-"",""-"",""no_move"",4911.5,235.2,2700.2,4494.6,-2283.2,""while_red"",""-"",""-"",""no_move"",5259.1,582.7,2700.2,4494.6,-1935.7,""while_red"",""-"",""-"",""no_move"",8295.1,3618.7,2280.1,5679.3,335.7,""smooth"",""up"",""up"",""good_move"",11774.3,3478.9,3129.1,8295.4,349.8,""smooth"",""right"",""right"",""good_move"",14461.6,2686.9,2276.3,11774.7,410.6,""smooth"",""right"",""right"",""good_move""]","",""
"6395","","","","instructions","22","282421","0.0-8.0-2.0","18","1","2025-07-09 09:06:42","7701e855f2ef39aa3fd6c71abdc6918a","78.33.241.66","Mozilla/5.0 (Windows NT 10.0; Win64; x64) AppleWebKit/537.36 (KHTML, like Gecko) Chrome/138.0.0.0 Safari/537.36","WebKit","Chrome","138.0.0.0","Windows","10.0","https://app.prolific.com/","en-GB,en;q=0.9","5e203085ac30fa331b586690","686d226cabeef709c732f8e1","686e311c859d8a80b5bb9f48","5e203085ac30fa331b586690","","[{""page_index"":0,""viewing_time"":6395}]","","","","","","","","","","","","","","","","","","","","","","","","","","","","","","","","","","","","","","","","","","",""
"","","","","ctl-task-cpt","23","323192","0.0-8.0-3.0","18","1","2025-07-09 09:06:42","7701e855f2ef39aa3fd6c71abdc6918a","78.33.241.66","Mozilla/5.0 (Windows NT 10.0; Win64; x64) AppleWebKit/537.36 (KHTML, like Gecko) Chrome/138.0.0.0 Safari/537.36","WebKit","Chrome","138.0.0.0","Windows","10.0","https://app.prolific.com/","en-GB,en;q=0.9","5e203085ac30fa331b586690","686d226cabeef709c732f8e1","686e311c859d8a80b5bb9f48","5e203085ac30fa331b586690","","","","","","","","","","","","","","","","","win-only","1","g1:NE,g2:SW","0.35","0","3","284223.7","1401.3","5404.7","37761","2","4","8","6","1","2","1","1","0","0.007575757575757576","4003.3","4000","1420","[""up"",""right""]","{""num_key_presses"":8,""num_perfect"":4,""num_errors"":1,""num_randdir"":3,""num_randdir_good_moves"":2,""num_whilered"":0,""num_whileblue"":1,""num_blue"":4,""num_good_moves"":6}","[419.57142857142856,423.47767857142856,0.9,419.57142857142856,423.47767857142856,102.7,419.57142857142856,423.47767857142856,205.5,419.57142857142856,423.47767857142856,310.1,419.57142857142856,423.47767857142856,410.5,419.57142857142856,423.47767857142856,510.9,419.57142857142856,423.47767857142856,617.6,419.57142857142856,423.47767857142856,721.1,448.57142857142856,456.47767857142856,825,480.57142857142856,521.4776785714286,930.2,482.57142857142856,538.4776785714286,1030.3,482.57142857142856,538.4776785714286,1131.9,482.57142857142856,538.4776785714286,1235.2,482.57142857142856,538.4776785714286,1338,482.57142857142856,538.4776785714286,1439.4,482.57142857142856,538.4776785714286,1540.9,482.57142857142856,538.4776785714286,1644.8,482.57142857142856,538.4776785714286,1744.8,482.57142857142856,538.4776785714286,1845,482.57142857142856,538.4776785714286,1953.3,482.57142857142856,538.4776785714286,2055.4,482.57142857142856,538.4776785714286,2160.6,482.57142857142856,538.4776785714286,2267.1,482.57142857142856,538.4776785714286,2370.2,482.57142857142856,538.4776785714286,2475.4,482.57142857142856,538.4776785714286,2580.2,482.57142857142856,538.4776785714286,2680.4,482.57142857142856,538.4776785714286,2785.2,482.57142857142856,538.4776785714286,2885.2,482.57142857142856,538.4776785714286,2990.4,482.57142857142856,538.4776785714286,3090.6,482.57142857142856,538.4776785714286,3195.3,482.57142857142856,538.4776785714286,3301.9,482.57142857142856,538.4776785714286,3404.6,482.57142857142856,538.4776785714286,3505.2,482.57142857142856,538.4776785714286,3610.2,482.57142857142856,538.4776785714286,3714.9,482.57142857142856,538.4776785714286,3816.9,482.57142857142856,538.4776785714286,3921.1]","[1418.7,1418.7,1000,0.1,418.6,""oops"",""right"",""left"",""bad_move"",10717.9,9298.7,2269,8076.8,372.1,""smooth"",""up"",""up"",""good_move"",18051.3,7333.2,2826,14872.1,353.2,""smooth"",""up"",""up"",""good_move"",21366.1,3314.7,2922.8,18051.4,391.9,""smooth"",""right"",""right"",""good_move"",24395.4,3029.1,2672.1,21366.3,357,""oops"",""right"",""right"",""good_move"",27052.3,2656.2,2339.9,24396.2,316.2,""while_blue"",""right"",""left"",""bad_move"",29719,2666.5,2171.2,27052.5,495.3,""smooth"",""right"",""right"",""good_move"",32264.7,2545.5,2164.5,29719.2,381,""oops"",""right"",""right"",""good_move""]","",""
"22250","","","","instructions","24","345442","0.0-8.0-4.0","18","1","2025-07-09 09:06:42","7701e855f2ef39aa3fd6c71abdc6918a","78.33.241.66","Mozilla/5.0 (Windows NT 10.0; Win64; x64) AppleWebKit/537.36 (KHTML, like Gecko) Chrome/138.0.0.0 Safari/537.36","WebKit","Chrome","138.0.0.0","Windows","10.0","https://app.prolific.com/","en-GB,en;q=0.9","5e203085ac30fa331b586690","686d226cabeef709c732f8e1","686e311c859d8a80b5bb9f48","5e203085ac30fa331b586690","","[{""page_index"":0,""viewing_time"":5921},{""page_index"":1,""viewing_time"":16328}]","","","","","","","","","","","","","","","","","","","","","","","","","","","","","","","","","","","","","","","","","","",""
"8096","","","{""green_ball"":[""Ball sometimes shakes and moves in a random direction""]}","survey-multi-select","25","353544","0.0-8.0-5.0-0.0","18","1","2025-07-09 09:06:42","7701e855f2ef39aa3fd6c71abdc6918a","78.33.241.66","Mozilla/5.0 (Windows NT 10.0; Win64; x64) AppleWebKit/537.36 (KHTML, like Gecko) Chrome/138.0.0.0 Safari/537.36","WebKit","Chrome","138.0.0.0","Windows","10.0","https://app.prolific.com/","en-GB,en;q=0.9","5e203085ac30fa331b586690","686d226cabeef709c732f8e1","686e311c859d8a80b5bb9f48","5e203085ac30fa331b586690","","","[0]","","","","quiz","","","","","","","","","","","","","","","","","","","","","","","","","","","","","","","","","","","","","true",""
"1421","","<p align='center'><b>CORRECT!</b> Indeed, the green ball may sometimes shake and move in a random direction.</p>","0","html-button-response","26","354967","0.0-8.0-5.0-1.0","18","1","2025-07-09 09:06:42","7701e855f2ef39aa3fd6c71abdc6918a","78.33.241.66","Mozilla/5.0 (Windows NT 10.0; Win64; x64) AppleWebKit/537.36 (KHTML, like Gecko) Chrome/138.0.0.0 Safari/537.36","WebKit","Chrome","138.0.0.0","Windows","10.0","https://app.prolific.com/","en-GB,en;q=0.9","5e203085ac30fa331b586690","686d226cabeef709c732f8e1","686e311c859d8a80b5bb9f48","5e203085ac30fa331b586690","","","","","","","","","","","","","","","","","","","","","","","","","","","","","","","","","","","","","","","","","","","","",""
"4586","","","{""yellow_ball"":[""Ball doesn‘t move and I get -1 penalty point""]}","survey-multi-select","27","359555","0.0-8.0-6.0-0.0","18","1","2025-07-09 09:06:42","7701e855f2ef39aa3fd6c71abdc6918a","78.33.241.66","Mozilla/5.0 (Windows NT 10.0; Win64; x64) AppleWebKit/537.36 (KHTML, like Gecko) Chrome/138.0.0.0 Safari/537.36","WebKit","Chrome","138.0.0.0","Windows","10.0","https://app.prolific.com/","en-GB,en;q=0.9","5e203085ac30fa331b586690","686d226cabeef709c732f8e1","686e311c859d8a80b5bb9f48","5e203085ac30fa331b586690","","","[0]","","","","quiz","","","","","","","","","","","","","","","","","","","","","","","","","","","","","","","","","","","","","true",""
"1395","","<p align='center'><b>CORRECT!</b> Indeed, the yellow ball never moves and you receive a penalty.</p>","0","html-button-response","28","360952","0.0-8.0-6.0-1.0","18","1","2025-07-09 09:06:42","7701e855f2ef39aa3fd6c71abdc6918a","78.33.241.66","Mozilla/5.0 (Windows NT 10.0; Win64; x64) AppleWebKit/537.36 (KHTML, like Gecko) Chrome/138.0.0.0 Safari/537.36","WebKit","Chrome","138.0.0.0","Windows","10.0","https://app.prolific.com/","en-GB,en;q=0.9","5e203085ac30fa331b586690","686d226cabeef709c732f8e1","686e311c859d8a80b5bb9f48","5e203085ac30fa331b586690","","","","","","","","","","","","","","","","","","","","","","","","","","","","","","","","","","","","","","","","","","","","",""
"9660","","","{""blue_ball"":[""Ball always shakes and moves in a random direction""]}","survey-multi-select","29","370613","0.0-8.0-7.0-0.0","18","1","2025-07-09 09:06:42","7701e855f2ef39aa3fd6c71abdc6918a","78.33.241.66","Mozilla/5.0 (Windows NT 10.0; Win64; x64) AppleWebKit/537.36 (KHTML, like Gecko) Chrome/138.0.0.0 Safari/537.36","WebKit","Chrome","138.0.0.0","Windows","10.0","https://app.prolific.com/","en-GB,en;q=0.9","5e203085ac30fa331b586690","686d226cabeef709c732f8e1","686e311c859d8a80b5bb9f48","5e203085ac30fa331b586690","","","[0]","","","","quiz","","","","","","","","","","","","","","","","","","","","","","","","","","","","","","","","","","","","","true",""
"1416","","<p align='center'><b>CORRECT!</b> Indeed, the blue ball always shakes and moves in a random direction. Also there is a penalty of -1 point.</p>","0","html-button-response","30","372031","0.0-8.0-7.0-1.0","18","1","2025-07-09 09:06:42","7701e855f2ef39aa3fd6c71abdc6918a","78.33.241.66","Mozilla/5.0 (Windows NT 10.0; Win64; x64) AppleWebKit/537.36 (KHTML, like Gecko) Chrome/138.0.0.0 Safari/537.36","WebKit","Chrome","138.0.0.0","Windows","10.0","https://app.prolific.com/","en-GB,en;q=0.9","5e203085ac30fa331b586690","686d226cabeef709c732f8e1","686e311c859d8a80b5bb9f48","5e203085ac30fa331b586690","","","","","","","","","","","","","","","","","","","","","","","","","","","","","","","","","","","","","","","","","","","","",""
"6974","","","{""bonus"":[""When I reach 50% of points""]}","survey-multi-select","31","379007","0.0-8.0-8.0-0.0","18","1","2025-07-09 09:06:42","7701e855f2ef39aa3fd6c71abdc6918a","78.33.241.66","Mozilla/5.0 (Windows NT 10.0; Win64; x64) AppleWebKit/537.36 (KHTML, like Gecko) Chrome/138.0.0.0 Safari/537.36","WebKit","Chrome","138.0.0.0","Windows","10.0","https://app.prolific.com/","en-GB,en;q=0.9","5e203085ac30fa331b586690","686d226cabeef709c732f8e1","686e311c859d8a80b5bb9f48","5e203085ac30fa331b586690","","","[0]","","","","quiz","","","","","","","","","","","","","","","","","","","","","","","","","","","","","","","","","","","","","true",""
"1170","","<p align='center'><b>CORRECT!</b> Indeed, you receive 2 pounds extra when you reach 50% of points.</p>","0","html-button-response","32","380178","0.0-8.0-8.0-1.0","18","1","2025-07-09 09:06:42","7701e855f2ef39aa3fd6c71abdc6918a","78.33.241.66","Mozilla/5.0 (Windows NT 10.0; Win64; x64) AppleWebKit/537.36 (KHTML, like Gecko) Chrome/138.0.0.0 Safari/537.36","WebKit","Chrome","138.0.0.0","Windows","10.0","https://app.prolific.com/","en-GB,en;q=0.9","5e203085ac30fa331b586690","686d226cabeef709c732f8e1","686e311c859d8a80b5bb9f48","5e203085ac30fa331b586690","","","","","","","","","","","","","","","","","","","","","","","","","","","","","","","","","","","","","","","","","","","","",""
"1166","","","","instructions","33","381345","0.0-8.0-9.0","18","1","2025-07-09 09:06:42","7701e855f2ef39aa3fd6c71abdc6918a","78.33.241.66","Mozilla/5.0 (Windows NT 10.0; Win64; x64) AppleWebKit/537.36 (KHTML, like Gecko) Chrome/138.0.0.0 Safari/537.36","WebKit","Chrome","138.0.0.0","Windows","10.0","https://app.prolific.com/","en-GB,en;q=0.9","5e203085ac30fa331b586690","686d226cabeef709c732f8e1","686e311c859d8a80b5bb9f48","5e203085ac30fa331b586690","","[{""page_index"":0,""viewing_time"":1166}]","","","","","","","","","","","","","","","","","","","","","","","","","","","","","","","","","","","","","","","","","","",""
"5437","","<p>Before you start with this game please answer the following three questions yourself. </p>
  <p>Through this game, we measure several aspects of your cognitive performance, such as reaction times, multi-tasking capabilities </p>
  <p>and the ability to assess the situation you are in.</p>
  <p></p>
  <p><b>How good do you usually are in such tasks?</b></p>","75","html-slider-response","34","386784","0.0-9.0-0.0","18","1","2025-07-09 09:06:42","7701e855f2ef39aa3fd6c71abdc6918a","78.33.241.66","Mozilla/5.0 (Windows NT 10.0; Win64; x64) AppleWebKit/537.36 (KHTML, like Gecko) Chrome/138.0.0.0 Safari/537.36","WebKit","Chrome","138.0.0.0","Windows","10.0","https://app.prolific.com/","en-GB,en;q=0.9","5e203085ac30fa331b586690","686d226cabeef709c732f8e1","686e311c859d8a80b5bb9f48","5e203085ac30fa331b586690","2025-07-09T09:13:10.586Z","","","","","","PreSkillQ","","","","","","","","","","","","","","","","","","","","","","","","","","","","","","","","","","","","","","50"
"2324","","<div style=""width:500px;"">
  <p>How well do you think you will perform in this task compared to other participants?</p>
  </div>","55","html-slider-response","35","389109","0.0-9.0-1.0","18","1","2025-07-09 09:06:42","7701e855f2ef39aa3fd6c71abdc6918a","78.33.241.66","Mozilla/5.0 (Windows NT 10.0; Win64; x64) AppleWebKit/537.36 (KHTML, like Gecko) Chrome/138.0.0.0 Safari/537.36","WebKit","Chrome","138.0.0.0","Windows","10.0","https://app.prolific.com/","en-GB,en;q=0.9","5e203085ac30fa331b586690","686d226cabeef709c732f8e1","686e311c859d8a80b5bb9f48","5e203085ac30fa331b586690","2025-07-09T09:13:12.911Z","","","","","","PrePerfQ","","","","","","","","","","","","","","","","","","","","","","","","","","","","","","","","","","","","","","50"
"3657","","<div style=""width:500px;"">
  <p>What best describes how you currently feel?</p>
  </div>","74","html-slider-response","36","392767","0.0-9.0-2.0","18","1","2025-07-09 09:06:42","7701e855f2ef39aa3fd6c71abdc6918a","78.33.241.66","Mozilla/5.0 (Windows NT 10.0; Win64; x64) AppleWebKit/537.36 (KHTML, like Gecko) Chrome/138.0.0.0 Safari/537.36","WebKit","Chrome","138.0.0.0","Windows","10.0","https://app.prolific.com/","en-GB,en;q=0.9","5e203085ac30fa331b586690","686d226cabeef709c732f8e1","686e311c859d8a80b5bb9f48","5e203085ac30fa331b586690","2025-07-09T09:13:16.569Z","","","","","","PreMotivationQ","","","","","","","","","","","","","","","","","","","","","","","","","","","","","","","","","","","","","","50"
"","","","","ctl-task-cpt","37","416038","0.0-10.0-0.0","18","1","2025-07-09 09:06:42","7701e855f2ef39aa3fd6c71abdc6918a","78.33.241.66","Mozilla/5.0 (Windows NT 10.0; Win64; x64) AppleWebKit/537.36 (KHTML, like Gecko) Chrome/138.0.0.0 Safari/537.36","WebKit","Chrome","138.0.0.0","Windows","10.0","https://app.prolific.com/","en-GB,en;q=0.9","5e203085ac30fa331b586690","686d226cabeef709c732f8e1","686e311c859d8a80b5bb9f48","5e203085ac30fa331b586690","2025-07-09T09:13:39.841Z","","","","","","","","","","","","","","","","win-only","2","g1:SE,g2:NW","1","1","0","394572.4","1538.2","6541.2","20252.1","1","4","8","6","1","1","0","0","0","0","1601.1","3000","1205","[""down"",""right""]","{""num_key_presses"":6,""num_perfect"":5,""num_errors"":1,""num_randdir"":0,""num_randdir_good_moves"":0,""num_whilered"":0,""num_whileblue"":1,""num_blue"":1,""num_good_moves"":5}","[416.57142857142856,424.47767857142856,0.5,416.57142857142856,424.47767857142856,103.1,416.57142857142856,424.47767857142856,203.1,416.57142857142856,424.47767857142856,309.4,423.57142857142856,424.47767857142856,412,428.57142857142856,423.47767857142856,515,430.57142857142856,413.47767857142856,617.5,431.57142857142856,407.47767857142856,723.1,565.5714285714286,507.47767857142856,827.8,671.5714285714286,608.4776785714286,933.7,687.5714285714286,678.4776785714286,1034,713.5714285714286,747.4776785714286,1138,722.5714285714286,767.4776785714286,1238.2,722.5714285714286,767.4776785714286,1343.1,722.5714285714286,767.4776785714286,1443.1,723.5714285714286,766.4776785714286,1543.4,723.5714285714286,766.4776785714286,1647.4,723.5714285714286,766.4776785714286,1749,725.5714285714286,767.4776785714286,1849,725.5714285714286,767.4776785714286,1949.4,725.5714285714286,767.4776785714286,2052.7,725.5714285714286,767.4776785714286,2153.2,734.5714285714286,758.4776785714286,2258.4,734.5714285714286,758.4776785714286,2363.5,734.5714285714286,758.4776785714286,2467.5,734.5714285714286,758.4776785714286,2568.3,734.5714285714286,758.4776785714286,2669,734.5714285714286,758.4776785714286,2773,734.5714285714286,758.4776785714286,2873.1,734.5714285714286,758.4776785714286,2978,734.5714285714286,758.4776785714286,3078.5,734.5714285714286,758.4776785714286,3184.1,734.5714285714286,758.4776785714286,3285.1,734.5714285714286,758.4776785714286,3388.7,734.5714285714286,758.4776785714286,3493.2,734.5714285714286,758.4776785714286,3600.6,734.5714285714286,758.4776785714286,3702,734.5714285714286,758.4776785714286,3802.4,734.5714285714286,758.4776785714286,3903.5,734.5714285714286,758.4776785714286,4008.1,734.5714285714286,758.4776785714286,4112.5,734.5714285714286,758.4776785714286,4213.3,734.5714285714286,758.4776785714286,4313.4,734.5714285714286,758.4776785714286,4414.4,734.5714285714286,758.4776785714286,4517.4,734.5714285714286,758.4776785714286,4617.8,734.5714285714286,758.4776785714286,4717.8,734.5714285714286,758.4776785714286,4822.9,734.5714285714286,758.4776785714286,4923.9]","[1388.3,1388.3,1000,0,388.3,""smooth"",""down"",""down"",""good_move"",3734.9,2346.1,1988.5,1388.9,357.5,""smooth"",""down"",""down"",""good_move"",6147.2,2412.1,2076.1,3735.1,336,""smooth"",""right"",""right"",""good_move"",8362.2,2214.6,1934.1,6147.6,280.5,""while_blue"",""right"",""up"",""bad_move"",11175.4,2812.3,2380.5,8363.2,431.8,""smooth"",""down"",""down"",""good_move"",13624.3,2448.5,2103,11175.8,345.5,""smooth"",""right"",""right"",""good_move""]","",""
"4145","","<div style=""width:500px;"">
  <p>What determined the result of this run?</p>
  </div>","94","html-slider-response","38","420185","0.0-10.0-1.0","18","1","2025-07-09 09:06:42","7701e855f2ef39aa3fd6c71abdc6918a","78.33.241.66","Mozilla/5.0 (Windows NT 10.0; Win64; x64) AppleWebKit/537.36 (KHTML, like Gecko) Chrome/138.0.0.0 Safari/537.36","WebKit","Chrome","138.0.0.0","Windows","10.0","https://app.prolific.com/","en-GB,en;q=0.9","5e203085ac30fa331b586690","686d226cabeef709c732f8e1","686e311c859d8a80b5bb9f48","5e203085ac30fa331b586690","2025-07-09T09:13:43.987Z","","","","","","AttribQ","","","","","","","","","","","","","","","","","","","","","","","","","","","","","","","","","","","","","","50"
"3680","","<div style=""width:500px;"">
  <p>How much control did you have over the ball?</p>
  </div>","93","html-slider-response","39","423865","0.0-10.0-2.0","18","1","2025-07-09 09:06:42","7701e855f2ef39aa3fd6c71abdc6918a","78.33.241.66","Mozilla/5.0 (Windows NT 10.0; Win64; x64) AppleWebKit/537.36 (KHTML, like Gecko) Chrome/138.0.0.0 Safari/537.36","WebKit","Chrome","138.0.0.0","Windows","10.0","https://app.prolific.com/","en-GB,en;q=0.9","5e203085ac30fa331b586690","686d226cabeef709c732f8e1","686e311c859d8a80b5bb9f48","5e203085ac30fa331b586690","2025-07-09T09:13:47.668Z","","","","","","ControlQ","","","","","","","","","","","","","","","","","","","","","","","","","","","","","","","","","","","","","","50"
"2967","","<div style=""width:500px;"">
  <p>How would you describe your current emotional state?</p>
  </div>","17","html-slider-response","40","426834","0.0-10.0-3.0","18","1","2025-07-09 09:06:42","7701e855f2ef39aa3fd6c71abdc6918a","78.33.241.66","Mozilla/5.0 (Windows NT 10.0; Win64; x64) AppleWebKit/537.36 (KHTML, like Gecko) Chrome/138.0.0.0 Safari/537.36","WebKit","Chrome","138.0.0.0","Windows","10.0","https://app.prolific.com/","en-GB,en;q=0.9","5e203085ac30fa331b586690","686d226cabeef709c732f8e1","686e311c859d8a80b5bb9f48","5e203085ac30fa331b586690","2025-07-09T09:13:50.636Z","","","","","","StressQ","","","","","","","","","","","","","","","","","","","","","","","","","","","","","","","","","","","","","","50"
"2734","","<div style=""width:500px;"">
  <p>What best describes how you currently feel?</p>
  </div>","70","html-slider-response","41","429570","0.0-10.0-4.0","18","1","2025-07-09 09:06:42","7701e855f2ef39aa3fd6c71abdc6918a","78.33.241.66","Mozilla/5.0 (Windows NT 10.0; Win64; x64) AppleWebKit/537.36 (KHTML, like Gecko) Chrome/138.0.0.0 Safari/537.36","WebKit","Chrome","138.0.0.0","Windows","10.0","https://app.prolific.com/","en-GB,en;q=0.9","5e203085ac30fa331b586690","686d226cabeef709c732f8e1","686e311c859d8a80b5bb9f48","5e203085ac30fa331b586690","2025-07-09T09:13:53.372Z","","","","","","MotivationQ","","","","","","","","","","","","","","","","","","","","","","","","","","","","","","","","","","","","","","50"
"","","","","ctl-task-cpt","42","466249","0.0-10.0-0.1","18","1","2025-07-09 09:06:42","7701e855f2ef39aa3fd6c71abdc6918a","78.33.241.66","Mozilla/5.0 (Windows NT 10.0; Win64; x64) AppleWebKit/537.36 (KHTML, like Gecko) Chrome/138.0.0.0 Safari/537.36","WebKit","Chrome","138.0.0.0","Windows","10.0","https://app.prolific.com/","en-GB,en;q=0.9","5e203085ac30fa331b586690","686d226cabeef709c732f8e1","686e311c859d8a80b5bb9f48","5e203085ac30fa331b586690","2025-07-09T09:14:30.051Z","","","","","","","","","","","","","","","","win-only","1","g1:NE,g2:SW","0.9","2","0","431374.7","1112.5","6121.1","33660.5","1","4","4","6","2","4","3","3","0","0.022727272727272728","2261.8","3000","1345","[""down"",""left""]","{""num_key_presses"":6,""num_perfect"":5,""num_errors"":1,""num_randdir"":0,""num_randdir_good_moves"":0,""num_whilered"":0,""num_whileblue"":1,""num_blue"":4,""num_good_moves"":6}","[418.57142857142856,414.47767857142856,0.2,418.57142857142856,414.47767857142856,103.1,418.57142857142856,414.47767857142856,207.9,418.57142857142856,414.47767857142856,308.6,483.57142857142856,354.47767857142856,413.3,455.57142857142856,371.47767857142856,518.6,389.57142857142856,435.47767857142856,625.7,333.57142857142856,525.4776785714286,727.1,212.57142857142856,649.4776785714286,828.3,124.57142857142857,724.4776785714286,928.8,110.57142857142857,737.4776785714286,1032.7,98.57142857142857,748.4776785714286,1133.3,98.57142857142857,748.4776785714286,1242.3,98.57142857142857,748.4776785714286,1343,98.57142857142857,748.4776785714286,1443.3,98.57142857142857,748.4776785714286,1544,98.57142857142857,748.4776785714286,1648.6,98.57142857142857,748.4776785714286,1758,98.57142857142857,748.4776785714286,1858.4,98.57142857142857,748.4776785714286,1963.9,98.57142857142857,748.4776785714286,2067.7,98.57142857142857,748.4776785714286,2168.7,98.57142857142857,748.4776785714286,2270.7,98.57142857142857,748.4776785714286,2376.5,98.57142857142857,748.4776785714286,2476.7,98.57142857142857,748.4776785714286,2578.7,98.57142857142857,748.4776785714286,2683,98.57142857142857,748.4776785714286,2783.7,98.57142857142857,748.4776785714286,2883.9,98.57142857142857,748.4776785714286,2991.5,98.57142857142857,748.4776785714286,3092.2,98.57142857142857,748.4776785714286,3194.6,98.57142857142857,748.4776785714286,3298,98.57142857142857,748.4776785714286,3398.2,98.57142857142857,748.4776785714286,3498.7,98.57142857142857,748.4776785714286,3608,98.57142857142857,748.4776785714286,3709.2,99.57142857142857,742.4776785714286,3809.9,133.57142857142856,725.4776785714286,3912.9,170.57142857142856,718.4776785714286,4018,178.57142857142856,703.4776785714286,4119.2,178.57142857142856,703.4776785714286,4219.6,196.57142857142856,682.4776785714286,4330.1,198.57142857142856,680.4776785714286,4432.7,198.57142857142856,680.4776785714286,4533.1,198.57142857142856,680.4776785714286,4633.3,198.57142857142856,680.4776785714286,4742.6,198.57142857142856,680.4776785714286,4843.6,198.57142857142856,680.4776785714286,4948.5]","[14148.9,14148.9,3409.3,10334.2,405.4,""smooth"",""down"",""down"",""good_move"",17161.7,3012.5,2596.4,14149.3,416.1,""smooth"",""down"",""down"",""good_move"",19368.1,2204.5,1840.5,17163.6,364,""smooth"",""down"",""down"",""good_move"",22006.3,2638,2268.1,19368.3,369.9,""smooth"",""left"",""left"",""good_move"",24529.1,2522.5,2168.6,22006.6,353.9,""smooth"",""left"",""left"",""good_move"",27442.4,2913.1,2576.1,24529.3,337.1,""while_blue"",""left"",""left"",""good_move""]","",""
"3809","","<div style=""width:500px;"">
  <p>What determined the result of this run?</p>
  </div>","57","html-slider-response","43","470059","0.0-10.0-1.1","18","1","2025-07-09 09:06:42","7701e855f2ef39aa3fd6c71abdc6918a","78.33.241.66","Mozilla/5.0 (Windows NT 10.0; Win64; x64) AppleWebKit/537.36 (KHTML, like Gecko) Chrome/138.0.0.0 Safari/537.36","WebKit","Chrome","138.0.0.0","Windows","10.0","https://app.prolific.com/","en-GB,en;q=0.9","5e203085ac30fa331b586690","686d226cabeef709c732f8e1","686e311c859d8a80b5bb9f48","5e203085ac30fa331b586690","2025-07-09T09:14:33.862Z","","","","","","AttribQ","","","","","","","","","","","","","","","","","","","","","","","","","","","","","","","","","","","","","","50"
"2552","","<div style=""width:500px;"">
  <p>How much control did you have over the ball?</p>
  </div>","74","html-slider-response","44","472612","0.0-10.0-2.1","18","1","2025-07-09 09:06:42","7701e855f2ef39aa3fd6c71abdc6918a","78.33.241.66","Mozilla/5.0 (Windows NT 10.0; Win64; x64) AppleWebKit/537.36 (KHTML, like Gecko) Chrome/138.0.0.0 Safari/537.36","WebKit","Chrome","138.0.0.0","Windows","10.0","https://app.prolific.com/","en-GB,en;q=0.9","5e203085ac30fa331b586690","686d226cabeef709c732f8e1","686e311c859d8a80b5bb9f48","5e203085ac30fa331b586690","2025-07-09T09:14:36.414Z","","","","","","ControlQ","","","","","","","","","","","","","","","","","","","","","","","","","","","","","","","","","","","","","","50"
"4072","","<div style=""width:500px;"">
  <p>How would you describe your current emotional state?</p>
  </div>","25","html-slider-response","45","476688","0.0-10.0-3.1","18","1","2025-07-09 09:06:42","7701e855f2ef39aa3fd6c71abdc6918a","78.33.241.66","Mozilla/5.0 (Windows NT 10.0; Win64; x64) AppleWebKit/537.36 (KHTML, like Gecko) Chrome/138.0.0.0 Safari/537.36","WebKit","Chrome","138.0.0.0","Windows","10.0","https://app.prolific.com/","en-GB,en;q=0.9","5e203085ac30fa331b586690","686d226cabeef709c732f8e1","686e311c859d8a80b5bb9f48","5e203085ac30fa331b586690","2025-07-09T09:14:40.490Z","","","","","","StressQ","","","","","","","","","","","","","","","","","","","","","","","","","","","","","","","","","","","","","","50"
"2589","","<div style=""width:500px;"">
  <p>What best describes how you currently feel?</p>
  </div>","73","html-slider-response","46","479284","0.0-10.0-4.1","18","1","2025-07-09 09:06:42","7701e855f2ef39aa3fd6c71abdc6918a","78.33.241.66","Mozilla/5.0 (Windows NT 10.0; Win64; x64) AppleWebKit/537.36 (KHTML, like Gecko) Chrome/138.0.0.0 Safari/537.36","WebKit","Chrome","138.0.0.0","Windows","10.0","https://app.prolific.com/","en-GB,en;q=0.9","5e203085ac30fa331b586690","686d226cabeef709c732f8e1","686e311c859d8a80b5bb9f48","5e203085ac30fa331b586690","2025-07-09T09:14:43.086Z","","","","","","MotivationQ","","","","","","","","","","","","","","","","","","","","","","","","","","","","","","","","","","","","","","50"
"","","","","ctl-task-cpt","47","505330","0.0-10.0-0.2","18","1","2025-07-09 09:06:42","7701e855f2ef39aa3fd6c71abdc6918a","78.33.241.66","Mozilla/5.0 (Windows NT 10.0; Win64; x64) AppleWebKit/537.36 (KHTML, like Gecko) Chrome/138.0.0.0 Safari/537.36","WebKit","Chrome","138.0.0.0","Windows","10.0","https://app.prolific.com/","en-GB,en;q=0.9","5e203085ac30fa331b586690","686d226cabeef709c732f8e1","686e311c859d8a80b5bb9f48","5e203085ac30fa331b586690","2025-07-09T09:15:09.132Z","","","","","","","","","","","","","","","","win-only","1","g1:NE,g2:SW","0.8","3","0","481087.6","976.3","5981","23031.5","1","4","4","6","2","4","4","7","3","0.05303030303030303","1963.8","3000","1165","[""down"",""left""]","{""num_key_presses"":6,""num_perfect"":5,""num_errors"":0,""num_randdir"":1,""num_randdir_good_moves"":1,""num_whilered"":0,""num_whileblue"":0,""num_blue"":0,""num_good_moves"":6}","[415.57142857142856,421.47767857142856,0.1,415.57142857142856,421.47767857142856,105.4,415.57142857142856,421.47767857142856,210.2,415.57142857142856,421.47767857142856,317.6,415.57142857142856,421.47767857142856,419.2,396.57142857142856,445.47767857142856,519.5,301.57142857142856,518.4776785714286,623.7,197.57142857142856,572.4776785714286,724.5,195.57142857142856,575.4776785714286,824.6,364.57142857142856,469.47767857142856,924.8,669.5714285714286,218.47767857142856,1024.9,744.5714285714286,172.47767857142856,1133.4,737.5714285714286,152.47767857142856,1233.7,478.57142857142856,278.47767857142856,1334.3,349.57142857142856,460.47767857142856,1434.9,389.57142857142856,419.47767857142856,1539.3,221.57142857142856,577.4776785714286,1639.6,150.57142857142856,677.4776785714286,1750.4,96.57142857142857,730.4776785714286,1854.4,82.57142857142857,741.4776785714286,1955.5,82.57142857142857,741.4776785714286,2060,104.57142857142857,748.4776785714286,2167.7,118.57142857142857,748.4776785714286,2270.2,118.57142857142857,748.4776785714286,2374.2,138.57142857142856,706.4776785714286,2484.3,160.57142857142856,677.4776785714286,2591.1,160.57142857142856,677.4776785714286,2699.7,160.57142857142856,677.4776785714286,2800.4,160.57142857142856,677.4776785714286,2900.8,160.57142857142856,677.4776785714286,3005.4,160.57142857142856,677.4776785714286,3117.2,540.5714285714286,959.4776785714286,3219.3,674.5714285714286,959.4776785714286,3319.8,674.5714285714286,959.4776785714286,3425.1,674.5714285714286,959.4776785714286,3533.8,656.5714285714286,896.4776785714286,3634.7,601.5714285714286,785.4776785714286,3741.1,597.5714285714286,759.4776785714286,3849.9,597.5714285714286,759.4776785714286,3954.2,597.5714285714286,759.4776785714286,4055.7,597.5714285714286,759.4776785714286,4159.9,597.5714285714286,759.4776785714286,4267.1,597.5714285714286,759.4776785714286,4367.8,597.5714285714286,759.4776785714286,4469.2,597.5714285714286,759.4776785714286,4569.3,597.5714285714286,759.4776785714286,4669.3,597.5714285714286,759.4776785714286,4775.2,597.5714285714286,759.4776785714286,4883.8,597.5714285714286,759.4776785714286,4984.2]","[1413.6,1413.6,1000,0,413.6,""smooth"",""down"",""down"",""good_move"",4661.5,3247.4,2911.4,1414.1,336,""smooth"",""down"",""down"",""good_move"",7509.4,2847.5,2484.3,4661.9,363.2,""oops"",""down"",""down"",""good_move"",10568.2,3057.1,2555,7511.2,502,""smooth"",""left"",""left"",""good_move"",13414.6,2846.2,2512.5,10568.4,333.7,""smooth"",""left"",""left"",""good_move"",16944,3528.8,3161.4,13415.2,367.4,""smooth"",""left"",""left"",""good_move""]","",""
"3821","","<div style=""width:500px;"">
  <p>What determined the result of this run?</p>
  </div>","100","html-slider-response","48","509154","0.0-10.0-1.2","18","1","2025-07-09 09:06:42","7701e855f2ef39aa3fd6c71abdc6918a","78.33.241.66","Mozilla/5.0 (Windows NT 10.0; Win64; x64) AppleWebKit/537.36 (KHTML, like Gecko) Chrome/138.0.0.0 Safari/537.36","WebKit","Chrome","138.0.0.0","Windows","10.0","https://app.prolific.com/","en-GB,en;q=0.9","5e203085ac30fa331b586690","686d226cabeef709c732f8e1","686e311c859d8a80b5bb9f48","5e203085ac30fa331b586690","2025-07-09T09:15:12.956Z","","","","","","AttribQ","","","","","","","","","","","","","","","","","","","","","","","","","","","","","","","","","","","","","","50"
"2956","","<div style=""width:500px;"">
  <p>How much control did you have over the ball?</p>
  </div>","100","html-slider-response","49","512119","0.0-10.0-2.2","18","1","2025-07-09 09:06:42","7701e855f2ef39aa3fd6c71abdc6918a","78.33.241.66","Mozilla/5.0 (Windows NT 10.0; Win64; x64) AppleWebKit/537.36 (KHTML, like Gecko) Chrome/138.0.0.0 Safari/537.36","WebKit","Chrome","138.0.0.0","Windows","10.0","https://app.prolific.com/","en-GB,en;q=0.9","5e203085ac30fa331b586690","686d226cabeef709c732f8e1","686e311c859d8a80b5bb9f48","5e203085ac30fa331b586690","2025-07-09T09:15:15.922Z","","","","","","ControlQ","","","","","","","","","","","","","","","","","","","","","","","","","","","","","","","","","","","","","","50"
"3981","","<div style=""width:500px;"">
  <p>How would you describe your current emotional state?</p>
  </div>","20","html-slider-response","50","516108","0.0-10.0-3.2","18","1","2025-07-09 09:06:42","7701e855f2ef39aa3fd6c71abdc6918a","78.33.241.66","Mozilla/5.0 (Windows NT 10.0; Win64; x64) AppleWebKit/537.36 (KHTML, like Gecko) Chrome/138.0.0.0 Safari/537.36","WebKit","Chrome","138.0.0.0","Windows","10.0","https://app.prolific.com/","en-GB,en;q=0.9","5e203085ac30fa331b586690","686d226cabeef709c732f8e1","686e311c859d8a80b5bb9f48","5e203085ac30fa331b586690","2025-07-09T09:15:19.911Z","","","","","","StressQ","","","","","","","","","","","","","","","","","","","","","","","","","","","","","","","","","","","","","","50"
"2574","","<div style=""width:500px;"">
  <p>What best describes how you currently feel?</p>
  </div>","70","html-slider-response","51","518690","0.0-10.0-4.2","18","1","2025-07-09 09:06:42","7701e855f2ef39aa3fd6c71abdc6918a","78.33.241.66","Mozilla/5.0 (Windows NT 10.0; Win64; x64) AppleWebKit/537.36 (KHTML, like Gecko) Chrome/138.0.0.0 Safari/537.36","WebKit","Chrome","138.0.0.0","Windows","10.0","https://app.prolific.com/","en-GB,en;q=0.9","5e203085ac30fa331b586690","686d226cabeef709c732f8e1","686e311c859d8a80b5bb9f48","5e203085ac30fa331b586690","2025-07-09T09:15:22.493Z","","","","","","MotivationQ","","","","","","","","","","","","","","","","","","","","","","","","","","","","","","","","","","","","","","50"
"","","","","ctl-task-cpt","52","545415","0.0-10.0-0.3","18","1","2025-07-09 09:06:42","7701e855f2ef39aa3fd6c71abdc6918a","78.33.241.66","Mozilla/5.0 (Windows NT 10.0; Win64; x64) AppleWebKit/537.36 (KHTML, like Gecko) Chrome/138.0.0.0 Safari/537.36","WebKit","Chrome","138.0.0.0","Windows","10.0","https://app.prolific.com/","en-GB,en;q=0.9","5e203085ac30fa331b586690","686d226cabeef709c732f8e1","686e311c859d8a80b5bb9f48","5e203085ac30fa331b586690","2025-07-09T09:15:49.217Z","","","","","","","","","","","","","","","","win-only","2","g1:SE,g2:NW","0.7","4","0","520503.6","1326.7","6331.5","23692.3","1","4","8","6","2","8","8","15","7","0.11363636363636363","1036.4","3000","1300","[""left"",""up""]","{""num_key_presses"":6,""num_perfect"":5,""num_errors"":0,""num_randdir"":1,""num_randdir_good_moves"":1,""num_whilered"":0,""num_whileblue"":0,""num_blue"":1,""num_good_moves"":6}","[427.57142857142856,415.47767857142856,0.1,427.57142857142856,415.47767857142856,105.4,427.57142857142856,415.47767857142856,218.4,427.57142857142856,415.47767857142856,319.4,427.57142857142856,415.47767857142856,424.4,427.57142857142856,415.47767857142856,524.6,166.57142857142856,188.47767857142856,633.9,113.57142857142857,131.47767857142856,734.5,97.57142857142857,111.47767857142857,837.7,95.57142857142857,106.47767857142857,939.4,95.57142857142857,106.47767857142857,1041.7,95.57142857142857,106.47767857142857,1144.6,95.57142857142857,106.47767857142857,1251.1,107.57142857142857,115.47767857142857,1352,223.57142857142856,241.47767857142856,1453.5,398.57142857142856,461.47767857142856,1554.2,418.57142857142856,504.47767857142856,1659.6,419.57142857142856,507.47767857142856,1768.7,419.57142857142856,511.47767857142856,1869.1,419.57142857142856,511.47767857142856,1969.1,419.57142857142856,511.47767857142856,2074.7,419.57142857142856,511.47767857142856,2181,419.57142857142856,511.47767857142856,2284.5,419.57142857142856,511.47767857142856,2385.2,419.57142857142856,511.47767857142856,2489.4,419.57142857142856,511.47767857142856,2603.2,419.57142857142856,511.47767857142856,2703.7,419.57142857142856,511.47767857142856,2805.4,419.57142857142856,511.47767857142856,2919.6,419.57142857142856,511.47767857142856,3020.9,419.57142857142856,511.47767857142856,3124,419.57142857142856,511.47767857142856,3225,419.57142857142856,511.47767857142856,3330.8,419.57142857142856,511.47767857142856,3434,419.57142857142856,511.47767857142856,3535.2,419.57142857142856,511.47767857142856,3638.9,419.57142857142856,511.47767857142856,3739.3,419.57142857142856,511.47767857142856,3852.8,419.57142857142856,511.47767857142856,3954.4,419.57142857142856,511.47767857142856,4068.6,419.57142857142856,511.47767857142856,4169.2,419.57142857142856,511.47767857142856,4269.7,419.57142857142856,511.47767857142856,4373.6,419.57142857142856,511.47767857142856,4473.7,419.57142857142856,511.47767857142856,4574.8,419.57142857142856,511.47767857142856,4686.9,419.57142857142856,511.47767857142856,4790,419.57142857142856,511.47767857142856,4902.9]","[1447.4,1447.4,1000,0,447.4,""oops"",""left"",""up"",""good_move"",4533.4,3085.7,2742.5,1447.7,343.2,""smooth"",""left"",""left"",""good_move"",9614.2,5080.5,1878,7410,326.2,""smooth"",""left"",""left"",""good_move"",12197.6,2583.2,2219.5,9614.5,363.6,""smooth"",""left"",""left"",""good_move"",14097.4,1899.5,1540,12197.9,359.5,""smooth"",""up"",""up"",""good_move"",17247,3149.4,2758.6,14097.7,390.8,""smooth"",""up"",""up"",""good_move""]","",""
"3184","","<div style=""width:500px;"">
  <p>What determined the result of this run?</p>
  </div>","94","html-slider-response","53","548602","0.0-10.0-1.3","18","1","2025-07-09 09:06:42","7701e855f2ef39aa3fd6c71abdc6918a","78.33.241.66","Mozilla/5.0 (Windows NT 10.0; Win64; x64) AppleWebKit/537.36 (KHTML, like Gecko) Chrome/138.0.0.0 Safari/537.36","WebKit","Chrome","138.0.0.0","Windows","10.0","https://app.prolific.com/","en-GB,en;q=0.9","5e203085ac30fa331b586690","686d226cabeef709c732f8e1","686e311c859d8a80b5bb9f48","5e203085ac30fa331b586690","2025-07-09T09:15:52.404Z","","","","","","AttribQ","","","","","","","","","","","","","","","","","","","","","","","","","","","","","","","","","","","","","","50"
"2826","","<div style=""width:500px;"">
  <p>How much control did you have over the ball?</p>
  </div>","94","html-slider-response","54","551432","0.0-10.0-2.3","18","1","2025-07-09 09:06:42","7701e855f2ef39aa3fd6c71abdc6918a","78.33.241.66","Mozilla/5.0 (Windows NT 10.0; Win64; x64) AppleWebKit/537.36 (KHTML, like Gecko) Chrome/138.0.0.0 Safari/537.36","WebKit","Chrome","138.0.0.0","Windows","10.0","https://app.prolific.com/","en-GB,en;q=0.9","5e203085ac30fa331b586690","686d226cabeef709c732f8e1","686e311c859d8a80b5bb9f48","5e203085ac30fa331b586690","2025-07-09T09:15:55.234Z","","","","","","ControlQ","","","","","","","","","","","","","","","","","","","","","","","","","","","","","","","","","","","","","","50"
"2879","","<div style=""width:500px;"">
  <p>How would you describe your current emotional state?</p>
  </div>","20","html-slider-response","55","554321","0.0-10.0-3.3","18","1","2025-07-09 09:06:42","7701e855f2ef39aa3fd6c71abdc6918a","78.33.241.66","Mozilla/5.0 (Windows NT 10.0; Win64; x64) AppleWebKit/537.36 (KHTML, like Gecko) Chrome/138.0.0.0 Safari/537.36","WebKit","Chrome","138.0.0.0","Windows","10.0","https://app.prolific.com/","en-GB,en;q=0.9","5e203085ac30fa331b586690","686d226cabeef709c732f8e1","686e311c859d8a80b5bb9f48","5e203085ac30fa331b586690","2025-07-09T09:15:58.124Z","","","","","","StressQ","","","","","","","","","","","","","","","","","","","","","","","","","","","","","","","","","","","","","","50"
"2075","","<div style=""width:500px;"">
  <p>What best describes how you currently feel?</p>
  </div>","84","html-slider-response","56","556404","0.0-10.0-4.3","18","1","2025-07-09 09:06:42","7701e855f2ef39aa3fd6c71abdc6918a","78.33.241.66","Mozilla/5.0 (Windows NT 10.0; Win64; x64) AppleWebKit/537.36 (KHTML, like Gecko) Chrome/138.0.0.0 Safari/537.36","WebKit","Chrome","138.0.0.0","Windows","10.0","https://app.prolific.com/","en-GB,en;q=0.9","5e203085ac30fa331b586690","686d226cabeef709c732f8e1","686e311c859d8a80b5bb9f48","5e203085ac30fa331b586690","2025-07-09T09:16:00.207Z","","","","","","MotivationQ","","","","","","","","","","","","","","","","","","","","","","","","","","","","","","","","","","","","","","50"
"","","","","ctl-task-cpt","57","601848","0.0-10.0-0.4","18","1","2025-07-09 09:06:42","7701e855f2ef39aa3fd6c71abdc6918a","78.33.241.66","Mozilla/5.0 (Windows NT 10.0; Win64; x64) AppleWebKit/537.36 (KHTML, like Gecko) Chrome/138.0.0.0 Safari/537.36","WebKit","Chrome","138.0.0.0","Windows","10.0","https://app.prolific.com/","en-GB,en;q=0.9","5e203085ac30fa331b586690","686d226cabeef709c732f8e1","686e311c859d8a80b5bb9f48","5e203085ac30fa331b586690","2025-07-09T09:16:45.650Z","","","","","","","","","","","","","","","","win-only","3","g1:SW,g2:NE","0.6","5","0","558217.7","1029.9","6032","42412.2","1","4","4","6","2","-4","-4","11","15","0.08333333333333333","1019.5","3000","-2220","[""up"",""right""]","{""num_key_presses"":12,""num_perfect"":6,""num_errors"":0,""num_randdir"":6,""num_randdir_good_moves"":2,""num_whilered"":0,""num_whileblue"":0,""num_blue"":0,""num_good_moves"":8}","[417.57142857142856,427.47767857142856,0.1,417.57142857142856,427.47767857142856,101.3,417.57142857142856,427.47767857142856,201.9,417.57142857142856,427.47767857142856,306.3,409.57142857142856,430.47767857142856,412.5,344.57142857142856,485.47767857142856,520.4,398.57142857142856,436.47767857142856,621.3,676.5714285714286,165.47767857142856,735.6,735.5714285714286,136.47767857142856,851.9,757.5714285714286,106.47767857142857,952.9,757.5714285714286,106.47767857142857,1056.4,761.5714285714286,103.47767857142857,1171.6,761.5714285714286,104.47767857142857,1276.1,728.5714285714286,180.47767857142856,1377,717.5714285714286,260.47767857142856,1481.5,706.5714285714286,302.47767857142856,1583.1,705.5714285714286,303.47767857142856,1686.5,697.5714285714286,327.47767857142856,1792.6,676.5714285714286,450.47767857142856,1902.7,673.5714285714286,465.47767857142856,2003.1,673.5714285714286,465.47767857142856,2103.7,673.5714285714286,465.47767857142856,2205.7,673.5714285714286,465.47767857142856,2312.5,673.5714285714286,465.47767857142856,2420.7,674.5714285714286,472.47767857142856,2521.2,679.5714285714286,494.47767857142856,2626.7,679.5714285714286,494.47767857142856,2727.1,679.5714285714286,494.47767857142856,2834.8,679.5714285714286,494.47767857142856,2935.9,682.5714285714286,494.47767857142856,3036.8,726.5714285714286,514.4776785714286,3152.1,742.5714285714286,523.4776785714286,3253.4,742.5714285714286,523.4776785714286,3354.8,742.5714285714286,523.4776785714286,3455.8,746.5714285714286,533.4776785714286,3570.1,746.5714285714286,533.4776785714286,3670.7,746.5714285714286,535.4776785714286,3772.1,748.5714285714286,539.4776785714286,3886.8,748.5714285714286,539.4776785714286,3991.3,748.5714285714286,539.4776785714286,4091.7,748.5714285714286,539.4776785714286,4197.9,748.5714285714286,539.4776785714286,4298,748.5714285714286,539.4776785714286,4400.7,748.5714285714286,539.4776785714286,4501.2,748.5714285714286,539.4776785714286,4606.4,748.5714285714286,539.4776785714286,4706.8,748.5714285714286,539.4776785714286,4819.6,748.5714285714286,539.4776785714286,4921.5]","[1383.7,1383.7,1000,0,383.7,""smooth"",""right"",""right"",""good_move"",4933.6,3549.5,3170.6,1384.1,378.9,""smooth"",""right"",""right"",""good_move"",7852.1,2918.1,2572.2,4934,345.9,""oops"",""right"",""left"",""bad_move"",10715.8,2863.2,2562.1,7852.6,301.1,""smooth"",""right"",""right"",""good_move"",13867,3150.9,2857.9,10716.1,293,""smooth"",""right"",""right"",""good_move"",16782.7,2915.2,2605.1,13867.5,310.1,""oops"",""up"",""down"",""bad_move"",19861.8,3078.8,2742.2,16783,336.6,""smooth"",""up"",""up"",""good_move"",22300.5,2438.1,2075.9,19862.4,362.2,""oops"",""up"",""left"",""bad_move"",24816.1,2515.2,2133.9,22301,381.2,""oops"",""up"",""up"",""good_move"",28268,3451.7,3157.7,24816.3,294,""smooth"",""up"",""up"",""good_move"",30782.5,2514.5,2160.8,28268.1,353.7,""oops"",""up"",""up"",""good_move"",33469.5,2686.6,2384,30782.9,302.6,""oops"",""right"",""left"",""bad_move""]","",""
"3505","","<div style=""width:500px;"">
  <p>What determined the result of this run?</p>
  </div>","3","html-slider-response","58","605355","0.0-10.0-1.4","18","1","2025-07-09 09:06:42","7701e855f2ef39aa3fd6c71abdc6918a","78.33.241.66","Mozilla/5.0 (Windows NT 10.0; Win64; x64) AppleWebKit/537.36 (KHTML, like Gecko) Chrome/138.0.0.0 Safari/537.36","WebKit","Chrome","138.0.0.0","Windows","10.0","https://app.prolific.com/","en-GB,en;q=0.9","5e203085ac30fa331b586690","686d226cabeef709c732f8e1","686e311c859d8a80b5bb9f48","5e203085ac30fa331b586690","2025-07-09T09:16:49.158Z","","","","","","AttribQ","","","","","","","","","","","","","","","","","","","","","","","","","","","","","","","","","","","","","","50"
"2659","","<div style=""width:500px;"">
  <p>How much control did you have over the ball?</p>
  </div>","12","html-slider-response","59","608021","0.0-10.0-2.4","18","1","2025-07-09 09:06:42","7701e855f2ef39aa3fd6c71abdc6918a","78.33.241.66","Mozilla/5.0 (Windows NT 10.0; Win64; x64) AppleWebKit/537.36 (KHTML, like Gecko) Chrome/138.0.0.0 Safari/537.36","WebKit","Chrome","138.0.0.0","Windows","10.0","https://app.prolific.com/","en-GB,en;q=0.9","5e203085ac30fa331b586690","686d226cabeef709c732f8e1","686e311c859d8a80b5bb9f48","5e203085ac30fa331b586690","2025-07-09T09:16:51.824Z","","","","","","ControlQ","","","","","","","","","","","","","","","","","","","","","","","","","","","","","","","","","","","","","","50"
"4721","","<div style=""width:500px;"">
  <p>How would you describe your current emotional state?</p>
  </div>","35","html-slider-response","60","612749","0.0-10.0-3.4","18","1","2025-07-09 09:06:42","7701e855f2ef39aa3fd6c71abdc6918a","78.33.241.66","Mozilla/5.0 (Windows NT 10.0; Win64; x64) AppleWebKit/537.36 (KHTML, like Gecko) Chrome/138.0.0.0 Safari/537.36","WebKit","Chrome","138.0.0.0","Windows","10.0","https://app.prolific.com/","en-GB,en;q=0.9","5e203085ac30fa331b586690","686d226cabeef709c732f8e1","686e311c859d8a80b5bb9f48","5e203085ac30fa331b586690","2025-07-09T09:16:56.552Z","","","","","","StressQ","","","","","","","","","","","","","","","","","","","","","","","","","","","","","","","","","","","","","","50"
"3699","","<div style=""width:500px;"">
  <p>What best describes how you currently feel?</p>
  </div>","70","html-slider-response","61","616455","0.0-10.0-4.4","18","1","2025-07-09 09:06:42","7701e855f2ef39aa3fd6c71abdc6918a","78.33.241.66","Mozilla/5.0 (Windows NT 10.0; Win64; x64) AppleWebKit/537.36 (KHTML, like Gecko) Chrome/138.0.0.0 Safari/537.36","WebKit","Chrome","138.0.0.0","Windows","10.0","https://app.prolific.com/","en-GB,en;q=0.9","5e203085ac30fa331b586690","686d226cabeef709c732f8e1","686e311c859d8a80b5bb9f48","5e203085ac30fa331b586690","2025-07-09T09:17:00.258Z","","","","","","MotivationQ","","","","","","","","","","","","","","","","","","","","","","","","","","","","","","","","","","","","","","50"
"","","","","ctl-task-cpt","62","646784","0.0-10.0-0.5","18","1","2025-07-09 09:06:42","7701e855f2ef39aa3fd6c71abdc6918a","78.33.241.66","Mozilla/5.0 (Windows NT 10.0; Win64; x64) AppleWebKit/537.36 (KHTML, like Gecko) Chrome/138.0.0.0 Safari/537.36","WebKit","Chrome","138.0.0.0","Windows","10.0","https://app.prolific.com/","en-GB,en;q=0.9","5e203085ac30fa331b586690","686d226cabeef709c732f8e1","686e311c859d8a80b5bb9f48","5e203085ac30fa331b586690","2025-07-09T09:17:30.586Z","","","","","","","","","","","","","","","","win-only","1","g1:NE,g2:SW","0.5","6","0","618269","1280.2","6282.6","27295.7","1","4","8","6","2","8","8","19","11","0.14393939393939395","1154.1","3000","1515","[""down"",""left""]","{""num_key_presses"":6,""num_perfect"":3,""num_errors"":0,""num_randdir"":3,""num_randdir_good_moves"":3,""num_whilered"":0,""num_whileblue"":0,""num_blue"":2,""num_good_moves"":6}","[413.57142857142856,411.47767857142856,0.2,413.57142857142856,411.47767857142856,102.4,413.57142857142856,411.47767857142856,217.9,413.57142857142856,411.47767857142856,320.7,441.57142857142856,388.47767857142856,420.7,531.5714285714286,313.47767857142856,521.3,389.57142857142856,406.47767857142856,626.1,285.57142857142856,506.47767857142856,731,198.57142857142856,637.4776785714286,831.2,144.57142857142856,714.4776785714286,936.1,126.57142857142857,723.4776785714286,1036.9,108.57142857142857,726.4776785714286,1152.6,108.57142857142857,726.4776785714286,1255.4,107.57142857142857,725.4776785714286,1355.6,108.57142857142857,721.4776785714286,1456.4,108.57142857142857,721.4776785714286,1561.8,108.57142857142857,721.4776785714286,1667.3,111.57142857142857,718.4776785714286,1770.6,114.57142857142857,715.4776785714286,1871.1,165.57142857142856,694.4776785714286,1988.3,312.57142857142856,670.4776785714286,2103.5,343.57142857142856,667.4776785714286,2206.2,343.57142857142856,667.4776785714286,2312.6,343.57142857142856,667.4776785714286,2414.7,343.57142857142856,667.4776785714286,2515.3,343.57142857142856,667.4776785714286,2618.4,343.57142857142856,667.4776785714286,2720.2,343.57142857142856,667.4776785714286,2820.2,343.57142857142856,667.4776785714286,2920.8,343.57142857142856,667.4776785714286,3037.8,343.57142857142856,667.4776785714286,3140.3,343.57142857142856,667.4776785714286,3241.2,343.57142857142856,667.4776785714286,3346.1,343.57142857142856,667.4776785714286,3450.6,343.57142857142856,667.4776785714286,3552.6,343.57142857142856,667.4776785714286,3652.9,343.57142857142856,667.4776785714286,3755.7,343.57142857142856,667.4776785714286,3862,343.57142857142856,667.4776785714286,3964.6,343.57142857142856,667.4776785714286,4066.5,343.57142857142856,667.4776785714286,4170.9,343.57142857142856,667.4776785714286,4271.7,343.57142857142856,667.4776785714286,4386.7,343.57142857142856,667.4776785714286,4503,343.57142857142856,667.4776785714286,4603,343.57142857142856,667.4776785714286,4705,343.57142857142856,667.4776785714286,4806.3,343.57142857142856,667.4776785714286,4908.9]","[1378.2,1378.2,1000,0,378.2,""smooth"",""down"",""down"",""good_move"",4668.5,3290,2941.9,1378.5,348.1,""smooth"",""down"",""down"",""good_move"",7362.1,2693.3,2320.5,4668.8,372.8,""oops"",""down"",""down"",""good_move"",9557,2194.3,1810.6,7362.7,383.7,""smooth"",""left"",""left"",""good_move"",15651.8,6094.3,2478.7,12845.9,327.2,""oops"",""left"",""left"",""good_move"",20899.1,5246.9,2185.3,18333.2,380.6,""oops"",""left"",""left"",""good_move""]","",""
"2843","","<div style=""width:500px;"">
  <p>What determined the result of this run?</p>
  </div>","100","html-slider-response","63","649630","0.0-10.0-1.5","18","1","2025-07-09 09:06:42","7701e855f2ef39aa3fd6c71abdc6918a","78.33.241.66","Mozilla/5.0 (Windows NT 10.0; Win64; x64) AppleWebKit/537.36 (KHTML, like Gecko) Chrome/138.0.0.0 Safari/537.36","WebKit","Chrome","138.0.0.0","Windows","10.0","https://app.prolific.com/","en-GB,en;q=0.9","5e203085ac30fa331b586690","686d226cabeef709c732f8e1","686e311c859d8a80b5bb9f48","5e203085ac30fa331b586690","2025-07-09T09:17:33.432Z","","","","","","AttribQ","","","","","","","","","","","","","","","","","","","","","","","","","","","","","","","","","","","","","","50"
"2731","","<div style=""width:500px;"">
  <p>How much control did you have over the ball?</p>
  </div>","100","html-slider-response","64","652368","0.0-10.0-2.5","18","1","2025-07-09 09:06:42","7701e855f2ef39aa3fd6c71abdc6918a","78.33.241.66","Mozilla/5.0 (Windows NT 10.0; Win64; x64) AppleWebKit/537.36 (KHTML, like Gecko) Chrome/138.0.0.0 Safari/537.36","WebKit","Chrome","138.0.0.0","Windows","10.0","https://app.prolific.com/","en-GB,en;q=0.9","5e203085ac30fa331b586690","686d226cabeef709c732f8e1","686e311c859d8a80b5bb9f48","5e203085ac30fa331b586690","2025-07-09T09:17:36.171Z","","","","","","ControlQ","","","","","","","","","","","","","","","","","","","","","","","","","","","","","","","","","","","","","","50"
"3633","","<div style=""width:500px;"">
  <p>How would you describe your current emotional state?</p>
  </div>","25","html-slider-response","65","656008","0.0-10.0-3.5","18","1","2025-07-09 09:06:42","7701e855f2ef39aa3fd6c71abdc6918a","78.33.241.66","Mozilla/5.0 (Windows NT 10.0; Win64; x64) AppleWebKit/537.36 (KHTML, like Gecko) Chrome/138.0.0.0 Safari/537.36","WebKit","Chrome","138.0.0.0","Windows","10.0","https://app.prolific.com/","en-GB,en;q=0.9","5e203085ac30fa331b586690","686d226cabeef709c732f8e1","686e311c859d8a80b5bb9f48","5e203085ac30fa331b586690","2025-07-09T09:17:39.811Z","","","","","","StressQ","","","","","","","","","","","","","","","","","","","","","","","","","","","","","","","","","","","","","","50"
"4423","","<div style=""width:500px;"">
  <p>What best describes how you currently feel?</p>
  </div>","73","html-slider-response","66","660440","0.0-10.0-4.5","18","1","2025-07-09 09:06:42","7701e855f2ef39aa3fd6c71abdc6918a","78.33.241.66","Mozilla/5.0 (Windows NT 10.0; Win64; x64) AppleWebKit/537.36 (KHTML, like Gecko) Chrome/138.0.0.0 Safari/537.36","WebKit","Chrome","138.0.0.0","Windows","10.0","https://app.prolific.com/","en-GB,en;q=0.9","5e203085ac30fa331b586690","686d226cabeef709c732f8e1","686e311c859d8a80b5bb9f48","5e203085ac30fa331b586690","2025-07-09T09:17:44.243Z","","","","","","MotivationQ","","","","","","","","","","","","","","","","","","","","","","","","","","","","","","","","","","","","","","50"
"","","","","ctl-task-cpt","67","705817","0.0-10.0-0.6","18","1","2025-07-09 09:06:42","7701e855f2ef39aa3fd6c71abdc6918a","78.33.241.66","Mozilla/5.0 (Windows NT 10.0; Win64; x64) AppleWebKit/537.36 (KHTML, like Gecko) Chrome/138.0.0.0 Safari/537.36","WebKit","Chrome","138.0.0.0","Windows","10.0","https://app.prolific.com/","en-GB,en;q=0.9","5e203085ac30fa331b586690","686d226cabeef709c732f8e1","686e311c859d8a80b5bb9f48","5e203085ac30fa331b586690","2025-07-09T09:18:29.619Z","","","","","","","","","","","","","","","","win-only","3","g1:SW,g2:NE","0.4","7","0","662251.5","1302.3","6302.9","42341.5","1","4","4","6","2","-4","-6","13","19","0.09848484848484848","1162.5","3000","-2105","[""up"",""right""]","{""num_key_presses"":12,""num_perfect"":4,""num_errors"":2,""num_randdir"":6,""num_randdir_good_moves"":2,""num_whilered"":0,""num_whileblue"":2,""num_blue"":2,""num_good_moves"":7}","[415.57142857142856,418.47767857142856,0.3,415.57142857142856,418.47767857142856,114,415.57142857142856,418.47767857142856,218.4,415.57142857142856,418.47767857142856,330.5,415.57142857142856,418.47767857142856,433.9,415.57142857142856,418.47767857142856,541.6,484.57142857142856,365.47767857142856,644.5,625.5714285714286,258.47767857142856,745,640.5714285714286,221.47767857142856,848.5,676.5714285714286,167.47767857142856,948.7,726.5714285714286,118.47767857142857,1065.3,729.5714285714286,115.47767857142857,1172.3,729.5714285714286,115.47767857142857,1281.9,729.5714285714286,115.47767857142857,1383.3,729.5714285714286,127.47767857142857,1484.7,733.5714285714286,173.47767857142856,1600,735.5714285714286,209.47767857142856,1700.9,731.5714285714286,224.47767857142856,1803.8,723.5714285714286,242.47767857142856,1909.2,719.5714285714286,253.47767857142856,2009.6,716.5714285714286,260.47767857142856,2113.2,714.5714285714286,263.47767857142856,2213.7,712.5714285714286,266.47767857142856,2331.4,710.5714285714286,269.47767857142856,2433.7,710.5714285714286,269.47767857142856,2533.7,709.5714285714286,272.47767857142856,2639.3,706.5714285714286,275.47767857142856,2743.5,706.5714285714286,276.47767857142856,2843.7,706.5714285714286,276.47767857142856,2944.5,706.5714285714286,276.47767857142856,3049.2,706.5714285714286,276.47767857142856,3164.8,706.5714285714286,276.47767857142856,3265.4,706.5714285714286,276.47767857142856,3365.8,706.5714285714286,276.47767857142856,3469.2,706.5714285714286,276.47767857142856,3574.4,706.5714285714286,276.47767857142856,3674.8,706.5714285714286,276.47767857142856,3778.5,706.5714285714286,276.47767857142856,3878.6,706.5714285714286,276.47767857142856,3984,706.5714285714286,276.47767857142856,4084.4,706.5714285714286,276.47767857142856,4200.8,706.5714285714286,276.47767857142856,4301.6,706.5714285714286,276.47767857142856,4402.9,706.5714285714286,276.47767857142856,4503.3,706.5714285714286,276.47767857142856,4604,706.5714285714286,276.47767857142856,4708.6,706.5714285714286,276.47767857142856,4808.7,706.5714285714286,276.47767857142856,4913.1]","[1499.6,1499.6,1000,0,499.6,""oops"",""right"",""up"",""good_move"",4329.1,2828.7,2454.5,1500.4,374.2,""smooth"",""right"",""right"",""good_move"",6959.9,2630.5,2251.2,4329.5,379.2,""while_blue"",""right"",""up"",""good_move"",9920.4,2960.4,2583,6960,377.4,""smooth"",""right"",""right"",""good_move"",13122.9,3202.1,2818.1,9920.9,383.9,""smooth"",""right"",""right"",""good_move"",15747,2624,2229.1,13123,394.9,""oops"",""up"",""down"",""bad_move"",18560.8,2813.5,2465.2,15747.3,348.3,""oops"",""up"",""down"",""bad_move"",20776.2,2215.3,1764,18560.9,451.3,""smooth"",""up"",""up"",""good_move"",24659,3882.1,3611.4,20776.9,270.7,""while_blue"",""up"",""down"",""bad_move"",27563.4,2904.2,2530.6,24659.2,373.6,""oops"",""up"",""down"",""bad_move"",30079.4,2515.7,2091.5,27563.7,424.2,""oops"",""up"",""up"",""good_move"",33158.5,3078.7,2717.1,30079.8,361.6,""oops"",""up"",""down"",""bad_move""]","",""
"2934","","<div style=""width:500px;"">
  <p>What determined the result of this run?</p>
  </div>","13","html-slider-response","68","708754","0.0-10.0-1.6","18","1","2025-07-09 09:06:42","7701e855f2ef39aa3fd6c71abdc6918a","78.33.241.66","Mozilla/5.0 (Windows NT 10.0; Win64; x64) AppleWebKit/537.36 (KHTML, like Gecko) Chrome/138.0.0.0 Safari/537.36","WebKit","Chrome","138.0.0.0","Windows","10.0","https://app.prolific.com/","en-GB,en;q=0.9","5e203085ac30fa331b586690","686d226cabeef709c732f8e1","686e311c859d8a80b5bb9f48","5e203085ac30fa331b586690","2025-07-09T09:18:32.557Z","","","","","","AttribQ","","","","","","","","","","","","","","","","","","","","","","","","","","","","","","","","","","","","","","50"
"3992","","<div style=""width:500px;"">
  <p>How much control did you have over the ball?</p>
  </div>","16","html-slider-response","69","712754","0.0-10.0-2.6","18","1","2025-07-09 09:06:42","7701e855f2ef39aa3fd6c71abdc6918a","78.33.241.66","Mozilla/5.0 (Windows NT 10.0; Win64; x64) AppleWebKit/537.36 (KHTML, like Gecko) Chrome/138.0.0.0 Safari/537.36","WebKit","Chrome","138.0.0.0","Windows","10.0","https://app.prolific.com/","en-GB,en;q=0.9","5e203085ac30fa331b586690","686d226cabeef709c732f8e1","686e311c859d8a80b5bb9f48","5e203085ac30fa331b586690","2025-07-09T09:18:36.557Z","","","","","","ControlQ","","","","","","","","","","","","","","","","","","","","","","","","","","","","","","","","","","","","","","50"
"3352","","<div style=""width:500px;"">
  <p>How would you describe your current emotional state?</p>
  </div>","33","html-slider-response","70","716113","0.0-10.0-3.6","18","1","2025-07-09 09:06:42","7701e855f2ef39aa3fd6c71abdc6918a","78.33.241.66","Mozilla/5.0 (Windows NT 10.0; Win64; x64) AppleWebKit/537.36 (KHTML, like Gecko) Chrome/138.0.0.0 Safari/537.36","WebKit","Chrome","138.0.0.0","Windows","10.0","https://app.prolific.com/","en-GB,en;q=0.9","5e203085ac30fa331b586690","686d226cabeef709c732f8e1","686e311c859d8a80b5bb9f48","5e203085ac30fa331b586690","2025-07-09T09:18:39.915Z","","","","","","StressQ","","","","","","","","","","","","","","","","","","","","","","","","","","","","","","","","","","","","","","50"
"4243","","<div style=""width:500px;"">
  <p>What best describes how you currently feel?</p>
  </div>","61","html-slider-response","71","720363","0.0-10.0-4.6","18","1","2025-07-09 09:06:42","7701e855f2ef39aa3fd6c71abdc6918a","78.33.241.66","Mozilla/5.0 (Windows NT 10.0; Win64; x64) AppleWebKit/537.36 (KHTML, like Gecko) Chrome/138.0.0.0 Safari/537.36","WebKit","Chrome","138.0.0.0","Windows","10.0","https://app.prolific.com/","en-GB,en;q=0.9","5e203085ac30fa331b586690","686d226cabeef709c732f8e1","686e311c859d8a80b5bb9f48","5e203085ac30fa331b586690","2025-07-09T09:18:44.166Z","","","","","","MotivationQ","","","","","","","","","","","","","","","","","","","","","","","","","","","","","","","","","","","","","","50"
"","","","","ctl-task-cpt","72","770183","0.0-10.0-0.7","18","1","2025-07-09 09:06:42","7701e855f2ef39aa3fd6c71abdc6918a","78.33.241.66","Mozilla/5.0 (Windows NT 10.0; Win64; x64) AppleWebKit/537.36 (KHTML, like Gecko) Chrome/138.0.0.0 Safari/537.36","WebKit","Chrome","138.0.0.0","Windows","10.0","https://app.prolific.com/","en-GB,en;q=0.9","5e203085ac30fa331b586690","686d226cabeef709c732f8e1","686e311c859d8a80b5bb9f48","5e203085ac30fa331b586690","2025-07-09T09:19:33.985Z","","","","","","","","","","","","","","","","win-only","2","g1:SE,g2:NW","0.3","8","0","722177","1223.6","6227.9","46792.1","1","4","8","6","2","8","5","18","13","0.13636363636363635","852.4","3000","125","[""left"",""up""]","{""num_key_presses"":15,""num_perfect"":4,""num_errors"":3,""num_randdir"":8,""num_randdir_good_moves"":5,""num_whilered"":0,""num_whileblue"":2,""num_blue"":2,""num_good_moves"":10}","[410.57142857142856,406.47767857142856,0.1,410.57142857142856,406.47767857142856,102.2,410.57142857142856,406.47767857142856,203.6,410.57142857142856,406.47767857142856,315.4,410.57142857142856,411.47767857142856,418.1,346.57142857142856,321.47767857142856,518.1,126.57142857142857,124.47767857142857,619.7,63.57142857142857,89.47767857142857,722.3,46.57142857142857,77.47767857142857,823.3,46.57142857142857,77.47767857142857,930.3,46.57142857142857,77.47767857142857,1031.9,50.57142857142857,83.47767857142857,1134.3,61.57142857142857,96.47767857142857,1237.4,65.57142857142857,105.47767857142857,1352.7,66.57142857142857,112.47767857142857,1453.4,67.57142857142857,120.47767857142857,1570.3,67.57142857142857,127.47767857142857,1671.8,67.57142857142857,128.47767857142856,1773,67.57142857142857,128.47767857142856,1879.4,67.57142857142857,128.47767857142856,1984.3,67.57142857142857,128.47767857142856,2086.8,67.57142857142857,128.47767857142856,2187.4,67.57142857142857,134.47767857142856,2300.3,67.57142857142857,137.47767857142856,2404.3,67.57142857142857,137.47767857142856,2507.2,66.57142857142857,139.47767857142856,2610.1,67.57142857142857,140.47767857142856,2717,67.57142857142857,140.47767857142856,2817.7,67.57142857142857,140.47767857142856,2920.8,67.57142857142857,140.47767857142856,3028.9,67.57142857142857,140.47767857142856,3129.5,67.57142857142857,140.47767857142856,3230,67.57142857142857,140.47767857142856,3332.8,67.57142857142857,140.47767857142856,3436.2,67.57142857142857,140.47767857142856,3537.7,67.57142857142857,140.47767857142856,3638.4,67.57142857142857,141.47767857142856,3744,67.57142857142857,141.47767857142856,3845.1,66.57142857142857,144.47767857142856,3953.3,66.57142857142857,144.47767857142856,4060.6,66.57142857142857,144.47767857142856,4167.7,66.57142857142857,144.47767857142856,4268.2,66.57142857142857,144.47767857142856,4369.4,66.57142857142857,144.47767857142856,4472,66.57142857142857,144.47767857142856,4572.6,66.57142857142857,144.47767857142856,4677.1,66.57142857142857,144.47767857142856,4778.9,66.57142857142857,144.47767857142856,4882.7,66.57142857142857,144.47767857142856,4983.3]","[1414.7,1414.7,1000,0,414.7,""oops"",""left"",""left"",""good_move"",4349.4,2934.4,2568.1,1415,366.3,""smooth"",""left"",""left"",""good_move"",7498.7,3149.1,2780.3,4349.7,368.7,""smooth"",""left"",""left"",""good_move"",10186.8,2687.6,2386.4,7499.2,301.2,""oops"",""up"",""down"",""bad_move"",12578.5,2391.4,2063.2,10187.1,328.2,""smooth"",""up"",""up"",""good_move"",15814.1,3235.3,2957.7,12578.8,277.6,""oops"",""up"",""down"",""bad_move"",19414.4,3600,3379,15814.4,221,""while_blue"",""up"",""right"",""bad_move"",22344.7,2929.8,2554.8,19414.9,375,""oops"",""left"",""up"",""good_move"",24350,2004.8,1522.2,22345.2,482.6,""oops"",""left"",""up"",""good_move"",27355.2,3005,2615.3,24350.2,389.7,""oops"",""left"",""right"",""bad_move"",30080.9,2723.8,2415.3,27357.3,308.3,""oops"",""left"",""left"",""good_move"",32303.1,2221.7,1882.2,30081.4,339.5,""while_blue"",""left"",""up"",""good_move"",35128.7,2825.2,2516.3,32303.5,308.9,""smooth"",""left"",""left"",""good_move"",36498.9,1369.9,2647.4,35129,-1277.5,""error"",""-"",""-"",""no_move"",40434.3,3934.7,2562.9,37515.3,356.1,""oops"",""up"",""up"",""good_move""]","",""
"3235","","<div style=""width:500px;"">
  <p>What determined the result of this run?</p>
  </div>","23","html-slider-response","73","773421","0.0-10.0-1.7","18","1","2025-07-09 09:06:42","7701e855f2ef39aa3fd6c71abdc6918a","78.33.241.66","Mozilla/5.0 (Windows NT 10.0; Win64; x64) AppleWebKit/537.36 (KHTML, like Gecko) Chrome/138.0.0.0 Safari/537.36","WebKit","Chrome","138.0.0.0","Windows","10.0","https://app.prolific.com/","en-GB,en;q=0.9","5e203085ac30fa331b586690","686d226cabeef709c732f8e1","686e311c859d8a80b5bb9f48","5e203085ac30fa331b586690","2025-07-09T09:19:37.224Z","","","","","","AttribQ","","","","","","","","","","","","","","","","","","","","","","","","","","","","","","","","","","","","","","50"
"2164","","<div style=""width:500px;"">
  <p>How much control did you have over the ball?</p>
  </div>","31","html-slider-response","74","775595","0.0-10.0-2.7","18","1","2025-07-09 09:06:42","7701e855f2ef39aa3fd6c71abdc6918a","78.33.241.66","Mozilla/5.0 (Windows NT 10.0; Win64; x64) AppleWebKit/537.36 (KHTML, like Gecko) Chrome/138.0.0.0 Safari/537.36","WebKit","Chrome","138.0.0.0","Windows","10.0","https://app.prolific.com/","en-GB,en;q=0.9","5e203085ac30fa331b586690","686d226cabeef709c732f8e1","686e311c859d8a80b5bb9f48","5e203085ac30fa331b586690","2025-07-09T09:19:39.399Z","","","","","","ControlQ","","","","","","","","","","","","","","","","","","","","","","","","","","","","","","","","","","","","","","50"
"3598","","<div style=""width:500px;"">
  <p>How would you describe your current emotional state?</p>
  </div>","42","html-slider-response","75","779201","0.0-10.0-3.7","18","1","2025-07-09 09:06:42","7701e855f2ef39aa3fd6c71abdc6918a","78.33.241.66","Mozilla/5.0 (Windows NT 10.0; Win64; x64) AppleWebKit/537.36 (KHTML, like Gecko) Chrome/138.0.0.0 Safari/537.36","WebKit","Chrome","138.0.0.0","Windows","10.0","https://app.prolific.com/","en-GB,en;q=0.9","5e203085ac30fa331b586690","686d226cabeef709c732f8e1","686e311c859d8a80b5bb9f48","5e203085ac30fa331b586690","2025-07-09T09:19:43.004Z","","","","","","StressQ","","","","","","","","","","","","","","","","","","","","","","","","","","","","","","","","","","","","","","50"
"12574","","<div style=""width:500px;"">
  <p>What best describes how you currently feel?</p>
  </div>","62","html-slider-response","76","791785","0.0-10.0-4.7","18","1","2025-07-09 09:06:42","7701e855f2ef39aa3fd6c71abdc6918a","78.33.241.66","Mozilla/5.0 (Windows NT 10.0; Win64; x64) AppleWebKit/537.36 (KHTML, like Gecko) Chrome/138.0.0.0 Safari/537.36","WebKit","Chrome","138.0.0.0","Windows","10.0","https://app.prolific.com/","en-GB,en;q=0.9","5e203085ac30fa331b586690","686d226cabeef709c732f8e1","686e311c859d8a80b5bb9f48","5e203085ac30fa331b586690","2025-07-09T09:19:55.588Z","","","","","","MotivationQ","","","","","","","","","","","","","","","","","","","","","","","","","","","","","","","","","","","","","","50"
"","","","","ctl-task-cpt","77","857499","0.0-10.0-0.8","18","1","2025-07-09 09:06:42","7701e855f2ef39aa3fd6c71abdc6918a","78.33.241.66","Mozilla/5.0 (Windows NT 10.0; Win64; x64) AppleWebKit/537.36 (KHTML, like Gecko) Chrome/138.0.0.0 Safari/537.36","WebKit","Chrome","138.0.0.0","Windows","10.0","https://app.prolific.com/","en-GB,en;q=0.9","5e203085ac30fa331b586690","686d226cabeef709c732f8e1","686e311c859d8a80b5bb9f48","5e203085ac30fa331b586690","2025-07-09T09:21:01.301Z","","","","","","","","","","","","","","","","win-only","0","g1:NW,g2:SE","0.2","9","0","793599.2","975.9","5989.9","62685.7","1","4","4","6","2","-4","-5","13","18","0.09848484848484848","1208.6","3000","-2025","[""down"",""right""]","{""num_key_presses"":13,""num_perfect"":4,""num_errors"":1,""num_randdir"":8,""num_randdir_good_moves"":3,""num_whilered"":0,""num_whileblue"":1,""num_blue"":6,""num_good_moves"":6}","[423.57142857142856,417.47767857142856,0.4,423.57142857142856,417.47767857142856,105.7,423.57142857142856,417.47767857142856,206.2,423.57142857142856,417.47767857142856,315.9,423.57142857142856,417.47767857142856,416.7,423.57142857142856,417.47767857142856,520.7,600.5714285714286,584.4776785714286,635.8,627.5714285714286,632.4776785714286,737.7,655.5714285714286,697.4776785714286,837.8,726.5714285714286,746.4776785714286,938.1,740.5714285714286,749.4776785714286,1039.7,767.5714285714286,758.4776785714286,1140.1,767.5714285714286,758.4776785714286,1241.8,767.5714285714286,758.4776785714286,1347.3,767.5714285714286,758.4776785714286,1449.8,767.5714285714286,758.4776785714286,1556.8,767.5714285714286,758.4776785714286,1662.1,693.5714285714286,740.4776785714286,1768.2,693.5714285714286,740.4776785714286,1869.3,693.5714285714286,740.4776785714286,1984.5,693.5714285714286,740.4776785714286,2091.4,693.5714285714286,739.4776785714286,2194.4,693.5714285714286,739.4776785714286,2296.3,693.5714285714286,739.4776785714286,2402,693.5714285714286,739.4776785714286,2506.8,693.5714285714286,739.4776785714286,2613.4,693.5714285714286,739.4776785714286,2715.1,693.5714285714286,739.4776785714286,2816.9,693.5714285714286,739.4776785714286,2921.6,693.5714285714286,739.4776785714286,3026.7,693.5714285714286,739.4776785714286,3129.5,693.5714285714286,739.4776785714286,3230.2,693.5714285714286,739.4776785714286,3338.5,693.5714285714286,739.4776785714286,3440,693.5714285714286,739.4776785714286,3542.1,693.5714285714286,739.4776785714286,3644.6,693.5714285714286,739.4776785714286,3752.1,693.5714285714286,739.4776785714286,3861.3,693.5714285714286,739.4776785714286,3969.1,693.5714285714286,739.4776785714286,4072.8,693.5714285714286,739.4776785714286,4179.5,693.5714285714286,739.4776785714286,4289.8,693.5714285714286,739.4776785714286,4398.2,693.5714285714286,739.4776785714286,4506.3,693.5714285714286,739.4776785714286,4609,693.5714285714286,739.4776785714286,4710.1,693.5714285714286,739.4776785714286,4814.2,693.5714285714286,739.4776785714286,4920.3]","[1414.3,1414.3,1000,0,414.3,""smooth"",""down"",""down"",""good_move"",6878.8,5463.6,1880.2,4626.2,372.4,""smooth"",""down"",""down"",""good_move"",10178.8,3299.9,2951.3,6878.9,348.6,""oops"",""down"",""down"",""good_move"",16699.8,6520.7,2279.2,14100.4,320.2,""oops"",""right"",""left"",""bad_move"",19652.1,2951.9,2462.2,16700.2,489.7,""oops"",""right"",""up"",""bad_move"",22149.7,2497.1,2069.8,19652.6,427.3,""oops"",""right"",""up"",""bad_move"",24698.9,2548.9,2148.1,22150,400.8,""oops"",""right"",""left"",""bad_move"",30580.5,5881.4,2334,27902.3,344.2,""oops"",""down"",""up"",""bad_move"",33646.5,3065.7,2570.2,30580.8,495.5,""oops"",""up"",""down"",""good_move"",40512.1,6864.5,2715.5,37488,308.6,""oops"",""up"",""down"",""good_move"",43713.8,3201.4,2858.1,40512.4,343.3,""while_blue"",""up"",""up"",""bad_move"",46254.7,2540,2224.8,43714.7,315.2,""smooth"",""up"",""up"",""bad_move"",53513.1,7257.6,3103.3,50016.9,392.9,""smooth"",""down"",""down"",""good_move""]","",""
"6062","","<div style=""width:500px;"">
  <p>What determined the result of this run?</p>
  </div>","10","html-slider-response","78","863563","0.0-10.0-1.8","18","1","2025-07-09 09:06:42","7701e855f2ef39aa3fd6c71abdc6918a","78.33.241.66","Mozilla/5.0 (Windows NT 10.0; Win64; x64) AppleWebKit/537.36 (KHTML, like Gecko) Chrome/138.0.0.0 Safari/537.36","WebKit","Chrome","138.0.0.0","Windows","10.0","https://app.prolific.com/","en-GB,en;q=0.9","5e203085ac30fa331b586690","686d226cabeef709c732f8e1","686e311c859d8a80b5bb9f48","5e203085ac30fa331b586690","2025-07-09T09:21:07.365Z","","","","","","AttribQ","","","","","","","","","","","","","","","","","","","","","","","","","","","","","","","","","","","","","","50"
"5185","","<div style=""width:500px;"">
  <p>How much control did you have over the ball?</p>
  </div>","4","html-slider-response","79","868756","0.0-10.0-2.8","18","1","2025-07-09 09:06:42","7701e855f2ef39aa3fd6c71abdc6918a","78.33.241.66","Mozilla/5.0 (Windows NT 10.0; Win64; x64) AppleWebKit/537.36 (KHTML, like Gecko) Chrome/138.0.0.0 Safari/537.36","WebKit","Chrome","138.0.0.0","Windows","10.0","https://app.prolific.com/","en-GB,en;q=0.9","5e203085ac30fa331b586690","686d226cabeef709c732f8e1","686e311c859d8a80b5bb9f48","5e203085ac30fa331b586690","2025-07-09T09:21:12.559Z","","","","","","ControlQ","","","","","","","","","","","","","","","","","","","","","","","","","","","","","","","","","","","","","","50"
"2820","","<div style=""width:500px;"">
  <p>How would you describe your current emotional state?</p>
  </div>","42","html-slider-response","80","871585","0.0-10.0-3.8","18","1","2025-07-09 09:06:42","7701e855f2ef39aa3fd6c71abdc6918a","78.33.241.66","Mozilla/5.0 (Windows NT 10.0; Win64; x64) AppleWebKit/537.36 (KHTML, like Gecko) Chrome/138.0.0.0 Safari/537.36","WebKit","Chrome","138.0.0.0","Windows","10.0","https://app.prolific.com/","en-GB,en;q=0.9","5e203085ac30fa331b586690","686d226cabeef709c732f8e1","686e311c859d8a80b5bb9f48","5e203085ac30fa331b586690","2025-07-09T09:21:15.387Z","","","","","","StressQ","","","","","","","","","","","","","","","","","","","","","","","","","","","","","","","","","","","","","","50"
"2540","","<div style=""width:500px;"">
  <p>What best describes how you currently feel?</p>
  </div>","58","html-slider-response","81","874132","0.0-10.0-4.8","18","1","2025-07-09 09:06:42","7701e855f2ef39aa3fd6c71abdc6918a","78.33.241.66","Mozilla/5.0 (Windows NT 10.0; Win64; x64) AppleWebKit/537.36 (KHTML, like Gecko) Chrome/138.0.0.0 Safari/537.36","WebKit","Chrome","138.0.0.0","Windows","10.0","https://app.prolific.com/","en-GB,en;q=0.9","5e203085ac30fa331b586690","686d226cabeef709c732f8e1","686e311c859d8a80b5bb9f48","5e203085ac30fa331b586690","2025-07-09T09:21:17.935Z","","","","","","MotivationQ","","","","","","","","","","","","","","","","","","","","","","","","","","","","","","","","","","","","","","50"
"","","","","ctl-task-cpt","82","919211","0.0-10.0-0.9","18","1","2025-07-09 09:06:42","7701e855f2ef39aa3fd6c71abdc6918a","78.33.241.66","Mozilla/5.0 (Windows NT 10.0; Win64; x64) AppleWebKit/537.36 (KHTML, like Gecko) Chrome/138.0.0.0 Safari/537.36","WebKit","Chrome","138.0.0.0","Windows","10.0","https://app.prolific.com/","en-GB,en;q=0.9","5e203085ac30fa331b586690","686d226cabeef709c732f8e1","686e311c859d8a80b5bb9f48","5e203085ac30fa331b586690","2025-07-09T09:22:03.014Z","","","","","","","","","","","","","","","","win-only","2","g1:SE,g2:NW","0.4","10","0","875946.1","1413","6415","42053","1","4","8","6","1","-1","-2","11","13","0.08333333333333333","1391.7","3000","-2025","[""down"",""right""]","{""num_key_presses"":7,""num_perfect"":2,""num_errors"":1,""num_randdir"":4,""num_randdir_good_moves"":1,""num_whilered"":0,""num_whileblue"":1,""num_blue"":5,""num_good_moves"":3}","[418.57142857142856,405.47767857142856,0.3,418.57142857142856,405.47767857142856,109.7,418.57142857142856,405.47767857142856,225,418.57142857142856,405.47767857142856,328.8,418.57142857142856,405.47767857142856,432.3,418.57142857142856,405.47767857142856,532.3,414.57142857142856,412.47767857142856,645.9,263.57142857142856,301.47767857142856,750.5,156.57142857142856,208.47767857142856,854.3,150.57142857142856,196.47767857142856,955.6,384.57142857142856,353.47767857142856,1060,758.5714285714286,728.4776785714286,1160.6,808.5714285714286,786.4776785714286,1262.9,808.5714285714286,786.4776785714286,1377.6,808.5714285714286,786.4776785714286,1478.5,808.5714285714286,786.4776785714286,1582.7,808.5714285714286,786.4776785714286,1692.3,808.5714285714286,786.4776785714286,1795.1,808.5714285714286,786.4776785714286,1900.9,808.5714285714286,786.4776785714286,2005.1,808.5714285714286,786.4776785714286,2111.8,808.5714285714286,786.4776785714286,2217.1,808.5714285714286,786.4776785714286,2324.1,808.5714285714286,786.4776785714286,2426.9,808.5714285714286,786.4776785714286,2527.6,808.5714285714286,786.4776785714286,2631.2,808.5714285714286,786.4776785714286,2732.9,808.5714285714286,786.4776785714286,2841.4,808.5714285714286,786.4776785714286,2946.4,808.5714285714286,786.4776785714286,3048.2,808.5714285714286,786.4776785714286,3154.8,808.5714285714286,786.4776785714286,3257.4,808.5714285714286,786.4776785714286,3358,808.5714285714286,786.4776785714286,3458.1,808.5714285714286,786.4776785714286,3560,808.5714285714286,786.4776785714286,3680.4,808.5714285714286,786.4776785714286,3782.3,808.5714285714286,786.4776785714286,3883.3,808.5714285714286,786.4776785714286,3989.1,808.5714285714286,786.4776785714286,4095,808.5714285714286,786.4776785714286,4195.2,808.5714285714286,786.4776785714286,4295.2,808.5714285714286,786.4776785714286,4399.9,808.5714285714286,786.4776785714286,4511.7,808.5714285714286,786.4776785714286,4612.8,808.5714285714286,786.4776785714286,4713.7,808.5714285714286,786.4776785714286,4815.3,808.5714285714286,786.4776785714286,4918.6]","[4528.5,4528.4,2114.5,2017.5,396.5,""oops"",""down"",""up"",""bad_move"",11636.5,7105.6,2833,8407.5,396,""oops"",""down"",""up"",""bad_move"",15360.8,3724.2,1722,11636.6,2002.2,""smooth"",""down"",""down"",""good_move"",18866.7,3504.6,2963.2,15362.1,541.4,""smooth"",""right"",""right"",""good_move"",25392.2,6524.2,3299.6,21811.5,281.1,""while_blue"",""right"",""left"",""bad_move"",28064,2670.9,2228.9,25393.1,442,""oops"",""down"",""up"",""bad_move"",30638.4,2574.2,2126.1,28064.2,448.1,""oops"",""right"",""right"",""good_move""]","",""
"2617","","<div style=""width:500px;"">
  <p>What determined the result of this run?</p>
  </div>","14","html-slider-response","83","921831","0.0-10.0-1.9","18","1","2025-07-09 09:06:42","7701e855f2ef39aa3fd6c71abdc6918a","78.33.241.66","Mozilla/5.0 (Windows NT 10.0; Win64; x64) AppleWebKit/537.36 (KHTML, like Gecko) Chrome/138.0.0.0 Safari/537.36","WebKit","Chrome","138.0.0.0","Windows","10.0","https://app.prolific.com/","en-GB,en;q=0.9","5e203085ac30fa331b586690","686d226cabeef709c732f8e1","686e311c859d8a80b5bb9f48","5e203085ac30fa331b586690","2025-07-09T09:22:05.633Z","","","","","","AttribQ","","","","","","","","","","","","","","","","","","","","","","","","","","","","","","","","","","","","","","50"
"2000","","<div style=""width:500px;"">
  <p>How much control did you have over the ball?</p>
