"rt","response_timestamp","stimulus","response","trial_type","trial_index","time_elapsed","internal_node_id","run_id","condition","recorded_at","source_code_version","ip","user_agent","device","browser","browser_version","platform","platform_version","referer","accept_language","PROLIFIC_PID","STUDY_ID","SESSION_ID","prolific_id","realtime","view_history","question_order","consent","success","question_id","eventType","responses","item_order","radio_event_ids","radio_event_times","key_event_times","mouse_event_times","straightlining","zigzagging","honeypot","which_type","canvas_config","goals_layout","control_level","trial_number","tutorial_trial_number","trial_start_time","phase1_start_time","phase2_start_time","phase3_start_time","goal_1_value","goal_1_distance","goal_2_value","goal_2_distance","goal_selected","outcome","outcome_total","participant_final_score","participant_initial_score","participant_final_score_prop","goal_choice_rt","allocated_time","allocated_time_remaining","goal_direction","counts","mouse_movements","key_presses","correct","slider_start","sub_question"
"84362","1752052596562","<p style='font-size:40px;line-height:1.25'><strong>Welcome to the experiment!</strong></p><p style='font-size:1.1em;line-height:1.25'>Thank you for your interest in our experiment! Before you begin, it is important that we obtain your informed consent to participate in the study.</p><p style='font-size:1.1em;line-height:1.25'>On the next screen will be an <strong>information sheet</strong> for you to read. To participate in the study we need you to read this information sheet and the following consent form carefully. If you agree with all the statements, please click the <strong>I agree</strong> button.</p><p style='font-size:1.1em;line-height:1.25'>Press <strong>Next</strong> to read the information sheet.</p>","0","custom-html-button-response","0","84366","0.0-0.0","191","1","2025-07-09 09:15:11","7701e855f2ef39aa3fd6c71abdc6918a","102.221.201.1","Mozilla/5.0 (Windows NT 10.0; Win64; x64) AppleWebKit/537.36 (KHTML, like Gecko) Chrome/138.0.0.0 Safari/537.36 Edg/138.0.0.0","WebKit","Edge","138.0.0.0","Windows","10.0","https://app.prolific.com/","en-GB,en;q=0.9,en-US;q=0.8","66cf43db332889da5054c9e8","686d226cabeef709c732f8e1","686e310fa1b93b6a475b0a81","66cf43db332889da5054c9e8","2025-07-09T09:16:36.564Z","","","","","","","","","","","","","","","","","","","","","","","","","","","","","","","","","","","","","","","","","","","","",""
"79012","","","","instructions","1","163379","0.0-1.0","191","1","2025-07-09 09:15:11","7701e855f2ef39aa3fd6c71abdc6918a","102.221.201.1","Mozilla/5.0 (Windows NT 10.0; Win64; x64) AppleWebKit/537.36 (KHTML, like Gecko) Chrome/138.0.0.0 Safari/537.36 Edg/138.0.0.0","WebKit","Edge","138.0.0.0","Windows","10.0","https://app.prolific.com/","en-GB,en;q=0.9,en-US;q=0.8","66cf43db332889da5054c9e8","686d226cabeef709c732f8e1","686e310fa1b93b6a475b0a81","66cf43db332889da5054c9e8","","[{""page_index"":0,""viewing_time"":55827},{""page_index"":1,""viewing_time"":23185}]","","","","","","","","","","","","","","","","","","","","","","","","","","","","","","","","","","","","","","","","","","","",""
"75493","","","{""Q0"":"""",""Q1"":"""",""Q2"":"""",""Q3"":"""",""Q4"":"""",""Q5"":"""",""Q6"":""I agree""}","survey-multi-choice","2","238876","0.0-2.0","191","1","2025-07-09 09:15:11","7701e855f2ef39aa3fd6c71abdc6918a","102.221.201.1","Mozilla/5.0 (Windows NT 10.0; Win64; x64) AppleWebKit/537.36 (KHTML, like Gecko) Chrome/138.0.0.0 Safari/537.36 Edg/138.0.0.0","WebKit","Edge","138.0.0.0","Windows","10.0","https://app.prolific.com/","en-GB,en;q=0.9,en-US;q=0.8","66cf43db332889da5054c9e8","686d226cabeef709c732f8e1","686e310fa1b93b6a475b0a81","66cf43db332889da5054c9e8","","","[0,1,2,3,4,5,6]","true","","","","","","","","","","","","","","","","","","","","","","","","","","","","","","","","","","","","","","","","","",""
"40515","","","","fullscreen","3","280404","0.0-4.0","191","1","2025-07-09 09:15:11","7701e855f2ef39aa3fd6c71abdc6918a","102.221.201.1","Mozilla/5.0 (Windows NT 10.0; Win64; x64) AppleWebKit/537.36 (KHTML, like Gecko) Chrome/138.0.0.0 Safari/537.36 Edg/138.0.0.0","WebKit","Edge","138.0.0.0","Windows","10.0","https://app.prolific.com/","en-GB,en;q=0.9,en-US;q=0.8","66cf43db332889da5054c9e8","686d226cabeef709c732f8e1","686e310fa1b93b6a475b0a81","66cf43db332889da5054c9e8","","","","","true","","","","","","","","","","","","","","","","","","","","","","","","","","","","","","","","","","","","","","","","",""
"21136","1752052813739"," <p style='font-size:1.1em;line-height:1.25'>Thank you for completing the consent form and closing all other tabs.</p><p style='font-size:1.1em;line-height:1.25'>We will now invite you to fill in some demographic information and questionnaires, before starting the game.<br>This will take about 5 minutes.<br></p><p style='font-size:1.1em;line-height:1.25'>Press the <strong>Next</strong> button to continue.</p>","0","custom-html-button-response","4","301541","0.0-5.0","191","1","2025-07-09 09:15:11","7701e855f2ef39aa3fd6c71abdc6918a","102.221.201.1","Mozilla/5.0 (Windows NT 10.0; Win64; x64) AppleWebKit/537.36 (KHTML, like Gecko) Chrome/138.0.0.0 Safari/537.36 Edg/138.0.0.0","WebKit","Edge","138.0.0.0","Windows","10.0","https://app.prolific.com/","en-GB,en;q=0.9,en-US;q=0.8","66cf43db332889da5054c9e8","686d226cabeef709c732f8e1","686e310fa1b93b6a475b0a81","66cf43db332889da5054c9e8","2025-07-09T09:20:13.739Z","","","","","","","","","","","","","","","","","","","","","","","","","","","","","","","","","","","","","","","","","","","","",""
"8195","","","{""age"":""28""}","survey-text","5","309742","0.0-6.0-0.0","191","1","2025-07-09 09:15:11","7701e855f2ef39aa3fd6c71abdc6918a","102.221.201.1","Mozilla/5.0 (Windows NT 10.0; Win64; x64) AppleWebKit/537.36 (KHTML, like Gecko) Chrome/138.0.0.0 Safari/537.36 Edg/138.0.0.0","WebKit","Edge","138.0.0.0","Windows","10.0","https://app.prolific.com/","en-GB,en;q=0.9,en-US;q=0.8","66cf43db332889da5054c9e8","686d226cabeef709c732f8e1","686e310fa1b93b6a475b0a81","66cf43db332889da5054c9e8","","","","","","0","demographics","","","","","","","","","","","","","","","","","","","","","","","","","","","","","","","","","","","","","","",""
"4847","","","{""gender_identity"":""female/woman""}","survey-multi-choice","6","314593","0.0-6.0-1.0","191","1","2025-07-09 09:15:11","7701e855f2ef39aa3fd6c71abdc6918a","102.221.201.1","Mozilla/5.0 (Windows NT 10.0; Win64; x64) AppleWebKit/537.36 (KHTML, like Gecko) Chrome/138.0.0.0 Safari/537.36 Edg/138.0.0.0","WebKit","Edge","138.0.0.0","Windows","10.0","https://app.prolific.com/","en-GB,en;q=0.9,en-US;q=0.8","66cf43db332889da5054c9e8","686d226cabeef709c732f8e1","686e310fa1b93b6a475b0a81","66cf43db332889da5054c9e8","","","[0]","","","1","demographics","","","","","","","","","","","","","","","","","","","","","","","","","","","","","","","","","","","","","","",""
"5216","","","{""assigned_sex"":""female""}","survey-multi-choice","7","319810","0.0-6.0-2.0","191","1","2025-07-09 09:15:11","7701e855f2ef39aa3fd6c71abdc6918a","102.221.201.1","Mozilla/5.0 (Windows NT 10.0; Win64; x64) AppleWebKit/537.36 (KHTML, like Gecko) Chrome/138.0.0.0 Safari/537.36 Edg/138.0.0.0","WebKit","Edge","138.0.0.0","Windows","10.0","https://app.prolific.com/","en-GB,en;q=0.9,en-US;q=0.8","66cf43db332889da5054c9e8","686d226cabeef709c732f8e1","686e310fa1b93b6a475b0a81","66cf43db332889da5054c9e8","","","[0]","","","2","demographics","","","","","","","","","","","","","","","","","","","","","","","","","","","","","","","","","","","","","","",""
"5430","","","{""menstrual_cycle"":""Yes""}","survey-multi-choice","8","325243","0.0-6.0-3.0","191","1","2025-07-09 09:15:11","7701e855f2ef39aa3fd6c71abdc6918a","102.221.201.1","Mozilla/5.0 (Windows NT 10.0; Win64; x64) AppleWebKit/537.36 (KHTML, like Gecko) Chrome/138.0.0.0 Safari/537.36 Edg/138.0.0.0","WebKit","Edge","138.0.0.0","Windows","10.0","https://app.prolific.com/","en-GB,en;q=0.9,en-US;q=0.8","66cf43db332889da5054c9e8","686d226cabeef709c732f8e1","686e310fa1b93b6a475b0a81","66cf43db332889da5054c9e8","","","[0]","","","4","demographics","","","","","","","","","","","","","","","","","","","","","","","","","","","","","","","","","","","","","","",""
"21515","","","{""education"":""Bachelor's Degree (e.g., BA)""}","survey-multi-choice","9","346759","0.0-6.0-4.0","191","1","2025-07-09 09:15:11","7701e855f2ef39aa3fd6c71abdc6918a","102.221.201.1","Mozilla/5.0 (Windows NT 10.0; Win64; x64) AppleWebKit/537.36 (KHTML, like Gecko) Chrome/138.0.0.0 Safari/537.36 Edg/138.0.0.0","WebKit","Edge","138.0.0.0","Windows","10.0","https://app.prolific.com/","en-GB,en;q=0.9,en-US;q=0.8","66cf43db332889da5054c9e8","686d226cabeef709c732f8e1","686e310fa1b93b6a475b0a81","66cf43db332889da5054c9e8","","","[0]","","","5","demographics","","","","","","","","","","","","","","","","","","","","","","","","","","","","","","","","","","","","","","",""
"14447","","","{""education"":""Others""}","survey-multi-choice","10","361207","0.0-6.0-5.0","191","1","2025-07-09 09:15:11","7701e855f2ef39aa3fd6c71abdc6918a","102.221.201.1","Mozilla/5.0 (Windows NT 10.0; Win64; x64) AppleWebKit/537.36 (KHTML, like Gecko) Chrome/138.0.0.0 Safari/537.36 Edg/138.0.0.0","WebKit","Edge","138.0.0.0","Windows","10.0","https://app.prolific.com/","en-GB,en;q=0.9,en-US;q=0.8","66cf43db332889da5054c9e8","686d226cabeef709c732f8e1","686e310fa1b93b6a475b0a81","66cf43db332889da5054c9e8","2025-07-09T09:21:13.405Z","","[0]","","","6","demographics","","","","","","","","","","","","","","","","","","","","","","","","","","","","","","","","","","","","","","",""
"49628","","","{""mental_health_condition"":""Depression"",""mental_health_treatment"":""counselling"",""psychiatric_medication"":""none""}","survey-text","11","410839","0.0-7.0-0.0","191","1","2025-07-09 09:15:11","7701e855f2ef39aa3fd6c71abdc6918a","102.221.201.1","Mozilla/5.0 (Windows NT 10.0; Win64; x64) AppleWebKit/537.36 (KHTML, like Gecko) Chrome/138.0.0.0 Safari/537.36 Edg/138.0.0.0","WebKit","Edge","138.0.0.0","Windows","10.0","https://app.prolific.com/","en-GB,en;q=0.9,en-US;q=0.8","66cf43db332889da5054c9e8","686d226cabeef709c732f8e1","686e310fa1b93b6a475b0a81","66cf43db332889da5054c9e8","2025-07-09T09:22:03.037Z","","","","","1","mental_health","","","","","","","","","","","","","","","","","","","","","","","","","","","","","","","","","","","","","","",""
"12638","","","{""depression_history"":[""Yes""]}","survey-multi-select","12","423480","0.0-7.0-1.0","191","1","2025-07-09 09:15:11","7701e855f2ef39aa3fd6c71abdc6918a","102.221.201.1","Mozilla/5.0 (Windows NT 10.0; Win64; x64) AppleWebKit/537.36 (KHTML, like Gecko) Chrome/138.0.0.0 Safari/537.36 Edg/138.0.0.0","WebKit","Edge","138.0.0.0","Windows","10.0","https://app.prolific.com/","en-GB,en;q=0.9,en-US;q=0.8","66cf43db332889da5054c9e8","686d226cabeef709c732f8e1","686e310fa1b93b6a475b0a81","66cf43db332889da5054c9e8","","","[0]","","","","mental_health","","","","","","","","","","","","","","","","","","","","","","","","","","","","","","","","","","","","","","",""
"15175","","","{""depression_episodes"":""more than 5"",""depression_recent"":""Within the past year""}","survey-multi-choice","13","438657","0.0-7.0-2.0-0.0","191","1","2025-07-09 09:15:11","7701e855f2ef39aa3fd6c71abdc6918a","102.221.201.1","Mozilla/5.0 (Windows NT 10.0; Win64; x64) AppleWebKit/537.36 (KHTML, like Gecko) Chrome/138.0.0.0 Safari/537.36 Edg/138.0.0.0","WebKit","Edge","138.0.0.0","Windows","10.0","https://app.prolific.com/","en-GB,en;q=0.9,en-US;q=0.8","66cf43db332889da5054c9e8","686d226cabeef709c732f8e1","686e310fa1b93b6a475b0a81","66cf43db332889da5054c9e8","2025-07-09T09:22:30.855Z","","[0,1]","","","3","mental_health","","","","","","","","","","","","","","","","","","","","","","","","","","","","","","","","","","","","","","",""
"137947.69999999925","","","","survey-template","14","576609","0.0-7.0-3.0","191","1","2025-07-09 09:15:11","7701e855f2ef39aa3fd6c71abdc6918a","102.221.201.1","Mozilla/5.0 (Windows NT 10.0; Win64; x64) AppleWebKit/537.36 (KHTML, like Gecko) Chrome/138.0.0.0 Safari/537.36 Edg/138.0.0.0","WebKit","Edge","138.0.0.0","Windows","10.0","https://app.prolific.com/","en-GB,en;q=0.9,en-US;q=0.8","66cf43db332889da5054c9e8","686d226cabeef709c732f8e1","686e310fa1b93b6a475b0a81","66cf43db332889da5054c9e8","2025-07-09T09:24:48.807Z","","","","","","ius","{""Q01"":""3"",""Q02"":""2"",""Q03"":""2"",""Q04"":""2"",""Q05"":""2"",""Q06"":""0"",""Q07"":""1"",""Q08"":""0"",""Q09"":""3"",""Q10"":""1"",""Q11"":""0"",""Q12"":""3"",""Q13"":""2""}","[0,1,2,3,4,5,6,7,8,9,10,11,12]","[""Q01"",""Q02"",""Q03"",""Q04"",""Q05"",""Q06"",""Q07"",""Q08"",""Q09"",""Q10"",""Q12"",""Q13"",""Q11""]","[30344.199999999255,34476.800000000745,36876,41593,46227.5,53411.300000000745,57610.5,62594.199999999255,95059.30000000075,99873.39999999851,117425.89999999851,124509.80000000075,135966.6000000015]","[]","[30344.199999999255,34476.800000000745,36876,41593,46227.5,53411.300000000745,57610.5,62594.199999999255,95059.30000000075,99873.39999999851,107910.89999999851,117425.89999999851,124509.80000000075,128458.69999999925,135966.6000000015,137943.19999999925]","0.38461538461538464","0.4166666666666667","0","","","","","","","","","","","","","","","","","","","","","","","","","","","","","",""
"20578","1752053109385","<p style='font-size:1.1em;line-height:1.25'>In the following, we will ask you a few questions relating to your experiences over the past month.<br></p><p style='font-size:1.1em;line-height:1.25'>Press the <strong>Next</strong> button to continue.</p>","0","custom-html-button-response","15","597188","0.0-7.0-4.0","191","1","2025-07-09 09:15:11","7701e855f2ef39aa3fd6c71abdc6918a","102.221.201.1","Mozilla/5.0 (Windows NT 10.0; Win64; x64) AppleWebKit/537.36 (KHTML, like Gecko) Chrome/138.0.0.0 Safari/537.36 Edg/138.0.0.0","WebKit","Edge","138.0.0.0","Windows","10.0","https://app.prolific.com/","en-GB,en;q=0.9,en-US;q=0.8","66cf43db332889da5054c9e8","686d226cabeef709c732f8e1","686e310fa1b93b6a475b0a81","66cf43db332889da5054c9e8","2025-07-09T09:25:09.387Z","","","","","","","","","","","","","","","","","","","","","","","","","","","","","","","","","","","","","","","","","","","","",""
"163679.30000000075","","","","survey-template","16","760871","0.0-7.0-5.0","191","1","2025-07-09 09:15:11","7701e855f2ef39aa3fd6c71abdc6918a","102.221.201.1","Mozilla/5.0 (Windows NT 10.0; Win64; x64) AppleWebKit/537.36 (KHTML, like Gecko) Chrome/138.0.0.0 Safari/537.36 Edg/138.0.0.0","WebKit","Edge","138.0.0.0","Windows","10.0","https://app.prolific.com/","en-GB,en;q=0.9,en-US;q=0.8","66cf43db332889da5054c9e8","686d226cabeef709c732f8e1","686e310fa1b93b6a475b0a81","66cf43db332889da5054c9e8","2025-07-09T09:27:53.069Z","","","","","","pss","{""Q01"":""2"",""Q02"":""2"",""Q03"":""2"",""Q04"":""0"",""Q05"":""1"",""Q06"":""2"",""Q07"":""1"",""Q08"":""1"",""Q09"":""2"",""Q10"":""2""}","[0,1,2,3,4,5,6,7,8,9]","[""Q01"",""Q02"",""Q03"",""Q04"",""Q05"",""Q06"",""Q07"",""Q08"",""Q09"",""Q10""]","[22394.800000000745,31959.70000000298,36996.400000002235,45959,58694.5,76094.60000000149,127009.40000000224,136309.30000000075,149307.30000000075,162358.80000000075]","[]","[0.20000000298023224,2177.800000000745,20677.70000000298,22394.800000000745,31959.70000000298,36996.400000002235,42977.70000000298,45959,57093.800000000745,58694.5,74613.60000000149,76094.60000000149,127009.40000000224,133826.5,135239.1000000015,136309.30000000075,149307.30000000075,162358.80000000075,163675.90000000224]","0.6","0.4444444444444444","0","","","","","","","","","","","","","","","","","","","","","","","","","","","","","",""
"6760","1752053279830","<p style='font-size:1.1em;line-height:1.25'>Thank you for your answers! Now we will ask you a few more questions relating to your feelings in the last 24 hours.<br></p><p style='font-size:1.1em;line-height:1.25'>Press the <strong>Next</strong> button to continue.</p>","0","custom-html-button-response","17","767633","0.0-7.0-6.0","191","1","2025-07-09 09:15:11","7701e855f2ef39aa3fd6c71abdc6918a","102.221.201.1","Mozilla/5.0 (Windows NT 10.0; Win64; x64) AppleWebKit/537.36 (KHTML, like Gecko) Chrome/138.0.0.0 Safari/537.36 Edg/138.0.0.0","WebKit","Edge","138.0.0.0","Windows","10.0","https://app.prolific.com/","en-GB,en;q=0.9,en-US;q=0.8","66cf43db332889da5054c9e8","686d226cabeef709c732f8e1","686e310fa1b93b6a475b0a81","66cf43db332889da5054c9e8","2025-07-09T09:27:59.831Z","","","","","","","","","","","","","","","","","","","","","","","","","","","","","","","","","","","","","","","","","","","","",""
"110114.40000000224","","","","survey-template","18","877752","0.0-7.0-7.0","191","1","2025-07-09 09:15:11","7701e855f2ef39aa3fd6c71abdc6918a","102.221.201.1","Mozilla/5.0 (Windows NT 10.0; Win64; x64) AppleWebKit/537.36 (KHTML, like Gecko) Chrome/138.0.0.0 Safari/537.36 Edg/138.0.0.0","WebKit","Edge","138.0.0.0","Windows","10.0","https://app.prolific.com/","en-GB,en;q=0.9,en-US;q=0.8","66cf43db332889da5054c9e8","686d226cabeef709c732f8e1","686e310fa1b93b6a475b0a81","66cf43db332889da5054c9e8","2025-07-09T09:29:49.950Z","","","","","","drsp","{""Q01"":""0"",""Q02"":""0"",""Q03"":""0"",""Q04"":""0"",""Q05"":""2"",""Q06"":""0"",""Q07"":""0"",""Q08"":""0"",""Q09"":""1"",""Q10"":""0"",""Q11"":""1"",""Q12"":""0"",""Q13"":""0"",""Q14"":""0"",""Q15"":""0"",""Q16"":""2"",""Q17"":""0"",""Q18"":""0"",""Q19"":""0"",""Q20"":""1"",""Q21"":""0""}","[0,1,2,3,4,5,6,7,8,9,10,11,12,13,14,15,16,17,18,19,20]","[""Q01"",""Q02"",""Q03"",""Q04"",""Q04"",""Q05"",""Q06"",""Q07"",""Q08"",""Q09"",""Q10"",""Q11"",""Q12"",""Q14"",""Q13"",""Q15"",""Q16"",""Q17"",""Q18"",""Q19"",""Q20"",""Q20"",""Q21""]","[12578.20000000298,14876.70000000298,16928.400000002235,20628.10000000149,23462,25461.5,29243.60000000149,31680.60000000149,40460.800000000745,43777.800000000745,45628.70000000298,48760.60000000149,54077.800000000745,58010,59045.800000000745,62209,68876.80000000075,71294.60000000149,74743,85943.90000000224,97543.20000000298,106791.10000000149,108058.70000000298]","[]","[0.10000000149011612,12578.20000000298,14876.70000000298,16928.400000002235,20628.10000000149,23462,25461.5,29243.60000000149,31680.60000000149,40460.800000000745,43777.800000000745,45628.70000000298,48760.60000000149,54077.800000000745,55543.300000000745,58010,59045.800000000745,62209,68876.80000000075,71294.60000000149,74743,85943.90000000224,97543.20000000298,104640.90000000224,105791.40000000224,106791.10000000149,108058.70000000298,110109.40000000224]","0.7619047619047619","0.3","0","","","","","","","","","","","","","","","","","","","","","","","","","","","","","",""
"33294.400000002235","","","","survey-template","19","911048","0.0-7.0-8.0","191","1","2025-07-09 09:15:11","7701e855f2ef39aa3fd6c71abdc6918a","102.221.201.1","Mozilla/5.0 (Windows NT 10.0; Win64; x64) AppleWebKit/537.36 (KHTML, like Gecko) Chrome/138.0.0.0 Safari/537.36 Edg/138.0.0.0","WebKit","Edge","138.0.0.0","Windows","10.0","https://app.prolific.com/","en-GB,en;q=0.9,en-US;q=0.8","66cf43db332889da5054c9e8","686d226cabeef709c732f8e1","686e310fa1b93b6a475b0a81","66cf43db332889da5054c9e8","2025-07-09T09:30:23.247Z","","","","","","stress","{""Q01"":""1"",""Q02"":""1"",""Q03"":""1""}","[0,1,2]","[""Q01"",""Q02"",""Q03""]","[4957.699999999255,13042.400000002235,31859.10000000149]","[]","[4957.699999999255,13042.400000002235,29060.10000000149,30391.800000000745,31859.10000000149,33292.800000000745]","0.6666666666666666","0","0","","","","","","","","","","","","","","","","","","","","","","","","","","","","","",""
"184743","","","","instructions","20","1095794","0.0-8.0-0.0","191","1","2025-07-09 09:15:11","7701e855f2ef39aa3fd6c71abdc6918a","102.221.201.1","Mozilla/5.0 (Windows NT 10.0; Win64; x64) AppleWebKit/537.36 (KHTML, like Gecko) Chrome/138.0.0.0 Safari/537.36 Edg/138.0.0.0","WebKit","Edge","138.0.0.0","Windows","10.0","https://app.prolific.com/","en-GB,en;q=0.9,en-US;q=0.8","66cf43db332889da5054c9e8","686d226cabeef709c732f8e1","686e310fa1b93b6a475b0a81","66cf43db332889da5054c9e8","","[{""page_index"":0,""viewing_time"":70808},{""page_index"":1,""viewing_time"":31547},{""page_index"":2,""viewing_time"":35869},{""page_index"":3,""viewing_time"":46518}]","","","","","","","","","","","","","","","","","","","","","","","","","","","","","","","","","","","","","","","","","","","",""
"","","","","ctl-task-cpt","21","1143670","0.0-8.0-1.0","191","1","2025-07-09 09:15:11","7701e855f2ef39aa3fd6c71abdc6918a","102.221.201.1","Mozilla/5.0 (Windows NT 10.0; Win64; x64) AppleWebKit/537.36 (KHTML, like Gecko) Chrome/138.0.0.0 Safari/537.36 Edg/138.0.0.0","WebKit","Edge","138.0.0.0","Windows","10.0","https://app.prolific.com/","en-GB,en;q=0.9,en-US;q=0.8","66cf43db332889da5054c9e8","686d226cabeef709c732f8e1","686e310fa1b93b6a475b0a81","66cf43db332889da5054c9e8","","","","","","","","","","","","","","","","","win-only","1","g1:NE,g2:SW","1","0","1","1098882.9","15472.3","19476.1","44867.6","2","4","4","6","1","2","0","0","0","0","4003.8","4000","75","[""up"",""right""]","{""num_key_presses"":8,""num_perfect"":6,""num_errors"":2,""num_randdir"":0,""num_randdir_good_moves"":0,""num_whilered"":0,""num_whileblue"":0,""num_blue"":1,""num_good_moves"":5}","[416.57142857142856,419.1808016640799,0.5,416.57142857142856,419.1808016640799,103.3,416.57142857142856,417.6808016640799,203.6,416.57142857142856,417.6808016640799,304,404.57142857142856,471.6808016640799,414.1,398.57142857142856,494.1808016640799,518.1,398.57142857142856,494.1808016640799,618.4,398.57142857142856,494.1808016640799,720.2,398.57142857142856,494.1808016640799,820.2,398.57142857142856,494.1808016640799,924,398.57142857142856,494.1808016640799,1024.1,398.57142857142856,494.1808016640799,1124.1,398.57142857142856,494.1808016640799,1229.8,398.57142857142856,494.1808016640799,1330,398.57142857142856,494.1808016640799,1433.6,398.57142857142856,494.1808016640799,1533.6,398.57142857142856,494.1808016640799,1634,398.57142857142856,492.6808016640799,1740.3,398.57142857142856,492.6808016640799,1846.8,398.57142857142856,491.1808016640799,1946.8,398.57142857142856,488.1808016640799,2049.4,400.07142857142856,486.6808016640799,2154.3,400.07142857142856,482.1808016640799,2263.7,400.07142857142856,482.1808016640799,2368.7,400.07142857142856,482.1808016640799,2474,400.07142857142856,482.1808016640799,2580,400.07142857142856,482.1808016640799,2683.8,400.07142857142856,482.1808016640799,2789.5,400.07142857142856,482.1808016640799,2897.1,400.07142857142856,482.1808016640799,2998.1,400.07142857142856,482.1808016640799,3098.7,400.07142857142856,482.1808016640799,3198.9,400.07142857142856,482.1808016640799,3303.7,400.07142857142856,482.1808016640799,3404.1,400.07142857142856,482.1808016640799,3513.1,400.07142857142856,482.1808016640799,3619,400.07142857142856,482.1808016640799,3724.3,400.07142857142856,482.1808016640799,3829.5,400.07142857142856,482.1808016640799,3930.1]","[5625.9,5625.9,3014.1,2016.1,595.7,""smooth"",""down"",""down"",""bad_move"",6635.4,1009.2,2938.8,5626.4,-1929.7,""error"",""-"",""-"",""no_move"",11867.3,5231.5,2670.2,7642.4,1554.7,""smooth"",""up"",""up"",""good_move"",12879.8,1012,2685.1,11867.9,-1673.1,""error"",""-"",""-"",""no_move"",16633,3752.6,2182.1,13884.9,566,""smooth"",""up"",""up"",""good_move"",18891.2,2257.7,1776.1,16633.5,481.6,""smooth"",""up"",""up"",""good_move"",22149.5,3257.8,2918,18891.7,339.8,""smooth"",""right"",""right"",""good_move"",25300.1,3149.7,2436.9,22150.4,712.8,""smooth"",""right"",""right"",""good_move""]","","",""
"29231","","","","instructions","22","1172902","0.0-8.0-2.0","191","1","2025-07-09 09:15:11","7701e855f2ef39aa3fd6c71abdc6918a","102.221.201.1","Mozilla/5.0 (Windows NT 10.0; Win64; x64) AppleWebKit/537.36 (KHTML, like Gecko) Chrome/138.0.0.0 Safari/537.36 Edg/138.0.0.0","WebKit","Edge","138.0.0.0","Windows","10.0","https://app.prolific.com/","en-GB,en;q=0.9,en-US;q=0.8","66cf43db332889da5054c9e8","686d226cabeef709c732f8e1","686e310fa1b93b6a475b0a81","66cf43db332889da5054c9e8","","[{""page_index"":0,""viewing_time"":29231}]","","","","","","","","","","","","","","","","","","","","","","","","","","","","","","","","","","","","","","","","","","","",""
"","","","","ctl-task-cpt","23","1212866","0.0-8.0-3.0","191","1","2025-07-09 09:15:11","7701e855f2ef39aa3fd6c71abdc6918a","102.221.201.1","Mozilla/5.0 (Windows NT 10.0; Win64; x64) AppleWebKit/537.36 (KHTML, like Gecko) Chrome/138.0.0.0 Safari/537.36 Edg/138.0.0.0","WebKit","Edge","138.0.0.0","Windows","10.0","https://app.prolific.com/","en-GB,en;q=0.9,en-US;q=0.8","66cf43db332889da5054c9e8","686d226cabeef709c732f8e1","686e310fa1b93b6a475b0a81","66cf43db332889da5054c9e8","","","","","","","","","","","","","","","","","win-only","1","g1:NE,g2:SW","0.35","0","3","1175991.3","3009.7","7011.4","36951.2","2","4","8","6","1","-2","-3","0","0","0","4001.7","4000","-2690","[""up"",""right""]","{""num_key_presses"":6,""num_perfect"":1,""num_errors"":1,""num_randdir"":4,""num_randdir_good_moves"":3,""num_whilered"":0,""num_whileblue"":0,""num_blue"":3,""num_good_moves"":4}","[413.57142857142856,413.1808016640799,0.3,413.57142857142856,413.1808016640799,101.4,413.57142857142856,413.1808016640799,206.5,413.57142857142856,413.1808016640799,311.4,413.57142857142856,413.1808016640799,416.1,413.57142857142856,413.1808016640799,516.8,413.57142857142856,413.1808016640799,618.6,413.57142857142856,413.1808016640799,718.6,413.57142857142856,413.1808016640799,820.8,413.57142857142856,413.1808016640799,921.6,413.57142857142856,413.1808016640799,1027.2,413.57142857142856,413.1808016640799,1135.1,413.57142857142856,413.1808016640799,1235.9,413.57142857142856,413.1808016640799,1336,413.57142857142856,413.1808016640799,1436.2,413.57142857142856,413.1808016640799,1536.3,413.57142857142856,413.1808016640799,1636.7,413.57142857142856,413.1808016640799,1736.9,413.57142857142856,413.1808016640799,1841.8,413.57142857142856,413.1808016640799,1941.9,413.57142857142856,413.1808016640799,2051,413.57142857142856,413.1808016640799,2151.2,413.57142857142856,413.1808016640799,2256.7,413.57142857142856,413.1808016640799,2361.1,413.57142857142856,413.1808016640799,2468.3,413.57142857142856,413.1808016640799,2571.6,413.57142857142856,413.1808016640799,2677,413.57142857142856,413.1808016640799,2784.5,413.57142857142856,413.1808016640799,2886.5,413.57142857142856,413.1808016640799,2990.9,413.57142857142856,413.1808016640799,3090.9,413.57142857142856,413.1808016640799,3191.8,413.57142857142856,413.1808016640799,3296.3,413.57142857142856,413.1808016640799,3401.1,413.57142857142856,413.1808016640799,3506,413.57142857142856,413.1808016640799,3606.5,413.57142857142856,413.1808016640799,3711.3,413.57142857142856,413.1808016640799,3811.3,413.57142857142856,413.1808016640799,3911.5]","[1620,1620,1000,0,620,""oops"",""down"",""up"",""good_move"",8388.5,6768.3,2963.2,5069.8,355.5,""oops"",""left"",""up"",""good_move"",12207.6,3818.9,1897.2,8388.7,1921.7,""smooth"",""right"",""right"",""good_move"",16209,4000.6,3054.4,15848.6,-2694,""error"",""-"",""-"",""no_move"",23135.5,6926.2,2263,20485,387.5,""oops"",""right"",""left"",""bad_move"",27369,4233.2,3354,23135.8,879.2,""oops"",""right"",""right"",""good_move""]","","",""
"41420","","","","instructions","24","1254286","0.0-8.0-4.0","191","1","2025-07-09 09:15:11","7701e855f2ef39aa3fd6c71abdc6918a","102.221.201.1","Mozilla/5.0 (Windows NT 10.0; Win64; x64) AppleWebKit/537.36 (KHTML, like Gecko) Chrome/138.0.0.0 Safari/537.36 Edg/138.0.0.0","WebKit","Edge","138.0.0.0","Windows","10.0","https://app.prolific.com/","en-GB,en;q=0.9,en-US;q=0.8","66cf43db332889da5054c9e8","686d226cabeef709c732f8e1","686e310fa1b93b6a475b0a81","66cf43db332889da5054c9e8","","[{""page_index"":0,""viewing_time"":12023},{""page_index"":1,""viewing_time"":29396}]","","","","","","","","","","","","","","","","","","","","","","","","","","","","","","","","","","","","","","","","","","","",""
"15418","","","{""green_ball"":[""Ball always moves in the direction I press""]}","survey-multi-select","25","1269708","0.0-8.0-5.0-0.0","191","1","2025-07-09 09:15:11","7701e855f2ef39aa3fd6c71abdc6918a","102.221.201.1","Mozilla/5.0 (Windows NT 10.0; Win64; x64) AppleWebKit/537.36 (KHTML, like Gecko) Chrome/138.0.0.0 Safari/537.36 Edg/138.0.0.0","WebKit","Edge","138.0.0.0","Windows","10.0","https://app.prolific.com/","en-GB,en;q=0.9,en-US;q=0.8","66cf43db332889da5054c9e8","686d226cabeef709c732f8e1","686e310fa1b93b6a475b0a81","66cf43db332889da5054c9e8","","","[0]","","","","quiz","","","","","","","","","","","","","","","","","","","","","","","","","","","","","","","","","","","","","false","",""
"8677","","<p align='center'><b>INCORRECT.</b> Usually the green ball moves in the indicated direction, but sometimes it shakes and moves randomly. </p>","0","html-button-response","26","1278388","0.0-8.0-5.0-1.0","191","1","2025-07-09 09:15:11","7701e855f2ef39aa3fd6c71abdc6918a","102.221.201.1","Mozilla/5.0 (Windows NT 10.0; Win64; x64) AppleWebKit/537.36 (KHTML, like Gecko) Chrome/138.0.0.0 Safari/537.36 Edg/138.0.0.0","WebKit","Edge","138.0.0.0","Windows","10.0","https://app.prolific.com/","en-GB,en;q=0.9,en-US;q=0.8","66cf43db332889da5054c9e8","686d226cabeef709c732f8e1","686e310fa1b93b6a475b0a81","66cf43db332889da5054c9e8","","","","","","","","","","","","","","","","","","","","","","","","","","","","","","","","","","","","","","","","","","","","","",""
"15973","","","{""green_ball"":[""Ball sometimes shakes and moves in a random direction""]}","survey-multi-select","27","1294364","0.0-8.0-5.1-0.1","191","1","2025-07-09 09:15:11","7701e855f2ef39aa3fd6c71abdc6918a","102.221.201.1","Mozilla/5.0 (Windows NT 10.0; Win64; x64) AppleWebKit/537.36 (KHTML, like Gecko) Chrome/138.0.0.0 Safari/537.36 Edg/138.0.0.0","WebKit","Edge","138.0.0.0","Windows","10.0","https://app.prolific.com/","en-GB,en;q=0.9,en-US;q=0.8","66cf43db332889da5054c9e8","686d226cabeef709c732f8e1","686e310fa1b93b6a475b0a81","66cf43db332889da5054c9e8","","","[0]","","","","quiz","","","","","","","","","","","","","","","","","","","","","","","","","","","","","","","","","","","","","true","",""
"5103","","<p align='center'><b>CORRECT!</b> Indeed, the green ball may sometimes shake and move in a random direction.</p>","0","html-button-response","28","1299468","0.0-8.0-5.1-1.1","191","1","2025-07-09 09:15:11","7701e855f2ef39aa3fd6c71abdc6918a","102.221.201.1","Mozilla/5.0 (Windows NT 10.0; Win64; x64) AppleWebKit/537.36 (KHTML, like Gecko) Chrome/138.0.0.0 Safari/537.36 Edg/138.0.0.0","WebKit","Edge","138.0.0.0","Windows","10.0","https://app.prolific.com/","en-GB,en;q=0.9,en-US;q=0.8","66cf43db332889da5054c9e8","686d226cabeef709c732f8e1","686e310fa1b93b6a475b0a81","66cf43db332889da5054c9e8","","","","","","","","","","","","","","","","","","","","","","","","","","","","","","","","","","","","","","","","","","","","","",""
"9525","","","{""yellow_ball"":[""Ball doesn‘t move and I get -1 penalty point""]}","survey-multi-select","29","1308995","0.0-8.0-6.0-0.0","191","1","2025-07-09 09:15:11","7701e855f2ef39aa3fd6c71abdc6918a","102.221.201.1","Mozilla/5.0 (Windows NT 10.0; Win64; x64) AppleWebKit/537.36 (KHTML, like Gecko) Chrome/138.0.0.0 Safari/537.36 Edg/138.0.0.0","WebKit","Edge","138.0.0.0","Windows","10.0","https://app.prolific.com/","en-GB,en;q=0.9,en-US;q=0.8","66cf43db332889da5054c9e8","686d226cabeef709c732f8e1","686e310fa1b93b6a475b0a81","66cf43db332889da5054c9e8","","","[0]","","","","quiz","","","","","","","","","","","","","","","","","","","","","","","","","","","","","","","","","","","","","true","",""
"2887","","<p align='center'><b>CORRECT!</b> Indeed, the yellow ball never moves and you receive a penalty.</p>","0","html-button-response","30","1311884","0.0-8.0-6.0-1.0","191","1","2025-07-09 09:15:11","7701e855f2ef39aa3fd6c71abdc6918a","102.221.201.1","Mozilla/5.0 (Windows NT 10.0; Win64; x64) AppleWebKit/537.36 (KHTML, like Gecko) Chrome/138.0.0.0 Safari/537.36 Edg/138.0.0.0","WebKit","Edge","138.0.0.0","Windows","10.0","https://app.prolific.com/","en-GB,en;q=0.9,en-US;q=0.8","66cf43db332889da5054c9e8","686d226cabeef709c732f8e1","686e310fa1b93b6a475b0a81","66cf43db332889da5054c9e8","","","","","","","","","","","","","","","","","","","","","","","","","","","","","","","","","","","","","","","","","","","","","",""
"12886","","","{""blue_ball"":[""Ball always shakes and moves in a random direction""]}","survey-multi-select","31","1324771","0.0-8.0-7.0-0.0","191","1","2025-07-09 09:15:11","7701e855f2ef39aa3fd6c71abdc6918a","102.221.201.1","Mozilla/5.0 (Windows NT 10.0; Win64; x64) AppleWebKit/537.36 (KHTML, like Gecko) Chrome/138.0.0.0 Safari/537.36 Edg/138.0.0.0","WebKit","Edge","138.0.0.0","Windows","10.0","https://app.prolific.com/","en-GB,en;q=0.9,en-US;q=0.8","66cf43db332889da5054c9e8","686d226cabeef709c732f8e1","686e310fa1b93b6a475b0a81","66cf43db332889da5054c9e8","","","[0]","","","","quiz","","","","","","","","","","","","","","","","","","","","","","","","","","","","","","","","","","","","","true","",""
"4659","","<p align='center'><b>CORRECT!</b> Indeed, the blue ball always shakes and moves in a random direction. Also there is a penalty of -1 point.</p>","0","html-button-response","32","1329432","0.0-8.0-7.0-1.0","191","1","2025-07-09 09:15:11","7701e855f2ef39aa3fd6c71abdc6918a","102.221.201.1","Mozilla/5.0 (Windows NT 10.0; Win64; x64) AppleWebKit/537.36 (KHTML, like Gecko) Chrome/138.0.0.0 Safari/537.36 Edg/138.0.0.0","WebKit","Edge","138.0.0.0","Windows","10.0","https://app.prolific.com/","en-GB,en;q=0.9,en-US;q=0.8","66cf43db332889da5054c9e8","686d226cabeef709c732f8e1","686e310fa1b93b6a475b0a81","66cf43db332889da5054c9e8","","","","","","","","","","","","","","","","","","","","","","","","","","","","","","","","","","","","","","","","","","","","","",""
"6429","","","{""bonus"":[""When I reach 50% of points""]}","survey-multi-select","33","1335863","0.0-8.0-8.0-0.0","191","1","2025-07-09 09:15:11","7701e855f2ef39aa3fd6c71abdc6918a","102.221.201.1","Mozilla/5.0 (Windows NT 10.0; Win64; x64) AppleWebKit/537.36 (KHTML, like Gecko) Chrome/138.0.0.0 Safari/537.36 Edg/138.0.0.0","WebKit","Edge","138.0.0.0","Windows","10.0","https://app.prolific.com/","en-GB,en;q=0.9,en-US;q=0.8","66cf43db332889da5054c9e8","686d226cabeef709c732f8e1","686e310fa1b93b6a475b0a81","66cf43db332889da5054c9e8","","","[0]","","","","quiz","","","","","","","","","","","","","","","","","","","","","","","","","","","","","","","","","","","","","true","",""
"2715","","<p align='center'><b>CORRECT!</b> Indeed, you receive 2 pounds extra when you reach 50% of points.</p>","0","html-button-response","34","1338580","0.0-8.0-8.0-1.0","191","1","2025-07-09 09:15:11","7701e855f2ef39aa3fd6c71abdc6918a","102.221.201.1","Mozilla/5.0 (Windows NT 10.0; Win64; x64) AppleWebKit/537.36 (KHTML, like Gecko) Chrome/138.0.0.0 Safari/537.36 Edg/138.0.0.0","WebKit","Edge","138.0.0.0","Windows","10.0","https://app.prolific.com/","en-GB,en;q=0.9,en-US;q=0.8","66cf43db332889da5054c9e8","686d226cabeef709c732f8e1","686e310fa1b93b6a475b0a81","66cf43db332889da5054c9e8","","","","","","","","","","","","","","","","","","","","","","","","","","","","","","","","","","","","","","","","","","","","","",""
"4274","","","","instructions","35","1342854","0.0-8.0-9.0","191","1","2025-07-09 09:15:11","7701e855f2ef39aa3fd6c71abdc6918a","102.221.201.1","Mozilla/5.0 (Windows NT 10.0; Win64; x64) AppleWebKit/537.36 (KHTML, like Gecko) Chrome/138.0.0.0 Safari/537.36 Edg/138.0.0.0","WebKit","Edge","138.0.0.0","Windows","10.0","https://app.prolific.com/","en-GB,en;q=0.9,en-US;q=0.8","66cf43db332889da5054c9e8","686d226cabeef709c732f8e1","686e310fa1b93b6a475b0a81","66cf43db332889da5054c9e8","","[{""page_index"":0,""viewing_time"":4273}]","","","","","","","","","","","","","","","","","","","","","","","","","","","","","","","","","","","","","","","","","","","",""
"25947","","<p>Before you start with this game please answer the following three questions yourself. </p>
  <p>Through this game, we measure several aspects of your cognitive performance, such as reaction times, multi-tasking capabilities </p>
  <p>and the ability to assess the situation you are in.</p>
  <p></p>
  <p><b>How good do you usually are in such tasks?</b></p>","77","html-slider-response","36","1368803","0.0-9.0-0.0","191","1","2025-07-09 09:15:11","7701e855f2ef39aa3fd6c71abdc6918a","102.221.201.1","Mozilla/5.0 (Windows NT 10.0; Win64; x64) AppleWebKit/537.36 (KHTML, like Gecko) Chrome/138.0.0.0 Safari/537.36 Edg/138.0.0.0","WebKit","Edge","138.0.0.0","Windows","10.0","https://app.prolific.com/","en-GB,en;q=0.9,en-US;q=0.8","66cf43db332889da5054c9e8","686d226cabeef709c732f8e1","686e310fa1b93b6a475b0a81","66cf43db332889da5054c9e8","2025-07-09T09:38:01.001Z","","","","","","PreSkillQ","","","","","","","","","","","","","","","","","","","","","","","","","","","","","","","","","","","","","","50",""
"7669","","<div style=""width:500px;"">
  <p>How well do you think you will perform in this task compared to other participants?</p>
  </div>","78","html-slider-response","37","1376475","0.0-9.0-1.0","191","1","2025-07-09 09:15:11","7701e855f2ef39aa3fd6c71abdc6918a","102.221.201.1","Mozilla/5.0 (Windows NT 10.0; Win64; x64) AppleWebKit/537.36 (KHTML, like Gecko) Chrome/138.0.0.0 Safari/537.36 Edg/138.0.0.0","WebKit","Edge","138.0.0.0","Windows","10.0","https://app.prolific.com/","en-GB,en;q=0.9,en-US;q=0.8","66cf43db332889da5054c9e8","686d226cabeef709c732f8e1","686e310fa1b93b6a475b0a81","66cf43db332889da5054c9e8","2025-07-09T09:38:08.673Z","","","","","","PrePerfQ","","","","","","","","","","","","","","","","","","","","","","","","","","","","","","","","","","","","","","50",""
"5671","","<div style=""width:500px;"">
  <p>What best describes how you currently feel?</p>
  </div>","100","html-slider-response","38","1382147","0.0-9.0-2.0","191","1","2025-07-09 09:15:11","7701e855f2ef39aa3fd6c71abdc6918a","102.221.201.1","Mozilla/5.0 (Windows NT 10.0; Win64; x64) AppleWebKit/537.36 (KHTML, like Gecko) Chrome/138.0.0.0 Safari/537.36 Edg/138.0.0.0","WebKit","Edge","138.0.0.0","Windows","10.0","https://app.prolific.com/","en-GB,en;q=0.9,en-US;q=0.8","66cf43db332889da5054c9e8","686d226cabeef709c732f8e1","686e310fa1b93b6a475b0a81","66cf43db332889da5054c9e8","2025-07-09T09:38:14.346Z","","","","","","PreMotivationQ","","","","","","","","","","","","","","","","","","","","","","","","","","","","","","","","","","","","","","50",""
"","","","","ctl-task-cpt","39","1405013","0.0-10.0-0.0","191","1","2025-07-09 09:15:11","7701e855f2ef39aa3fd6c71abdc6918a","102.221.201.1","Mozilla/5.0 (Windows NT 10.0; Win64; x64) AppleWebKit/537.36 (KHTML, like Gecko) Chrome/138.0.0.0 Safari/537.36 Edg/138.0.0.0","WebKit","Edge","138.0.0.0","Windows","10.0","https://app.prolific.com/","en-GB,en;q=0.9,en-US;q=0.8","66cf43db332889da5054c9e8","686d226cabeef709c732f8e1","686e310fa1b93b6a475b0a81","66cf43db332889da5054c9e8","2025-07-09T09:38:37.211Z","","","","","","","","","","","","","","","","win-only","0","g1:NW,g2:SE","1","1","0","1385235.7","4206.7","9208.7","19845.7","1","4","4","6","1","-1","-1","0","0","0","5002","3000","-2835","[""left"",""up""]","{""num_key_presses"":2,""num_perfect"":2,""num_errors"":0,""num_randdir"":0,""num_randdir_good_moves"":0,""num_whilered"":0,""num_whileblue"":0,""num_blue"":0,""num_good_moves"":2}","[413.57142857142856,416.1808016640799,0.5,413.57142857142856,416.1808016640799,109.5,413.57142857142856,416.1808016640799,213.9,413.57142857142856,416.1808016640799,315.1,413.57142857142856,416.1808016640799,419.7,413.57142857142856,416.1808016640799,524.8,413.57142857142856,416.1808016640799,629.5,413.57142857142856,416.1808016640799,738.7,413.57142857142856,416.1808016640799,839.3,413.57142857142856,416.1808016640799,944.8,413.57142857142856,416.1808016640799,1045.4,413.57142857142856,416.1808016640799,1149.1,413.57142857142856,416.1808016640799,1249.1,413.57142857142856,416.1808016640799,1349.3,413.57142857142856,416.1808016640799,1449.5,413.57142857142856,416.1808016640799,1553.9,413.57142857142856,416.1808016640799,1654.4,413.57142857142856,416.1808016640799,1756.4,413.57142857142856,416.1808016640799,1859.7,413.57142857142856,416.1808016640799,1963.9,413.57142857142856,416.1808016640799,2064.1,413.57142857142856,416.1808016640799,2165.9,413.57142857142856,416.1808016640799,2266,413.57142857142856,416.1808016640799,2373.8,413.57142857142856,416.1808016640799,2475.4,413.57142857142856,416.1808016640799,2579.3,413.57142857142856,416.1808016640799,2688.2,413.57142857142856,416.1808016640799,2789.1,413.57142857142856,416.1808016640799,2889.4,413.57142857142856,416.1808016640799,2995.6,413.57142857142856,416.1808016640799,3099.7,413.57142857142856,416.1808016640799,3208.7,413.57142857142856,416.1808016640799,3309.6,413.57142857142856,416.1808016640799,3414.7,413.57142857142856,416.1808016640799,3522.3,413.57142857142856,416.1808016640799,3624.7,413.57142857142856,416.1808016640799,3724.8,413.57142857142856,416.1808016640799,3829.8,413.57142857142856,416.1808016640799,3929.9,413.57142857142856,416.1808016640799,4036.9,413.57142857142856,416.1808016640799,4139.4,413.57142857142856,416.1808016640799,4239.8,413.57142857142856,416.1808016640799,4344.4,413.57142857142856,416.1808016640799,4444.6,413.57142857142856,416.1808016640799,4545.4,413.57142857142856,416.1808016640799,4652.5,413.57142857142856,416.1808016640799,4753.3,413.57142857142856,416.1808016640799,4853.9,413.57142857142856,416.1808016640799,4955.9]","[2903.1,2903.1,1000,0,1903.1,""smooth"",""left"",""left"",""good_move"",7288.1,4383.5,3236.1,2904.7,1147.3,""smooth"",""up"",""up"",""good_move""]","","",""
"9660","","<div style=""width:500px;"">
  <p>What determined the result of this run?</p>
  </div>","100","html-slider-response","40","1414674","0.0-10.0-1.0","191","1","2025-07-09 09:15:11","7701e855f2ef39aa3fd6c71abdc6918a","102.221.201.1","Mozilla/5.0 (Windows NT 10.0; Win64; x64) AppleWebKit/537.36 (KHTML, like Gecko) Chrome/138.0.0.0 Safari/537.36 Edg/138.0.0.0","WebKit","Edge","138.0.0.0","Windows","10.0","https://app.prolific.com/","en-GB,en;q=0.9,en-US;q=0.8","66cf43db332889da5054c9e8","686d226cabeef709c732f8e1","686e310fa1b93b6a475b0a81","66cf43db332889da5054c9e8","2025-07-09T09:38:46.872Z","","","","","","AttribQ","","","","","","","","","","","","","","","","","","","","","","","","","","","","","","","","","","","","","","50",""
"8123","","<div style=""width:500px;"">
  <p>How much control did you have over the ball?</p>
  </div>","48","html-slider-response","41","1422799","0.0-10.0-2.0","191","1","2025-07-09 09:15:11","7701e855f2ef39aa3fd6c71abdc6918a","102.221.201.1","Mozilla/5.0 (Windows NT 10.0; Win64; x64) AppleWebKit/537.36 (KHTML, like Gecko) Chrome/138.0.0.0 Safari/537.36 Edg/138.0.0.0","WebKit","Edge","138.0.0.0","Windows","10.0","https://app.prolific.com/","en-GB,en;q=0.9,en-US;q=0.8","66cf43db332889da5054c9e8","686d226cabeef709c732f8e1","686e310fa1b93b6a475b0a81","66cf43db332889da5054c9e8","2025-07-09T09:38:54.997Z","","","","","","ControlQ","","","","","","","","","","","","","","","","","","","","","","","","","","","","","","","","","","","","","","50",""
"11993","","<div style=""width:500px;"">
  <p>How would you describe your current emotional state?</p>
  </div>","3","html-slider-response","42","1434795","0.0-10.0-3.0","191","1","2025-07-09 09:15:11","7701e855f2ef39aa3fd6c71abdc6918a","102.221.201.1","Mozilla/5.0 (Windows NT 10.0; Win64; x64) AppleWebKit/537.36 (KHTML, like Gecko) Chrome/138.0.0.0 Safari/537.36 Edg/138.0.0.0","WebKit","Edge","138.0.0.0","Windows","10.0","https://app.prolific.com/","en-GB,en;q=0.9,en-US;q=0.8","66cf43db332889da5054c9e8","686d226cabeef709c732f8e1","686e310fa1b93b6a475b0a81","66cf43db332889da5054c9e8","2025-07-09T09:39:06.993Z","","","","","","StressQ","","","","","","","","","","","","","","","","","","","","","","","","","","","","","","","","","","","","","","50",""
"7178","","<div style=""width:500px;"">
  <p>What best describes how you currently feel?</p>
  </div>","100","html-slider-response","43","1441975","0.0-10.0-4.0","191","1","2025-07-09 09:15:11","7701e855f2ef39aa3fd6c71abdc6918a","102.221.201.1","Mozilla/5.0 (Windows NT 10.0; Win64; x64) AppleWebKit/537.36 (KHTML, like Gecko) Chrome/138.0.0.0 Safari/537.36 Edg/138.0.0.0","WebKit","Edge","138.0.0.0","Windows","10.0","https://app.prolific.com/","en-GB,en;q=0.9,en-US;q=0.8","66cf43db332889da5054c9e8","686d226cabeef709c732f8e1","686e310fa1b93b6a475b0a81","66cf43db332889da5054c9e8","2025-07-09T09:39:14.174Z","","","","","","MotivationQ","","","","","","","","","","","","","","","","","","","","","","","","","","","","","","","","","","","","","","50",""
"","","","","ctl-task-cpt","44","1493162","0.0-10.0-0.1","191","1","2025-07-09 09:15:11","7701e855f2ef39aa3fd6c71abdc6918a","102.221.201.1","Mozilla/5.0 (Windows NT 10.0; Win64; x64) AppleWebKit/537.36 (KHTML, like Gecko) Chrome/138.0.0.0 Safari/537.36 Edg/138.0.0.0","WebKit","Edge","138.0.0.0","Windows","10.0","https://app.prolific.com/","en-GB,en;q=0.9,en-US;q=0.8","66cf43db332889da5054c9e8","686d226cabeef709c732f8e1","686e310fa1b93b6a475b0a81","66cf43db332889da5054c9e8","2025-07-09T09:40:05.360Z","","","","","","","","","","","","","","","","win-only","0","g1:NW,g2:SE","0.9","2","0","1445065.4","3839.5","8841.7","48165.8","1","4","8","6","1","-1","-1","0","0","0","5002.2","3000","-2505","[""left"",""up""]","{""num_key_presses"":6,""num_perfect"":6,""num_errors"":0,""num_randdir"":0,""num_randdir_good_moves"":0,""num_whilered"":0,""num_whileblue"":0,""num_blue"":6,""num_good_moves"":0}","[409.07142857142856,410.1808016640799,0.3,409.07142857142856,410.1808016640799,101.7,409.07142857142856,410.1808016640799,210.5,409.07142857142856,410.1808016640799,311.1,409.07142857142856,410.1808016640799,416.2,409.07142857142856,410.1808016640799,516.7,409.07142857142856,410.1808016640799,626.4,409.07142857142856,410.1808016640799,726.5,409.07142857142856,410.1808016640799,826.6,409.07142857142856,410.1808016640799,926.9,409.07142857142856,410.1808016640799,1031.3,409.07142857142856,410.1808016640799,1144.9,409.07142857142856,410.1808016640799,1246.4,409.07142857142856,410.1808016640799,1346.5,409.07142857142856,410.1808016640799,1446.6,409.07142857142856,410.1808016640799,1546.8,409.07142857142856,410.1808016640799,1650.7,409.07142857142856,410.1808016640799,1751.6,409.07142857142856,410.1808016640799,1851.8,409.07142857142856,410.1808016640799,1961.1,409.07142857142856,410.1808016640799,2061.6,409.07142857142856,410.1808016640799,2166.9,409.07142857142856,410.1808016640799,2266.9,409.07142857142856,410.1808016640799,2366.9,409.07142857142856,410.1808016640799,2471.1,409.07142857142856,410.1808016640799,2571.1,409.07142857142856,410.1808016640799,2671.5,409.07142857142856,410.1808016640799,2777.7,409.07142857142856,410.1808016640799,2877.9,409.07142857142856,410.1808016640799,2981,409.07142857142856,410.1808016640799,3081.3,409.07142857142856,410.1808016640799,3181.9,409.07142857142856,410.1808016640799,3294,409.07142857142856,410.1808016640799,3394.7,409.07142857142856,410.1808016640799,3498.4,409.07142857142856,410.1808016640799,3601.2,409.07142857142856,410.1808016640799,3701.3,409.07142857142856,410.1808016640799,3801.6,409.07142857142856,410.1808016640799,3901.7,409.07142857142856,410.1808016640799,4011.3,409.07142857142856,410.1808016640799,4112.2,409.07142857142856,410.1808016640799,4216.7,409.07142857142856,410.1808016640799,4316.7,409.07142857142856,410.1808016640799,4421.7,409.07142857142856,410.1808016640799,4526.1,409.07142857142856,410.1808016640799,4626.5,409.07142857142856,410.1808016640799,4726.7,409.07142857142856,410.1808016640799,4830.9,409.07142857142856,410.1808016640799,4931.6]","[1044.9,1044.9,1000,0,45,""smooth"",""down"",""down"",""bad_move"",5095,4048.8,2718.8,1046.2,1330,""smooth"",""down"",""down"",""bad_move"",15079,9983.8,2694.4,11964,420.6,""smooth"",""right"",""right"",""bad_move"",28097,13017.4,2854.4,24798.4,444.2,""smooth"",""down"",""down"",""bad_move"",33879.3,5781.9,2304.1,30973.4,601.9,""smooth"",""right"",""right"",""bad_move"",37096.3,3216.7,2573.4,33879.6,643.3,""smooth"",""right"",""right"",""bad_move""]","","",""
"8985","","<div style=""width:500px;"">
  <p>What determined the result of this run?</p>
  </div>","80","html-slider-response","45","1502148","0.0-10.0-1.1","191","1","2025-07-09 09:15:11","7701e855f2ef39aa3fd6c71abdc6918a","102.221.201.1","Mozilla/5.0 (Windows NT 10.0; Win64; x64) AppleWebKit/537.36 (KHTML, like Gecko) Chrome/138.0.0.0 Safari/537.36 Edg/138.0.0.0","WebKit","Edge","138.0.0.0","Windows","10.0","https://app.prolific.com/","en-GB,en;q=0.9,en-US;q=0.8","66cf43db332889da5054c9e8","686d226cabeef709c732f8e1","686e310fa1b93b6a475b0a81","66cf43db332889da5054c9e8","2025-07-09T09:40:14.346Z","","","","","","AttribQ","","","","","","","","","","","","","","","","","","","","","","","","","","","","","","","","","","","","","","50",""
"6546","","<div style=""width:500px;"">
  <p>How much control did you have over the ball?</p>
  </div>","49","html-slider-response","46","1508696","0.0-10.0-2.1","191","1","2025-07-09 09:15:11","7701e855f2ef39aa3fd6c71abdc6918a","102.221.201.1","Mozilla/5.0 (Windows NT 10.0; Win64; x64) AppleWebKit/537.36 (KHTML, like Gecko) Chrome/138.0.0.0 Safari/537.36 Edg/138.0.0.0","WebKit","Edge","138.0.0.0","Windows","10.0","https://app.prolific.com/","en-GB,en;q=0.9,en-US;q=0.8","66cf43db332889da5054c9e8","686d226cabeef709c732f8e1","686e310fa1b93b6a475b0a81","66cf43db332889da5054c9e8","2025-07-09T09:40:20.894Z","","","","","","ControlQ","","","","","","","","","","","","","","","","","","","","","","","","","","","","","","","","","","","","","","50",""
"8266","","<div style=""width:500px;"">
  <p>How would you describe your current emotional state?</p>
  </div>","3","html-slider-response","47","1516964","0.0-10.0-3.1","191","1","2025-07-09 09:15:11","7701e855f2ef39aa3fd6c71abdc6918a","102.221.201.1","Mozilla/5.0 (Windows NT 10.0; Win64; x64) AppleWebKit/537.36 (KHTML, like Gecko) Chrome/138.0.0.0 Safari/537.36 Edg/138.0.0.0","WebKit","Edge","138.0.0.0","Windows","10.0","https://app.prolific.com/","en-GB,en;q=0.9,en-US;q=0.8","66cf43db332889da5054c9e8","686d226cabeef709c732f8e1","686e310fa1b93b6a475b0a81","66cf43db332889da5054c9e8","2025-07-09T09:40:29.162Z","","","","","","StressQ","","","","","","","","","","","","","","","","","","","","","","","","","","","","","","","","","","","","","","50",""
"7363","","<div style=""width:500px;"">
  <p>What best describes how you currently feel?</p>
  </div>","93","html-slider-response","48","1524328","0.0-10.0-4.1","191","1","2025-07-09 09:15:11","7701e855f2ef39aa3fd6c71abdc6918a","102.221.201.1","Mozilla/5.0 (Windows NT 10.0; Win64; x64) AppleWebKit/537.36 (KHTML, like Gecko) Chrome/138.0.0.0 Safari/537.36 Edg/138.0.0.0","WebKit","Edge","138.0.0.0","Windows","10.0","https://app.prolific.com/","en-GB,en;q=0.9,en-US;q=0.8","66cf43db332889da5054c9e8","686d226cabeef709c732f8e1","686e310fa1b93b6a475b0a81","66cf43db332889da5054c9e8","2025-07-09T09:40:36.526Z","","","","","","MotivationQ","","","","","","","","","","","","","","","","","","","","","","","","","","","","","","","","","","","","","","50",""
"","","","","ctl-task-cpt","49","1556923","0.0-10.0-0.2","191","1","2025-07-09 09:15:11","7701e855f2ef39aa3fd6c71abdc6918a","102.221.201.1","Mozilla/5.0 (Windows NT 10.0; Win64; x64) AppleWebKit/537.36 (KHTML, like Gecko) Chrome/138.0.0.0 Safari/537.36 Edg/138.0.0.0","WebKit","Edge","138.0.0.0","Windows","10.0","https://app.prolific.com/","en-GB,en;q=0.9,en-US;q=0.8","66cf43db332889da5054c9e8","686d226cabeef709c732f8e1","686e310fa1b93b6a475b0a81","66cf43db332889da5054c9e8","2025-07-09T09:41:09.121Z","","","","","","","","","","","","","","","","win-only","0","g1:NW,g2:SE","0.8","3","0","1527416","2781.4","7786.4","29581.1","1","4","8","6","1","-1","-1","0","0","0","5005","3000","-2650","[""left"",""up""]","{""num_key_presses"":5,""num_perfect"":3,""num_errors"":0,""num_randdir"":2,""num_randdir_good_moves"":1,""num_whilered"":0,""num_whileblue"":0,""num_blue"":1,""num_good_moves"":3}","[409.07142857142856,419.1808016640799,0.6,409.07142857142856,419.1808016640799,101,409.07142857142856,419.1808016640799,203.5,409.07142857142856,419.1808016640799,305.6,409.07142857142856,419.1808016640799,410.1,409.07142857142856,419.1808016640799,519.7,409.07142857142856,419.1808016640799,620.2,409.07142857142856,419.1808016640799,725.1,409.07142857142856,419.1808016640799,830.5,409.07142857142856,419.1808016640799,934.3,409.07142857142856,419.1808016640799,1040.3,409.07142857142856,419.1808016640799,1145,409.07142857142856,419.1808016640799,1245.3,409.07142857142856,419.1808016640799,1350.3,409.07142857142856,419.1808016640799,1455.5,409.07142857142856,419.1808016640799,1560.6,409.07142857142856,419.1808016640799,1662.3,409.07142857142856,419.1808016640799,1770.9,409.07142857142856,419.1808016640799,1886.4,409.07142857142856,419.1808016640799,1989.4,409.07142857142856,419.1808016640799,2090.5,409.07142857142856,419.1808016640799,2204.8,409.07142857142856,419.1808016640799,2305.1,409.07142857142856,419.1808016640799,2409.8,409.07142857142856,419.1808016640799,2509.9,409.07142857142856,419.1808016640799,2609.9,409.07142857142856,419.1808016640799,2710,409.07142857142856,419.1808016640799,2811.8,409.07142857142856,419.1808016640799,2915.8,409.07142857142856,419.1808016640799,3020.3,409.07142857142856,419.1808016640799,3124.7,409.07142857142856,419.1808016640799,3231,409.07142857142856,419.1808016640799,3334.3,409.07142857142856,419.1808016640799,3434.9,409.07142857142856,419.1808016640799,3539.5,409.07142857142856,419.1808016640799,3641,409.07142857142856,419.1808016640799,3745,409.07142857142856,419.1808016640799,3845.1,409.07142857142856,419.1808016640799,3945.3,409.07142857142856,419.1808016640799,4050.1,409.07142857142856,419.1808016640799,4150.4,409.07142857142856,419.1808016640799,4253.7,409.07142857142856,419.1808016640799,4354.2,409.07142857142856,419.1808016640799,4454.7,409.07142857142856,419.1808016640799,4561.3,409.07142857142856,419.1808016640799,4668.9,409.07142857142856,419.1808016640799,4769,409.07142857142856,419.1808016640799,4869.7,409.07142857142856,419.1808016640799,4985.7]","[1615.4,1615.4,1000,0,615.4,""smooth"",""left"",""left"",""good_move"",4842.3,3226.2,2788.7,1616.1,437.5,""smooth"",""left"",""left"",""good_move"",11363.9,6521,2661.1,8307.2,395.6,""oops"",""up"",""up"",""good_move"",14749.5,3385.3,2797.9,11364.2,587.4,""oops"",""up"",""down"",""bad_move"",18113.9,3363.7,2250.8,14750.2,1112.9,""smooth"",""right"",""right"",""bad_move""]","","",""
"5203","","<div style=""width:500px;"">
  <p>What determined the result of this run?</p>
  </div>","62","html-slider-response","50","1562128","0.0-10.0-1.2","191","1","2025-07-09 09:15:11","7701e855f2ef39aa3fd6c71abdc6918a","102.221.201.1","Mozilla/5.0 (Windows NT 10.0; Win64; x64) AppleWebKit/537.36 (KHTML, like Gecko) Chrome/138.0.0.0 Safari/537.36 Edg/138.0.0.0","WebKit","Edge","138.0.0.0","Windows","10.0","https://app.prolific.com/","en-GB,en;q=0.9,en-US;q=0.8","66cf43db332889da5054c9e8","686d226cabeef709c732f8e1","686e310fa1b93b6a475b0a81","66cf43db332889da5054c9e8","2025-07-09T09:41:14.326Z","","","","","","AttribQ","","","","","","","","","","","","","","","","","","","","","","","","","","","","","","","","","","","","","","50",""
"4238","","<div style=""width:500px;"">
  <p>How much control did you have over the ball?</p>
  </div>","48","html-slider-response","51","1566369","0.0-10.0-2.2","191","1","2025-07-09 09:15:11","7701e855f2ef39aa3fd6c71abdc6918a","102.221.201.1","Mozilla/5.0 (Windows NT 10.0; Win64; x64) AppleWebKit/537.36 (KHTML, like Gecko) Chrome/138.0.0.0 Safari/537.36 Edg/138.0.0.0","WebKit","Edge","138.0.0.0","Windows","10.0","https://app.prolific.com/","en-GB,en;q=0.9,en-US;q=0.8","66cf43db332889da5054c9e8","686d226cabeef709c732f8e1","686e310fa1b93b6a475b0a81","66cf43db332889da5054c9e8","2025-07-09T09:41:18.567Z","","","","","","ControlQ","","","","","","","","","","","","","","","","","","","","","","","","","","","","","","","","","","","","","","50",""
"8976","","<div style=""width:500px;"">
  <p>How would you describe your current emotional state?</p>
  </div>","0","html-slider-response","52","1575349","0.0-10.0-3.2","191","1","2025-07-09 09:15:11","7701e855f2ef39aa3fd6c71abdc6918a","102.221.201.1","Mozilla/5.0 (Windows NT 10.0; Win64; x64) AppleWebKit/537.36 (KHTML, like Gecko) Chrome/138.0.0.0 Safari/537.36 Edg/138.0.0.0","WebKit","Edge","138.0.0.0","Windows","10.0","https://app.prolific.com/","en-GB,en;q=0.9,en-US;q=0.8","66cf43db332889da5054c9e8","686d226cabeef709c732f8e1","686e310fa1b93b6a475b0a81","66cf43db332889da5054c9e8","2025-07-09T09:41:27.547Z","","","","","","StressQ","","","","","","","","","","","","","","","","","","","","","","","","","","","","","","","","","","","","","","50",""
"5319","","<div style=""width:500px;"">
  <p>What best describes how you currently feel?</p>
  </div>","100","html-slider-response","53","1580671","0.0-10.0-4.2","191","1","2025-07-09 09:15:11","7701e855f2ef39aa3fd6c71abdc6918a","102.221.201.1","Mozilla/5.0 (Windows NT 10.0; Win64; x64) AppleWebKit/537.36 (KHTML, like Gecko) Chrome/138.0.0.0 Safari/537.36 Edg/138.0.0.0","WebKit","Edge","138.0.0.0","Windows","10.0","https://app.prolific.com/","en-GB,en;q=0.9,en-US;q=0.8","66cf43db332889da5054c9e8","686d226cabeef709c732f8e1","686e310fa1b93b6a475b0a81","66cf43db332889da5054c9e8","2025-07-09T09:41:32.869Z","","","","","","MotivationQ","","","","","","","","","","","","","","","","","","","","","","","","","","","","","","","","","","","","","","50",""
"","","","","ctl-task-cpt","54","1615298","0.0-10.0-0.3","191","1","2025-07-09 09:15:11","7701e855f2ef39aa3fd6c71abdc6918a","102.221.201.1","Mozilla/5.0 (Windows NT 10.0; Win64; x64) AppleWebKit/537.36 (KHTML, like Gecko) Chrome/138.0.0.0 Safari/537.36 Edg/138.0.0.0","WebKit","Edge","138.0.0.0","Windows","10.0","https://app.prolific.com/","en-GB,en;q=0.9,en-US;q=0.8","66cf43db332889da5054c9e8","686d226cabeef709c732f8e1","686e310fa1b93b6a475b0a81","66cf43db332889da5054c9e8","2025-07-09T09:42:07.496Z","","","","","","","","","","","","","","","","win-only","3","g1:SW,g2:NE","0.7","4","0","1583761.7","1833.4","6834.7","31614","1","4","4","6","2","4","3","3","0","0.022727272727272728","5001.3","3000","980","[""up"",""right""]","{""num_key_presses"":7,""num_perfect"":4,""num_errors"":1,""num_randdir"":2,""num_randdir_good_moves"":2,""num_whilered"":0,""num_whileblue"":0,""num_blue"":1,""num_good_moves"":6}","[409.07142857142856,410.1808016640799,0.8,409.07142857142856,410.1808016640799,103.9,409.07142857142856,410.1808016640799,207.2,409.07142857142856,410.1808016640799,307.2,409.07142857142856,410.1808016640799,407.5,409.07142857142856,410.1808016640799,508,409.07142857142856,410.1808016640799,613.6,409.07142857142856,410.1808016640799,713.8,409.07142857142856,410.1808016640799,825.1,409.07142857142856,410.1808016640799,929.5,409.07142857142856,410.1808016640799,1032.7,409.07142857142856,410.1808016640799,1137.2,409.07142857142856,410.1808016640799,1237.6,409.07142857142856,410.1808016640799,1342.4,409.07142857142856,410.1808016640799,1442.7,409.07142857142856,410.1808016640799,1544.6,409.07142857142856,410.1808016640799,1651.2,409.07142857142856,410.1808016640799,1752,409.07142857142856,410.1808016640799,1853,409.07142857142856,410.1808016640799,1957.2,409.07142857142856,410.1808016640799,2057.5,409.07142857142856,410.1808016640799,2158.2,409.07142857142856,410.1808016640799,2270.3,409.07142857142856,410.1808016640799,2372.7,409.07142857142856,410.1808016640799,2473.1,409.07142857142856,410.1808016640799,2579.2,409.07142857142856,410.1808016640799,2686.3,409.07142857142856,410.1808016640799,2788.2,409.07142857142856,410.1808016640799,2902,409.07142857142856,410.1808016640799,3003.3,409.07142857142856,410.1808016640799,3107.1,409.07142857142856,410.1808016640799,3208.2,409.07142857142856,410.1808016640799,3308.9,409.07142857142856,410.1808016640799,3420.4,409.07142857142856,410.1808016640799,3523.2,409.07142857142856,410.1808016640799,3630.1,409.07142857142856,410.1808016640799,3734.9,409.07142857142856,410.1808016640799,3838.5,409.07142857142856,410.1808016640799,3952.7,409.07142857142856,410.1808016640799,4064,409.07142857142856,410.1808016640799,4169.6,409.07142857142856,410.1808016640799,4273.2,409.07142857142856,410.1808016640799,4381.7,409.07142857142856,410.1808016640799,4484.7,409.07142857142856,410.1808016640799,4588.1,409.07142857142856,410.1808016640799,4688.4,409.07142857142856,410.1808016640799,4792.1,409.07142857142856,410.1808016640799,4903.3]","[434.1,434.1,1000,0,-565.9,""error"",""-"",""-"",""no_move"",4770.4,4336,2935.2,1437.7,397.5,""smooth"",""up"",""up"",""good_move"",8354.9,3584,2929.4,4770.9,654.6,""oops"",""up"",""right"",""good_move"",12068.9,3713.4,3089.5,8355.6,623.8,""smooth"",""up"",""up"",""good_move"",18336.3,6267.1,2428.4,15538.6,369.3,""smooth"",""right"",""right"",""good_move"",21380.2,3043.7,2630.5,18336.5,413.2,""oops"",""up"",""right"",""good_move"",24651.2,3270.4,2774.3,21380.8,496.1,""smooth"",""up"",""up"",""good_move""]","","",""
"11130","","<div style=""width:500px;"">
  <p>What determined the result of this run?</p>
  </div>","60","html-slider-response","55","1626430","0.0-10.0-1.3","191","1","2025-07-09 09:15:11","7701e855f2ef39aa3fd6c71abdc6918a","102.221.201.1","Mozilla/5.0 (Windows NT 10.0; Win64; x64) AppleWebKit/537.36 (KHTML, like Gecko) Chrome/138.0.0.0 Safari/537.36 Edg/138.0.0.0","WebKit","Edge","138.0.0.0","Windows","10.0","https://app.prolific.com/","en-GB,en;q=0.9,en-US;q=0.8","66cf43db332889da5054c9e8","686d226cabeef709c732f8e1","686e310fa1b93b6a475b0a81","66cf43db332889da5054c9e8","2025-07-09T09:42:18.628Z","","","","","","AttribQ","","","","","","","","","","","","","","","","","","","","","","","","","","","","","","","","","","","","","","50",""
"5948","","<div style=""width:500px;"">
  <p>How much control did you have over the ball?</p>
  </div>","66","html-slider-response","56","1632382","0.0-10.0-2.3","191","1","2025-07-09 09:15:11","7701e855f2ef39aa3fd6c71abdc6918a","102.221.201.1","Mozilla/5.0 (Windows NT 10.0; Win64; x64) AppleWebKit/537.36 (KHTML, like Gecko) Chrome/138.0.0.0 Safari/537.36 Edg/138.0.0.0","WebKit","Edge","138.0.0.0","Windows","10.0","https://app.prolific.com/","en-GB,en;q=0.9,en-US;q=0.8","66cf43db332889da5054c9e8","686d226cabeef709c732f8e1","686e310fa1b93b6a475b0a81","66cf43db332889da5054c9e8","2025-07-09T09:42:24.580Z","","","","","","ControlQ","","","","","","","","","","","","","","","","","","","","","","","","","","","","","","","","","","","","","","50",""
"6587","","<div style=""width:500px;"">
  <p>How would you describe your current emotional state?</p>
  </div>","0","html-slider-response","57","1638972","0.0-10.0-3.3","191","1","2025-07-09 09:15:11","7701e855f2ef39aa3fd6c71abdc6918a","102.221.201.1","Mozilla/5.0 (Windows NT 10.0; Win64; x64) AppleWebKit/537.36 (KHTML, like Gecko) Chrome/138.0.0.0 Safari/537.36 Edg/138.0.0.0","WebKit","Edge","138.0.0.0","Windows","10.0","https://app.prolific.com/","en-GB,en;q=0.9,en-US;q=0.8","66cf43db332889da5054c9e8","686d226cabeef709c732f8e1","686e310fa1b93b6a475b0a81","66cf43db332889da5054c9e8","2025-07-09T09:42:31.170Z","","","","","","StressQ","","","","","","","","","","","","","","","","","","","","","","","","","","","","","","","","","","","","","","50",""
"5233","","<div style=""width:500px;"">
  <p>What best describes how you currently feel?</p>
  </div>","100","html-slider-response","58","1644208","0.0-10.0-4.3","191","1","2025-07-09 09:15:11","7701e855f2ef39aa3fd6c71abdc6918a","102.221.201.1","Mozilla/5.0 (Windows NT 10.0; Win64; x64) AppleWebKit/537.36 (KHTML, like Gecko) Chrome/138.0.0.0 Safari/537.36 Edg/138.0.0.0","WebKit","Edge","138.0.0.0","Windows","10.0","https://app.prolific.com/","en-GB,en;q=0.9,en-US;q=0.8","66cf43db332889da5054c9e8","686d226cabeef709c732f8e1","686e310fa1b93b6a475b0a81","66cf43db332889da5054c9e8","2025-07-09T09:42:36.406Z","","","","","","MotivationQ","","","","","","","","","","","","","","","","","","","","","","","","","","","","","","","","","","","","","","50",""
"","","","","ctl-task-cpt","59","1688111","0.0-10.0-0.4","191","1","2025-07-09 09:15:11","7701e855f2ef39aa3fd6c71abdc6918a","102.221.201.1","Mozilla/5.0 (Windows NT 10.0; Win64; x64) AppleWebKit/537.36 (KHTML, like Gecko) Chrome/138.0.0.0 Safari/537.36 Edg/138.0.0.0","WebKit","Edge","138.0.0.0","Windows","10.0","https://app.prolific.com/","en-GB,en;q=0.9,en-US;q=0.8","66cf43db332889da5054c9e8","686d226cabeef709c732f8e1","686e310fa1b93b6a475b0a81","66cf43db332889da5054c9e8","2025-07-09T09:43:20.310Z","","","","","","","","","","","","","","","","win-only","0","g1:NW,g2:SE","0.6","5","0","1647295.2","2040.1","7040.7","40871.9","1","4","4","6","2","-4","-4","0","3","0","5000.6","3000","-2115","[""down"",""right""]","{""num_key_presses"":9,""num_perfect"":6,""num_errors"":0,""num_randdir"":3,""num_randdir_good_moves"":1,""num_whilered"":0,""num_whileblue"":0,""num_blue"":2,""num_good_moves"":7}","[416.57142857142856,405.6808016640799,0.2,416.57142857142856,405.6808016640799,101.4,416.57142857142856,405.6808016640799,201.7,416.57142857142856,405.6808016640799,306.1,416.57142857142856,405.6808016640799,406.8,416.57142857142856,405.6808016640799,506.8,416.57142857142856,405.6808016640799,610.6,416.57142857142856,405.6808016640799,711.1,416.57142857142856,405.6808016640799,816.3,416.57142857142856,405.6808016640799,930.7,416.57142857142856,405.6808016640799,1031.3,416.57142857142856,405.6808016640799,1132.1,416.57142857142856,405.6808016640799,1235.6,416.57142857142856,405.6808016640799,1335.9,416.57142857142856,405.6808016640799,1436.3,416.57142857142856,405.6808016640799,1541.1,416.57142857142856,405.6808016640799,1646.4,416.57142857142856,405.6808016640799,1764.8,416.57142857142856,405.6808016640799,1866,416.57142857142856,405.6808016640799,1971.4,416.57142857142856,405.6808016640799,2071.8,416.57142857142856,405.6808016640799,2176,416.57142857142856,405.6808016640799,2276.3,416.57142857142856,405.6808016640799,2381,416.57142857142856,405.6808016640799,2497.1,416.57142857142856,405.6808016640799,2598.6,416.57142857142856,405.6808016640799,2701.2,416.57142857142856,405.6808016640799,2806.4,416.57142857142856,405.6808016640799,2906.4,416.57142857142856,405.6808016640799,3010.7,416.57142857142856,405.6808016640799,3111.2,416.57142857142856,405.6808016640799,3215.5,416.57142857142856,405.6808016640799,3332.3,416.57142857142856,405.6808016640799,3435.5,416.57142857142856,405.6808016640799,3535.9,416.57142857142856,405.6808016640799,3636.5,416.57142857142856,405.6808016640799,3741.3,416.57142857142856,405.6808016640799,3845.7,416.57142857142856,405.6808016640799,3946,416.57142857142856,405.6808016640799,4046.1,416.57142857142856,405.6808016640799,4150.4,416.57142857142856,405.6808016640799,4264.5,416.57142857142856,405.6808016640799,4365.8,416.57142857142856,405.6808016640799,4466,416.57142857142856,405.6808016640799,4570.9,416.57142857142856,405.6808016640799,4671.1,416.57142857142856,405.6808016640799,4771.5,416.57142857142856,405.6808016640799,4877.5,416.57142857142856,405.6808016640799,4981]","[1531.8,1531.8,1000,0,531.8,""oops"",""down"",""up"",""bad_move"",4664.3,3132.1,2679.4,1532.2,452.7,""smooth"",""down"",""down"",""good_move"",7579.5,2914.7,2315.7,4664.8,599,""smooth"",""down"",""down"",""good_move"",10721.8,3142,2701.4,7579.8,440.6,""smooth"",""down"",""down"",""good_move"",13911.2,3189,2675.6,10722.2,513.4,""smooth"",""down"",""down"",""good_move"",17144.3,3232.9,2821.7,13911.5,411.1,""oops"",""right"",""right"",""good_move"",19828.2,2683.5,2229.8,17144.8,453.7,""oops"",""right"",""left"",""bad_move"",28845.3,9016.6,2458,26015.8,371.5,""smooth"",""right"",""right"",""good_move"",31578.9,2733.3,2308.1,28845.6,425.2,""smooth"",""right"",""right"",""good_move""]","","",""
"6150","","<div style=""width:500px;"">
  <p>What determined the result of this run?</p>
  </div>","46","html-slider-response","60","1694264","0.0-10.0-1.4","191","1","2025-07-09 09:15:11","7701e855f2ef39aa3fd6c71abdc6918a","102.221.201.1","Mozilla/5.0 (Windows NT 10.0; Win64; x64) AppleWebKit/537.36 (KHTML, like Gecko) Chrome/138.0.0.0 Safari/537.36 Edg/138.0.0.0","WebKit","Edge","138.0.0.0","Windows","10.0","https://app.prolific.com/","en-GB,en;q=0.9,en-US;q=0.8","66cf43db332889da5054c9e8","686d226cabeef709c732f8e1","686e310fa1b93b6a475b0a81","66cf43db332889da5054c9e8","2025-07-09T09:43:26.462Z","","","","","","AttribQ","","","","","","","","","","","","","","","","","","","","","","","","","","","","","","","","","","","","","","50",""
"5779","","<div style=""width:500px;"">
  <p>How much control did you have over the ball?</p>
  </div>","46","html-slider-response","61","1700047","0.0-10.0-2.4","191","1","2025-07-09 09:15:11","7701e855f2ef39aa3fd6c71abdc6918a","102.221.201.1","Mozilla/5.0 (Windows NT 10.0; Win64; x64) AppleWebKit/537.36 (KHTML, like Gecko) Chrome/138.0.0.0 Safari/537.36 Edg/138.0.0.0","WebKit","Edge","138.0.0.0","Windows","10.0","https://app.prolific.com/","en-GB,en;q=0.9,en-US;q=0.8","66cf43db332889da5054c9e8","686d226cabeef709c732f8e1","686e310fa1b93b6a475b0a81","66cf43db332889da5054c9e8","2025-07-09T09:43:32.245Z","","","","","","ControlQ","","","","","","","","","","","","","","","","","","","","","","","","","","","","","","","","","","","","","","50",""
"5785","","<div style=""width:500px;"">
  <p>How would you describe your current emotional state?</p>
  </div>","0","html-slider-response","62","1705835","0.0-10.0-3.4","191","1","2025-07-09 09:15:11","7701e855f2ef39aa3fd6c71abdc6918a","102.221.201.1","Mozilla/5.0 (Windows NT 10.0; Win64; x64) AppleWebKit/537.36 (KHTML, like Gecko) Chrome/138.0.0.0 Safari/537.36 Edg/138.0.0.0","WebKit","Edge","138.0.0.0","Windows","10.0","https://app.prolific.com/","en-GB,en;q=0.9,en-US;q=0.8","66cf43db332889da5054c9e8","686d226cabeef709c732f8e1","686e310fa1b93b6a475b0a81","66cf43db332889da5054c9e8","2025-07-09T09:43:38.033Z","","","","","","StressQ","","","","","","","","","","","","","","","","","","","","","","","","","","","","","","","","","","","","","","50",""
"6026","","<div style=""width:500px;"">
  <p>What best describes how you currently feel?</p>
  </div>","100","html-slider-response","63","1711864","0.0-10.0-4.4","191","1","2025-07-09 09:15:11","7701e855f2ef39aa3fd6c71abdc6918a","102.221.201.1","Mozilla/5.0 (Windows NT 10.0; Win64; x64) AppleWebKit/537.36 (KHTML, like Gecko) Chrome/138.0.0.0 Safari/537.36 Edg/138.0.0.0","WebKit","Edge","138.0.0.0","Windows","10.0","https://app.prolific.com/","en-GB,en;q=0.9,en-US;q=0.8","66cf43db332889da5054c9e8","686d226cabeef709c732f8e1","686e310fa1b93b6a475b0a81","66cf43db332889da5054c9e8","2025-07-09T09:43:44.062Z","","","","","","MotivationQ","","","","","","","","","","","","","","","","","","","","","","","","","","","","","","","","","","","","","","50",""
"","","","","ctl-task-cpt","64","1756636","0.0-10.0-0.5","191","1","2025-07-09 09:15:11","7701e855f2ef39aa3fd6c71abdc6918a","102.221.201.1","Mozilla/5.0 (Windows NT 10.0; Win64; x64) AppleWebKit/537.36 (KHTML, like Gecko) Chrome/138.0.0.0 Safari/537.36 Edg/138.0.0.0","WebKit","Edge","138.0.0.0","Windows","10.0","https://app.prolific.com/","en-GB,en;q=0.9,en-US;q=0.8","66cf43db332889da5054c9e8","686d226cabeef709c732f8e1","686e310fa1b93b6a475b0a81","66cf43db332889da5054c9e8","2025-07-09T09:44:28.834Z","","","","","","","","","","","","","","","","win-only","1","g1:NE,g2:SW","0.5","6","0","1714954.2","2585.9","7587.3","41752.2","1","4","8","6","2","-8","-9","0","0","0","5001.4","3000","-2700","[""down"",""left""]","{""num_key_presses"":8,""num_perfect"":3,""num_errors"":1,""num_randdir"":4,""num_randdir_good_moves"":2,""num_whilered"":0,""num_whileblue"":0,""num_blue"":3,""num_good_moves"":5}","[419.57142857142856,413.1808016640799,1.2,419.57142857142856,413.1808016640799,100.2,419.57142857142856,413.1808016640799,205.8,419.57142857142856,413.1808016640799,309.8,419.57142857142856,413.1808016640799,410.7,419.57142857142856,413.1808016640799,513.4,419.57142857142856,413.1808016640799,616.1,419.57142857142856,413.1808016640799,719.7,419.57142857142856,413.1808016640799,820.7,419.57142857142856,413.1808016640799,921.3,419.57142857142856,413.1808016640799,1024.8,419.57142857142856,413.1808016640799,1125.4,419.57142857142856,413.1808016640799,1226.4,419.57142857142856,413.1808016640799,1342.8,419.57142857142856,413.1808016640799,1443.6,419.57142857142856,413.1808016640799,1545.9,419.57142857142856,413.1808016640799,1650.9,419.57142857142856,413.1808016640799,1755.3,419.57142857142856,413.1808016640799,1855.3,419.57142857142856,413.1808016640799,1955.3,419.57142857142856,413.1808016640799,2055.4,419.57142857142856,413.1808016640799,2160.7,419.57142857142856,413.1808016640799,2281.1,419.57142857142856,413.1808016640799,2381.3,419.57142857142856,413.1808016640799,2484.6,419.57142857142856,413.1808016640799,2585.7,419.57142857142856,413.1808016640799,2690.5,419.57142857142856,413.1808016640799,2795.6,419.57142857142856,413.1808016640799,2913.3,419.57142857142856,413.1808016640799,3013.4,419.57142857142856,413.1808016640799,3115.3,419.57142857142856,413.1808016640799,3215.3,419.57142857142856,413.1808016640799,3315.3,391.07142857142856,389.1808016640799,3415.5,377.57142857142856,359.1808016640799,3519.6,479.57142857142856,324.6808016640799,3620.9,524.5714285714286,335.1808016640799,3726,535.0714285714286,341.1808016640799,3829.5,526.0714285714286,350.1808016640799,3929.9,520.0714285714286,351.6808016640799,4030,506.57142857142856,348.6808016640799,4132.4,496.07142857142856,345.6808016640799,4235.4,496.07142857142856,345.6808016640799,4335.8,496.07142857142856,345.6808016640799,4439.7,493.07142857142856,350.1808016640799,4544.4,470.57142857142856,386.1808016640799,4644.6,452.57142857142856,404.1808016640799,4751,373.07142857142856,515.1808016640799,4860.1,302.57142857142856,600.6808016640799,4961.9]","[2301.7,2301.7,1995.7,2003.1,-1697.1,""error"",""-"",""-"",""no_move"",6257.6,3955.4,2491.8,3303.1,462.7,""smooth"",""down"",""down"",""good_move"",9330.6,3072.6,2367.2,6258,705.4,""smooth"",""down"",""down"",""good_move"",12145.5,2814.5,2387.4,9331,427.1,""oops"",""down"",""right"",""bad_move"",15021.7,2875.5,2492.5,12146.2,383,""oops"",""down"",""up"",""bad_move"",18407.2,3385.2,2907.7,15022,477.5,""oops"",""down"",""left"",""good_move"",21150.2,2742.6,2368,18407.6,374.6,""smooth"",""down"",""down"",""good_move"",23452.1,2301.5,1865.4,21150.6,436.1,""oops"",""down"",""left"",""good_move""]","","",""
"5531","","<div style=""width:500px;"">
  <p>What determined the result of this run?</p>
  </div>","60","html-slider-response","65","1762170","0.0-10.0-1.5","191","1","2025-07-09 09:15:11","7701e855f2ef39aa3fd6c71abdc6918a","102.221.201.1","Mozilla/5.0 (Windows NT 10.0; Win64; x64) AppleWebKit/537.36 (KHTML, like Gecko) Chrome/138.0.0.0 Safari/537.36 Edg/138.0.0.0","WebKit","Edge","138.0.0.0","Windows","10.0","https://app.prolific.com/","en-GB,en;q=0.9,en-US;q=0.8","66cf43db332889da5054c9e8","686d226cabeef709c732f8e1","686e310fa1b93b6a475b0a81","66cf43db332889da5054c9e8","2025-07-09T09:44:34.368Z","","","","","","AttribQ","","","","","","","","","","","","","","","","","","","","","","","","","","","","","","","","","","","","","","50",""
"7073","","<div style=""width:500px;"">
  <p>How much control did you have over the ball?</p>
  </div>","0","html-slider-response","66","1769246","0.0-10.0-2.5","191","1","2025-07-09 09:15:11","7701e855f2ef39aa3fd6c71abdc6918a","102.221.201.1","Mozilla/5.0 (Windows NT 10.0; Win64; x64) AppleWebKit/537.36 (KHTML, like Gecko) Chrome/138.0.0.0 Safari/537.36 Edg/138.0.0.0","WebKit","Edge","138.0.0.0","Windows","10.0","https://app.prolific.com/","en-GB,en;q=0.9,en-US;q=0.8","66cf43db332889da5054c9e8","686d226cabeef709c732f8e1","686e310fa1b93b6a475b0a81","66cf43db332889da5054c9e8","2025-07-09T09:44:41.445Z","","","","","","ControlQ","","","","","","","","","","","","","","","","","","","","","","","","","","","","","","","","","","","","","","50",""
"8635","","<div style=""width:500px;"">
  <p>How would you describe your current emotional state?</p>
  </div>","1","html-slider-response","67","1777885","0.0-10.0-3.5","191","1","2025-07-09 09:15:11","7701e855f2ef39aa3fd6c71abdc6918a","102.221.201.1","Mozilla/5.0 (Windows NT 10.0; Win64; x64) AppleWebKit/537.36 (KHTML, like Gecko) Chrome/138.0.0.0 Safari/537.36 Edg/138.0.0.0","WebKit","Edge","138.0.0.0","Windows","10.0","https://app.prolific.com/","en-GB,en;q=0.9,en-US;q=0.8","66cf43db332889da5054c9e8","686d226cabeef709c732f8e1","686e310fa1b93b6a475b0a81","66cf43db332889da5054c9e8","2025-07-09T09:44:50.084Z","","","","","","StressQ","","","","","","","","","","","","","","","","","","","","","","","","","","","","","","","","","","","","","","50",""
"5355","","<div style=""width:500px;"">
  <p>What best describes how you currently feel?</p>
  </div>","100","html-slider-response","68","1783244","0.0-10.0-4.5","191","1","2025-07-09 09:15:11","7701e855f2ef39aa3fd6c71abdc6918a","102.221.201.1","Mozilla/5.0 (Windows NT 10.0; Win64; x64) AppleWebKit/537.36 (KHTML, like Gecko) Chrome/138.0.0.0 Safari/537.36 Edg/138.0.0.0","WebKit","Edge","138.0.0.0","Windows","10.0","https://app.prolific.com/","en-GB,en;q=0.9,en-US;q=0.8","66cf43db332889da5054c9e8","686d226cabeef709c732f8e1","686e310fa1b93b6a475b0a81","66cf43db332889da5054c9e8","2025-07-09T09:44:55.443Z","","","","","","MotivationQ","","","","","","","","","","","","","","","","","","","","","","","","","","","","","","","","","","","","","","50",""
"","","","","ctl-task-cpt","69","1810456","0.0-10.0-0.6","191","1","2025-07-09 09:15:11","7701e855f2ef39aa3fd6c71abdc6918a","102.221.201.1","Mozilla/5.0 (Windows NT 10.0; Win64; x64) AppleWebKit/537.36 (KHTML, like Gecko) Chrome/138.0.0.0 Safari/537.36 Edg/138.0.0.0","WebKit","Edge","138.0.0.0","Windows","10.0","https://app.prolific.com/","en-GB,en;q=0.9,en-US;q=0.8","66cf43db332889da5054c9e8","686d226cabeef709c732f8e1","686e310fa1b93b6a475b0a81","66cf43db332889da5054c9e8","2025-07-09T09:45:22.654Z","","","","","","","","","","","","","","","","win-only","0","g1:NW,g2:SE","0.4","7","0","1786333.7","3408.8","8410.7","24191.5","1","4","4","6","2","-4","-4","0","0","0","2181.7","3000","-2350","[""down"",""right""]","{""num_key_presses"":5,""num_perfect"":3,""num_errors"":0,""num_randdir"":2,""num_randdir_good_moves"":1,""num_whilered"":0,""num_whileblue"":0,""num_blue"":0,""num_good_moves"":4}","[413.57142857142856,416.1808016640799,0.3,413.57142857142856,416.1808016640799,102.5,413.57142857142856,416.1808016640799,207.5,413.57142857142856,416.1808016640799,317.6,413.57142857142856,416.1808016640799,421.1,413.57142857142856,416.1808016640799,522.2,413.57142857142856,416.1808016640799,629.4,413.57142857142856,416.1808016640799,733.5,416.57142857142856,461.1808016640799,836.3,455.57142857142856,527.1808016640799,937.1,566.5714285714286,626.1808016640799,1043.5,586.0714285714286,660.6808016640799,1145.4,586.0714285714286,660.6808016640799,1251,586.0714285714286,660.6808016640799,1352,635.5714285714286,677.1808016640799,1454,686.5714285714286,719.1808016640799,1554,749.5714285714286,755.1808016640799,1656.9,778.0714285714286,779.1808016640799,1757.6,788.5714285714286,788.1808016640799,1857.6,788.5714285714286,789.6808016640799,1964.5,788.5714285714286,789.6808016640799,2070.8,788.5714285714286,789.6808016640799,2171.2,788.5714285714286,789.6808016640799,2271.6,788.5714285714286,789.6808016640799,2371.9,788.5714285714286,789.6808016640799,2472.6,788.5714285714286,789.6808016640799,2578.8,788.5714285714286,789.6808016640799,2683.7,788.5714285714286,789.6808016640799,2785.8,788.5714285714286,789.6808016640799,2887.4,788.5714285714286,789.6808016640799,2988.1,788.5714285714286,789.6808016640799,3098.8,788.5714285714286,789.6808016640799,3201.8,788.5714285714286,789.6808016640799,3304.2,788.5714285714286,789.6808016640799,3407.6,788.5714285714286,789.6808016640799,3521.9,788.5714285714286,789.6808016640799,3622,788.5714285714286,789.6808016640799,3723.4,788.5714285714286,789.6808016640799,3834.1,788.5714285714286,789.6808016640799,3936.5,788.5714285714286,789.6808016640799,4038.3,788.5714285714286,789.6808016640799,4138.3,788.5714285714286,789.6808016640799,4242.8,788.5714285714286,789.6808016640799,4348.8,788.5714285714286,789.6808016640799,4452,788.5714285714286,789.6808016640799,4552.4,788.5714285714286,789.6808016640799,4656.5,788.5714285714286,789.6808016640799,4756.9,788.5714285714286,789.6808016640799,4864.6,788.5714285714286,789.6808016640799,4968.2]","[1815.6,1815.6,1000,0,815.6,""smooth"",""down"",""down"",""good_move"",4317.3,2501,1948.2,1816.3,552.8,""oops"",""down"",""right"",""good_move"",7716.1,3398.2,2854.2,4317.9,544,""smooth"",""down"",""down"",""good_move"",10432.3,2715.5,2220.3,7716.8,495.2,""oops"",""down"",""up"",""bad_move"",13019.5,2586.5,1340.7,10433,1245.8,""smooth"",""down"",""down"",""good_move""]","","",""
"4931","","<div style=""width:500px;"">
  <p>What determined the result of this run?</p>
  </div>","59","html-slider-response","70","1815389","0.0-10.0-1.6","191","1","2025-07-09 09:15:11","7701e855f2ef39aa3fd6c71abdc6918a","102.221.201.1","Mozilla/5.0 (Windows NT 10.0; Win64; x64) AppleWebKit/537.36 (KHTML, like Gecko) Chrome/138.0.0.0 Safari/537.36 Edg/138.0.0.0","WebKit","Edge","138.0.0.0","Windows","10.0","https://app.prolific.com/","en-GB,en;q=0.9,en-US;q=0.8","66cf43db332889da5054c9e8","686d226cabeef709c732f8e1","686e310fa1b93b6a475b0a81","66cf43db332889da5054c9e8","2025-07-09T09:45:27.587Z","","","","","","AttribQ","","","","","","","","","","","","","","","","","","","","","","","","","","","","","","","","","","","","","","50",""
"4388","","<div style=""width:500px;"">
  <p>How much control did you have over the ball?</p>
  </div>","17","html-slider-response","71","1819780","0.0-10.0-2.6","191","1","2025-07-09 09:15:11","7701e855f2ef39aa3fd6c71abdc6918a","102.221.201.1","Mozilla/5.0 (Windows NT 10.0; Win64; x64) AppleWebKit/537.36 (KHTML, like Gecko) Chrome/138.0.0.0 Safari/537.36 Edg/138.0.0.0","WebKit","Edge","138.0.0.0","Windows","10.0","https://app.prolific.com/","en-GB,en;q=0.9,en-US;q=0.8","66cf43db332889da5054c9e8","686d226cabeef709c732f8e1","686e310fa1b93b6a475b0a81","66cf43db332889da5054c9e8","2025-07-09T09:45:31.978Z","","","","","","ControlQ","","","","","","","","","","","","","","","","","","","","","","","","","","","","","","","","","","","","","","50",""
"7439","","<div style=""width:500px;"">
  <p>How would you describe your current emotional state?</p>
  </div>","2","html-slider-response","72","1827222","0.0-10.0-3.6","191","1","2025-07-09 09:15:11","7701e855f2ef39aa3fd6c71abdc6918a","102.221.201.1","Mozilla/5.0 (Windows NT 10.0; Win64; x64) AppleWebKit/537.36 (KHTML, like Gecko) Chrome/138.0.0.0 Safari/537.36 Edg/138.0.0.0","WebKit","Edge","138.0.0.0","Windows","10.0","https://app.prolific.com/","en-GB,en;q=0.9,en-US;q=0.8","66cf43db332889da5054c9e8","686d226cabeef709c732f8e1","686e310fa1b93b6a475b0a81","66cf43db332889da5054c9e8","2025-07-09T09:45:39.420Z","","","","","","StressQ","","","","","","","","","","","","","","","","","","","","","","","","","","","","","","","","","","","","","","50",""
"4531","","<div style=""width:500px;"">
  <p>What best describes how you currently feel?</p>
  </div>","100","html-slider-response","73","1831756","0.0-10.0-4.6","191","1","2025-07-09 09:15:11","7701e855f2ef39aa3fd6c71abdc6918a","102.221.201.1","Mozilla/5.0 (Windows NT 10.0; Win64; x64) AppleWebKit/537.36 (KHTML, like Gecko) Chrome/138.0.0.0 Safari/537.36 Edg/138.0.0.0","WebKit","Edge","138.0.0.0","Windows","10.0","https://app.prolific.com/","en-GB,en;q=0.9,en-US;q=0.8","66cf43db332889da5054c9e8","686d226cabeef709c732f8e1","686e310fa1b93b6a475b0a81","66cf43db332889da5054c9e8","2025-07-09T09:45:43.954Z","","","","","","MotivationQ","","","","","","","","","","","","","","","","","","","","","","","","","","","","","","","","","","","","","","50",""
"","","","","ctl-task-cpt","74","1876978","0.0-10.0-0.7","191","1","2025-07-09 09:15:11","7701e855f2ef39aa3fd6c71abdc6918a","102.221.201.1","Mozilla/5.0 (Windows NT 10.0; Win64; x64) AppleWebKit/537.36 (KHTML, like Gecko) Chrome/138.0.0.0 Safari/537.36 Edg/138.0.0.0","WebKit","Edge","138.0.0.0","Windows","10.0","https://app.prolific.com/","en-GB,en;q=0.9,en-US;q=0.8","66cf43db332889da5054c9e8","686d226cabeef709c732f8e1","686e310fa1b93b6a475b0a81","66cf43db332889da5054c9e8","2025-07-09T09:46:29.176Z","","","","","","","","","","","","","","","","win-only","0","g1:NW,g2:SE","0.3","8","0","1834845.7","2727.4","7733.9","42201.6","1","4","8","6","2","-8","-8","0","0","0","1528.4","3000","-2350","[""down"",""right""]","{""num_key_presses"":9,""num_perfect"":3,""num_errors"":0,""num_randdir"":6,""num_randdir_good_moves"":2,""num_whilered"":0,""num_whileblue"":0,""num_blue"":2,""num_good_moves"":5}","[410.57142857142856,405.6808016640799,0.6,410.57142857142856,405.6808016640799,103.1,410.57142857142856,405.6808016640799,205.9,410.57142857142856,405.6808016640799,308,410.57142857142856,405.6808016640799,409.3,410.57142857142856,405.6808016640799,510.1,410.57142857142856,405.6808016640799,616,437.57142857142856,428.1808016640799,718,598.0714285714286,593.1808016640799,818.4,680.5714285714286,680.1808016640799,925.8,683.5714285714286,680.1808016640799,1026,697.0714285714286,698.1808016640799,1131.1,736.0714285714286,746.1808016640799,1235.4,763.0714285714286,764.1808016640799,1338.5,763.0714285714286,764.1808016640799,1439.6,763.0714285714286,764.1808016640799,1541,763.0714285714286,764.1808016640799,1644.4,763.0714285714286,764.1808016640799,1748.4,763.0714285714286,764.1808016640799,1858.2,763.0714285714286,764.1808016640799,1959.8,763.0714285714286,764.1808016640799,2065.7,763.0714285714286,764.1808016640799,2169.3,763.0714285714286,764.1808016640799,2274.7,763.0714285714286,764.1808016640799,2378.2,763.0714285714286,764.1808016640799,2479.4,763.0714285714286,764.1808016640799,2586.8,763.0714285714286,764.1808016640799,2689.6,763.0714285714286,764.1808016640799,2790.5,763.0714285714286,764.1808016640799,2893,763.0714285714286,764.1808016640799,2995.8,763.0714285714286,764.1808016640799,3103.5,763.0714285714286,764.1808016640799,3205.3,763.0714285714286,764.1808016640799,3309.1,763.0714285714286,764.1808016640799,3410,763.0714285714286,764.1808016640799,3519.6,763.0714285714286,764.1808016640799,3621.4,763.0714285714286,764.1808016640799,3723.3,763.0714285714286,764.1808016640799,3823.4,763.0714285714286,764.1808016640799,3924,763.0714285714286,764.1808016640799,4024.4,763.0714285714286,764.1808016640799,4125.5,763.0714285714286,764.1808016640799,4228.8,763.0714285714286,764.1808016640799,4334.5,763.0714285714286,764.1808016640799,4435.1,763.0714285714286,764.1808016640799,4536,763.0714285714286,764.1808016640799,4638.1,763.0714285714286,764.1808016640799,4739.3,763.0714285714286,764.1808016640799,4844.9,763.0714285714286,764.1808016640799,4946.6]","[1543.3,1543.3,1000,0,543.3,""smooth"",""down"",""down"",""good_move"",4380.9,2836.6,2453.8,1544.3,382.8,""oops"",""right"",""down"",""good_move"",7676.9,3295.8,2934.9,4381.1,360.9,""smooth"",""right"",""right"",""good_move"",13740.7,6063.4,2467.9,10915.2,357.6,""smooth"",""right"",""right"",""good_move"",19878.2,6137.3,2404,17009.1,465.1,""oops"",""right"",""left"",""bad_move"",22319.8,2441,1840.1,19878.8,600.9,""oops"",""right"",""left"",""bad_move"",25556.9,3236.9,2773.8,22320.1,463,""oops"",""right"",""down"",""good_move"",28567.3,3009.8,2606.5,25557.5,403.3,""oops"",""right"",""left"",""bad_move"",31599.1,3031.3,2615.4,28567.8,415.9,""oops"",""right"",""left"",""bad_move""]","","",""
"6837","","<div style=""width:500px;"">
  <p>What determined the result of this run?</p>
  </div>","56","html-slider-response","75","1883817","0.0-10.0-1.7","191","1","2025-07-09 09:15:11","7701e855f2ef39aa3fd6c71abdc6918a","102.221.201.1","Mozilla/5.0 (Windows NT 10.0; Win64; x64) AppleWebKit/537.36 (KHTML, like Gecko) Chrome/138.0.0.0 Safari/537.36 Edg/138.0.0.0","WebKit","Edge","138.0.0.0","Windows","10.0","https://app.prolific.com/","en-GB,en;q=0.9,en-US;q=0.8","66cf43db332889da5054c9e8","686d226cabeef709c732f8e1","686e310fa1b93b6a475b0a81","66cf43db332889da5054c9e8","2025-07-09T09:46:36.015Z","","","","","","AttribQ","","","","","","","","","","","","","","","","","","","","","","","","","","","","","","","","","","","","","","50",""
"5842","","<div style=""width:500px;"">
  <p>How much control did you have over the ball?</p>
  </div>","0","html-slider-response","76","1889662","0.0-10.0-2.7","191","1","2025-07-09 09:15:11","7701e855f2ef39aa3fd6c71abdc6918a","102.221.201.1","Mozilla/5.0 (Windows NT 10.0; Win64; x64) AppleWebKit/537.36 (KHTML, like Gecko) Chrome/138.0.0.0 Safari/537.36 Edg/138.0.0.0","WebKit","Edge","138.0.0.0","Windows","10.0","https://app.prolific.com/","en-GB,en;q=0.9,en-US;q=0.8","66cf43db332889da5054c9e8","686d226cabeef709c732f8e1","686e310fa1b93b6a475b0a81","66cf43db332889da5054c9e8","2025-07-09T09:46:41.861Z","","","","","","ControlQ","","","","","","","","","","","","","","","","","","","","","","","","","","","","","","","","","","","","","","50",""
"8786","","<div style=""width:500px;"">
  <p>How would you describe your current emotional state?</p>
  </div>","12","html-slider-response","77","1898453","0.0-10.0-3.7","191","1","2025-07-09 09:15:11","7701e855f2ef39aa3fd6c71abdc6918a","102.221.201.1","Mozilla/5.0 (Windows NT 10.0; Win64; x64) AppleWebKit/537.36 (KHTML, like Gecko) Chrome/138.0.0.0 Safari/537.36 Edg/138.0.0.0","WebKit","Edge","138.0.0.0","Windows","10.0","https://app.prolific.com/","en-GB,en;q=0.9,en-US;q=0.8","66cf43db332889da5054c9e8","686d226cabeef709c732f8e1","686e310fa1b93b6a475b0a81","66cf43db332889da5054c9e8","2025-07-09T09:46:50.651Z","","","","","","StressQ","","","","","","","","","","","","","","","","","","","","","","","","","","","","","","","","","","","","","","50",""
"8515","","<div style=""width:500px;"">
  <p>What best describes how you currently feel?</p>
  </div>","92","html-slider-response","78","1906971","0.0-10.0-4.7","191","1","2025-07-09 09:15:11","7701e855f2ef39aa3fd6c71abdc6918a","102.221.201.1","Mozilla/5.0 (Windows NT 10.0; Win64; x64) AppleWebKit/537.36 (KHTML, like Gecko) Chrome/138.0.0.0 Safari/537.36 Edg/138.0.0.0","WebKit","Edge","138.0.0.0","Windows","10.0","https://app.prolific.com/","en-GB,en;q=0.9,en-US;q=0.8","66cf43db332889da5054c9e8","686d226cabeef709c732f8e1","686e310fa1b93b6a475b0a81","66cf43db332889da5054c9e8","2025-07-09T09:46:59.169Z","","","","","","MotivationQ","","","","","","","","","","","","","","","","","","","","","","","","","","","","","","","","","","","","","","50",""
"","","","","ctl-task-cpt","79","1953230","0.0-10.0-0.8","191","1","2025-07-09 09:15:11","7701e855f2ef39aa3fd6c71abdc6918a","102.221.201.1","Mozilla/5.0 (Windows NT 10.0; Win64; x64) AppleWebKit/537.36 (KHTML, like Gecko) Chrome/138.0.0.0 Safari/537.36 Edg/138.0.0.0","WebKit","Edge","138.0.0.0","Windows","10.0","https://app.prolific.com/","en-GB,en;q=0.9,en-US;q=0.8","66cf43db332889da5054c9e8","686d226cabeef709c732f8e1","686e310fa1b93b6a475b0a81","66cf43db332889da5054c9e8","2025-07-09T09:47:45.428Z","","","","","","","","","","","","","","","","win-only","3","g1:SW,g2:NE","0.2","9","0","1910061","3816.8","8821.1","43236.9","1","4","4","6","2","-4","-5","0","0","0","3414.9","3000","-2005","[""up"",""right""]","{""num_key_presses"":10,""num_perfect"":2,""num_errors"":1,""num_randdir"":7,""num_randdir_good_moves"":4,""num_whilered"":0,""num_whileblue"":1,""num_blue"":2,""num_good_moves"":7}","[418.07142857142856,417.6808016640799,0.6,418.07142857142856,417.6808016640799,112.3,418.07142857142856,417.6808016640799,214.7,418.07142857142856,417.6808016640799,334.9,418.07142857142856,417.6808016640799,455.4,418.07142857142856,417.6808016640799,556,418.07142857142856,417.6808016640799,660.3,418.07142857142856,417.6808016640799,769.1,418.07142857142856,417.6808016640799,870,410.57142857142856,425.1808016640799,976.8,416.57142857142856,419.1808016640799,1082.1,496.07142857142856,387.6808016640799,1184.7,518.5714285714286,386.1808016640799,1286,344.57142857142856,527.1808016640799,1398.7,289.07142857142856,572.1808016640799,1505.9,289.07142857142856,573.6808016640799,1608.6,230.57142857142856,653.1808016640799,1714.3,176.57142857142856,720.6808016640799,1817.9,149.57142857142856,737.1808016640799,1920.9,124.07142857142857,747.6808016640799,2025.7,104.57142857142857,755.1808016640799,2129.3,95.57142857142857,756.6808016640799,2231.2,95.57142857142857,756.6808016640799,2334.2,95.57142857142857,756.6808016640799,2436,95.57142857142857,756.6808016640799,2542.3,221.57142857142856,633.6808016640799,2646.1,655.0714285714286,110.18080166407994,2748.8,724.0714285714286,12.680801664079937,2849.2,719.5714285714286,14.180801664079937,2949.4,706.0714285714286,47.18080166407994,3049.8,715.0714285714286,77.18080166407994,3151,719.5714285714286,80.18080166407994,3261,719.5714285714286,80.18080166407994,3361.2,719.5714285714286,80.18080166407994,3464.6,719.5714285714286,80.18080166407994,3565.4,719.5714285714286,80.18080166407994,3669.6,719.5714285714286,80.18080166407994,3774.4,719.5714285714286,80.18080166407994,3879.8,719.5714285714286,80.18080166407994,3981.7,719.5714285714286,80.18080166407994,4085.2,719.5714285714286,80.18080166407994,4196.3,719.5714285714286,80.18080166407994,4297.5,719.5714285714286,80.18080166407994,4400.1,719.5714285714286,80.18080166407994,4500.1,719.5714285714286,80.18080166407994,4607.8,719.5714285714286,80.18080166407994,4713.2,719.5714285714286,80.18080166407994,4815,719.5714285714286,80.18080166407994,4920.3]","[1488.8,1488.8,1000,0,488.8,""oops"",""up"",""down"",""bad_move"",4502.3,3013,2377,1489.3,636,""oops"",""up"",""up"",""good_move"",7110.7,2607.7,2191.6,4503,416.1,""while_blue"",""up"",""up"",""good_move"",10227.3,3116.4,2568.4,7111,548,""smooth"",""up"",""up"",""good_move"",13095.1,2867.3,2316,10227.8,551.3,""oops"",""up"",""right"",""good_move"",16069.4,2974,2626.3,13095.4,347.7,""oops"",""right"",""down"",""bad_move"",19224.9,3155.1,2792.9,16069.8,362.2,""smooth"",""right"",""right"",""good_move"",21949.1,2724,2388.7,19225.1,335.3,""oops"",""right"",""right"",""good_move"",24906.3,2956.9,2597,21949.4,359.9,""oops"",""up"",""left"",""bad_move"",31808.1,6901.3,2556,28851.9,400.2,""oops"",""up"",""up"",""good_move""]","","",""
"4543","","<div style=""width:500px;"">
  <p>What determined the result of this run?</p>
  </div>","60","html-slider-response","80","1957775","0.0-10.0-1.8","191","1","2025-07-09 09:15:11","7701e855f2ef39aa3fd6c71abdc6918a","102.221.201.1","Mozilla/5.0 (Windows NT 10.0; Win64; x64) AppleWebKit/537.36 (KHTML, like Gecko) Chrome/138.0.0.0 Safari/537.36 Edg/138.0.0.0","WebKit","Edge","138.0.0.0","Windows","10.0","https://app.prolific.com/","en-GB,en;q=0.9,en-US;q=0.8","66cf43db332889da5054c9e8","686d226cabeef709c732f8e1","686e310fa1b93b6a475b0a81","66cf43db332889da5054c9e8","2025-07-09T09:47:49.973Z","","","","","","AttribQ","","","","","","","","","","","","","","","","","","","","","","","","","","","","","","","","","","","","","","50",""
"6091","","<div style=""width:500px;"">
  <p>How much control did you have over the ball?</p>
  </div>","0","html-slider-response","81","1963868","0.0-10.0-2.8","191","1","2025-07-09 09:15:11","7701e855f2ef39aa3fd6c71abdc6918a","102.221.201.1","Mozilla/5.0 (Windows NT 10.0; Win64; x64) AppleWebKit/537.36 (KHTML, like Gecko) Chrome/138.0.0.0 Safari/537.36 Edg/138.0.0.0","WebKit","Edge","138.0.0.0","Windows","10.0","https://app.prolific.com/","en-GB,en;q=0.9,en-US;q=0.8","66cf43db332889da5054c9e8","686d226cabeef709c732f8e1","686e310fa1b93b6a475b0a81","66cf43db332889da5054c9e8","2025-07-09T09:47:56.066Z","","","","","","ControlQ","","","","","","","","","","","","","","","","","","","","","","","","","","","","","","","","","","","","","","50",""
"4838","","<div style=""width:500px;"">
  <p>How would you describe your current emotional state?</p>
  </div>","1","html-slider-response","82","1968709","0.0-10.0-3.8","191","1","2025-07-09 09:15:11","7701e855f2ef39aa3fd6c71abdc6918a","102.221.201.1","Mozilla/5.0 (Windows NT 10.0; Win64; x64) AppleWebKit/537.36 (KHTML, like Gecko) Chrome/138.0.0.0 Safari/537.36 Edg/138.0.0.0","WebKit","Edge","138.0.0.0","Windows","10.0","https://app.prolific.com/","en-GB,en;q=0.9,en-US;q=0.8","66cf43db332889da5054c9e8","686d226cabeef709c732f8e1","686e310fa1b93b6a475b0a81","66cf43db332889da5054c9e8","2025-07-09T09:48:00.908Z","","","","","","StressQ","","","","","","","","","","","","","","","","","","","","","","","","","","","","","","","","","","","","","","50",""
"4167","","<div style=""width:500px;"">
  <p>What best describes how you currently feel?</p>
  </div>","100","html-slider-response","83","1972881","0.0-10.0-4.8","191","1","2025-07-09 09:15:11","7701e855f2ef39aa3fd6c71abdc6918a","102.221.201.1","Mozilla/5.0 (Windows NT 10.0; Win64; x64) AppleWebKit/537.36 (KHTML, like Gecko) Chrome/138.0.0.0 Safari/537.36 Edg/138.0.0.0","WebKit","Edge","138.0.0.0","Windows","10.0","https://app.prolific.com/","en-GB,en;q=0.9,en-US;q=0.8","66cf43db332889da5054c9e8","686d226cabeef709c732f8e1","686e310fa1b93b6a475b0a81","66cf43db332889da5054c9e8","2025-07-09T09:48:05.079Z","","","","","","MotivationQ","","","","","","","","","","","","","","","","","","","","","","","","","","","","","","","","","","","","","","50",""
