"rt","response_timestamp","stimulus","response","trial_type","trial_index","time_elapsed","internal_node_id","run_id","condition","recorded_at","source_code_version","ip","user_agent","device","browser","browser_version","platform","platform_version","referer","accept_language","PROLIFIC_PID","STUDY_ID","SESSION_ID","prolific_id","realtime","view_history","question_order","consent","success","question_id","eventType","responses","item_order","radio_event_ids","radio_event_times","key_event_times","mouse_event_times","straightlining","zigzagging","honeypot","which_type","canvas_config","goals_layout","control_level","trial_number","tutorial_trial_number","trial_start_time","phase1_start_time","phase2_start_time","phase3_start_time","goal_1_value","goal_1_distance","goal_2_value","goal_2_distance","goal_selected","outcome","outcome_total","participant_final_score","participant_initial_score","participant_final_score_prop","goal_choice_rt","allocated_time","allocated_time_remaining","goal_direction","counts","mouse_movements","key_presses","correct","slider_start","sub_question"
"31044","1752052111951","<p style='font-size:40px;line-height:1.25'><strong>Welcome to the experiment!</strong></p><p style='font-size:1.1em;line-height:1.25'>Thank you for your interest in our experiment! Before you begin, it is important that we obtain your informed consent to participate in the study.</p><p style='font-size:1.1em;line-height:1.25'>On the next screen will be an <strong>information sheet</strong> for you to read. To participate in the study we need you to read this information sheet and the following consent form carefully. If you agree with all the statements, please click the <strong>I agree</strong> button.</p><p style='font-size:1.1em;line-height:1.25'>Press <strong>Next</strong> to read the information sheet.</p>","0","custom-html-button-response","0","31049","0.0-0.0","101","1","2025-07-09 09:07:57","7701e855f2ef39aa3fd6c71abdc6918a","157.51.195.177","Mozilla/5.0 (Windows NT 10.0; Win64; x64) AppleWebKit/537.36 (KHTML, like Gecko) Chrome/138.0.0.0 Safari/537.36","WebKit","Chrome","138.0.0.0","Windows","10.0","https://app.prolific.com/","en-US,en;q=0.9,ta;q=0.8,hi;q=0.7","663378460f834e9670d1508c","686d226cabeef709c732f8e1","686e313eaf7fea6535a07c4a","663378460f834e9670d1508c","2025-07-09T09:08:31.952Z","","","","","","","","","","","","","","","","","","","","","","","","","","","","","","","","","","","","","","","","","","","","",""
"123093","","","","instructions","1","154143","0.0-1.0","101","1","2025-07-09 09:07:57","7701e855f2ef39aa3fd6c71abdc6918a","157.51.195.177","Mozilla/5.0 (Windows NT 10.0; Win64; x64) AppleWebKit/537.36 (KHTML, like Gecko) Chrome/138.0.0.0 Safari/537.36","WebKit","Chrome","138.0.0.0","Windows","10.0","https://app.prolific.com/","en-US,en;q=0.9,ta;q=0.8,hi;q=0.7","663378460f834e9670d1508c","686d226cabeef709c732f8e1","686e313eaf7fea6535a07c4a","663378460f834e9670d1508c","","[{""page_index"":0,""viewing_time"":91021},{""page_index"":1,""viewing_time"":32071}]","","","","","","","","","","","","","","","","","","","","","","","","","","","","","","","","","","","","","","","","","","","",""
"24832","","","{""Q0"":"""",""Q1"":"""",""Q2"":"""",""Q3"":"""",""Q4"":"""",""Q5"":"""",""Q6"":""I agree""}","survey-multi-choice","2","178977","0.0-2.0","101","1","2025-07-09 09:07:57","7701e855f2ef39aa3fd6c71abdc6918a","157.51.195.177","Mozilla/5.0 (Windows NT 10.0; Win64; x64) AppleWebKit/537.36 (KHTML, like Gecko) Chrome/138.0.0.0 Safari/537.36","WebKit","Chrome","138.0.0.0","Windows","10.0","https://app.prolific.com/","en-US,en;q=0.9,ta;q=0.8,hi;q=0.7","663378460f834e9670d1508c","686d226cabeef709c732f8e1","686e313eaf7fea6535a07c4a","663378460f834e9670d1508c","","","[0,1,2,3,4,5,6]","true","","","","","","","","","","","","","","","","","","","","","","","","","","","","","","","","","","","","","","","","","",""
"23989","","","","fullscreen","3","203996","0.0-4.0","101","1","2025-07-09 09:07:57","7701e855f2ef39aa3fd6c71abdc6918a","157.51.195.177","Mozilla/5.0 (Windows NT 10.0; Win64; x64) AppleWebKit/537.36 (KHTML, like Gecko) Chrome/138.0.0.0 Safari/537.36","WebKit","Chrome","138.0.0.0","Windows","10.0","https://app.prolific.com/","en-US,en;q=0.9,ta;q=0.8,hi;q=0.7","663378460f834e9670d1508c","686d226cabeef709c732f8e1","686e313eaf7fea6535a07c4a","663378460f834e9670d1508c","","","","","true","","","","","","","","","","","","","","","","","","","","","","","","","","","","","","","","","","","","","","","","",""
"6434","1752052291334"," <p style='font-size:1.1em;line-height:1.25'>Thank you for completing the consent form and closing all other tabs.</p><p style='font-size:1.1em;line-height:1.25'>We will now invite you to fill in some demographic information and questionnaires, before starting the game.<br>This will take about 5 minutes.<br></p><p style='font-size:1.1em;line-height:1.25'>Press the <strong>Next</strong> button to continue.</p>","0","custom-html-button-response","4","210431","0.0-5.0","101","1","2025-07-09 09:07:57","7701e855f2ef39aa3fd6c71abdc6918a","157.51.195.177","Mozilla/5.0 (Windows NT 10.0; Win64; x64) AppleWebKit/537.36 (KHTML, like Gecko) Chrome/138.0.0.0 Safari/537.36","WebKit","Chrome","138.0.0.0","Windows","10.0","https://app.prolific.com/","en-US,en;q=0.9,ta;q=0.8,hi;q=0.7","663378460f834e9670d1508c","686d226cabeef709c732f8e1","686e313eaf7fea6535a07c4a","663378460f834e9670d1508c","2025-07-09T09:11:31.335Z","","","","","","","","","","","","","","","","","","","","","","","","","","","","","","","","","","","","","","","","","","","","",""
"5828","","","{""age"":""23""}","survey-text","5","216263","0.0-6.0-0.0","101","1","2025-07-09 09:07:57","7701e855f2ef39aa3fd6c71abdc6918a","157.51.195.177","Mozilla/5.0 (Windows NT 10.0; Win64; x64) AppleWebKit/537.36 (KHTML, like Gecko) Chrome/138.0.0.0 Safari/537.36","WebKit","Chrome","138.0.0.0","Windows","10.0","https://app.prolific.com/","en-US,en;q=0.9,ta;q=0.8,hi;q=0.7","663378460f834e9670d1508c","686d226cabeef709c732f8e1","686e313eaf7fea6535a07c4a","663378460f834e9670d1508c","","","","","","0","demographics","","","","","","","","","","","","","","","","","","","","","","","","","","","","","","","","","","","","","","",""
"6015","","","{""gender_identity"":""female/woman""}","survey-multi-choice","6","222279","0.0-6.0-1.0","101","1","2025-07-09 09:07:57","7701e855f2ef39aa3fd6c71abdc6918a","157.51.195.177","Mozilla/5.0 (Windows NT 10.0; Win64; x64) AppleWebKit/537.36 (KHTML, like Gecko) Chrome/138.0.0.0 Safari/537.36","WebKit","Chrome","138.0.0.0","Windows","10.0","https://app.prolific.com/","en-US,en;q=0.9,ta;q=0.8,hi;q=0.7","663378460f834e9670d1508c","686d226cabeef709c732f8e1","686e313eaf7fea6535a07c4a","663378460f834e9670d1508c","","","[0]","","","1","demographics","","","","","","","","","","","","","","","","","","","","","","","","","","","","","","","","","","","","","","",""
"5959","","","{""assigned_sex"":""female""}","survey-multi-choice","7","228239","0.0-6.0-2.0","101","1","2025-07-09 09:07:57","7701e855f2ef39aa3fd6c71abdc6918a","157.51.195.177","Mozilla/5.0 (Windows NT 10.0; Win64; x64) AppleWebKit/537.36 (KHTML, like Gecko) Chrome/138.0.0.0 Safari/537.36","WebKit","Chrome","138.0.0.0","Windows","10.0","https://app.prolific.com/","en-US,en;q=0.9,ta;q=0.8,hi;q=0.7","663378460f834e9670d1508c","686d226cabeef709c732f8e1","686e313eaf7fea6535a07c4a","663378460f834e9670d1508c","","","[0]","","","2","demographics","","","","","","","","","","","","","","","","","","","","","","","","","","","","","","","","","","","","","","",""
"14112","","","{""menstrual_cycle"":""Yes""}","survey-multi-choice","8","242352","0.0-6.0-3.0","101","1","2025-07-09 09:07:57","7701e855f2ef39aa3fd6c71abdc6918a","157.51.195.177","Mozilla/5.0 (Windows NT 10.0; Win64; x64) AppleWebKit/537.36 (KHTML, like Gecko) Chrome/138.0.0.0 Safari/537.36","WebKit","Chrome","138.0.0.0","Windows","10.0","https://app.prolific.com/","en-US,en;q=0.9,ta;q=0.8,hi;q=0.7","663378460f834e9670d1508c","686d226cabeef709c732f8e1","686e313eaf7fea6535a07c4a","663378460f834e9670d1508c","","","[0]","","","4","demographics","","","","","","","","","","","","","","","","","","","","","","","","","","","","","","","","","","","","","","",""
"12151","","","{""education"":""Bachelor's Degree (e.g., BA)""}","survey-multi-choice","9","254505","0.0-6.0-4.0","101","1","2025-07-09 09:07:57","7701e855f2ef39aa3fd6c71abdc6918a","157.51.195.177","Mozilla/5.0 (Windows NT 10.0; Win64; x64) AppleWebKit/537.36 (KHTML, like Gecko) Chrome/138.0.0.0 Safari/537.36","WebKit","Chrome","138.0.0.0","Windows","10.0","https://app.prolific.com/","en-US,en;q=0.9,ta;q=0.8,hi;q=0.7","663378460f834e9670d1508c","686d226cabeef709c732f8e1","686e313eaf7fea6535a07c4a","663378460f834e9670d1508c","","","[0]","","","5","demographics","","","","","","","","","","","","","","","","","","","","","","","","","","","","","","","","","","","","","","",""
"6709","","","{""education"":""Bachelor's Degree (e.g., BA)""}","survey-multi-choice","10","261215","0.0-6.0-5.0","101","1","2025-07-09 09:07:57","7701e855f2ef39aa3fd6c71abdc6918a","157.51.195.177","Mozilla/5.0 (Windows NT 10.0; Win64; x64) AppleWebKit/537.36 (KHTML, like Gecko) Chrome/138.0.0.0 Safari/537.36","WebKit","Chrome","138.0.0.0","Windows","10.0","https://app.prolific.com/","en-US,en;q=0.9,ta;q=0.8,hi;q=0.7","663378460f834e9670d1508c","686d226cabeef709c732f8e1","686e313eaf7fea6535a07c4a","663378460f834e9670d1508c","2025-07-09T09:12:22.119Z","","[0]","","","6","demographics","","","","","","","","","","","","","","","","","","","","","","","","","","","","","","","","","","","","","","",""
"36966","","","{""mental_health_condition"":""No"",""mental_health_treatment"":""No"",""psychiatric_medication"":""N/A""}","survey-text","11","298184","0.0-7.0-0.0","101","1","2025-07-09 09:07:57","7701e855f2ef39aa3fd6c71abdc6918a","157.51.195.177","Mozilla/5.0 (Windows NT 10.0; Win64; x64) AppleWebKit/537.36 (KHTML, like Gecko) Chrome/138.0.0.0 Safari/537.36","WebKit","Chrome","138.0.0.0","Windows","10.0","https://app.prolific.com/","en-US,en;q=0.9,ta;q=0.8,hi;q=0.7","663378460f834e9670d1508c","686d226cabeef709c732f8e1","686e313eaf7fea6535a07c4a","663378460f834e9670d1508c","2025-07-09T09:12:59.087Z","","","","","1","mental_health","","","","","","","","","","","","","","","","","","","","","","","","","","","","","","","","","","","","","","",""
"30605","","","{""depression_history"":[""Yes""]}","survey-multi-select","12","328793","0.0-7.0-1.0","101","1","2025-07-09 09:07:57","7701e855f2ef39aa3fd6c71abdc6918a","157.51.195.177","Mozilla/5.0 (Windows NT 10.0; Win64; x64) AppleWebKit/537.36 (KHTML, like Gecko) Chrome/138.0.0.0 Safari/537.36","WebKit","Chrome","138.0.0.0","Windows","10.0","https://app.prolific.com/","en-US,en;q=0.9,ta;q=0.8,hi;q=0.7","663378460f834e9670d1508c","686d226cabeef709c732f8e1","686e313eaf7fea6535a07c4a","663378460f834e9670d1508c","","","[0]","","","","mental_health","","","","","","","","","","","","","","","","","","","","","","","","","","","","","","","","","","","","","","",""
"13477","","","{""depression_episodes"":""more than 5"",""depression_recent"":""Currently experiencing an episode""}","survey-multi-choice","13","342271","0.0-7.0-2.0-0.0","101","1","2025-07-09 09:07:57","7701e855f2ef39aa3fd6c71abdc6918a","157.51.195.177","Mozilla/5.0 (Windows NT 10.0; Win64; x64) AppleWebKit/537.36 (KHTML, like Gecko) Chrome/138.0.0.0 Safari/537.36","WebKit","Chrome","138.0.0.0","Windows","10.0","https://app.prolific.com/","en-US,en;q=0.9,ta;q=0.8,hi;q=0.7","663378460f834e9670d1508c","686d226cabeef709c732f8e1","686e313eaf7fea6535a07c4a","663378460f834e9670d1508c","2025-07-09T09:13:43.174Z","","[0,1]","","","3","mental_health","","","","","","","","","","","","","","","","","","","","","","","","","","","","","","","","","","","","","","",""
"76111.5","","","","survey-template","14","418430","0.0-7.0-3.0","101","1","2025-07-09 09:07:57","7701e855f2ef39aa3fd6c71abdc6918a","157.51.195.177","Mozilla/5.0 (Windows NT 10.0; Win64; x64) AppleWebKit/537.36 (KHTML, like Gecko) Chrome/138.0.0.0 Safari/537.36","WebKit","Chrome","138.0.0.0","Windows","10.0","https://app.prolific.com/","en-US,en;q=0.9,ta;q=0.8,hi;q=0.7","663378460f834e9670d1508c","686d226cabeef709c732f8e1","686e313eaf7fea6535a07c4a","663378460f834e9670d1508c","2025-07-09T09:14:59.333Z","","","","","","ius","{""Q01"":""2"",""Q02"":""3"",""Q03"":""2"",""Q04"":""3"",""Q05"":""2"",""Q06"":""1"",""Q07"":""2"",""Q08"":""0"",""Q09"":""2"",""Q10"":""2"",""Q11"":""4"",""Q12"":""2"",""Q13"":""3""}","[0,1,2,3,4,5,6,7,8,9,10,11,12]","[""Q01"",""Q02"",""Q03"",""Q04"",""Q05"",""Q06"",""Q07"",""Q08"",""Q09"",""Q10"",""Q11"",""Q12"",""Q12"",""Q13""]","[11220.299999999814,15076.199999999255,21572.39999999944,24156.299999999814,29339.699999999255,32331.799999999814,40532.199999999255,43571.699999999255,47228.5,51092.39999999944,55764,59108.09999999963,60851.699999999255,63508.5]","[]","[11220.299999999814,15076.199999999255,21572.39999999944,24156.299999999814,29339.699999999255,32331.799999999814,40532.199999999255,43571.699999999255,47228.5,51092.39999999944,55764,59108.09999999963,60851.699999999255,63508.5,76108.39999999944]","0.5384615384615384","0.5833333333333334","0","","","","","","","","","","","","","","","","","","","","","","","","","","","","","",""
"4784","1752052504118","<p style='font-size:1.1em;line-height:1.25'>In the following, we will ask you a few questions relating to your experiences over the past month.<br></p><p style='font-size:1.1em;line-height:1.25'>Press the <strong>Next</strong> button to continue.</p>","0","custom-html-button-response","15","423215","0.0-7.0-4.0","101","1","2025-07-09 09:07:57","7701e855f2ef39aa3fd6c71abdc6918a","157.51.195.177","Mozilla/5.0 (Windows NT 10.0; Win64; x64) AppleWebKit/537.36 (KHTML, like Gecko) Chrome/138.0.0.0 Safari/537.36","WebKit","Chrome","138.0.0.0","Windows","10.0","https://app.prolific.com/","en-US,en;q=0.9,ta;q=0.8,hi;q=0.7","663378460f834e9670d1508c","686d226cabeef709c732f8e1","686e313eaf7fea6535a07c4a","663378460f834e9670d1508c","2025-07-09T09:15:04.119Z","","","","","","","","","","","","","","","","","","","","","","","","","","","","","","","","","","","","","","","","","","","","",""
"62841","","","","survey-template","16","486059","0.0-7.0-5.0","101","1","2025-07-09 09:07:57","7701e855f2ef39aa3fd6c71abdc6918a","157.51.195.177","Mozilla/5.0 (Windows NT 10.0; Win64; x64) AppleWebKit/537.36 (KHTML, like Gecko) Chrome/138.0.0.0 Safari/537.36","WebKit","Chrome","138.0.0.0","Windows","10.0","https://app.prolific.com/","en-US,en;q=0.9,ta;q=0.8,hi;q=0.7","663378460f834e9670d1508c","686d226cabeef709c732f8e1","686e313eaf7fea6535a07c4a","663378460f834e9670d1508c","2025-07-09T09:16:06.962Z","","","","","","pss","{""Q01"":""2"",""Q02"":""4"",""Q03"":""4"",""Q04"":""3"",""Q05"":""3"",""Q06"":""3"",""Q07"":""2"",""Q08"":""2"",""Q09"":""3"",""Q10"":""4""}","[0,1,2,3,4,5,6,7,8,9]","[""Q01"",""Q02"",""Q03"",""Q04"",""Q05"",""Q06"",""Q07"",""Q08"",""Q09"",""Q10""]","[9085,17166.400000000373,18021.900000000373,23693.900000000373,28133.900000000373,36573.90000000037,44245.799999999814,51693.700000000186,54517.09999999963,59349.200000000186]","[]","[0,9085,15821.799999999814,17166.400000000373,18021.900000000373,23693.900000000373,28133.900000000373,36573.90000000037,44245.799999999814,51693.700000000186,54517.09999999963,59349.200000000186,62838]","0.3","0.3333333333333333","0","","","","","","","","","","","","","","","","","","","","","","","","","","","","","",""
"2739","1752052569701","<p style='font-size:1.1em;line-height:1.25'>Thank you for your answers! Now we will ask you a few more questions relating to your feelings in the last 24 hours.<br></p><p style='font-size:1.1em;line-height:1.25'>Press the <strong>Next</strong> button to continue.</p>","0","custom-html-button-response","17","488799","0.0-7.0-6.0","101","1","2025-07-09 09:07:57","7701e855f2ef39aa3fd6c71abdc6918a","157.51.195.177","Mozilla/5.0 (Windows NT 10.0; Win64; x64) AppleWebKit/537.36 (KHTML, like Gecko) Chrome/138.0.0.0 Safari/537.36","WebKit","Chrome","138.0.0.0","Windows","10.0","https://app.prolific.com/","en-US,en;q=0.9,ta;q=0.8,hi;q=0.7","663378460f834e9670d1508c","686d226cabeef709c732f8e1","686e313eaf7fea6535a07c4a","663378460f834e9670d1508c","2025-07-09T09:16:09.702Z","","","","","","","","","","","","","","","","","","","","","","","","","","","","","","","","","","","","","","","","","","","","",""
"99874.29999999981","","","","survey-template","18","588676","0.0-7.0-7.0","101","1","2025-07-09 09:07:57","7701e855f2ef39aa3fd6c71abdc6918a","157.51.195.177","Mozilla/5.0 (Windows NT 10.0; Win64; x64) AppleWebKit/537.36 (KHTML, like Gecko) Chrome/138.0.0.0 Safari/537.36","WebKit","Chrome","138.0.0.0","Windows","10.0","https://app.prolific.com/","en-US,en;q=0.9,ta;q=0.8,hi;q=0.7","663378460f834e9670d1508c","686d226cabeef709c732f8e1","686e313eaf7fea6535a07c4a","663378460f834e9670d1508c","2025-07-09T09:17:49.580Z","","","","","","drsp","{""Q01"":""1"",""Q02"":""3"",""Q03"":""4"",""Q04"":""1"",""Q05"":""4"",""Q06"":""2"",""Q07"":""1"",""Q08"":""0"",""Q09"":""5"",""Q10"":""5"",""Q11"":""5"",""Q12"":""3"",""Q13"":""4"",""Q14"":""5"",""Q15"":""1"",""Q16"":""2"",""Q17"":""1"",""Q18"":""5"",""Q19"":""5"",""Q20"":""4"",""Q21"":""2""}","[0,1,2,3,4,5,6,7,8,9,10,11,12,13,14,15,16,17,18,19,20]","[""Q01"",""Q02"",""Q03"",""Q04"",""Q05"",""Q06"",""Q07"",""Q08"",""Q09"",""Q10"",""Q11"",""Q12"",""Q13"",""Q14"",""Q15"",""Q16"",""Q17"",""Q18"",""Q19"",""Q20"",""Q21""]","[6932.9000000003725,10125.099999999627,12517,14398.200000000186,16325.900000000373,20725.400000000373,24022.099999999627,25726.099999999627,31190.099999999627,32325.799999999814,33653.200000000186,37629.200000000186,38573.200000000186,41670,71973.79999999981,74797.79999999981,77357.09999999963,81758,86749.90000000037,89029.79999999981,93029.40000000037]","[]","[0,6932.9000000003725,10125.099999999627,12517,14398.200000000186,16325.900000000373,20725.400000000373,24022.099999999627,25726.099999999627,31190.099999999627,32325.799999999814,33653.200000000186,37629.200000000186,38573.200000000186,41670,71973.79999999981,74797.79999999981,76733.90000000037,77357.09999999963,81758,86749.90000000037,89029.79999999981,93029.40000000037,99869.79999999981]","0.2857142857142857","0.45","0","","","","","","","","","","","","","","","","","","","","","","","","","","","","","",""
"18568.799999999814","","","","survey-template","19","607248","0.0-7.0-8.0","101","1","2025-07-09 09:07:57","7701e855f2ef39aa3fd6c71abdc6918a","157.51.195.177","Mozilla/5.0 (Windows NT 10.0; Win64; x64) AppleWebKit/537.36 (KHTML, like Gecko) Chrome/138.0.0.0 Safari/537.36","WebKit","Chrome","138.0.0.0","Windows","10.0","https://app.prolific.com/","en-US,en;q=0.9,ta;q=0.8,hi;q=0.7","663378460f834e9670d1508c","686d226cabeef709c732f8e1","686e313eaf7fea6535a07c4a","663378460f834e9670d1508c","2025-07-09T09:18:08.151Z","","","","","","stress","{""Q01"":""2"",""Q02"":""4"",""Q03"":""3""}","[0,1,2]","[""Q01"",""Q02"",""Q03"",""Q03""]","[4984.4000000003725,5816.799999999814,12208.200000000186,17456.5]","[]","[4984.4000000003725,5816.799999999814,12208.200000000186,17456.5,18567.700000000186]","0.3333333333333333","0.5","0","","","","","","","","","","","","","","","","","","","","","","","","","","","","","",""
"169653","","","","instructions","20","776902","0.0-8.0-0.0","101","1","2025-07-09 09:07:57","7701e855f2ef39aa3fd6c71abdc6918a","157.51.195.177","Mozilla/5.0 (Windows NT 10.0; Win64; x64) AppleWebKit/537.36 (KHTML, like Gecko) Chrome/138.0.0.0 Safari/537.36","WebKit","Chrome","138.0.0.0","Windows","10.0","https://app.prolific.com/","en-US,en;q=0.9,ta;q=0.8,hi;q=0.7","663378460f834e9670d1508c","686d226cabeef709c732f8e1","686e313eaf7fea6535a07c4a","663378460f834e9670d1508c","","[{""page_index"":0,""viewing_time"":46213},{""page_index"":1,""viewing_time"":50680},{""page_index"":2,""viewing_time"":21975},{""page_index"":3,""viewing_time"":50784}]","","","","","","","","","","","","","","","","","","","","","","","","","","","","","","","","","","","","","","","","","","","",""
"","","","","ctl-task-cpt","21","830845","0.0-8.0-1.0","101","1","2025-07-09 09:07:57","7701e855f2ef39aa3fd6c71abdc6918a","157.51.195.177","Mozilla/5.0 (Windows NT 10.0; Win64; x64) AppleWebKit/537.36 (KHTML, like Gecko) Chrome/138.0.0.0 Safari/537.36","WebKit","Chrome","138.0.0.0","Windows","10.0","https://app.prolific.com/","en-US,en;q=0.9,ta;q=0.8,hi;q=0.7","663378460f834e9670d1508c","686d226cabeef709c732f8e1","686e313eaf7fea6535a07c4a","663378460f834e9670d1508c","","","","","","","","","","","","","","","","","win-only","3","g1:SW,g2:NE","1","0","1","782639.7","6896.2","10898.2","50894","2","4","4","6","2","4","-1","0","0","0","3202.7","4000","665","[""up"",""right""]","{""num_key_presses"":14,""num_perfect"":7,""num_errors"":5,""num_randdir"":0,""num_randdir_good_moves"":0,""num_whilered"":2,""num_whileblue"":1,""num_blue"":4,""num_good_moves"":7}","[426.5714133126395,415.32142761775424,0.3,426.5714133126395,415.32142761775424,105.1,426.5714133126395,415.32142761775424,211,426.5714133126395,415.32142761775424,313.1,426.5714133126395,415.32142761775424,414.8,427.8214133126395,401.57142761775424,516.6,451.5714133126395,326.57142761775424,620.7,511.5714133126395,285.32142761775424,726,481.5714133126395,350.32142761775424,830.9,501.5714133126395,499.07142761775424,934.8,496.5714133126395,511.57142761775424,1034.8,496.5714133126395,511.57142761775424,1134.8,496.5714133126395,511.57142761775424,1235.7,496.5714133126395,511.57142761775424,1339.2,491.5714133126395,414.07142761775424,1440.5,497.8214133126395,326.57142761775424,1545.5,482.8214133126395,175.32142761775424,1646.2,476.5714133126395,151.57142761775424,1750.8,667.8214133126395,119.07142761775425,1855.8,749.0714133126395,180.32142761775424,1955.9,771.5714133126395,287.82142761775424,2061,771.5714133126395,296.57142761775424,2164.7,771.5714133126395,296.57142761775424,2269.4,771.5714133126395,296.57142761775424,2370.9,771.5714133126395,296.57142761775424,2474.8,761.5714133126395,282.82142761775424,2576,695.3214133126395,96.57142761775425,2676.3,681.5714133126395,92.82142761775425,2780.9,682.8214133126395,94.07142761775425,2884.4,682.8214133126395,94.07142761775425,2985.2,765.3214133126395,81.57142761775425,3086.1,766.5714133126395,81.57142761775425,3194.6,766.5714133126395,80.32142761775425,3294.6,766.5714133126395,80.32142761775425,3402.1,766.5714133126395,80.32142761775425,3504.5,766.5714133126395,80.32142761775425,3605.4,765.3214133126395,80.32142761775425,3710.9,765.3214133126395,80.32142761775425,3817.9,765.3214133126395,80.32142761775425,3918.2]","[282.1,282.1,1000,0.1,-717.9,""error"",""-"",""-"",""no_move"",1935.5,1653.1,2923.6,1282.6,-2270.7,""error"",""-"",""-"",""no_move"",5415.7,3480.1,2108.9,2938.2,368.6,""smooth"",""right"",""right"",""good_move"",5591.5,175.4,2448.7,5416.1,-2273.3,""error"",""-"",""-"",""no_move"",5703.6,111.8,2448.7,5416.1,-2161.2,""while_red"",""-"",""-"",""no_move"",5855.6,263.8,2448.7,5416.1,-2009.2,""while_red"",""-"",""-"",""no_move"",8791.6,3199.8,1737.3,6592.1,462.2,""smooth"",""right"",""right"",""good_move"",9839.7,1047.8,2507.4,8791.9,-1459.6,""error"",""-"",""-"",""no_move"",13871.6,4031.6,2644.1,10842.4,385.1,""smooth"",""right"",""right"",""good_move"",24535.8,10663.8,2642.7,21522.4,370.8,""smooth"",""up"",""up"",""good_move"",27514.3,2978.1,1945.2,24536.2,1032.9,""smooth"",""up"",""up"",""good_move"",30514.6,2999.9,2600,27514.7,399.9,""while_blue"",""up"",""left"",""bad_move"",37103.9,6588.8,2359.8,34230.8,513.3,""smooth"",""up"",""up"",""good_move"",39905.1,2801,2320,37104.2,481,""smooth"",""right"",""right"",""good_move""]","","",""
"20696","","","","instructions","22","851542","0.0-8.0-2.0","101","1","2025-07-09 09:07:57","7701e855f2ef39aa3fd6c71abdc6918a","157.51.195.177","Mozilla/5.0 (Windows NT 10.0; Win64; x64) AppleWebKit/537.36 (KHTML, like Gecko) Chrome/138.0.0.0 Safari/537.36","WebKit","Chrome","138.0.0.0","Windows","10.0","https://app.prolific.com/","en-US,en;q=0.9,ta;q=0.8,hi;q=0.7","663378460f834e9670d1508c","686d226cabeef709c732f8e1","686e313eaf7fea6535a07c4a","663378460f834e9670d1508c","","[{""page_index"":0,""viewing_time"":20696}]","","","","","","","","","","","","","","","","","","","","","","","","","","","","","","","","","","","","","","","","","","","",""
"","","","","ctl-task-cpt","23","920690","0.0-8.0-3.0","101","1","2025-07-09 09:07:57","7701e855f2ef39aa3fd6c71abdc6918a","157.51.195.177","Mozilla/5.0 (Windows NT 10.0; Win64; x64) AppleWebKit/537.36 (KHTML, like Gecko) Chrome/138.0.0.0 Safari/537.36","WebKit","Chrome","138.0.0.0","Windows","10.0","https://app.prolific.com/","en-US,en;q=0.9,ta;q=0.8,hi;q=0.7","663378460f834e9670d1508c","686d226cabeef709c732f8e1","686e313eaf7fea6535a07c4a","663378460f834e9670d1508c","","","","","","","","","","","","","","","","","win-only","3","g1:SW,g2:NE","0.35","0","3","857234.8","2775.6","6776.8","66125.8","2","4","8","6","1","-2","-2","0","0","0","1080","4000","-2090","[""down"",""left""]","{""num_key_presses"":10,""num_perfect"":4,""num_errors"":0,""num_randdir"":6,""num_randdir_good_moves"":1,""num_whilered"":0,""num_whileblue"":0,""num_blue"":8,""num_good_moves"":5}","[419.0714133126395,416.57142761775424,0.2,419.0714133126395,416.57142761775424,100.9,419.0714133126395,416.57142761775424,209.6,419.0714133126395,416.57142761775424,309.7,419.0714133126395,416.57142761775424,409.7,407.8214133126395,431.57142761775424,510,234.0714133126395,605.3214276177542,610,179.0714133126395,702.8214276177542,710,162.8214133126395,724.0714276177542,814.9,77.8214133126395,746.5714276177542,915.4,75.3214133126395,751.5714276177542,1016.8,75.3214133126395,751.5714276177542,1120.9,75.3214133126395,751.5714276177542,1227.3,75.3214133126395,751.5714276177542,1331.8,75.3214133126395,751.5714276177542,1437.1,75.3214133126395,751.5714276177542,1546.5,75.3214133126395,751.5714276177542,1647.2,81.5714133126395,711.5714276177542,1748.8,87.8214133126395,699.0714276177542,1850,89.0714133126395,696.5714276177542,1953.5,91.5714133126395,692.8214276177542,2060.3,91.5714133126395,691.5714276177542,2165.9,91.5714133126395,691.5714276177542,2275.9,91.5714133126395,691.5714276177542,2376,91.5714133126395,691.5714276177542,2481,119.0714133126395,665.3214276177542,2585.4,145.3214133126395,654.0714276177542,2693.1,167.8214133126395,650.3214276177542,2793.5,179.0714133126395,636.5714276177542,2893.5,197.8214133126395,619.0714276177542,2997.3,197.8214133126395,619.0714276177542,3100.9,197.8214133126395,619.0714276177542,3209.1,197.8214133126395,619.0714276177542,3310,197.8214133126395,619.0714276177542,3414.8,197.8214133126395,619.0714276177542,3514.9,197.8214133126395,619.0714276177542,3615.3,197.8214133126395,619.0714276177542,3725.6,197.8214133126395,619.0714276177542,3825.9,197.8214133126395,619.0714276177542,3931.6]","[4423.9,4423.9,2036.8,2008.4,378.7,""smooth"",""down"",""down"",""good_move"",14508.3,10084,3389,10663.4,455.9,""smooth"",""down"",""down"",""good_move"",21126.8,6618.1,2714.5,17956.4,455.9,""oops"",""left"",""right"",""bad_move"",24206.8,3079.7,2452.5,21127.1,627.2,""oops"",""left"",""right"",""bad_move"",27846.1,3638.9,3084.8,24207.2,554.1,""oops"",""right"",""right"",""bad_move"",40310.4,12464,2156.8,37657.7,495.9,""oops"",""left"",""left"",""good_move"",43197.7,2886.9,2353.7,40310.8,533.2,""oops"",""left"",""up"",""bad_move"",45806.3,2608.2,1955.5,43198.1,652.7,""oops"",""left"",""up"",""bad_move"",52494.4,6687.9,2635,49407,452.4,""smooth"",""down"",""down"",""good_move"",55420.3,2925.6,2354.9,52494.7,570.7,""smooth"",""down"",""down"",""good_move""]","","",""
"45923","","","","instructions","24","966614","0.0-8.0-4.0","101","1","2025-07-09 09:07:57","7701e855f2ef39aa3fd6c71abdc6918a","157.51.195.177","Mozilla/5.0 (Windows NT 10.0; Win64; x64) AppleWebKit/537.36 (KHTML, like Gecko) Chrome/138.0.0.0 Safari/537.36","WebKit","Chrome","138.0.0.0","Windows","10.0","https://app.prolific.com/","en-US,en;q=0.9,ta;q=0.8,hi;q=0.7","663378460f834e9670d1508c","686d226cabeef709c732f8e1","686e313eaf7fea6535a07c4a","663378460f834e9670d1508c","","[{""page_index"":0,""viewing_time"":11331},{""page_index"":1,""viewing_time"":34592}]","","","","","","","","","","","","","","","","","","","","","","","","","","","","","","","","","","","","","","","","","","","",""
"13884","","","{""green_ball"":[""Ball always moves in the direction I press""]}","survey-multi-select","25","980542","0.0-8.0-5.0-0.0","101","1","2025-07-09 09:07:57","7701e855f2ef39aa3fd6c71abdc6918a","157.51.195.177","Mozilla/5.0 (Windows NT 10.0; Win64; x64) AppleWebKit/537.36 (KHTML, like Gecko) Chrome/138.0.0.0 Safari/537.36","WebKit","Chrome","138.0.0.0","Windows","10.0","https://app.prolific.com/","en-US,en;q=0.9,ta;q=0.8,hi;q=0.7","663378460f834e9670d1508c","686d226cabeef709c732f8e1","686e313eaf7fea6535a07c4a","663378460f834e9670d1508c","","","[0]","","","","quiz","","","","","","","","","","","","","","","","","","","","","","","","","","","","","","","","","","","","","false","",""
"5028","","<p align='center'><b>INCORRECT.</b> Usually the green ball moves in the indicated direction, but sometimes it shakes and moves randomly. </p>","0","html-button-response","26","985615","0.0-8.0-5.0-1.0","101","1","2025-07-09 09:07:57","7701e855f2ef39aa3fd6c71abdc6918a","157.51.195.177","Mozilla/5.0 (Windows NT 10.0; Win64; x64) AppleWebKit/537.36 (KHTML, like Gecko) Chrome/138.0.0.0 Safari/537.36","WebKit","Chrome","138.0.0.0","Windows","10.0","https://app.prolific.com/","en-US,en;q=0.9,ta;q=0.8,hi;q=0.7","663378460f834e9670d1508c","686d226cabeef709c732f8e1","686e313eaf7fea6535a07c4a","663378460f834e9670d1508c","","","","","","","","","","","","","","","","","","","","","","","","","","","","","","","","","","","","","","","","","","","","","",""
"6502","","","{""green_ball"":[""Ball sometimes shakes and moves in a random direction""]}","survey-multi-select","27","992119","0.0-8.0-5.1-0.1","101","1","2025-07-09 09:07:57","7701e855f2ef39aa3fd6c71abdc6918a","157.51.195.177","Mozilla/5.0 (Windows NT 10.0; Win64; x64) AppleWebKit/537.36 (KHTML, like Gecko) Chrome/138.0.0.0 Safari/537.36","WebKit","Chrome","138.0.0.0","Windows","10.0","https://app.prolific.com/","en-US,en;q=0.9,ta;q=0.8,hi;q=0.7","663378460f834e9670d1508c","686d226cabeef709c732f8e1","686e313eaf7fea6535a07c4a","663378460f834e9670d1508c","","","[0]","","","","quiz","","","","","","","","","","","","","","","","","","","","","","","","","","","","","","","","","","","","","true","",""
"2422","","<p align='center'><b>CORRECT!</b> Indeed, the green ball may sometimes shake and move in a random direction.</p>","0","html-button-response","28","994542","0.0-8.0-5.1-1.1","101","1","2025-07-09 09:07:57","7701e855f2ef39aa3fd6c71abdc6918a","157.51.195.177","Mozilla/5.0 (Windows NT 10.0; Win64; x64) AppleWebKit/537.36 (KHTML, like Gecko) Chrome/138.0.0.0 Safari/537.36","WebKit","Chrome","138.0.0.0","Windows","10.0","https://app.prolific.com/","en-US,en;q=0.9,ta;q=0.8,hi;q=0.7","663378460f834e9670d1508c","686d226cabeef709c732f8e1","686e313eaf7fea6535a07c4a","663378460f834e9670d1508c","","","","","","","","","","","","","","","","","","","","","","","","","","","","","","","","","","","","","","","","","","","","","",""
"22655","","","{""yellow_ball"":[""Ball doesn‘t move and I get -1 penalty point""]}","survey-multi-select","29","1017199","0.0-8.0-6.0-0.0","101","1","2025-07-09 09:07:57","7701e855f2ef39aa3fd6c71abdc6918a","157.51.195.177","Mozilla/5.0 (Windows NT 10.0; Win64; x64) AppleWebKit/537.36 (KHTML, like Gecko) Chrome/138.0.0.0 Safari/537.36","WebKit","Chrome","138.0.0.0","Windows","10.0","https://app.prolific.com/","en-US,en;q=0.9,ta;q=0.8,hi;q=0.7","663378460f834e9670d1508c","686d226cabeef709c732f8e1","686e313eaf7fea6535a07c4a","663378460f834e9670d1508c","","","[0]","","","","quiz","","","","","","","","","","","","","","","","","","","","","","","","","","","","","","","","","","","","","true","",""
"1853","","<p align='center'><b>CORRECT!</b> Indeed, the yellow ball never moves and you receive a penalty.</p>","0","html-button-response","30","1019054","0.0-8.0-6.0-1.0","101","1","2025-07-09 09:07:57","7701e855f2ef39aa3fd6c71abdc6918a","157.51.195.177","Mozilla/5.0 (Windows NT 10.0; Win64; x64) AppleWebKit/537.36 (KHTML, like Gecko) Chrome/138.0.0.0 Safari/537.36","WebKit","Chrome","138.0.0.0","Windows","10.0","https://app.prolific.com/","en-US,en;q=0.9,ta;q=0.8,hi;q=0.7","663378460f834e9670d1508c","686d226cabeef709c732f8e1","686e313eaf7fea6535a07c4a","663378460f834e9670d1508c","","","","","","","","","","","","","","","","","","","","","","","","","","","","","","","","","","","","","","","","","","","","","",""
"5471","","","{""blue_ball"":[""Ball always shakes and moves in a random direction""]}","survey-multi-select","31","1024527","0.0-8.0-7.0-0.0","101","1","2025-07-09 09:07:57","7701e855f2ef39aa3fd6c71abdc6918a","157.51.195.177","Mozilla/5.0 (Windows NT 10.0; Win64; x64) AppleWebKit/537.36 (KHTML, like Gecko) Chrome/138.0.0.0 Safari/537.36","WebKit","Chrome","138.0.0.0","Windows","10.0","https://app.prolific.com/","en-US,en;q=0.9,ta;q=0.8,hi;q=0.7","663378460f834e9670d1508c","686d226cabeef709c732f8e1","686e313eaf7fea6535a07c4a","663378460f834e9670d1508c","","","[0]","","","","quiz","","","","","","","","","","","","","","","","","","","","","","","","","","","","","","","","","","","","","true","",""
"2158","","<p align='center'><b>CORRECT!</b> Indeed, the blue ball always shakes and moves in a random direction. Also there is a penalty of -1 point.</p>","0","html-button-response","32","1026686","0.0-8.0-7.0-1.0","101","1","2025-07-09 09:07:57","7701e855f2ef39aa3fd6c71abdc6918a","157.51.195.177","Mozilla/5.0 (Windows NT 10.0; Win64; x64) AppleWebKit/537.36 (KHTML, like Gecko) Chrome/138.0.0.0 Safari/537.36","WebKit","Chrome","138.0.0.0","Windows","10.0","https://app.prolific.com/","en-US,en;q=0.9,ta;q=0.8,hi;q=0.7","663378460f834e9670d1508c","686d226cabeef709c732f8e1","686e313eaf7fea6535a07c4a","663378460f834e9670d1508c","","","","","","","","","","","","","","","","","","","","","","","","","","","","","","","","","","","","","","","","","","","","","",""
"6927","","","{""bonus"":[""When I reach 50% of points""]}","survey-multi-select","33","1033614","0.0-8.0-8.0-0.0","101","1","2025-07-09 09:07:57","7701e855f2ef39aa3fd6c71abdc6918a","157.51.195.177","Mozilla/5.0 (Windows NT 10.0; Win64; x64) AppleWebKit/537.36 (KHTML, like Gecko) Chrome/138.0.0.0 Safari/537.36","WebKit","Chrome","138.0.0.0","Windows","10.0","https://app.prolific.com/","en-US,en;q=0.9,ta;q=0.8,hi;q=0.7","663378460f834e9670d1508c","686d226cabeef709c732f8e1","686e313eaf7fea6535a07c4a","663378460f834e9670d1508c","","","[0]","","","","quiz","","","","","","","","","","","","","","","","","","","","","","","","","","","","","","","","","","","","","true","",""
"1375","","<p align='center'><b>CORRECT!</b> Indeed, you receive 2 pounds extra when you reach 50% of points.</p>","0","html-button-response","34","1034991","0.0-8.0-8.0-1.0","101","1","2025-07-09 09:07:57","7701e855f2ef39aa3fd6c71abdc6918a","157.51.195.177","Mozilla/5.0 (Windows NT 10.0; Win64; x64) AppleWebKit/537.36 (KHTML, like Gecko) Chrome/138.0.0.0 Safari/537.36","WebKit","Chrome","138.0.0.0","Windows","10.0","https://app.prolific.com/","en-US,en;q=0.9,ta;q=0.8,hi;q=0.7","663378460f834e9670d1508c","686d226cabeef709c732f8e1","686e313eaf7fea6535a07c4a","663378460f834e9670d1508c","","","","","","","","","","","","","","","","","","","","","","","","","","","","","","","","","","","","","","","","","","","","","",""
"5735","","","","instructions","35","1040727","0.0-8.0-9.0","101","1","2025-07-09 09:07:57","7701e855f2ef39aa3fd6c71abdc6918a","157.51.195.177","Mozilla/5.0 (Windows NT 10.0; Win64; x64) AppleWebKit/537.36 (KHTML, like Gecko) Chrome/138.0.0.0 Safari/537.36","WebKit","Chrome","138.0.0.0","Windows","10.0","https://app.prolific.com/","en-US,en;q=0.9,ta;q=0.8,hi;q=0.7","663378460f834e9670d1508c","686d226cabeef709c732f8e1","686e313eaf7fea6535a07c4a","663378460f834e9670d1508c","","[{""page_index"":0,""viewing_time"":5734}]","","","","","","","","","","","","","","","","","","","","","","","","","","","","","","","","","","","","","","","","","","","",""
"19570","","<p>Before you start with this game please answer the following three questions yourself. </p>
  <p>Through this game, we measure several aspects of your cognitive performance, such as reaction times, multi-tasking capabilities </p>
  <p>and the ability to assess the situation you are in.</p>
  <p></p>
  <p><b>How good do you usually are in such tasks?</b></p>","70","html-slider-response","36","1060385","0.0-9.0-0.0","101","1","2025-07-09 09:07:57","7701e855f2ef39aa3fd6c71abdc6918a","157.51.195.177","Mozilla/5.0 (Windows NT 10.0; Win64; x64) AppleWebKit/537.36 (KHTML, like Gecko) Chrome/138.0.0.0 Safari/537.36","WebKit","Chrome","138.0.0.0","Windows","10.0","https://app.prolific.com/","en-US,en;q=0.9,ta;q=0.8,hi;q=0.7","663378460f834e9670d1508c","686d226cabeef709c732f8e1","686e313eaf7fea6535a07c4a","663378460f834e9670d1508c","2025-07-09T09:25:41.288Z","","","","","","PreSkillQ","","","","","","","","","","","","","","","","","","","","","","","","","","","","","","","","","","","","","","50",""
"7844","","<div style=""width:500px;"">
  <p>How well do you think you will perform in this task compared to other participants?</p>
  </div>","61","html-slider-response","37","1068230","0.0-9.0-1.0","101","1","2025-07-09 09:07:57","7701e855f2ef39aa3fd6c71abdc6918a","157.51.195.177","Mozilla/5.0 (Windows NT 10.0; Win64; x64) AppleWebKit/537.36 (KHTML, like Gecko) Chrome/138.0.0.0 Safari/537.36","WebKit","Chrome","138.0.0.0","Windows","10.0","https://app.prolific.com/","en-US,en;q=0.9,ta;q=0.8,hi;q=0.7","663378460f834e9670d1508c","686d226cabeef709c732f8e1","686e313eaf7fea6535a07c4a","663378460f834e9670d1508c","2025-07-09T09:25:49.133Z","","","","","","PrePerfQ","","","","","","","","","","","","","","","","","","","","","","","","","","","","","","","","","","","","","","50",""
"8055","","<div style=""width:500px;"">
  <p>What best describes how you currently feel?</p>
  </div>","27","html-slider-response","38","1076286","0.0-9.0-2.0","101","1","2025-07-09 09:07:57","7701e855f2ef39aa3fd6c71abdc6918a","157.51.195.177","Mozilla/5.0 (Windows NT 10.0; Win64; x64) AppleWebKit/537.36 (KHTML, like Gecko) Chrome/138.0.0.0 Safari/537.36","WebKit","Chrome","138.0.0.0","Windows","10.0","https://app.prolific.com/","en-US,en;q=0.9,ta;q=0.8,hi;q=0.7","663378460f834e9670d1508c","686d226cabeef709c732f8e1","686e313eaf7fea6535a07c4a","663378460f834e9670d1508c","2025-07-09T09:25:57.189Z","","","","","","PreMotivationQ","","","","","","","","","","","","","","","","","","","","","","","","","","","","","","","","","","","","","","50",""
"","","","","ctl-task-cpt","39","1103559","0.0-10.0-0.0","101","1","2025-07-09 09:07:57","7701e855f2ef39aa3fd6c71abdc6918a","157.51.195.177","Mozilla/5.0 (Windows NT 10.0; Win64; x64) AppleWebKit/537.36 (KHTML, like Gecko) Chrome/138.0.0.0 Safari/537.36","WebKit","Chrome","138.0.0.0","Windows","10.0","https://app.prolific.com/","en-US,en;q=0.9,ta;q=0.8,hi;q=0.7","663378460f834e9670d1508c","686d226cabeef709c732f8e1","686e313eaf7fea6535a07c4a","663378460f834e9670d1508c","2025-07-09T09:26:24.462Z","","","","","","","","","","","","","","","","win-only","3","g1:SW,g2:NE","1","1","0","1081980.6","4319.4","9321","24255.5","1","4","8","6","2","8","8","8","0","0.06060606060606061","918.6","3000","950","[""up"",""right""]","{""num_key_presses"":6,""num_perfect"":6,""num_errors"":0,""num_randdir"":0,""num_randdir_good_moves"":0,""num_whilered"":0,""num_whileblue"":0,""num_blue"":0,""num_good_moves"":6}","[421.5714133126395,416.57142761775424,0.3,421.5714133126395,416.57142761775424,103,421.5714133126395,417.82142761775424,203.1,525.3214133126395,371.57142761775424,303.4,826.5714133126395,147.82142761775424,405.8,802.8214133126395,121.57142761775425,508.6,704.0714133126395,121.57142761775425,611.9,712.8214133126395,117.82142761775425,712.5,737.8214133126395,116.57142761775425,816.6,745.3214133126395,112.82142761775425,965.1,745.3214133126395,112.82142761775425,1066.9,745.3214133126395,112.82142761775425,1167.8,745.3214133126395,112.82142761775425,1272,745.3214133126395,112.82142761775425,1382.1,745.3214133126395,112.82142761775425,1486,745.3214133126395,112.82142761775425,1590.9,745.3214133126395,112.82142761775425,1692.5,745.3214133126395,112.82142761775425,1800.9,742.8214133126395,121.57142761775425,1902.8,742.8214133126395,121.57142761775425,2007.7,742.8214133126395,121.57142761775425,2112.8,742.8214133126395,121.57142761775425,2216.8,742.8214133126395,121.57142761775425,2321.1,742.8214133126395,121.57142761775425,2430.7,742.8214133126395,121.57142761775425,2532.5,742.8214133126395,121.57142761775425,2637.4,742.8214133126395,121.57142761775425,2743.1,742.8214133126395,121.57142761775425,2846.5,742.8214133126395,121.57142761775425,2952.4,742.8214133126395,121.57142761775425,3057.1,742.8214133126395,121.57142761775425,3163.2,742.8214133126395,121.57142761775425,3264.7,742.8214133126395,121.57142761775425,3367,742.8214133126395,121.57142761775425,3471.5,742.8214133126395,121.57142761775425,3571.6,742.8214133126395,121.57142761775425,3681.9,742.8214133126395,121.57142761775425,3785.9,742.8214133126395,121.57142761775425,3886,742.8214133126395,121.57142761775425,3986.4,742.8214133126395,121.57142761775425,4096.1,742.8214133126395,121.57142761775425,4200.8,742.8214133126395,121.57142761775425,4301.6,742.8214133126395,121.57142761775425,4409,742.8214133126395,121.57142761775425,4512.5,742.8214133126395,121.57142761775425,4615.9,742.8214133126395,121.57142761775425,4722.5,742.8214133126395,121.57142761775425,4826.5,742.8214133126395,121.57142761775425,4926.6]","[1459.8,1459.8,1000,0,459.8,""smooth"",""right"",""right"",""good_move"",4514.5,3054.4,2480.1,1460.1,574.3,""smooth"",""up"",""up"",""good_move"",6963.7,2448.8,1955.8,4514.9,493,""smooth"",""up"",""up"",""good_move"",9499.8,2535.8,2119.4,6964,416.4,""smooth"",""up"",""up"",""good_move"",12211.7,2711.4,2334.6,9500.3,376.8,""smooth"",""right"",""right"",""good_move"",14820.6,2608.6,2216.7,12212,391.9,""smooth"",""right"",""right"",""good_move""]","","",""
"6637","","<div style=""width:500px;"">
  <p>What determined the result of this run?</p>
  </div>","79","html-slider-response","40","1110198","0.0-10.0-1.0","101","1","2025-07-09 09:07:57","7701e855f2ef39aa3fd6c71abdc6918a","157.51.195.177","Mozilla/5.0 (Windows NT 10.0; Win64; x64) AppleWebKit/537.36 (KHTML, like Gecko) Chrome/138.0.0.0 Safari/537.36","WebKit","Chrome","138.0.0.0","Windows","10.0","https://app.prolific.com/","en-US,en;q=0.9,ta;q=0.8,hi;q=0.7","663378460f834e9670d1508c","686d226cabeef709c732f8e1","686e313eaf7fea6535a07c4a","663378460f834e9670d1508c","2025-07-09T09:26:31.101Z","","","","","","AttribQ","","","","","","","","","","","","","","","","","","","","","","","","","","","","","","","","","","","","","","50",""
"3735","","<div style=""width:500px;"">
  <p>How much control did you have over the ball?</p>
  </div>","100","html-slider-response","41","1113934","0.0-10.0-2.0","101","1","2025-07-09 09:07:57","7701e855f2ef39aa3fd6c71abdc6918a","157.51.195.177","Mozilla/5.0 (Windows NT 10.0; Win64; x64) AppleWebKit/537.36 (KHTML, like Gecko) Chrome/138.0.0.0 Safari/537.36","WebKit","Chrome","138.0.0.0","Windows","10.0","https://app.prolific.com/","en-US,en;q=0.9,ta;q=0.8,hi;q=0.7","663378460f834e9670d1508c","686d226cabeef709c732f8e1","686e313eaf7fea6535a07c4a","663378460f834e9670d1508c","2025-07-09T09:26:34.837Z","","","","","","ControlQ","","","","","","","","","","","","","","","","","","","","","","","","","","","","","","","","","","","","","","50",""
"8855","","<div style=""width:500px;"">
  <p>How would you describe your current emotional state?</p>
  </div>","0","html-slider-response","42","1122790","0.0-10.0-3.0","101","1","2025-07-09 09:07:57","7701e855f2ef39aa3fd6c71abdc6918a","157.51.195.177","Mozilla/5.0 (Windows NT 10.0; Win64; x64) AppleWebKit/537.36 (KHTML, like Gecko) Chrome/138.0.0.0 Safari/537.36","WebKit","Chrome","138.0.0.0","Windows","10.0","https://app.prolific.com/","en-US,en;q=0.9,ta;q=0.8,hi;q=0.7","663378460f834e9670d1508c","686d226cabeef709c732f8e1","686e313eaf7fea6535a07c4a","663378460f834e9670d1508c","2025-07-09T09:26:43.693Z","","","","","","StressQ","","","","","","","","","","","","","","","","","","","","","","","","","","","","","","","","","","","","","","50",""
"11103","","<div style=""width:500px;"">
  <p>What best describes how you currently feel?</p>
  </div>","44","html-slider-response","43","1133894","0.0-10.0-4.0","101","1","2025-07-09 09:07:57","7701e855f2ef39aa3fd6c71abdc6918a","157.51.195.177","Mozilla/5.0 (Windows NT 10.0; Win64; x64) AppleWebKit/537.36 (KHTML, like Gecko) Chrome/138.0.0.0 Safari/537.36","WebKit","Chrome","138.0.0.0","Windows","10.0","https://app.prolific.com/","en-US,en;q=0.9,ta;q=0.8,hi;q=0.7","663378460f834e9670d1508c","686d226cabeef709c732f8e1","686e313eaf7fea6535a07c4a","663378460f834e9670d1508c","2025-07-09T09:26:54.797Z","","","","","","MotivationQ","","","","","","","","","","","","","","","","","","","","","","","","","","","","","","","","","","","","","","50",""
"","","","","ctl-task-cpt","44","1163130","0.0-10.0-0.1","101","1","2025-07-09 09:07:57","7701e855f2ef39aa3fd6c71abdc6918a","157.51.195.177","Mozilla/5.0 (Windows NT 10.0; Win64; x64) AppleWebKit/537.36 (KHTML, like Gecko) Chrome/138.0.0.0 Safari/537.36","WebKit","Chrome","138.0.0.0","Windows","10.0","https://app.prolific.com/","en-US,en;q=0.9,ta;q=0.8,hi;q=0.7","663378460f834e9670d1508c","686d226cabeef709c732f8e1","686e313eaf7fea6535a07c4a","663378460f834e9670d1508c","2025-07-09T09:27:24.033Z","","","","","","","","","","","","","","","","win-only","2","g1:SE,g2:NW","0.9","2","0","1139589.9","3109.5","8111.5","26218.5","1","4","4","6","2","4","4","12","8","0.09090909090909091","1184.6","3000","1285","[""left"",""up""]","{""num_key_presses"":6,""num_perfect"":5,""num_errors"":0,""num_randdir"":1,""num_randdir_good_moves"":1,""num_whilered"":0,""num_whileblue"":0,""num_blue"":1,""num_good_moves"":6}","[412.8214133126395,422.82142761775424,0.4,412.8214133126395,422.82142761775424,102.9,422.8214133126395,406.57142761775424,203.5,522.8214133126395,317.82142761775424,307.2,162.8214133126395,167.82142761775424,412.9,-23.428586687360493,134.07142761775424,513.4,21.571413312639507,141.57142761775424,618.2,94.0714133126395,136.57142761775424,721.1,82.8214133126395,111.57142761775425,827.2,76.5714133126395,111.57142761775425,927.9,74.0714133126395,110.32142761775425,1033.5,74.0714133126395,110.32142761775425,1137.6,74.0714133126395,110.32142761775425,1237.8,74.0714133126395,110.32142761775425,1341.9,132.8214133126395,171.57142761775424,1446.8,326.5714133126395,396.57142761775424,1547.2,344.0714133126395,425.32142761775424,1653.4,344.0714133126395,425.32142761775424,1757.5,344.0714133126395,425.32142761775424,1862.3,344.0714133126395,425.32142761775424,1967.4,344.0714133126395,425.32142761775424,2072.1,344.0714133126395,425.32142761775424,2177.2,344.0714133126395,425.32142761775424,2283.3,344.0714133126395,425.32142761775424,2385,344.0714133126395,425.32142761775424,2488.2,344.0714133126395,425.32142761775424,2592.1,344.0714133126395,425.32142761775424,2698.2,344.0714133126395,425.32142761775424,2799.1,344.0714133126395,425.32142761775424,2899.2,344.0714133126395,425.32142761775424,3001.6,344.0714133126395,425.32142761775424,3106.4,344.0714133126395,425.32142761775424,3207.2,344.0714133126395,425.32142761775424,3307.3,344.0714133126395,425.32142761775424,3410.9,344.0714133126395,425.32142761775424,3520.1,344.0714133126395,425.32142761775424,3622.9,344.0714133126395,425.32142761775424,3723.6,344.0714133126395,425.32142761775424,3833.1,344.0714133126395,425.32142761775424,3935.8,344.0714133126395,425.32142761775424,4045.4,344.0714133126395,425.32142761775424,4149.2,344.0714133126395,425.32142761775424,4253.5,344.0714133126395,425.32142761775424,4370.5,344.0714133126395,425.32142761775424,4472.4,344.0714133126395,425.32142761775424,4572.5,344.0714133126395,425.32142761775424,4677.1,344.0714133126395,425.32142761775424,4782.3,344.0714133126395,425.32142761775424,4882.9,344.0714133126395,425.32142761775424,4985.8]","[1517.1,1517.1,1000,0,517.1,""smooth"",""up"",""up"",""good_move"",4567.8,3050.3,2634.1,1517.5,416.2,""smooth"",""up"",""up"",""good_move"",7668.6,3097.6,2707.5,4571.2,390,""smooth"",""up"",""up"",""good_move"",12547.9,4878.4,1760.4,10397.6,389.9,""smooth"",""left"",""left"",""good_move"",15508,2959.6,2614.5,12548.4,345.1,""oops"",""left"",""left"",""good_move"",17981.9,2473.4,1988,15508.5,485.4,""smooth"",""left"",""left"",""good_move""]","","",""
"4636","","<div style=""width:500px;"">
  <p>What determined the result of this run?</p>
  </div>","94","html-slider-response","45","1167767","0.0-10.0-1.1","101","1","2025-07-09 09:07:57","7701e855f2ef39aa3fd6c71abdc6918a","157.51.195.177","Mozilla/5.0 (Windows NT 10.0; Win64; x64) AppleWebKit/537.36 (KHTML, like Gecko) Chrome/138.0.0.0 Safari/537.36","WebKit","Chrome","138.0.0.0","Windows","10.0","https://app.prolific.com/","en-US,en;q=0.9,ta;q=0.8,hi;q=0.7","663378460f834e9670d1508c","686d226cabeef709c732f8e1","686e313eaf7fea6535a07c4a","663378460f834e9670d1508c","2025-07-09T09:27:28.670Z","","","","","","AttribQ","","","","","","","","","","","","","","","","","","","","","","","","","","","","","","","","","","","","","","50",""
"4518","","<div style=""width:500px;"">
  <p>How much control did you have over the ball?</p>
  </div>","100","html-slider-response","46","1172286","0.0-10.0-2.1","101","1","2025-07-09 09:07:57","7701e855f2ef39aa3fd6c71abdc6918a","157.51.195.177","Mozilla/5.0 (Windows NT 10.0; Win64; x64) AppleWebKit/537.36 (KHTML, like Gecko) Chrome/138.0.0.0 Safari/537.36","WebKit","Chrome","138.0.0.0","Windows","10.0","https://app.prolific.com/","en-US,en;q=0.9,ta;q=0.8,hi;q=0.7","663378460f834e9670d1508c","686d226cabeef709c732f8e1","686e313eaf7fea6535a07c4a","663378460f834e9670d1508c","2025-07-09T09:27:33.189Z","","","","","","ControlQ","","","","","","","","","","","","","","","","","","","","","","","","","","","","","","","","","","","","","","50",""
"4391","","<div style=""width:500px;"">
  <p>How would you describe your current emotional state?</p>
  </div>","0","html-slider-response","47","1176678","0.0-10.0-3.1","101","1","2025-07-09 09:07:57","7701e855f2ef39aa3fd6c71abdc6918a","157.51.195.177","Mozilla/5.0 (Windows NT 10.0; Win64; x64) AppleWebKit/537.36 (KHTML, like Gecko) Chrome/138.0.0.0 Safari/537.36","WebKit","Chrome","138.0.0.0","Windows","10.0","https://app.prolific.com/","en-US,en;q=0.9,ta;q=0.8,hi;q=0.7","663378460f834e9670d1508c","686d226cabeef709c732f8e1","686e313eaf7fea6535a07c4a","663378460f834e9670d1508c","2025-07-09T09:27:37.581Z","","","","","","StressQ","","","","","","","","","","","","","","","","","","","","","","","","","","","","","","","","","","","","","","50",""
"5799","","<div style=""width:500px;"">
  <p>What best describes how you currently feel?</p>
  </div>","60","html-slider-response","48","1182477","0.0-10.0-4.1","101","1","2025-07-09 09:07:57","7701e855f2ef39aa3fd6c71abdc6918a","157.51.195.177","Mozilla/5.0 (Windows NT 10.0; Win64; x64) AppleWebKit/537.36 (KHTML, like Gecko) Chrome/138.0.0.0 Safari/537.36","WebKit","Chrome","138.0.0.0","Windows","10.0","https://app.prolific.com/","en-US,en;q=0.9,ta;q=0.8,hi;q=0.7","663378460f834e9670d1508c","686d226cabeef709c732f8e1","686e313eaf7fea6535a07c4a","663378460f834e9670d1508c","2025-07-09T09:27:43.381Z","","","","","","MotivationQ","","","","","","","","","","","","","","","","","","","","","","","","","","","","","","","","","","","","","","50",""
"","","","","ctl-task-cpt","49","1237679","0.0-10.0-0.2","101","1","2025-07-09 09:07:57","7701e855f2ef39aa3fd6c71abdc6918a","157.51.195.177","Mozilla/5.0 (Windows NT 10.0; Win64; x64) AppleWebKit/537.36 (KHTML, like Gecko) Chrome/138.0.0.0 Safari/537.36","WebKit","Chrome","138.0.0.0","Windows","10.0","https://app.prolific.com/","en-US,en;q=0.9,ta;q=0.8,hi;q=0.7","663378460f834e9670d1508c","686d226cabeef709c732f8e1","686e313eaf7fea6535a07c4a","663378460f834e9670d1508c","2025-07-09T09:28:38.582Z","","","","","","","","","","","","","","","","win-only","3","g1:SW,g2:NE","0.8","3","0","1188171.5","3582.5","8599.6","52181.5","1","4","8","6","2","8","7","19","12","0.14393939393939395","1200.7","3000","100","[""up"",""right""]","{""num_key_presses"":10,""num_perfect"":7,""num_errors"":1,""num_randdir"":2,""num_randdir_good_moves"":0,""num_whilered"":0,""num_whileblue"":1,""num_blue"":5,""num_good_moves"":8}","[421.5714133126395,416.57142761775424,0.4,421.5714133126395,416.57142761775424,104.9,421.5714133126395,416.57142761775424,208.8,421.5714133126395,416.57142761775424,314.6,420.3214133126395,416.57142761775424,431.2,312.8214133126395,476.57142761775424,533,424.0714133126395,459.07142761775424,633.5,669.0714133126395,181.57142761775424,733.5,737.8214133126395,116.57142761775425,838.3,851.5714133126395,96.57142761775425,938.7,801.5714133126395,109.07142761775425,1039.6,799.0714133126395,109.07142761775425,1140,799.0714133126395,109.07142761775425,1244.1,799.0714133126395,109.07142761775425,1351.4,799.0714133126395,109.07142761775425,1455.4,799.0714133126395,109.07142761775425,1559.2,799.0714133126395,109.07142761775425,1663.2,799.0714133126395,109.07142761775425,1764,799.0714133126395,109.07142761775425,1864.7,799.0714133126395,109.07142761775425,1983.9,799.0714133126395,109.07142761775425,2088.9,799.0714133126395,109.07142761775425,2189.2,799.0714133126395,109.07142761775425,2300.4,799.0714133126395,109.07142761775425,2405.8,799.0714133126395,109.07142761775425,2509.7,799.0714133126395,109.07142761775425,2614,799.0714133126395,109.07142761775425,2714.2,799.0714133126395,109.07142761775425,2833.3,799.0714133126395,109.07142761775425,2938.3,799.0714133126395,109.07142761775425,3040.9,799.0714133126395,109.07142761775425,3144.5,799.0714133126395,109.07142761775425,3248,799.0714133126395,109.07142761775425,3366.4,799.0714133126395,109.07142761775425,3469.5,799.0714133126395,109.07142761775425,3569.5,799.0714133126395,109.07142761775425,3669.6,799.0714133126395,109.07142761775425,3773.2,799.0714133126395,109.07142761775425,3873.4,799.0714133126395,109.07142761775425,3974.2,799.0714133126395,109.07142761775425,4079.6,799.0714133126395,109.07142761775425,4184.6,799.0714133126395,109.07142761775425,4299.9,799.0714133126395,109.07142761775425,4404.9,799.0714133126395,109.07142761775425,4516.2,799.0714133126395,109.07142761775425,4616.3,799.0714133126395,109.07142761775425,4719.7,799.0714133126395,109.07142761775425,4819.7,799.0714133126395,109.07142761775425,4924.6]","[4871.1,4871.1,2495.2,2002.8,373.1,""oops"",""up"",""left"",""bad_move"",8758.2,3886.1,3263.1,4872.1,623,""smooth"",""up"",""up"",""good_move"",11814,3055.4,2553.8,8758.6,501.6,""smooth"",""right"",""right"",""good_move"",18082.2,6267.7,2666.1,14907.7,508.4,""smooth"",""right"",""right"",""good_move"",23283.9,5199.7,1935.6,20923.4,425,""oops"",""right"",""down"",""bad_move"",27318.6,4028.7,3185.4,23289.9,843.3,""smooth"",""up"",""up"",""good_move"",30213.9,2894.1,2454.8,27319.8,439.3,""smooth"",""up"",""up"",""good_move"",36730,6515.9,2735,33663.3,331.7,""while_blue"",""up"",""right"",""good_move"",40130.4,3399.9,2859.2,36730.5,540.7,""smooth"",""up"",""up"",""good_move"",43463.3,3332.5,2969.4,40130.8,363.1,""smooth"",""right"",""right"",""good_move""]","","",""
"4980","","<div style=""width:500px;"">
  <p>What determined the result of this run?</p>
  </div>","36","html-slider-response","50","1242662","0.0-10.0-1.2","101","1","2025-07-09 09:07:57","7701e855f2ef39aa3fd6c71abdc6918a","157.51.195.177","Mozilla/5.0 (Windows NT 10.0; Win64; x64) AppleWebKit/537.36 (KHTML, like Gecko) Chrome/138.0.0.0 Safari/537.36","WebKit","Chrome","138.0.0.0","Windows","10.0","https://app.prolific.com/","en-US,en;q=0.9,ta;q=0.8,hi;q=0.7","663378460f834e9670d1508c","686d226cabeef709c732f8e1","686e313eaf7fea6535a07c4a","663378460f834e9670d1508c","2025-07-09T09:28:43.565Z","","","","","","AttribQ","","","","","","","","","","","","","","","","","","","","","","","","","","","","","","","","","","","","","","50",""
"6969","","<div style=""width:500px;"">
  <p>How much control did you have over the ball?</p>
  </div>","27","html-slider-response","51","1249633","0.0-10.0-2.2","101","1","2025-07-09 09:07:57","7701e855f2ef39aa3fd6c71abdc6918a","157.51.195.177","Mozilla/5.0 (Windows NT 10.0; Win64; x64) AppleWebKit/537.36 (KHTML, like Gecko) Chrome/138.0.0.0 Safari/537.36","WebKit","Chrome","138.0.0.0","Windows","10.0","https://app.prolific.com/","en-US,en;q=0.9,ta;q=0.8,hi;q=0.7","663378460f834e9670d1508c","686d226cabeef709c732f8e1","686e313eaf7fea6535a07c4a","663378460f834e9670d1508c","2025-07-09T09:28:50.537Z","","","","","","ControlQ","","","","","","","","","","","","","","","","","","","","","","","","","","","","","","","","","","","","","","50",""
"5698","","<div style=""width:500px;"">
  <p>How would you describe your current emotional state?</p>
  </div>","65","html-slider-response","52","1255333","0.0-10.0-3.2","101","1","2025-07-09 09:07:57","7701e855f2ef39aa3fd6c71abdc6918a","157.51.195.177","Mozilla/5.0 (Windows NT 10.0; Win64; x64) AppleWebKit/537.36 (KHTML, like Gecko) Chrome/138.0.0.0 Safari/537.36","WebKit","Chrome","138.0.0.0","Windows","10.0","https://app.prolific.com/","en-US,en;q=0.9,ta;q=0.8,hi;q=0.7","663378460f834e9670d1508c","686d226cabeef709c732f8e1","686e313eaf7fea6535a07c4a","663378460f834e9670d1508c","2025-07-09T09:28:56.237Z","","","","","","StressQ","","","","","","","","","","","","","","","","","","","","","","","","","","","","","","","","","","","","","","50",""
"5447","","<div style=""width:500px;"">
  <p>What best describes how you currently feel?</p>
  </div>","63","html-slider-response","53","1260782","0.0-10.0-4.2","101","1","2025-07-09 09:07:57","7701e855f2ef39aa3fd6c71abdc6918a","157.51.195.177","Mozilla/5.0 (Windows NT 10.0; Win64; x64) AppleWebKit/537.36 (KHTML, like Gecko) Chrome/138.0.0.0 Safari/537.36","WebKit","Chrome","138.0.0.0","Windows","10.0","https://app.prolific.com/","en-US,en;q=0.9,ta;q=0.8,hi;q=0.7","663378460f834e9670d1508c","686d226cabeef709c732f8e1","686e313eaf7fea6535a07c4a","663378460f834e9670d1508c","2025-07-09T09:29:01.685Z","","","","","","MotivationQ","","","","","","","","","","","","","","","","","","","","","","","","","","","","","","","","","","","","","","50",""
"","","","","ctl-task-cpt","54","1290516","0.0-10.0-0.3","101","1","2025-07-09 09:07:57","7701e855f2ef39aa3fd6c71abdc6918a","157.51.195.177","Mozilla/5.0 (Windows NT 10.0; Win64; x64) AppleWebKit/537.36 (KHTML, like Gecko) Chrome/138.0.0.0 Safari/537.36","WebKit","Chrome","138.0.0.0","Windows","10.0","https://app.prolific.com/","en-US,en;q=0.9,ta;q=0.8,hi;q=0.7","663378460f834e9670d1508c","686d226cabeef709c732f8e1","686e313eaf7fea6535a07c4a","663378460f834e9670d1508c","2025-07-09T09:29:31.419Z","","","","","","","","","","","","","","","","win-only","3","g1:SW,g2:NE","0.7","4","0","1266476.2","1782.5","6786.3","26717","1","4","4","6","1","1","1","20","19","0.15151515151515152","799.9","3000","2360","[""down"",""left""]","{""num_key_presses"":4,""num_perfect"":2,""num_errors"":0,""num_randdir"":2,""num_randdir_good_moves"":2,""num_whilered"":0,""num_whileblue"":0,""num_blue"":2,""num_good_moves"":4}","[419.0714133126395,421.57142761775424,0.3,419.0714133126395,421.57142761775424,112.1,420.3214133126395,421.57142761775424,228.9,392.8214133126395,469.07142761775424,333,185.3214133126395,684.0714276177542,433.1,141.5714133126395,710.3214276177542,538.7,135.3214133126395,737.8214276177542,639.5,117.8214133126395,754.0714276177542,743.9,117.8214133126395,754.0714276177542,862.2,117.8214133126395,752.8214276177542,963,117.8214133126395,752.8214276177542,1063.3,117.8214133126395,752.8214276177542,1165.1,117.8214133126395,752.8214276177542,1268.6,117.8214133126395,752.8214276177542,1370,117.8214133126395,752.8214276177542,1474.3,117.8214133126395,752.8214276177542,1593.1,117.8214133126395,752.8214276177542,1693.4,117.8214133126395,752.8214276177542,1793.7,117.8214133126395,752.8214276177542,1896.9,117.8214133126395,752.8214276177542,1999.1,117.8214133126395,752.8214276177542,2102.1,117.8214133126395,752.8214276177542,2204.2,117.8214133126395,752.8214276177542,2305.9,117.8214133126395,752.8214276177542,2411.7,117.8214133126395,752.8214276177542,2513.6,117.8214133126395,752.8214276177542,2619,117.8214133126395,752.8214276177542,2719.6,117.8214133126395,752.8214276177542,2824.6,117.8214133126395,752.8214276177542,2943.3,117.8214133126395,752.8214276177542,3044.7,117.8214133126395,752.8214276177542,3149.5,117.8214133126395,752.8214276177542,3253.3,117.8214133126395,752.8214276177542,3354,117.8214133126395,752.8214276177542,3457.8,117.8214133126395,752.8214276177542,3557.9,117.8214133126395,752.8214276177542,3658,117.8214133126395,752.8214276177542,3758.2,117.8214133126395,752.8214276177542,3858.8,117.8214133126395,752.8214276177542,3978.7,117.8214133126395,752.8214276177542,4083.9,117.8214133126395,752.8214276177542,4184.6,117.8214133126395,752.8214276177542,4287.8,117.8214133126395,752.8214276177542,4392.5,117.8214133126395,752.8214276177542,4496.6,117.8214133126395,752.8214276177542,4599.3,117.8214133126395,752.8214276177542,4702.7,117.8214133126395,752.8214276177542,4804.6,117.8214133126395,752.8214276177542,4908.3]","[4736,4736,2261.2,2010,464.8,""oops"",""down"",""left"",""good_move"",8123,3386.5,2740.4,4736.5,646.1,""smooth"",""left"",""left"",""good_move"",13223.5,5096.5,2797.8,8127,2298.7,""oops"",""down"",""down"",""good_move"",19794.9,6565.6,2756.1,16497.4,541.4,""smooth"",""down"",""down"",""good_move""]","","",""
"4896","","<div style=""width:500px;"">
  <p>What determined the result of this run?</p>
  </div>","100","html-slider-response","55","1295414","0.0-10.0-1.3","101","1","2025-07-09 09:07:57","7701e855f2ef39aa3fd6c71abdc6918a","157.51.195.177","Mozilla/5.0 (Windows NT 10.0; Win64; x64) AppleWebKit/537.36 (KHTML, like Gecko) Chrome/138.0.0.0 Safari/537.36","WebKit","Chrome","138.0.0.0","Windows","10.0","https://app.prolific.com/","en-US,en;q=0.9,ta;q=0.8,hi;q=0.7","663378460f834e9670d1508c","686d226cabeef709c732f8e1","686e313eaf7fea6535a07c4a","663378460f834e9670d1508c","2025-07-09T09:29:36.317Z","","","","","","AttribQ","","","","","","","","","","","","","","","","","","","","","","","","","","","","","","","","","","","","","","50",""
"3767","","<div style=""width:500px;"">
  <p>How much control did you have over the ball?</p>
  </div>","38","html-slider-response","56","1299182","0.0-10.0-2.3","101","1","2025-07-09 09:07:57","7701e855f2ef39aa3fd6c71abdc6918a","157.51.195.177","Mozilla/5.0 (Windows NT 10.0; Win64; x64) AppleWebKit/537.36 (KHTML, like Gecko) Chrome/138.0.0.0 Safari/537.36","WebKit","Chrome","138.0.0.0","Windows","10.0","https://app.prolific.com/","en-US,en;q=0.9,ta;q=0.8,hi;q=0.7","663378460f834e9670d1508c","686d226cabeef709c732f8e1","686e313eaf7fea6535a07c4a","663378460f834e9670d1508c","2025-07-09T09:29:40.085Z","","","","","","ControlQ","","","","","","","","","","","","","","","","","","","","","","","","","","","","","","","","","","","","","","50",""
"5191","","<div style=""width:500px;"">
  <p>How would you describe your current emotional state?</p>
  </div>","60","html-slider-response","57","1304375","0.0-10.0-3.3","101","1","2025-07-09 09:07:57","7701e855f2ef39aa3fd6c71abdc6918a","157.51.195.177","Mozilla/5.0 (Windows NT 10.0; Win64; x64) AppleWebKit/537.36 (KHTML, like Gecko) Chrome/138.0.0.0 Safari/537.36","WebKit","Chrome","138.0.0.0","Windows","10.0","https://app.prolific.com/","en-US,en;q=0.9,ta;q=0.8,hi;q=0.7","663378460f834e9670d1508c","686d226cabeef709c732f8e1","686e313eaf7fea6535a07c4a","663378460f834e9670d1508c","2025-07-09T09:29:45.278Z","","","","","","StressQ","","","","","","","","","","","","","","","","","","","","","","","","","","","","","","","","","","","","","","50",""
"3934","","<div style=""width:500px;"">
  <p>What best describes how you currently feel?</p>
  </div>","66","html-slider-response","58","1308310","0.0-10.0-4.3","101","1","2025-07-09 09:07:57","7701e855f2ef39aa3fd6c71abdc6918a","157.51.195.177","Mozilla/5.0 (Windows NT 10.0; Win64; x64) AppleWebKit/537.36 (KHTML, like Gecko) Chrome/138.0.0.0 Safari/537.36","WebKit","Chrome","138.0.0.0","Windows","10.0","https://app.prolific.com/","en-US,en;q=0.9,ta;q=0.8,hi;q=0.7","663378460f834e9670d1508c","686d226cabeef709c732f8e1","686e313eaf7fea6535a07c4a","663378460f834e9670d1508c","2025-07-09T09:29:49.213Z","","","","","","MotivationQ","","","","","","","","","","","","","","","","","","","","","","","","","","","","","","","","","","","","","","50",""
"","","","","ctl-task-cpt","59","1366651","0.0-10.0-0.4","101","1","2025-07-09 09:07:57","7701e855f2ef39aa3fd6c71abdc6918a","157.51.195.177","Mozilla/5.0 (Windows NT 10.0; Win64; x64) AppleWebKit/537.36 (KHTML, like Gecko) Chrome/138.0.0.0 Safari/537.36","WebKit","Chrome","138.0.0.0","Windows","10.0","https://app.prolific.com/","en-US,en;q=0.9,ta;q=0.8,hi;q=0.7","663378460f834e9670d1508c","686d226cabeef709c732f8e1","686e313eaf7fea6535a07c4a","663378460f834e9670d1508c","2025-07-09T09:30:47.554Z","","","","","","","","","","","","","","","","win-only","2","g1:SE,g2:NW","0.6","5","0","1314005.8","4069","9072.4","55322.1","1","4","4","6","2","-4","-4","16","20","0.12121212121212122","998.5","3000","-1905","[""left"",""up""]","{""num_key_presses"":8,""num_perfect"":4,""num_errors"":0,""num_randdir"":4,""num_randdir_good_moves"":2,""num_whilered"":0,""num_whileblue"":0,""num_blue"":7,""num_good_moves"":6}","[421.5714133126395,412.82142761775424,0.3,421.5714133126395,412.82142761775424,102.9,446.5714133126395,387.82142761775424,215.4,649.0714133126395,235.32142761775424,333.9,531.5714133126395,256.57142761775424,434.5,16.571413312639507,90.32142761775425,539.4,1.571413312639507,82.82142761775425,639.8,1.571413312639507,82.82142761775425,741.3,7.821413312639507,86.57142761775425,852.9,17.821413312639507,91.57142761775425,958.6,17.821413312639507,91.57142761775425,1066,19.071413312639507,91.57142761775425,1168.7,19.071413312639507,92.82142761775425,1273.9,26.571413312639507,104.07142761775425,1376.7,44.07141331263951,125.32142761775425,1485.2,44.07141331263951,125.32142761775425,1588,44.07141331263951,125.32142761775425,1693,44.07141331263951,125.32142761775425,1810.3,44.07141331263951,125.32142761775425,1922,44.07141331263951,125.32142761775425,2023,44.07141331263951,125.32142761775425,2127,44.07141331263951,125.32142761775425,2233.8,44.07141331263951,125.32142761775425,2341,44.07141331263951,125.32142761775425,2443.5,44.07141331263951,125.32142761775425,2548.6,44.07141331263951,125.32142761775425,2659.3,44.07141331263951,125.32142761775425,2763.8,44.07141331263951,125.32142761775425,2871,44.07141331263951,125.32142761775425,2972.2,44.07141331263951,125.32142761775425,3073.1,44.07141331263951,125.32142761775425,3178,44.07141331263951,125.32142761775425,3292.7,44.07141331263951,125.32142761775425,3394.7,44.07141331263951,125.32142761775425,3494.7,44.07141331263951,125.32142761775425,3609.4,44.07141331263951,125.32142761775425,3718.4,44.07141331263951,125.32142761775425,3824.7,44.07141331263951,125.32142761775425,3944.7,44.07141331263951,125.32142761775425,4045,44.07141331263951,125.32142761775425,4149.9,44.07141331263951,125.32142761775425,4252.5,44.07141331263951,125.32142761775425,4352.7,44.07141331263951,125.32142761775425,4454.3,44.07141331263951,125.32142761775425,4563.1,44.07141331263951,125.32142761775425,4678.9,44.07141331263951,125.32142761775425,4793.2,44.07141331263951,125.32142761775425,4896.1,44.07141331263951,125.32142761775425,4998.2]","[5227.2,5227.2,2792,2026.2,409,""oops"",""left"",""up"",""good_move"",8331.2,3103.4,2205.9,5227.8,897.5,""smooth"",""left"",""left"",""good_move"",12122.8,3791.1,3282.1,8331.7,509,""smooth"",""left"",""left"",""good_move"",14890.7,2767.7,2224.7,12123,543,""oops"",""left"",""left"",""good_move"",17984.5,3093.6,2645.9,14891,447.6,""oops"",""up"",""right"",""bad_move"",23602.8,5618,1745.1,21441.9,415.8,""smooth"",""up"",""up"",""good_move"",29038.1,5434.8,2039.5,26591.8,406.8,""oops"",""up"",""down"",""bad_move"",31322.7,2284.1,1553.8,29038.6,730.3,""smooth"",""left"",""left"",""good_move""]","","",""
"4593","","<div style=""width:500px;"">
  <p>What determined the result of this run?</p>
  </div>","0","html-slider-response","60","1371245","0.0-10.0-1.4","101","1","2025-07-09 09:07:57","7701e855f2ef39aa3fd6c71abdc6918a","157.51.195.177","Mozilla/5.0 (Windows NT 10.0; Win64; x64) AppleWebKit/537.36 (KHTML, like Gecko) Chrome/138.0.0.0 Safari/537.36","WebKit","Chrome","138.0.0.0","Windows","10.0","https://app.prolific.com/","en-US,en;q=0.9,ta;q=0.8,hi;q=0.7","663378460f834e9670d1508c","686d226cabeef709c732f8e1","686e313eaf7fea6535a07c4a","663378460f834e9670d1508c","2025-07-09T09:30:52.149Z","","","","","","AttribQ","","","","","","","","","","","","","","","","","","","","","","","","","","","","","","","","","","","","","","50",""
"3400","","<div style=""width:500px;"">
  <p>How much control did you have over the ball?</p>
  </div>","14","html-slider-response","61","1374646","0.0-10.0-2.4","101","1","2025-07-09 09:07:57","7701e855f2ef39aa3fd6c71abdc6918a","157.51.195.177","Mozilla/5.0 (Windows NT 10.0; Win64; x64) AppleWebKit/537.36 (KHTML, like Gecko) Chrome/138.0.0.0 Safari/537.36","WebKit","Chrome","138.0.0.0","Windows","10.0","https://app.prolific.com/","en-US,en;q=0.9,ta;q=0.8,hi;q=0.7","663378460f834e9670d1508c","686d226cabeef709c732f8e1","686e313eaf7fea6535a07c4a","663378460f834e9670d1508c","2025-07-09T09:30:55.549Z","","","","","","ControlQ","","","","","","","","","","","","","","","","","","","","","","","","","","","","","","","","","","","","","","50",""
"2920","","<div style=""width:500px;"">
  <p>How would you describe your current emotional state?</p>
  </div>","82","html-slider-response","62","1377568","0.0-10.0-3.4","101","1","2025-07-09 09:07:57","7701e855f2ef39aa3fd6c71abdc6918a","157.51.195.177","Mozilla/5.0 (Windows NT 10.0; Win64; x64) AppleWebKit/537.36 (KHTML, like Gecko) Chrome/138.0.0.0 Safari/537.36","WebKit","Chrome","138.0.0.0","Windows","10.0","https://app.prolific.com/","en-US,en;q=0.9,ta;q=0.8,hi;q=0.7","663378460f834e9670d1508c","686d226cabeef709c732f8e1","686e313eaf7fea6535a07c4a","663378460f834e9670d1508c","2025-07-09T09:30:58.471Z","","","","","","StressQ","","","","","","","","","","","","","","","","","","","","","","","","","","","","","","","","","","","","","","50",""
"3996","","<div style=""width:500px;"">
  <p>What best describes how you currently feel?</p>
  </div>","39","html-slider-response","63","1381566","0.0-10.0-4.4","101","1","2025-07-09 09:07:57","7701e855f2ef39aa3fd6c71abdc6918a","157.51.195.177","Mozilla/5.0 (Windows NT 10.0; Win64; x64) AppleWebKit/537.36 (KHTML, like Gecko) Chrome/138.0.0.0 Safari/537.36","WebKit","Chrome","138.0.0.0","Windows","10.0","https://app.prolific.com/","en-US,en;q=0.9,ta;q=0.8,hi;q=0.7","663378460f834e9670d1508c","686d226cabeef709c732f8e1","686e313eaf7fea6535a07c4a","663378460f834e9670d1508c","2025-07-09T09:31:02.469Z","","","","","","MotivationQ","","","","","","","","","","","","","","","","","","","","","","","","","","","","","","","","","","","","","","50",""
"","","","","ctl-task-cpt","64","1445687","0.0-10.0-0.5","101","1","2025-07-09 09:07:57","7701e855f2ef39aa3fd6c71abdc6918a","157.51.195.177","Mozilla/5.0 (Windows NT 10.0; Win64; x64) AppleWebKit/537.36 (KHTML, like Gecko) Chrome/138.0.0.0 Safari/537.36","WebKit","Chrome","138.0.0.0","Windows","10.0","https://app.prolific.com/","en-US,en;q=0.9,ta;q=0.8,hi;q=0.7","663378460f834e9670d1508c","686d226cabeef709c732f8e1","686e313eaf7fea6535a07c4a","663378460f834e9670d1508c","2025-07-09T09:32:06.590Z","","","","","","","","","","","","","","","","win-only","0","g1:NW,g2:SE","0.5","6","0","1387260.3","2437.9","7452.5","61101.9","1","4","8","6","2","-8","-8","8","16","0.06060606060606061","1431.9","3000","-2050","[""down"",""right""]","{""num_key_presses"":8,""num_perfect"":3,""num_errors"":0,""num_randdir"":5,""num_randdir_good_moves"":3,""num_whilered"":0,""num_whileblue"":0,""num_blue"":7,""num_good_moves"":6}","[417.8214133126395,416.57142761775424,0.5,417.8214133126395,416.57142761775424,102.7,417.8214133126395,416.57142761775424,222.1,417.8214133126395,416.57142761775424,324.4,417.8214133126395,416.57142761775424,425.6,390.3214133126395,389.07142761775424,533.5,540.3214133126395,544.0714276177542,635.6,607.8214133126395,606.5714276177542,745.4,616.5714133126395,651.5714276177542,847.7,689.0714133126395,714.0714276177542,949,721.5714133126395,737.8214276177542,1057.4,726.5714133126395,739.0714276177542,1159.6,729.0714133126395,741.5714276177542,1261.7,732.8214133126395,746.5714276177542,1368.7,732.8214133126395,746.5714276177542,1469.3,732.8214133126395,746.5714276177542,1571.5,732.8214133126395,746.5714276177542,1673.3,732.8214133126395,746.5714276177542,1788.5,731.5714133126395,746.5714276177542,1889.5,711.5714133126395,732.8214276177542,1994.3,651.5714133126395,641.5714276177542,2098.1,586.5714133126395,535.3214276177542,2200.4,584.0714133126395,530.3214276177542,2311,584.0714133126395,530.3214276177542,2422.9,584.0714133126395,530.3214276177542,2523.8,584.0714133126395,530.3214276177542,2635.8,584.0714133126395,530.3214276177542,2739,584.0714133126395,530.3214276177542,2846.2,584.0714133126395,530.3214276177542,2948.7,584.0714133126395,530.3214276177542,3050.3,584.0714133126395,530.3214276177542,3154,584.0714133126395,530.3214276177542,3258.3,584.0714133126395,530.3214276177542,3360.1,584.0714133126395,530.3214276177542,3470.8,584.0714133126395,530.3214276177542,3572,584.0714133126395,530.3214276177542,3672.6,584.0714133126395,530.3214276177542,3787.7,584.0714133126395,530.3214276177542,3890,584.0714133126395,530.3214276177542,4001.3,584.0714133126395,530.3214276177542,4103.2,584.0714133126395,530.3214276177542,4221.3,584.0714133126395,530.3214276177542,4321.5,584.0714133126395,530.3214276177542,4424.6,584.0714133126395,530.3214276177542,4530.9,584.0714133126395,530.3214276177542,4633.9,584.0714133126395,530.3214276177542,4734.1,584.0714133126395,530.3214276177542,4839,584.0714133126395,530.3214276177542,4939.1]","[1747.7,1747.7,1000,0,747.7,""oops"",""down"",""down"",""good_move"",8200.7,6452.5,2645.5,4989.2,566,""oops"",""down"",""down"",""good_move"",10828.3,2627.1,1906.5,8201.2,720.6,""oops"",""down"",""up"",""bad_move"",18232.9,7403.9,2756.4,14826.7,649.8,""oops"",""right"",""right"",""good_move"",28416.3,10182.4,2302.1,25644.5,469.7,""smooth"",""right"",""right"",""good_move"",35816.4,7399.9,2962.8,32373.1,480.5,""smooth"",""right"",""right"",""good_move"",39200.5,3383.9,2834.7,35816.6,549.2,""oops"",""down"",""up"",""bad_move"",46392.5,7191.4,3560.3,42410.7,421.5,""smooth"",""down"",""down"",""good_move""]","","",""
"2805","","<div style=""width:500px;"">
  <p>What determined the result of this run?</p>
  </div>","0","html-slider-response","65","1448495","0.0-10.0-1.5","101","1","2025-07-09 09:07:57","7701e855f2ef39aa3fd6c71abdc6918a","157.51.195.177","Mozilla/5.0 (Windows NT 10.0; Win64; x64) AppleWebKit/537.36 (KHTML, like Gecko) Chrome/138.0.0.0 Safari/537.36","WebKit","Chrome","138.0.0.0","Windows","10.0","https://app.prolific.com/","en-US,en;q=0.9,ta;q=0.8,hi;q=0.7","663378460f834e9670d1508c","686d226cabeef709c732f8e1","686e313eaf7fea6535a07c4a","663378460f834e9670d1508c","2025-07-09T09:32:09.398Z","","","","","","AttribQ","","","","","","","","","","","","","","","","","","","","","","","","","","","","","","","","","","","","","","50",""
"4412","","<div style=""width:500px;"">
  <p>How much control did you have over the ball?</p>
  </div>","8","html-slider-response","66","1452910","0.0-10.0-2.5","101","1","2025-07-09 09:07:57","7701e855f2ef39aa3fd6c71abdc6918a","157.51.195.177","Mozilla/5.0 (Windows NT 10.0; Win64; x64) AppleWebKit/537.36 (KHTML, like Gecko) Chrome/138.0.0.0 Safari/537.36","WebKit","Chrome","138.0.0.0","Windows","10.0","https://app.prolific.com/","en-US,en;q=0.9,ta;q=0.8,hi;q=0.7","663378460f834e9670d1508c","686d226cabeef709c732f8e1","686e313eaf7fea6535a07c4a","663378460f834e9670d1508c","2025-07-09T09:32:13.813Z","","","","","","ControlQ","","","","","","","","","","","","","","","","","","","","","","","","","","","","","","","","","","","","","","50",""
"3287","","<div style=""width:500px;"">
  <p>How would you describe your current emotional state?</p>
  </div>","93","html-slider-response","67","1456197","0.0-10.0-3.5","101","1","2025-07-09 09:07:57","7701e855f2ef39aa3fd6c71abdc6918a","157.51.195.177","Mozilla/5.0 (Windows NT 10.0; Win64; x64) AppleWebKit/537.36 (KHTML, like Gecko) Chrome/138.0.0.0 Safari/537.36","WebKit","Chrome","138.0.0.0","Windows","10.0","https://app.prolific.com/","en-US,en;q=0.9,ta;q=0.8,hi;q=0.7","663378460f834e9670d1508c","686d226cabeef709c732f8e1","686e313eaf7fea6535a07c4a","663378460f834e9670d1508c","2025-07-09T09:32:17.100Z","","","","","","StressQ","","","","","","","","","","","","","","","","","","","","","","","","","","","","","","","","","","","","","","50",""
"2072","","<div style=""width:500px;"">
  <p>What best describes how you currently feel?</p>
  </div>","33","html-slider-response","68","1458270","0.0-10.0-4.5","101","1","2025-07-09 09:07:57","7701e855f2ef39aa3fd6c71abdc6918a","157.51.195.177","Mozilla/5.0 (Windows NT 10.0; Win64; x64) AppleWebKit/537.36 (KHTML, like Gecko) Chrome/138.0.0.0 Safari/537.36","WebKit","Chrome","138.0.0.0","Windows","10.0","https://app.prolific.com/","en-US,en;q=0.9,ta;q=0.8,hi;q=0.7","663378460f834e9670d1508c","686d226cabeef709c732f8e1","686e313eaf7fea6535a07c4a","663378460f834e9670d1508c","2025-07-09T09:32:19.174Z","","","","","","MotivationQ","","","","","","","","","","","","","","","","","","","","","","","","","","","","","","","","","","","","","","50",""
"","","","","ctl-task-cpt","69","1498847","0.0-10.0-0.6","101","1","2025-07-09 09:07:57","7701e855f2ef39aa3fd6c71abdc6918a","157.51.195.177","Mozilla/5.0 (Windows NT 10.0; Win64; x64) AppleWebKit/537.36 (KHTML, like Gecko) Chrome/138.0.0.0 Safari/537.36","WebKit","Chrome","138.0.0.0","Windows","10.0","https://app.prolific.com/","en-US,en;q=0.9,ta;q=0.8,hi;q=0.7","663378460f834e9670d1508c","686d226cabeef709c732f8e1","686e313eaf7fea6535a07c4a","663378460f834e9670d1508c","2025-07-09T09:32:59.750Z","","","","","","","","","","","","","","","","win-only","3","g1:SW,g2:NE","0.4","7","0","1463965.9","1116.7","6120.8","37565.6","1","4","4","6","1","1","1","9","8","0.06818181818181818","2090.3","3000","1655","[""down"",""left""]","{""num_key_presses"":6,""num_perfect"":3,""num_errors"":0,""num_randdir"":3,""num_randdir_good_moves"":2,""num_whilered"":0,""num_whileblue"":0,""num_blue"":4,""num_good_moves"":5}","[411.5714133126395,425.32142761775424,0.3,411.5714133126395,425.32142761775424,101.7,411.5714133126395,425.32142761775424,206.8,411.5714133126395,425.32142761775424,319.5,411.5714133126395,425.32142761775424,422.6,587.8214133126395,261.57142761775424,533.1,651.5714133126395,176.57142761775424,653.3,612.8214133126395,236.57142761775424,758.7,251.5714133126395,550.3214276177542,870.6,241.5714133126395,571.5714276177542,971.8,270.3214133126395,567.8214276177542,1075.5,284.0714133126395,564.0714276177542,1177.6,734.0714133126395,221.57142761775424,1286.8,759.0714133126395,176.57142761775424,1403.6,741.5714133126395,175.32142761775424,1505.4,212.8214133126395,670.3214276177542,1610,139.0714133126395,769.0714276177542,1716.3,139.0714133126395,769.0714276177542,1832.3,124.0714133126395,770.3214276177542,1935.3,120.3214133126395,770.3214276177542,2035.7,120.3214133126395,770.3214276177542,2136.7,120.3214133126395,770.3214276177542,2240.8,120.3214133126395,770.3214276177542,2345.4,120.3214133126395,770.3214276177542,2449.9,120.3214133126395,770.3214276177542,2554.1,121.5714133126395,770.3214276177542,2655.9,157.8214133126395,760.3214276177542,2757.8,177.8214133126395,744.0714276177542,2858.9,100.3214133126395,692.8214276177542,2965.3,34.07141331263951,646.5714276177542,3068.9,-42.17858668736049,590.3214276177542,3171.3,-43.42858668736049,586.5714276177542,3271.7,-18.428586687360493,586.5714276177542,3376,-10.928586687360493,586.5714276177542,3481.3,-10.928586687360493,586.5714276177542,3582.1,-10.928586687360493,586.5714276177542,3683.4,-10.928586687360493,586.5714276177542,3786.7,-8.428586687360493,586.5714276177542,3895.2,-8.428586687360493,586.5714276177542,3995.5,-8.428586687360493,586.5714276177542,4100.9,-8.428586687360493,586.5714276177542,4203.4,-8.428586687360493,586.5714276177542,4312.3,-8.428586687360493,586.5714276177542,4422,-8.428586687360493,586.5714276177542,4539.7,-8.428586687360493,586.5714276177542,4648.4,-8.428586687360493,586.5714276177542,4749.4,-8.428586687360493,586.5714276177542,4851.7,-0.9285866873604931,600.3214276177542,4979]","[8378.3,8378.3,2323.5,5300.5,754.3,""smooth"",""down"",""down"",""good_move"",11864.2,3481.3,2553.1,8383,928.1,""smooth"",""down"",""down"",""good_move"",19243,7376.1,2937.5,15854.6,450.9,""smooth"",""left"",""left"",""good_move"",26213.1,6969.2,3288.3,22494.7,430.1,""oops"",""left"",""right"",""bad_move"",28785.8,2572.3,2011.9,26213.5,560.4,""oops"",""left"",""left"",""good_move"",31314.7,2528.5,2093.7,28786.2,434.8,""oops"",""left"",""left"",""good_move""]","","",""
"2485","","<div style=""width:500px;"">
  <p>What determined the result of this run?</p>
  </div>","23","html-slider-response","70","1501333","0.0-10.0-1.6","101","1","2025-07-09 09:07:57","7701e855f2ef39aa3fd6c71abdc6918a","157.51.195.177","Mozilla/5.0 (Windows NT 10.0; Win64; x64) AppleWebKit/537.36 (KHTML, like Gecko) Chrome/138.0.0.0 Safari/537.36","WebKit","Chrome","138.0.0.0","Windows","10.0","https://app.prolific.com/","en-US,en;q=0.9,ta;q=0.8,hi;q=0.7","663378460f834e9670d1508c","686d226cabeef709c732f8e1","686e313eaf7fea6535a07c4a","663378460f834e9670d1508c","2025-07-09T09:33:02.236Z","","","","","","AttribQ","","","","","","","","","","","","","","","","","","","","","","","","","","","","","","","","","","","","","","50",""
"4200","","<div style=""width:500px;"">
  <p>How much control did you have over the ball?</p>
  </div>","63","html-slider-response","71","1505535","0.0-10.0-2.6","101","1","2025-07-09 09:07:57","7701e855f2ef39aa3fd6c71abdc6918a","157.51.195.177","Mozilla/5.0 (Windows NT 10.0; Win64; x64) AppleWebKit/537.36 (KHTML, like Gecko) Chrome/138.0.0.0 Safari/537.36","WebKit","Chrome","138.0.0.0","Windows","10.0","https://app.prolific.com/","en-US,en;q=0.9,ta;q=0.8,hi;q=0.7","663378460f834e9670d1508c","686d226cabeef709c732f8e1","686e313eaf7fea6535a07c4a","663378460f834e9670d1508c","2025-07-09T09:33:06.438Z","","","","","","ControlQ","","","","","","","","","","","","","","","","","","","","","","","","","","","","","","","","","","","","","","50",""
"2332","","<div style=""width:500px;"">
  <p>How would you describe your current emotional state?</p>
  </div>","70","html-slider-response","72","1507869","0.0-10.0-3.6","101","1","2025-07-09 09:07:57","7701e855f2ef39aa3fd6c71abdc6918a","157.51.195.177","Mozilla/5.0 (Windows NT 10.0; Win64; x64) AppleWebKit/537.36 (KHTML, like Gecko) Chrome/138.0.0.0 Safari/537.36","WebKit","Chrome","138.0.0.0","Windows","10.0","https://app.prolific.com/","en-US,en;q=0.9,ta;q=0.8,hi;q=0.7","663378460f834e9670d1508c","686d226cabeef709c732f8e1","686e313eaf7fea6535a07c4a","663378460f834e9670d1508c","2025-07-09T09:33:08.772Z","","","","","","StressQ","","","","","","","","","","","","","","","","","","","","","","","","","","","","","","","","","","","","","","50",""
"3208","","<div style=""width:500px;"">
  <p>What best describes how you currently feel?</p>
  </div>","33","html-slider-response","73","1511078","0.0-10.0-4.6","101","1","2025-07-09 09:07:57","7701e855f2ef39aa3fd6c71abdc6918a","157.51.195.177","Mozilla/5.0 (Windows NT 10.0; Win64; x64) AppleWebKit/537.36 (KHTML, like Gecko) Chrome/138.0.0.0 Safari/537.36","WebKit","Chrome","138.0.0.0","Windows","10.0","https://app.prolific.com/","en-US,en;q=0.9,ta;q=0.8,hi;q=0.7","663378460f834e9670d1508c","686d226cabeef709c732f8e1","686e313eaf7fea6535a07c4a","663378460f834e9670d1508c","2025-07-09T09:33:11.981Z","","","","","","MotivationQ","","","","","","","","","","","","","","","","","","","","","","","","","","","","","","","","","","","","","","50",""
"","","","","ctl-task-cpt","74","1552531","0.0-10.0-0.7","101","1","2025-07-09 09:07:57","7701e855f2ef39aa3fd6c71abdc6918a","157.51.195.177","Mozilla/5.0 (Windows NT 10.0; Win64; x64) AppleWebKit/537.36 (KHTML, like Gecko) Chrome/138.0.0.0 Safari/537.36","WebKit","Chrome","138.0.0.0","Windows","10.0","https://app.prolific.com/","en-US,en;q=0.9,ta;q=0.8,hi;q=0.7","663378460f834e9670d1508c","686d226cabeef709c732f8e1","686e313eaf7fea6535a07c4a","663378460f834e9670d1508c","2025-07-09T09:33:53.434Z","","","","","","","","","","","","","","","","win-only","2","g1:SE,g2:NW","0.3","8","0","1516773.8","1404.9","6415.6","38436.9","1","4","8","6","2","8","8","17","9","0.12878787878787878","767.4","3000","1055","[""left"",""up""]","{""num_key_presses"":8,""num_perfect"":3,""num_errors"":0,""num_randdir"":5,""num_randdir_good_moves"":4,""num_whilered"":0,""num_whileblue"":0,""num_blue"":1,""num_good_moves"":7}","[409.0714133126395,419.07142761775424,0.2,409.0714133126395,419.07142761775424,102.7,409.0714133126395,419.07142761775424,216.9,409.0714133126395,419.07142761775424,317.8,340.3214133126395,367.82142761775424,422.6,50.32141331263951,107.82142761775425,531,50.32141331263951,107.82142761775425,632.6,50.32141331263951,106.57142761775425,736.7,50.32141331263951,106.57142761775425,842.6,52.82141331263951,116.57142761775425,945.9,81.5714133126395,226.57142761775424,1046.4,160.3214133126395,397.82142761775424,1148.2,176.5714133126395,440.32142761775424,1261.5,176.5714133126395,440.32142761775424,1368,176.5714133126395,440.32142761775424,1471.3,176.5714133126395,440.32142761775424,1581,176.5714133126395,440.32142761775424,1681.7,176.5714133126395,440.32142761775424,1781.8,176.5714133126395,440.32142761775424,1885.6,176.5714133126395,440.32142761775424,1995.7,176.5714133126395,440.32142761775424,2096.6,176.5714133126395,440.32142761775424,2201.8,176.5714133126395,440.32142761775424,2316.3,176.5714133126395,440.32142761775424,2421.6,176.5714133126395,440.32142761775424,2525.7,176.5714133126395,440.32142761775424,2627.5,176.5714133126395,440.32142761775424,2731.8,176.5714133126395,440.32142761775424,2831.8,176.5714133126395,440.32142761775424,2936.8,176.5714133126395,440.32142761775424,3047,176.5714133126395,440.32142761775424,3151.5,176.5714133126395,440.32142761775424,3258.7,176.5714133126395,440.32142761775424,3361.1,176.5714133126395,440.32142761775424,3461.4,176.5714133126395,440.32142761775424,3565.5,176.5714133126395,440.32142761775424,3666.1,176.5714133126395,440.32142761775424,3767,176.5714133126395,440.32142761775424,3869.2,176.5714133126395,440.32142761775424,3971,176.5714133126395,440.32142761775424,4072.6,176.5714133126395,440.32142761775424,4181.6,176.5714133126395,440.32142761775424,4282.5,176.5714133126395,440.32142761775424,4402.3,176.5714133126395,440.32142761775424,4510,176.5714133126395,440.32142761775424,4616.3,176.5714133126395,440.32142761775424,4725.4,176.5714133126395,440.32142761775424,4841.4,176.5714133126395,440.32142761775424,4948.2]","[1724.6,1724.6,1000,0,724.6,""oops"",""left"",""left"",""good_move"",5251.7,3526.7,3084.4,1725.1,442.2,""oops"",""left"",""left"",""good_move"",12949.5,7697.3,2900,9710.5,339,""smooth"",""left"",""left"",""good_move"",15812.1,2862.4,2045.7,12949.7,816.7,""oops"",""up"",""up"",""good_move"",19138,3325.3,2881.1,15812.9,444.1,""oops"",""up"",""down"",""bad_move"",21873,2726.7,2011.8,19146.3,714.9,""smooth"",""up"",""up"",""good_move"",28340.5,6465.4,2511.5,21875.6,3953.8,""smooth"",""up"",""up"",""good_move"",31891.7,3546.3,2552.2,28345.4,994.1,""oops"",""up"",""up"",""good_move""]","","",""
"2275","","<div style=""width:500px;"">
  <p>What determined the result of this run?</p>
  </div>","71","html-slider-response","75","1554806","0.0-10.0-1.7","101","1","2025-07-09 09:07:57","7701e855f2ef39aa3fd6c71abdc6918a","157.51.195.177","Mozilla/5.0 (Windows NT 10.0; Win64; x64) AppleWebKit/537.36 (KHTML, like Gecko) Chrome/138.0.0.0 Safari/537.36","WebKit","Chrome","138.0.0.0","Windows","10.0","https://app.prolific.com/","en-US,en;q=0.9,ta;q=0.8,hi;q=0.7","663378460f834e9670d1508c","686d226cabeef709c732f8e1","686e313eaf7fea6535a07c4a","663378460f834e9670d1508c","2025-07-09T09:33:55.710Z","","","","","","AttribQ","","","","","","","","","","","","","","","","","","","","","","","","","","","","","","","","","","","","","","50",""
"3215","","<div style=""width:500px;"">
  <p>How much control did you have over the ball?</p>
  </div>","71","html-slider-response","76","1558022","0.0-10.0-2.7","101","1","2025-07-09 09:07:57","7701e855f2ef39aa3fd6c71abdc6918a","157.51.195.177","Mozilla/5.0 (Windows NT 10.0; Win64; x64) AppleWebKit/537.36 (KHTML, like Gecko) Chrome/138.0.0.0 Safari/537.36","WebKit","Chrome","138.0.0.0","Windows","10.0","https://app.prolific.com/","en-US,en;q=0.9,ta;q=0.8,hi;q=0.7","663378460f834e9670d1508c","686d226cabeef709c732f8e1","686e313eaf7fea6535a07c4a","663378460f834e9670d1508c","2025-07-09T09:33:58.926Z","","","","","","ControlQ","","","","","","","","","","","","","","","","","","","","","","","","","","","","","","","","","","","","","","50",""
"3914","","<div style=""width:500px;"">
  <p>How would you describe your current emotional state?</p>
  </div>","42","html-slider-response","77","1561943","0.0-10.0-3.7","101","1","2025-07-09 09:07:57","7701e855f2ef39aa3fd6c71abdc6918a","157.51.195.177","Mozilla/5.0 (Windows NT 10.0; Win64; x64) AppleWebKit/537.36 (KHTML, like Gecko) Chrome/138.0.0.0 Safari/537.36","WebKit","Chrome","138.0.0.0","Windows","10.0","https://app.prolific.com/","en-US,en;q=0.9,ta;q=0.8,hi;q=0.7","663378460f834e9670d1508c","686d226cabeef709c732f8e1","686e313eaf7fea6535a07c4a","663378460f834e9670d1508c","2025-07-09T09:34:02.846Z","","","","","","StressQ","","","","","","","","","","","","","","","","","","","","","","","","","","","","","","","","","","","","","","50",""
"4681","","<div style=""width:500px;"">
  <p>What best describes how you currently feel?</p>
  </div>","60","html-slider-response","78","1566629","0.0-10.0-4.7","101","1","2025-07-09 09:07:57","7701e855f2ef39aa3fd6c71abdc6918a","157.51.195.177","Mozilla/5.0 (Windows NT 10.0; Win64; x64) AppleWebKit/537.36 (KHTML, like Gecko) Chrome/138.0.0.0 Safari/537.36","WebKit","Chrome","138.0.0.0","Windows","10.0","https://app.prolific.com/","en-US,en;q=0.9,ta;q=0.8,hi;q=0.7","663378460f834e9670d1508c","686d226cabeef709c732f8e1","686e313eaf7fea6535a07c4a","663378460f834e9670d1508c","2025-07-09T09:34:07.532Z","","","","","","MotivationQ","","","","","","","","","","","","","","","","","","","","","","","","","","","","","","","","","","","","","","50",""
"","","","","ctl-task-cpt","79","1599535","0.0-10.0-0.8","101","1","2025-07-09 09:07:57","7701e855f2ef39aa3fd6c71abdc6918a","157.51.195.177","Mozilla/5.0 (Windows NT 10.0; Win64; x64) AppleWebKit/537.36 (KHTML, like Gecko) Chrome/138.0.0.0 Safari/537.36","WebKit","Chrome","138.0.0.0","Windows","10.0","https://app.prolific.com/","en-US,en;q=0.9,ta;q=0.8,hi;q=0.7","663378460f834e9670d1508c","686d226cabeef709c732f8e1","686e313eaf7fea6535a07c4a","663378460f834e9670d1508c","2025-07-09T09:34:40.438Z","","","","","","","","","","","","","","","","win-only","3","g1:SW,g2:NE","0.2","9","0","1572323.7","1197.8","6200.6","29851.1","1","4","8","6","2","8","8","25","17","0.1893939393939394","1424.4","3000","1425","[""up"",""right""]","{""num_key_presses"":6,""num_perfect"":1,""num_errors"":0,""num_randdir"":5,""num_randdir_good_moves"":5,""num_whilered"":0,""num_whileblue"":0,""num_blue"":0,""num_good_moves"":6}","[426.5714133126395,419.07142761775424,0.2,426.5714133126395,419.07142761775424,114.7,426.5714133126395,419.07142761775424,218.2,426.5714133126395,419.07142761775424,318.8,426.5714133126395,419.07142761775424,419.4,421.5714133126395,417.82142761775424,523.3,421.5714133126395,417.82142761775424,624.9,422.8214133126395,410.32142761775424,729.2,440.3214133126395,396.57142761775424,843.5,446.5714133126395,391.57142761775424,947.9,662.8214133126395,190.32142761775424,1053.6,737.8214133126395,125.32142761775425,1159.6,742.8214133126395,116.57142761775425,1259.9,754.0714133126395,100.32142761775425,1364.4,754.0714133126395,100.32142761775425,1470.3,754.0714133126395,100.32142761775425,1570.4,751.5714133126395,130.32142761775424,1673.2,752.8214133126395,257.82142761775424,1778.5,752.8214133126395,316.57142761775424,1883.3,752.8214133126395,320.32142761775424,1984.2,752.8214133126395,320.32142761775424,2088.2,752.8214133126395,320.32142761775424,2189.4,752.8214133126395,320.32142761775424,2289.4,752.8214133126395,320.32142761775424,2402.1,752.8214133126395,320.32142761775424,2505.9,752.8214133126395,320.32142761775424,2608.9,752.8214133126395,320.32142761775424,2720.4,752.8214133126395,320.32142761775424,2822.5,752.8214133126395,320.32142761775424,2923.9,752.8214133126395,320.32142761775424,3024.1,752.8214133126395,320.32142761775424,3124.6,752.8214133126395,320.32142761775424,3236.3,752.8214133126395,320.32142761775424,3337,752.8214133126395,320.32142761775424,3454.7,752.8214133126395,320.32142761775424,3581.5,752.8214133126395,320.32142761775424,3685.1,752.8214133126395,320.32142761775424,3806.3,752.8214133126395,320.32142761775424,3921.8,752.8214133126395,320.32142761775424,4032.4,752.8214133126395,320.32142761775424,4133.3,752.8214133126395,320.32142761775424,4236.9,752.8214133126395,320.32142761775424,4338.2,752.8214133126395,320.32142761775424,4438.6,752.8214133126395,320.32142761775424,4556.6,752.8214133126395,320.32142761775424,4658.5,752.8214133126395,320.32142761775424,4772.7,752.8214133126395,320.32142761775424,4879.1,752.8214133126395,320.32142761775424,4992.9]","[1652.5,1652.5,1000,0,652.5,""oops"",""right"",""right"",""good_move"",5580.7,3927.7,3419.3,1653,508.4,""oops"",""right"",""up"",""good_move"",13894.7,8309.9,2598.7,5584.9,5711.1,""oops"",""up"",""right"",""good_move"",17374.1,3477.7,2930.8,13896.4,546.9,""oops"",""up"",""up"",""good_move"",20705.1,3330.1,2871.7,17375.1,458.3,""smooth"",""up"",""up"",""good_move"",23525,2819.5,2423.3,20705.5,396.2,""oops"",""right"",""right"",""good_move""]","","",""
"5683","","<div style=""width:500px;"">
  <p>What determined the result of this run?</p>
  </div>","81","html-slider-response","80","1605228","0.0-10.0-1.8","101","1","2025-07-09 09:07:57","7701e855f2ef39aa3fd6c71abdc6918a","157.51.195.177","Mozilla/5.0 (Windows NT 10.0; Win64; x64) AppleWebKit/537.36 (KHTML, like Gecko) Chrome/138.0.0.0 Safari/537.36","WebKit","Chrome","138.0.0.0","Windows","10.0","https://app.prolific.com/","en-US,en;q=0.9,ta;q=0.8,hi;q=0.7","663378460f834e9670d1508c","686d226cabeef709c732f8e1","686e313eaf7fea6535a07c4a","663378460f834e9670d1508c","2025-07-09T09:34:46.132Z","","","","","","AttribQ","","","","","","","","","","","","","","","","","","","","","","","","","","","","","","","","","","","","","","50",""
"6098","","<div style=""width:500px;"">
  <p>How much control did you have over the ball?</p>
  </div>","79","html-slider-response","81","1611333","0.0-10.0-2.8","101","1","2025-07-09 09:07:57","7701e855f2ef39aa3fd6c71abdc6918a","157.51.195.177","Mozilla/5.0 (Windows NT 10.0; Win64; x64) AppleWebKit/537.36 (KHTML, like Gecko) Chrome/138.0.0.0 Safari/537.36","WebKit","Chrome","138.0.0.0","Windows","10.0","https://app.prolific.com/","en-US,en;q=0.9,ta;q=0.8,hi;q=0.7","663378460f834e9670d1508c","686d226cabeef709c732f8e1","686e313eaf7fea6535a07c4a","663378460f834e9670d1508c","2025-07-09T09:34:52.236Z","","","","","","ControlQ","","","","","","","","","","","","","","","","","","","","","","","","","","","","","","","","","","","","","","50",""
"4569","","<div style=""width:500px;"">
  <p>How would you describe your current emotional state?</p>
  </div>","58","html-slider-response","82","1615904","0.0-10.0-3.8","101","1","2025-07-09 09:07:57","7701e855f2ef39aa3fd6c71abdc6918a","157.51.195.177","Mozilla/5.0 (Windows NT 10.0; Win64; x64) AppleWebKit/537.36 (KHTML, like Gecko) Chrome/138.0.0.0 Safari/537.36","WebKit","Chrome","138.0.0.0","Windows","10.0","https://app.prolific.com/","en-US,en;q=0.9,ta;q=0.8,hi;q=0.7","663378460f834e9670d1508c","686d226cabeef709c732f8e1","686e313eaf7fea6535a07c4a","663378460f834e9670d1508c","2025-07-09T09:34:56.807Z","","","","","","StressQ","","","","","","","","","","","","","","","","","","","","","","","","","","","","","","","","","","","","","","50",""
"3447","","<div style=""width:500px;"">
  <p>What best describes how you currently feel?</p>
  </div>","67","html-slider-response","83","1619356","0.0-10.0-4.8","101","1","2025-07-09 09:07:57","7701e855f2ef39aa3fd6c71abdc6918a","157.51.195.177","Mozilla/5.0 (Windows NT 10.0; Win64; x64) AppleWebKit/537.36 (KHTML, like Gecko) Chrome/138.0.0.0 Safari/537.36","WebKit","Chrome","138.0.0.0","Windows","10.0","https://app.prolific.com/","en-US,en;q=0.9,ta;q=0.8,hi;q=0.7","663378460f834e9670d1508c","686d226cabeef709c732f8e1","686e313eaf7fea6535a07c4a","663378460f834e9670d1508c","2025-07-09T09:35:00.261Z","","","","","","MotivationQ","","","","","","","","","","","","","","","","","","","","","","","","","","","","","","","","","","","","","","50",""
