"rt","response_timestamp","stimulus","response","trial_type","trial_index","time_elapsed","internal_node_id","run_id","condition","recorded_at","source_code_version","ip","user_agent","device","browser","browser_version","platform","platform_version","referer","accept_language","PROLIFIC_PID","STUDY_ID","SESSION_ID","prolific_id","realtime","view_history","question_order","consent","success","question_id","eventType","responses","item_order","radio_event_ids","radio_event_times","key_event_times","mouse_event_times","straightlining","zigzagging","honeypot","which_type","canvas_config","goals_layout","control_level","trial_number","tutorial_trial_number","trial_start_time","phase1_start_time","phase2_start_time","phase3_start_time","goal_1_value","goal_1_distance","goal_2_value","goal_2_distance","goal_selected","outcome","outcome_total","participant_final_score","participant_initial_score","participant_final_score_prop","goal_choice_rt","allocated_time","allocated_time_remaining","goal_direction","counts","mouse_movements","key_presses","correct","slider_start"
"10177","1752052093081","<p style='font-size:40px;line-height:1.25'><strong>Welcome to the experiment!</strong></p><p style='font-size:1.1em;line-height:1.25'>Thank you for your interest in our experiment! Before you begin, it is important that we obtain your informed consent to participate in the study.</p><p style='font-size:1.1em;line-height:1.25'>On the next screen will be an <strong>information sheet</strong> for you to read. To participate in the study we need you to read this information sheet and the following consent form carefully. If you agree with all the statements, please click the <strong>I agree</strong> button.</p><p style='font-size:1.1em;line-height:1.25'>Press <strong>Next</strong> to read the information sheet.</p>","0","custom-html-button-response","0","10179","0.0-0.0","105","1","2025-07-09 09:08:00","7701e855f2ef39aa3fd6c71abdc6918a","165.165.122.12","Mozilla/5.0 (Windows NT 10.0; Win64; x64) AppleWebKit/537.36 (KHTML, like Gecko) Chrome/138.0.0.0 Safari/537.36","WebKit","Chrome","138.0.0.0","Windows","10.0","https://app.prolific.com/","en-US,en;q=0.9","6109656bb28bc0fadcad52ca","686d226cabeef709c732f8e1","686e31290849c14d410e97e8","6109656bb28bc0fadcad52ca","2025-07-09T09:08:13.083Z","","","","","","","","","","","","","","","","","","","","","","","","","","","","","","","","","","","","","","","","","","","",""
"104075","","","","instructions","1","114256","0.0-1.0","105","1","2025-07-09 09:08:00","7701e855f2ef39aa3fd6c71abdc6918a","165.165.122.12","Mozilla/5.0 (Windows NT 10.0; Win64; x64) AppleWebKit/537.36 (KHTML, like Gecko) Chrome/138.0.0.0 Safari/537.36","WebKit","Chrome","138.0.0.0","Windows","10.0","https://app.prolific.com/","en-US,en;q=0.9","6109656bb28bc0fadcad52ca","686d226cabeef709c732f8e1","686e31290849c14d410e97e8","6109656bb28bc0fadcad52ca","","[{""page_index"":0,""viewing_time"":59050},{""page_index"":1,""viewing_time"":45025}]","","","","","","","","","","","","","","","","","","","","","","","","","","","","","","","","","","","","","","","","","","",""
"5545","","","{""Q0"":"""",""Q1"":"""",""Q2"":"""",""Q3"":"""",""Q4"":"""",""Q5"":"""",""Q6"":""I agree""}","survey-multi-choice","2","119805","0.0-2.0","105","1","2025-07-09 09:08:00","7701e855f2ef39aa3fd6c71abdc6918a","165.165.122.12","Mozilla/5.0 (Windows NT 10.0; Win64; x64) AppleWebKit/537.36 (KHTML, like Gecko) Chrome/138.0.0.0 Safari/537.36","WebKit","Chrome","138.0.0.0","Windows","10.0","https://app.prolific.com/","en-US,en;q=0.9","6109656bb28bc0fadcad52ca","686d226cabeef709c732f8e1","686e31290849c14d410e97e8","6109656bb28bc0fadcad52ca","","","[0,1,2,3,4,5,6]","true","","","","","","","","","","","","","","","","","","","","","","","","","","","","","","","","","","","","","","","","",""
"13094","","","","fullscreen","3","133914","0.0-4.0","105","1","2025-07-09 09:08:00","7701e855f2ef39aa3fd6c71abdc6918a","165.165.122.12","Mozilla/5.0 (Windows NT 10.0; Win64; x64) AppleWebKit/537.36 (KHTML, like Gecko) Chrome/138.0.0.0 Safari/537.36","WebKit","Chrome","138.0.0.0","Windows","10.0","https://app.prolific.com/","en-US,en;q=0.9","6109656bb28bc0fadcad52ca","686d226cabeef709c732f8e1","686e31290849c14d410e97e8","6109656bb28bc0fadcad52ca","","","","","true","","","","","","","","","","","","","","","","","","","","","","","","","","","","","","","","","","","","","","","",""
"5915","1752052222733"," <p style='font-size:1.1em;line-height:1.25'>Thank you for completing the consent form and closing all other tabs.</p><p style='font-size:1.1em;line-height:1.25'>We will now invite you to fill in some demographic information and questionnaires, before starting the game.<br>This will take about 5 minutes.<br></p><p style='font-size:1.1em;line-height:1.25'>Press the <strong>Next</strong> button to continue.</p>","0","custom-html-button-response","4","139830","0.0-5.0","105","1","2025-07-09 09:08:00","7701e855f2ef39aa3fd6c71abdc6918a","165.165.122.12","Mozilla/5.0 (Windows NT 10.0; Win64; x64) AppleWebKit/537.36 (KHTML, like Gecko) Chrome/138.0.0.0 Safari/537.36","WebKit","Chrome","138.0.0.0","Windows","10.0","https://app.prolific.com/","en-US,en;q=0.9","6109656bb28bc0fadcad52ca","686d226cabeef709c732f8e1","686e31290849c14d410e97e8","6109656bb28bc0fadcad52ca","2025-07-09T09:10:22.734Z","","","","","","","","","","","","","","","","","","","","","","","","","","","","","","","","","","","","","","","","","","","",""
"3764","","","{""age"":""28""}","survey-text","5","143598","0.0-6.0-0.0","105","1","2025-07-09 09:08:00","7701e855f2ef39aa3fd6c71abdc6918a","165.165.122.12","Mozilla/5.0 (Windows NT 10.0; Win64; x64) AppleWebKit/537.36 (KHTML, like Gecko) Chrome/138.0.0.0 Safari/537.36","WebKit","Chrome","138.0.0.0","Windows","10.0","https://app.prolific.com/","en-US,en;q=0.9","6109656bb28bc0fadcad52ca","686d226cabeef709c732f8e1","686e31290849c14d410e97e8","6109656bb28bc0fadcad52ca","","","","","","0","demographics","","","","","","","","","","","","","","","","","","","","","","","","","","","","","","","","","","","","","",""
"2636","","","{""gender_identity"":""female/woman""}","survey-multi-choice","6","146236","0.0-6.0-1.0","105","1","2025-07-09 09:08:00","7701e855f2ef39aa3fd6c71abdc6918a","165.165.122.12","Mozilla/5.0 (Windows NT 10.0; Win64; x64) AppleWebKit/537.36 (KHTML, like Gecko) Chrome/138.0.0.0 Safari/537.36","WebKit","Chrome","138.0.0.0","Windows","10.0","https://app.prolific.com/","en-US,en;q=0.9","6109656bb28bc0fadcad52ca","686d226cabeef709c732f8e1","686e31290849c14d410e97e8","6109656bb28bc0fadcad52ca","","","[0]","","","1","demographics","","","","","","","","","","","","","","","","","","","","","","","","","","","","","","","","","","","","","",""
"9109","","","{""assigned_sex"":""female""}","survey-multi-choice","7","155347","0.0-6.0-2.0","105","1","2025-07-09 09:08:00","7701e855f2ef39aa3fd6c71abdc6918a","165.165.122.12","Mozilla/5.0 (Windows NT 10.0; Win64; x64) AppleWebKit/537.36 (KHTML, like Gecko) Chrome/138.0.0.0 Safari/537.36","WebKit","Chrome","138.0.0.0","Windows","10.0","https://app.prolific.com/","en-US,en;q=0.9","6109656bb28bc0fadcad52ca","686d226cabeef709c732f8e1","686e31290849c14d410e97e8","6109656bb28bc0fadcad52ca","","","[0]","","","2","demographics","","","","","","","","","","","","","","","","","","","","","","","","","","","","","","","","","","","","","",""
"3717","","","{""menstrual_cycle"":""Yes""}","survey-multi-choice","8","159067","0.0-6.0-3.0","105","1","2025-07-09 09:08:00","7701e855f2ef39aa3fd6c71abdc6918a","165.165.122.12","Mozilla/5.0 (Windows NT 10.0; Win64; x64) AppleWebKit/537.36 (KHTML, like Gecko) Chrome/138.0.0.0 Safari/537.36","WebKit","Chrome","138.0.0.0","Windows","10.0","https://app.prolific.com/","en-US,en;q=0.9","6109656bb28bc0fadcad52ca","686d226cabeef709c732f8e1","686e31290849c14d410e97e8","6109656bb28bc0fadcad52ca","","","[0]","","","4","demographics","","","","","","","","","","","","","","","","","","","","","","","","","","","","","","","","","","","","","",""
"16445","","","{""education"":""Master's Degree (e.g., MSc)""}","survey-multi-choice","9","175513","0.0-6.0-4.0","105","1","2025-07-09 09:08:00","7701e855f2ef39aa3fd6c71abdc6918a","165.165.122.12","Mozilla/5.0 (Windows NT 10.0; Win64; x64) AppleWebKit/537.36 (KHTML, like Gecko) Chrome/138.0.0.0 Safari/537.36","WebKit","Chrome","138.0.0.0","Windows","10.0","https://app.prolific.com/","en-US,en;q=0.9","6109656bb28bc0fadcad52ca","686d226cabeef709c732f8e1","686e31290849c14d410e97e8","6109656bb28bc0fadcad52ca","","","[0]","","","5","demographics","","","","","","","","","","","","","","","","","","","","","","","","","","","","","","","","","","","","","",""
"4502","","","{""education"":""Master's Degree (e.g., MSc)""}","survey-multi-choice","10","180017","0.0-6.0-5.0","105","1","2025-07-09 09:08:00","7701e855f2ef39aa3fd6c71abdc6918a","165.165.122.12","Mozilla/5.0 (Windows NT 10.0; Win64; x64) AppleWebKit/537.36 (KHTML, like Gecko) Chrome/138.0.0.0 Safari/537.36","WebKit","Chrome","138.0.0.0","Windows","10.0","https://app.prolific.com/","en-US,en;q=0.9","6109656bb28bc0fadcad52ca","686d226cabeef709c732f8e1","686e31290849c14d410e97e8","6109656bb28bc0fadcad52ca","2025-07-09T09:11:02.920Z","","[0]","","","6","demographics","","","","","","","","","","","","","","","","","","","","","","","","","","","","","","","","","","","","","",""
"44570","","","{""mental_health_condition"":""na"",""mental_health_treatment"":""na"",""psychiatric_medication"":""na""}","survey-text","11","224590","0.0-7.0-0.0","105","1","2025-07-09 09:08:00","7701e855f2ef39aa3fd6c71abdc6918a","165.165.122.12","Mozilla/5.0 (Windows NT 10.0; Win64; x64) AppleWebKit/537.36 (KHTML, like Gecko) Chrome/138.0.0.0 Safari/537.36","WebKit","Chrome","138.0.0.0","Windows","10.0","https://app.prolific.com/","en-US,en;q=0.9","6109656bb28bc0fadcad52ca","686d226cabeef709c732f8e1","686e31290849c14d410e97e8","6109656bb28bc0fadcad52ca","2025-07-09T09:11:47.493Z","","","","","1","mental_health","","","","","","","","","","","","","","","","","","","","","","","","","","","","","","","","","","","","","",""
"48955","","","{""depression_history"":[""Yes""]}","survey-multi-select","12","273548","0.0-7.0-1.0","105","1","2025-07-09 09:08:00","7701e855f2ef39aa3fd6c71abdc6918a","165.165.122.12","Mozilla/5.0 (Windows NT 10.0; Win64; x64) AppleWebKit/537.36 (KHTML, like Gecko) Chrome/138.0.0.0 Safari/537.36","WebKit","Chrome","138.0.0.0","Windows","10.0","https://app.prolific.com/","en-US,en;q=0.9","6109656bb28bc0fadcad52ca","686d226cabeef709c732f8e1","686e31290849c14d410e97e8","6109656bb28bc0fadcad52ca","","","[0]","","","","mental_health","","","","","","","","","","","","","","","","","","","","","","","","","","","","","","","","","","","","","",""
"21259","","","{""depression_episodes"":""3-5"",""depression_recent"":""Within the past year""}","survey-multi-choice","13","294809","0.0-7.0-2.0-0.0","105","1","2025-07-09 09:08:00","7701e855f2ef39aa3fd6c71abdc6918a","165.165.122.12","Mozilla/5.0 (Windows NT 10.0; Win64; x64) AppleWebKit/537.36 (KHTML, like Gecko) Chrome/138.0.0.0 Safari/537.36","WebKit","Chrome","138.0.0.0","Windows","10.0","https://app.prolific.com/","en-US,en;q=0.9","6109656bb28bc0fadcad52ca","686d226cabeef709c732f8e1","686e31290849c14d410e97e8","6109656bb28bc0fadcad52ca","2025-07-09T09:12:57.712Z","","[0,1]","","","3","mental_health","","","","","","","","","","","","","","","","","","","","","","","","","","","","","","","","","","","","","",""
"126204.29999999702","","","","survey-template","14","421019","0.0-7.0-3.0","105","1","2025-07-09 09:08:00","7701e855f2ef39aa3fd6c71abdc6918a","165.165.122.12","Mozilla/5.0 (Windows NT 10.0; Win64; x64) AppleWebKit/537.36 (KHTML, like Gecko) Chrome/138.0.0.0 Safari/537.36","WebKit","Chrome","138.0.0.0","Windows","10.0","https://app.prolific.com/","en-US,en;q=0.9","6109656bb28bc0fadcad52ca","686d226cabeef709c732f8e1","686e31290849c14d410e97e8","6109656bb28bc0fadcad52ca","2025-07-09T09:15:03.922Z","","","","","","ius","{""Q01"":""1"",""Q02"":""1"",""Q03"":""0"",""Q04"":""1"",""Q05"":""0"",""Q06"":""0"",""Q07"":""0"",""Q08"":""0"",""Q09"":""1"",""Q10"":""0"",""Q11"":""1"",""Q12"":""1"",""Q13"":""0""}","[0,1,2,3,4,5,6,7,8,9,10,11,12]","[""Q01"",""Q02"",""Q03"",""Q04"",""Q05"",""Q06"",""Q02"",""Q04"",""Q07"",""Q08"",""Q09"",""Q10"",""Q11"",""Q11"",""Q12"",""Q13""]","[4762.0999999940395,12462,69241,72311.5,74747.5,81152.89999999851,87681.39999999851,93062.09999999404,100942.69999999553,101938.19999999553,106834.29999999702,110468.89999999851,113436.09999999404,115517.39999999851,122839,125188.39999999851]","[]","[4762.0999999940395,10496.69999999553,12462,67528.09999999404,69241,72311.5,74747.5,79832,81152.89999999851,87681.39999999851,91891.09999999404,93062.09999999404,96084.89999999851,98072.39999999851,100015.39999999851,100942.69999999553,101938.19999999553,106834.29999999702,110468.89999999851,113436.09999999404,115517.39999999851,122839,125188.39999999851,126202.09999999404]","0.5384615384615384","0.5833333333333334","0","","","","","","","","","","","","","","","","","","","","","","","","","","","","",""
"2123","1752052506046","<p style='font-size:1.1em;line-height:1.25'>In the following, we will ask you a few questions relating to your experiences over the past month.<br></p><p style='font-size:1.1em;line-height:1.25'>Press the <strong>Next</strong> button to continue.</p>","0","custom-html-button-response","15","423144","0.0-7.0-4.0","105","1","2025-07-09 09:08:00","7701e855f2ef39aa3fd6c71abdc6918a","165.165.122.12","Mozilla/5.0 (Windows NT 10.0; Win64; x64) AppleWebKit/537.36 (KHTML, like Gecko) Chrome/138.0.0.0 Safari/537.36","WebKit","Chrome","138.0.0.0","Windows","10.0","https://app.prolific.com/","en-US,en;q=0.9","6109656bb28bc0fadcad52ca","686d226cabeef709c732f8e1","686e31290849c14d410e97e8","6109656bb28bc0fadcad52ca","2025-07-09T09:15:06.047Z","","","","","","","","","","","","","","","","","","","","","","","","","","","","","","","","","","","","","","","","","","","",""
"96932","","","","survey-template","16","520079","0.0-7.0-5.0","105","1","2025-07-09 09:08:00","7701e855f2ef39aa3fd6c71abdc6918a","165.165.122.12","Mozilla/5.0 (Windows NT 10.0; Win64; x64) AppleWebKit/537.36 (KHTML, like Gecko) Chrome/138.0.0.0 Safari/537.36","WebKit","Chrome","138.0.0.0","Windows","10.0","https://app.prolific.com/","en-US,en;q=0.9","6109656bb28bc0fadcad52ca","686d226cabeef709c732f8e1","686e31290849c14d410e97e8","6109656bb28bc0fadcad52ca","2025-07-09T09:16:42.983Z","","","","","","pss","{""Q01"":""1"",""Q02"":""1"",""Q03"":""1"",""Q04"":""1"",""Q05"":""1"",""Q06"":""1"",""Q07"":""1"",""Q08"":""0"",""Q09"":""1"",""Q10"":""1""}","[0,1,2,3,4,5,6,7,8,9]","[""Q01"",""Q02"",""Q03"",""Q04"",""Q05"",""Q05"",""Q06"",""Q07"",""Q08"",""Q09"",""Q10""]","[27878.39999999851,30053.60000000149,33634.89999999851,40833.69999999553,76099.60000000149,79252.5,80850.89999999851,84452.89999999851,87278.10000000149,92010.79999999702,95566]","[]","[0,26737.29999999702,27878.39999999851,30053.60000000149,33634.89999999851,39507.39999999851,40833.69999999553,76099.60000000149,79252.5,80850.89999999851,84452.89999999851,87278.10000000149,92010.79999999702,95566,96930]","0.6","0.1111111111111111","0","","","","","","","","","","","","","","","","","","","","","","","","","","","","",""
"2103","1752052605086","<p style='font-size:1.1em;line-height:1.25'>Thank you for your answers! Now we will ask you a few more questions relating to your feelings in the last 24 hours.<br></p><p style='font-size:1.1em;line-height:1.25'>Press the <strong>Next</strong> button to continue.</p>","0","custom-html-button-response","17","522184","0.0-7.0-6.0","105","1","2025-07-09 09:08:00","7701e855f2ef39aa3fd6c71abdc6918a","165.165.122.12","Mozilla/5.0 (Windows NT 10.0; Win64; x64) AppleWebKit/537.36 (KHTML, like Gecko) Chrome/138.0.0.0 Safari/537.36","WebKit","Chrome","138.0.0.0","Windows","10.0","https://app.prolific.com/","en-US,en;q=0.9","6109656bb28bc0fadcad52ca","686d226cabeef709c732f8e1","686e31290849c14d410e97e8","6109656bb28bc0fadcad52ca","2025-07-09T09:16:45.087Z","","","","","","","","","","","","","","","","","","","","","","","","","","","","","","","","","","","","","","","","","","","",""
"79627.29999999702","","","","survey-template","18","601818","0.0-7.0-7.0","105","1","2025-07-09 09:08:00","7701e855f2ef39aa3fd6c71abdc6918a","165.165.122.12","Mozilla/5.0 (Windows NT 10.0; Win64; x64) AppleWebKit/537.36 (KHTML, like Gecko) Chrome/138.0.0.0 Safari/537.36","WebKit","Chrome","138.0.0.0","Windows","10.0","https://app.prolific.com/","en-US,en;q=0.9","6109656bb28bc0fadcad52ca","686d226cabeef709c732f8e1","686e31290849c14d410e97e8","6109656bb28bc0fadcad52ca","2025-07-09T09:18:04.721Z","","","","","","drsp","{""Q01"":""0"",""Q02"":""0"",""Q03"":""0"",""Q04"":""1"",""Q05"":""1"",""Q06"":""0"",""Q07"":""1"",""Q08"":""0"",""Q09"":""0"",""Q10"":""0"",""Q11"":""0"",""Q12"":""0"",""Q13"":""1"",""Q14"":""0"",""Q15"":""0"",""Q16"":""0"",""Q17"":""0"",""Q18"":""1"",""Q19"":""0"",""Q20"":""0"",""Q21"":""0""}","[0,1,2,3,4,5,6,7,8,9,10,11,12,13,14,15,16,17,18,19,20]","[""Q01"",""Q02"",""Q03"",""Q04"",""Q05"",""Q06"",""Q07"",""Q08"",""Q09"",""Q10"",""Q11"",""Q12"",""Q13"",""Q14"",""Q15"",""Q16"",""Q17"",""Q18"",""Q19"",""Q21"",""Q20""]","[4431.19999999553,6752.39999999851,10972.69999999553,11915.19999999553,13598.39999999851,15666.29999999702,17020.5,18408.5,22791.19999999553,23929.5,26789.79999999702,28305.5,31688.59999999404,41829.09999999404,42966.69999999553,44046.39999999851,62410.29999999702,64860.19999999553,70088.29999999702,73359.69999999553,76046.39999999851]","[]","[0,2606.5,3486.39999999851,4431.19999999553,5743.0999999940395,6752.39999999851,8521.09999999404,10076.59999999404,10972.69999999553,11915.19999999553,13598.39999999851,15666.29999999702,17020.5,18408.5,21036.89999999851,22791.19999999553,23929.5,25498.59999999404,26789.79999999702,28305.5,31688.59999999404,39986.59999999404,41829.09999999404,42966.69999999553,44046.39999999851,45091.19999999553,60748.09999999404,62410.29999999702,64860.19999999553,70088.29999999702,71527.69999999553,73359.69999999553,74577.09999999404,76046.39999999851,79623.79999999702]","0.7619047619047619","0.4","0","","","","","","","","","","","","","","","","","","","","","","","","","","","","",""
"22031","","","","survey-template","19","623852","0.0-7.0-8.0","105","1","2025-07-09 09:08:00","7701e855f2ef39aa3fd6c71abdc6918a","165.165.122.12","Mozilla/5.0 (Windows NT 10.0; Win64; x64) AppleWebKit/537.36 (KHTML, like Gecko) Chrome/138.0.0.0 Safari/537.36","WebKit","Chrome","138.0.0.0","Windows","10.0","https://app.prolific.com/","en-US,en;q=0.9","6109656bb28bc0fadcad52ca","686d226cabeef709c732f8e1","686e31290849c14d410e97e8","6109656bb28bc0fadcad52ca","2025-07-09T09:18:26.755Z","","","","","","stress","{""Q01"":""0"",""Q02"":""2"",""Q03"":""1""}","[0,1,2]","[""Q01"",""Q02"",""Q03""]","[3087.9000000059605,13372.20000000298,19849.60000000149]","[]","[3087.9000000059605,11620,13372.20000000298,19849.60000000149,22030.20000000298]","0.3333333333333333","0","0","","","","","","","","","","","","","","","","","","","","","","","","","","","","",""
"116668","","","","instructions","20","740522","0.0-8.0-0.0","105","1","2025-07-09 09:08:00","7701e855f2ef39aa3fd6c71abdc6918a","165.165.122.12","Mozilla/5.0 (Windows NT 10.0; Win64; x64) AppleWebKit/537.36 (KHTML, like Gecko) Chrome/138.0.0.0 Safari/537.36","WebKit","Chrome","138.0.0.0","Windows","10.0","https://app.prolific.com/","en-US,en;q=0.9","6109656bb28bc0fadcad52ca","686d226cabeef709c732f8e1","686e31290849c14d410e97e8","6109656bb28bc0fadcad52ca","","[{""page_index"":0,""viewing_time"":35573},{""page_index"":1,""viewing_time"":41771},{""page_index"":2,""viewing_time"":19627},{""page_index"":3,""viewing_time"":19697}]","","","","","","","","","","","","","","","","","","","","","","","","","","","","","","","","","","","","","","","","","","",""
"","","","","ctl-task-cpt","21","772412","0.0-8.0-1.0","105","1","2025-07-09 09:08:00","7701e855f2ef39aa3fd6c71abdc6918a","165.165.122.12","Mozilla/5.0 (Windows NT 10.0; Win64; x64) AppleWebKit/537.36 (KHTML, like Gecko) Chrome/138.0.0.0 Safari/537.36","WebKit","Chrome","138.0.0.0","Windows","10.0","https://app.prolific.com/","en-US,en;q=0.9","6109656bb28bc0fadcad52ca","686d226cabeef709c732f8e1","686e31290849c14d410e97e8","6109656bb28bc0fadcad52ca","","","","","","","","","","","","","","","","","win-only","1","g1:NE,g2:SW","1","0","1","743349.6","8586","12590.7","28883.6","2","4","4","6","1","2","-2","0","0","0","1256.3","4000","1680","[""up"",""right""]","{""num_key_presses"":12,""num_perfect"":4,""num_errors"":4,""num_randdir"":0,""num_randdir_good_moves"":0,""num_whilered"":4,""num_whileblue"":0,""num_blue"":0,""num_good_moves"":4}","[295.22232142857143,292.12857142857143,0.6,295.22232142857143,292.12857142857143,102.9,295.22232142857143,292.12857142857143,204.9,295.22232142857143,292.12857142857143,305.8,295.22232142857143,292.12857142857143,406.4,295.22232142857143,292.12857142857143,511,298.22232142857143,288.12857142857143,614.5,405.22232142857143,151.12857142857143,715,580.2223214285714,48.128571428571426,815.2,591.2223214285714,30.128571428571426,915.8,590.2223214285714,27.128571428571426,1016.1,578.2223214285714,33.128571428571426,1120.5,564.2223214285714,44.128571428571426,1224.6,563.2223214285714,45.128571428571426,1325.4,563.2223214285714,45.128571428571426,1429.4,563.2223214285714,45.128571428571426,1529.8,563.2223214285714,45.128571428571426,1634.9,563.2223214285714,45.128571428571426,1735,563.2223214285714,45.128571428571426,1835.5,563.2223214285714,45.128571428571426,1940,563.2223214285714,45.128571428571426,2040.4,563.2223214285714,45.128571428571426,2140.5,563.2223214285714,45.128571428571426,2240.7,563.2223214285714,45.128571428571426,2344.6,563.2223214285714,45.128571428571426,2444.7,563.2223214285714,45.128571428571426,2545.4,563.2223214285714,45.128571428571426,2650.1,563.2223214285714,45.128571428571426,2750.3,563.2223214285714,45.128571428571426,2855.1,563.2223214285714,45.128571428571426,2955.1,563.2223214285714,45.128571428571426,3060.4,563.2223214285714,45.128571428571426,3165.5,563.2223214285714,45.128571428571426,3265.6,563.2223214285714,45.128571428571426,3371.4,563.2223214285714,45.128571428571426,3475.1,563.2223214285714,45.128571428571426,3579.7,563.2223214285714,45.128571428571426,3680.8,563.2223214285714,45.128571428571426,3785.2,563.2223214285714,45.128571428571426,3885.5,563.2223214285714,45.128571428571426,3989.9]","[1692.3,1692.2,1000,0.1,692.3,""smooth"",""up"",""up"",""good_move"",2077,383.2,2259.9,1693.9,-1876.8,""error"",""-"",""-"",""no_move"",2233,155.8,2259.9,1693.9,-1720.7,""while_red"",""-"",""-"",""no_move"",2666.5,589.2,2259.9,1693.9,-1287.3,""while_red"",""-"",""-"",""no_move"",2771.2,693.9,2259.9,1693.9,-1182.6,""while_red"",""-"",""-"",""no_move"",3113.9,1036.6,2820.8,3080.6,-2787.5,""error"",""-"",""-"",""no_move"",4647.3,1533.2,2015,4115.9,-1483.5,""error"",""-"",""-"",""no_move"",4972.5,324.8,2015,4115.9,-1158.4,""while_red"",""-"",""-"",""no_move"",8439.1,3791.4,2201.1,5650,588,""smooth"",""up"",""up"",""good_move"",8833.8,394.4,2074.7,8439.4,-1680.3,""error"",""-"",""-"",""no_move"",13295.3,4461.1,2946,9835,514.3,""smooth"",""right"",""right"",""good_move"",16196.8,2900.8,2348.1,13296,552.7,""smooth"",""right"",""right"",""good_move""]","",""
"13827","","","","instructions","22","786239","0.0-8.0-2.0","105","1","2025-07-09 09:08:00","7701e855f2ef39aa3fd6c71abdc6918a","165.165.122.12","Mozilla/5.0 (Windows NT 10.0; Win64; x64) AppleWebKit/537.36 (KHTML, like Gecko) Chrome/138.0.0.0 Safari/537.36","WebKit","Chrome","138.0.0.0","Windows","10.0","https://app.prolific.com/","en-US,en;q=0.9","6109656bb28bc0fadcad52ca","686d226cabeef709c732f8e1","686e31290849c14d410e97e8","6109656bb28bc0fadcad52ca","","[{""page_index"":0,""viewing_time"":13827}]","","","","","","","","","","","","","","","","","","","","","","","","","","","","","","","","","","","","","","","","","","",""
"","","","","ctl-task-cpt","23","828837","0.0-8.0-3.0","105","1","2025-07-09 09:08:00","7701e855f2ef39aa3fd6c71abdc6918a","165.165.122.12","Mozilla/5.0 (Windows NT 10.0; Win64; x64) AppleWebKit/537.36 (KHTML, like Gecko) Chrome/138.0.0.0 Safari/537.36","WebKit","Chrome","138.0.0.0","Windows","10.0","https://app.prolific.com/","en-US,en;q=0.9","6109656bb28bc0fadcad52ca","686d226cabeef709c732f8e1","686e31290849c14d410e97e8","6109656bb28bc0fadcad52ca","","","","","","","","","","","","","","","","","win-only","1","g1:NE,g2:SW","0.35","0","3","789065.6","2645.1","6647.3","39582","2","4","8","6","2","-8","-8","0","0","0","2590.5","4000","-3015","[""down"",""left""]","{""num_key_presses"":8,""num_perfect"":4,""num_errors"":0,""num_randdir"":4,""num_randdir_good_moves"":0,""num_whilered"":0,""num_whileblue"":0,""num_blue"":2,""num_good_moves"":4}","[291.22232142857143,293.12857142857143,0.2,291.22232142857143,293.12857142857143,100.2,291.22232142857143,293.12857142857143,201.4,291.22232142857143,293.12857142857143,301.5,291.22232142857143,293.12857142857143,401.7,291.22232142857143,293.12857142857143,507.8,291.22232142857143,293.12857142857143,611.8,291.22232142857143,293.12857142857143,716.3,291.22232142857143,293.12857142857143,816.7,291.22232142857143,293.12857142857143,920.1,291.22232142857143,293.12857142857143,1022.4,291.22232142857143,293.12857142857143,1125.4,291.22232142857143,293.12857142857143,1225.7,291.22232142857143,293.12857142857143,1325.9,291.22232142857143,293.12857142857143,1426.1,291.22232142857143,293.12857142857143,1526.1,291.22232142857143,293.12857142857143,1630.5,291.22232142857143,294.12857142857143,1730.8,175.22232142857143,457.12857142857143,1831,81.22232142857143,585.1285714285714,1935.4,69.22232142857143,598.1285714285714,2040.5,63.222321428571426,610.1285714285714,2142.1,49.222321428571426,578.1285714285714,2248.3,50.222321428571426,551.1285714285714,2351.7,53.222321428571426,544.1285714285714,2455.8,53.222321428571426,544.1285714285714,2560.6,53.222321428571426,544.1285714285714,2660.7,53.222321428571426,544.1285714285714,2762.1,53.222321428571426,544.1285714285714,2862.2,53.222321428571426,544.1285714285714,2962.2,53.222321428571426,544.1285714285714,3066.2,53.222321428571426,544.1285714285714,3171.1,53.222321428571426,544.1285714285714,3271.5,53.222321428571426,544.1285714285714,3371.6,53.222321428571426,544.1285714285714,3471.7,53.222321428571426,544.1285714285714,3572.4,53.222321428571426,544.1285714285714,3675.7,53.222321428571426,544.1285714285714,3776.3,53.222321428571426,544.1285714285714,3876.6,53.222321428571426,544.1285714285714,3977]","[1532.4,1532.4,1000,0,532.4,""oops"",""left"",""up"",""bad_move"",4951.9,3419.2,2913.9,1532.7,505.3,""smooth"",""left"",""left"",""good_move"",9050.2,4097.8,3517.1,4952.4,580.7,""smooth"",""down"",""down"",""good_move"",11122.7,2072,1597.6,9050.7,474.4,""oops"",""down"",""up"",""bad_move"",14059.6,2936.6,2488,11123,448.6,""oops"",""down"",""right"",""bad_move"",16872.6,2811.9,2354.4,14060.7,457.5,""oops"",""down"",""up"",""bad_move"",23723.5,6850.6,2450.5,20789.1,483.9,""smooth"",""left"",""left"",""good_move"",30843.7,7120.1,2613.8,27673.9,556,""smooth"",""left"",""left"",""good_move""]","",""
"33887","","","","instructions","24","862725","0.0-8.0-4.0","105","1","2025-07-09 09:08:00","7701e855f2ef39aa3fd6c71abdc6918a","165.165.122.12","Mozilla/5.0 (Windows NT 10.0; Win64; x64) AppleWebKit/537.36 (KHTML, like Gecko) Chrome/138.0.0.0 Safari/537.36","WebKit","Chrome","138.0.0.0","Windows","10.0","https://app.prolific.com/","en-US,en;q=0.9","6109656bb28bc0fadcad52ca","686d226cabeef709c732f8e1","686e31290849c14d410e97e8","6109656bb28bc0fadcad52ca","","[{""page_index"":0,""viewing_time"":11288},{""page_index"":1,""viewing_time"":22598}]","","","","","","","","","","","","","","","","","","","","","","","","","","","","","","","","","","","","","","","","","","",""
"17518","","","{""green_ball"":[""Ball always moves in the direction I press""]}","survey-multi-select","25","880247","0.0-8.0-5.0-0.0","105","1","2025-07-09 09:08:00","7701e855f2ef39aa3fd6c71abdc6918a","165.165.122.12","Mozilla/5.0 (Windows NT 10.0; Win64; x64) AppleWebKit/537.36 (KHTML, like Gecko) Chrome/138.0.0.0 Safari/537.36","WebKit","Chrome","138.0.0.0","Windows","10.0","https://app.prolific.com/","en-US,en;q=0.9","6109656bb28bc0fadcad52ca","686d226cabeef709c732f8e1","686e31290849c14d410e97e8","6109656bb28bc0fadcad52ca","","","[0]","","","","quiz","","","","","","","","","","","","","","","","","","","","","","","","","","","","","","","","","","","","","false",""
"7309","","<p align='center'><b>INCORRECT.</b> Usually the green ball moves in the indicated direction, but sometimes it shakes and moves randomly. </p>","0","html-button-response","26","887558","0.0-8.0-5.0-1.0","105","1","2025-07-09 09:08:00","7701e855f2ef39aa3fd6c71abdc6918a","165.165.122.12","Mozilla/5.0 (Windows NT 10.0; Win64; x64) AppleWebKit/537.36 (KHTML, like Gecko) Chrome/138.0.0.0 Safari/537.36","WebKit","Chrome","138.0.0.0","Windows","10.0","https://app.prolific.com/","en-US,en;q=0.9","6109656bb28bc0fadcad52ca","686d226cabeef709c732f8e1","686e31290849c14d410e97e8","6109656bb28bc0fadcad52ca","","","","","","","","","","","","","","","","","","","","","","","","","","","","","","","","","","","","","","","","","","","","",""
"4577","","","{""green_ball"":[""Ball sometimes shakes and moves in a random direction""]}","survey-multi-select","27","892138","0.0-8.0-5.1-0.1","105","1","2025-07-09 09:08:00","7701e855f2ef39aa3fd6c71abdc6918a","165.165.122.12","Mozilla/5.0 (Windows NT 10.0; Win64; x64) AppleWebKit/537.36 (KHTML, like Gecko) Chrome/138.0.0.0 Safari/537.36","WebKit","Chrome","138.0.0.0","Windows","10.0","https://app.prolific.com/","en-US,en;q=0.9","6109656bb28bc0fadcad52ca","686d226cabeef709c732f8e1","686e31290849c14d410e97e8","6109656bb28bc0fadcad52ca","","","[0]","","","","quiz","","","","","","","","","","","","","","","","","","","","","","","","","","","","","","","","","","","","","true",""
"1932","","<p align='center'><b>CORRECT!</b> Indeed, the green ball may sometimes shake and move in a random direction.</p>","0","html-button-response","28","894071","0.0-8.0-5.1-1.1","105","1","2025-07-09 09:08:00","7701e855f2ef39aa3fd6c71abdc6918a","165.165.122.12","Mozilla/5.0 (Windows NT 10.0; Win64; x64) AppleWebKit/537.36 (KHTML, like Gecko) Chrome/138.0.0.0 Safari/537.36","WebKit","Chrome","138.0.0.0","Windows","10.0","https://app.prolific.com/","en-US,en;q=0.9","6109656bb28bc0fadcad52ca","686d226cabeef709c732f8e1","686e31290849c14d410e97e8","6109656bb28bc0fadcad52ca","","","","","","","","","","","","","","","","","","","","","","","","","","","","","","","","","","","","","","","","","","","","",""
"7221","","","{""yellow_ball"":[""Ball doesn‘t move and I get -1 penalty point""]}","survey-multi-select","29","901294","0.0-8.0-6.0-0.0","105","1","2025-07-09 09:08:00","7701e855f2ef39aa3fd6c71abdc6918a","165.165.122.12","Mozilla/5.0 (Windows NT 10.0; Win64; x64) AppleWebKit/537.36 (KHTML, like Gecko) Chrome/138.0.0.0 Safari/537.36","WebKit","Chrome","138.0.0.0","Windows","10.0","https://app.prolific.com/","en-US,en;q=0.9","6109656bb28bc0fadcad52ca","686d226cabeef709c732f8e1","686e31290849c14d410e97e8","6109656bb28bc0fadcad52ca","","","[0]","","","","quiz","","","","","","","","","","","","","","","","","","","","","","","","","","","","","","","","","","","","","true",""
"1482","","<p align='center'><b>CORRECT!</b> Indeed, the yellow ball never moves and you receive a penalty.</p>","0","html-button-response","30","902778","0.0-8.0-6.0-1.0","105","1","2025-07-09 09:08:00","7701e855f2ef39aa3fd6c71abdc6918a","165.165.122.12","Mozilla/5.0 (Windows NT 10.0; Win64; x64) AppleWebKit/537.36 (KHTML, like Gecko) Chrome/138.0.0.0 Safari/537.36","WebKit","Chrome","138.0.0.0","Windows","10.0","https://app.prolific.com/","en-US,en;q=0.9","6109656bb28bc0fadcad52ca","686d226cabeef709c732f8e1","686e31290849c14d410e97e8","6109656bb28bc0fadcad52ca","","","","","","","","","","","","","","","","","","","","","","","","","","","","","","","","","","","","","","","","","","","","",""
"9662","","","{""blue_ball"":[""Ball always shakes and moves in a random direction""]}","survey-multi-select","31","912446","0.0-8.0-7.0-0.0","105","1","2025-07-09 09:08:00","7701e855f2ef39aa3fd6c71abdc6918a","165.165.122.12","Mozilla/5.0 (Windows NT 10.0; Win64; x64) AppleWebKit/537.36 (KHTML, like Gecko) Chrome/138.0.0.0 Safari/537.36","WebKit","Chrome","138.0.0.0","Windows","10.0","https://app.prolific.com/","en-US,en;q=0.9","6109656bb28bc0fadcad52ca","686d226cabeef709c732f8e1","686e31290849c14d410e97e8","6109656bb28bc0fadcad52ca","","","[0]","","","","quiz","","","","","","","","","","","","","","","","","","","","","","","","","","","","","","","","","","","","","true",""
"2062","","<p align='center'><b>CORRECT!</b> Indeed, the blue ball always shakes and moves in a random direction. Also there is a penalty of -1 point.</p>","0","html-button-response","32","914509","0.0-8.0-7.0-1.0","105","1","2025-07-09 09:08:00","7701e855f2ef39aa3fd6c71abdc6918a","165.165.122.12","Mozilla/5.0 (Windows NT 10.0; Win64; x64) AppleWebKit/537.36 (KHTML, like Gecko) Chrome/138.0.0.0 Safari/537.36","WebKit","Chrome","138.0.0.0","Windows","10.0","https://app.prolific.com/","en-US,en;q=0.9","6109656bb28bc0fadcad52ca","686d226cabeef709c732f8e1","686e31290849c14d410e97e8","6109656bb28bc0fadcad52ca","","","","","","","","","","","","","","","","","","","","","","","","","","","","","","","","","","","","","","","","","","","","",""
"10267","","","{""bonus"":[""When I reach 50% of points""]}","survey-multi-select","33","924781","0.0-8.0-8.0-0.0","105","1","2025-07-09 09:08:00","7701e855f2ef39aa3fd6c71abdc6918a","165.165.122.12","Mozilla/5.0 (Windows NT 10.0; Win64; x64) AppleWebKit/537.36 (KHTML, like Gecko) Chrome/138.0.0.0 Safari/537.36","WebKit","Chrome","138.0.0.0","Windows","10.0","https://app.prolific.com/","en-US,en;q=0.9","6109656bb28bc0fadcad52ca","686d226cabeef709c732f8e1","686e31290849c14d410e97e8","6109656bb28bc0fadcad52ca","","","[0]","","","","quiz","","","","","","","","","","","","","","","","","","","","","","","","","","","","","","","","","","","","","true",""
"3557","","<p align='center'><b>CORRECT!</b> Indeed, you receive 2 pounds extra when you reach 50% of points.</p>","0","html-button-response","34","928339","0.0-8.0-8.0-1.0","105","1","2025-07-09 09:08:00","7701e855f2ef39aa3fd6c71abdc6918a","165.165.122.12","Mozilla/5.0 (Windows NT 10.0; Win64; x64) AppleWebKit/537.36 (KHTML, like Gecko) Chrome/138.0.0.0 Safari/537.36","WebKit","Chrome","138.0.0.0","Windows","10.0","https://app.prolific.com/","en-US,en;q=0.9","6109656bb28bc0fadcad52ca","686d226cabeef709c732f8e1","686e31290849c14d410e97e8","6109656bb28bc0fadcad52ca","","","","","","","","","","","","","","","","","","","","","","","","","","","","","","","","","","","","","","","","","","","","",""
"8196","","","","instructions","35","936536","0.0-8.0-9.0","105","1","2025-07-09 09:08:00","7701e855f2ef39aa3fd6c71abdc6918a","165.165.122.12","Mozilla/5.0 (Windows NT 10.0; Win64; x64) AppleWebKit/537.36 (KHTML, like Gecko) Chrome/138.0.0.0 Safari/537.36","WebKit","Chrome","138.0.0.0","Windows","10.0","https://app.prolific.com/","en-US,en;q=0.9","6109656bb28bc0fadcad52ca","686d226cabeef709c732f8e1","686e31290849c14d410e97e8","6109656bb28bc0fadcad52ca","","[{""page_index"":0,""viewing_time"":8195}]","","","","","","","","","","","","","","","","","","","","","","","","","","","","","","","","","","","","","","","","","","",""
"38926","","<p>Before you start with this game please answer the following three questions yourself. </p>
  <p>Through this game, we measure several aspects of your cognitive performance, such as reaction times, multi-tasking capabilities </p>
  <p>and the ability to assess the situation you are in.</p>
  <p></p>
  <p><b>How good do you usually are in such tasks?</b></p>","87","html-slider-response","36","975464","0.0-9.0-0.0","105","1","2025-07-09 09:08:00","7701e855f2ef39aa3fd6c71abdc6918a","165.165.122.12","Mozilla/5.0 (Windows NT 10.0; Win64; x64) AppleWebKit/537.36 (KHTML, like Gecko) Chrome/138.0.0.0 Safari/537.36","WebKit","Chrome","138.0.0.0","Windows","10.0","https://app.prolific.com/","en-US,en;q=0.9","6109656bb28bc0fadcad52ca","686d226cabeef709c732f8e1","686e31290849c14d410e97e8","6109656bb28bc0fadcad52ca","2025-07-09T09:24:18.367Z","","","","","","PreSkillQ","","","","","","","","","","","","","","","","","","","","","","","","","","","","","","","","","","","","","","50"
"5857","","<div style=""width:500px;"">
  <p>How well do you think you will perform in this task compared to other participants?</p>
  </div>","56","html-slider-response","37","981323","0.0-9.0-1.0","105","1","2025-07-09 09:08:00","7701e855f2ef39aa3fd6c71abdc6918a","165.165.122.12","Mozilla/5.0 (Windows NT 10.0; Win64; x64) AppleWebKit/537.36 (KHTML, like Gecko) Chrome/138.0.0.0 Safari/537.36","WebKit","Chrome","138.0.0.0","Windows","10.0","https://app.prolific.com/","en-US,en;q=0.9","6109656bb28bc0fadcad52ca","686d226cabeef709c732f8e1","686e31290849c14d410e97e8","6109656bb28bc0fadcad52ca","2025-07-09T09:24:24.226Z","","","","","","PrePerfQ","","","","","","","","","","","","","","","","","","","","","","","","","","","","","","","","","","","","","","50"
"5774","","<div style=""width:500px;"">
  <p>What best describes how you currently feel?</p>
  </div>","91","html-slider-response","38","987099","0.0-9.0-2.0","105","1","2025-07-09 09:08:00","7701e855f2ef39aa3fd6c71abdc6918a","165.165.122.12","Mozilla/5.0 (Windows NT 10.0; Win64; x64) AppleWebKit/537.36 (KHTML, like Gecko) Chrome/138.0.0.0 Safari/537.36","WebKit","Chrome","138.0.0.0","Windows","10.0","https://app.prolific.com/","en-US,en;q=0.9","6109656bb28bc0fadcad52ca","686d226cabeef709c732f8e1","686e31290849c14d410e97e8","6109656bb28bc0fadcad52ca","2025-07-09T09:24:30.002Z","","","","","","PreMotivationQ","","","","","","","","","","","","","","","","","","","","","","","","","","","","","","","","","","","","","","50"
"","","","","ctl-task-cpt","39","1020744","0.0-10.0-0.0","105","1","2025-07-09 09:08:00","7701e855f2ef39aa3fd6c71abdc6918a","165.165.122.12","Mozilla/5.0 (Windows NT 10.0; Win64; x64) AppleWebKit/537.36 (KHTML, like Gecko) Chrome/138.0.0.0 Safari/537.36","WebKit","Chrome","138.0.0.0","Windows","10.0","https://app.prolific.com/","en-US,en;q=0.9","6109656bb28bc0fadcad52ca","686d226cabeef709c732f8e1","686e31290849c14d410e97e8","6109656bb28bc0fadcad52ca","2025-07-09T09:25:03.647Z","","","","","","","","","","","","","","","","win-only","1","g1:NE,g2:SW","1","1","0","989926.5","4236.7","9240.6","30621","1","4","4","6","2","4","3","3","0","0.022727272727272728","1117.4","3000","150","[""down"",""left""]","{""num_key_presses"":7,""num_perfect"":6,""num_errors"":1,""num_randdir"":0,""num_randdir_good_moves"":0,""num_whilered"":0,""num_whileblue"":0,""num_blue"":1,""num_good_moves"":6}","[296.22232142857143,297.12857142857143,0.6,296.22232142857143,297.12857142857143,104.8,296.22232142857143,297.12857142857143,210.2,296.22232142857143,297.12857142857143,314.2,296.22232142857143,297.12857142857143,419.7,296.22232142857143,297.12857142857143,523.9,292.22232142857143,297.12857142857143,625.9,222.22232142857143,369.12857142857143,727.6,81.22232142857143,534.1285714285714,836.5,69.22232142857143,548.1285714285714,937.6,60.222321428571426,558.1285714285714,1040.4,59.222321428571426,552.1285714285714,1144.6,59.222321428571426,552.1285714285714,1247.6,59.222321428571426,552.1285714285714,1352.4,59.222321428571426,552.1285714285714,1454,59.222321428571426,552.1285714285714,1559.6,59.222321428571426,552.1285714285714,1660.4,59.222321428571426,552.1285714285714,1763.7,59.222321428571426,552.1285714285714,1863.7,59.222321428571426,552.1285714285714,1964.4,59.222321428571426,552.1285714285714,2065.2,59.222321428571426,552.1285714285714,2165.4,59.222321428571426,552.1285714285714,2267.6,59.222321428571426,552.1285714285714,2369.1,59.222321428571426,552.1285714285714,2475.3,59.222321428571426,552.1285714285714,2582.4,59.222321428571426,552.1285714285714,2685.1,59.222321428571426,552.1285714285714,2789.9,59.222321428571426,552.1285714285714,2894.7,59.222321428571426,552.1285714285714,2994.7,59.222321428571426,552.1285714285714,3098.9,59.222321428571426,552.1285714285714,3199.3,59.222321428571426,552.1285714285714,3304.3,59.222321428571426,552.1285714285714,3404.4,59.222321428571426,552.1285714285714,3506,59.222321428571426,552.1285714285714,3609,59.222321428571426,552.1285714285714,3714.9,59.222321428571426,552.1285714285714,3819.1,59.222321428571426,552.1285714285714,3919.8,59.222321428571426,552.1285714285714,4021.3,59.222321428571426,552.1285714285714,4124.4,59.222321428571426,552.1285714285714,4224.4,59.222321428571426,552.1285714285714,4324.4,59.222321428571426,552.1285714285714,4424.5,59.222321428571426,552.1285714285714,4529,59.222321428571426,552.1285714285714,4629.3,59.222321428571426,552.1285714285714,4729.4,59.222321428571426,552.1285714285714,4834.3,59.222321428571426,552.1285714285714,4936.7]","[5347.5,5347.5,2834.6,2001.5,511.4,""smooth"",""left"",""left"",""good_move"",8293.6,2945.5,2572.1,5348.1,373.4,""smooth"",""down"",""down"",""good_move"",10905.7,2611.8,2155.5,8293.9,456.3,""smooth"",""down"",""down"",""good_move"",13529.4,2623.5,2136.1,10905.9,487.4,""smooth"",""down"",""down"",""good_move"",15057.9,1527.6,2381.2,13530.4,-853.7,""error"",""-"",""-"",""no_move"",19007.5,3948.8,2310.8,16060.2,636.6,""smooth"",""left"",""left"",""good_move"",21293,2285,1834.8,19008.1,450.2,""smooth"",""left"",""left"",""good_move""]","",""
"7609","","<div style=""width:500px;"">
  <p>What determined the result of this run?</p>
  </div>","93","html-slider-response","40","1028354","0.0-10.0-1.0","105","1","2025-07-09 09:08:00","7701e855f2ef39aa3fd6c71abdc6918a","165.165.122.12","Mozilla/5.0 (Windows NT 10.0; Win64; x64) AppleWebKit/537.36 (KHTML, like Gecko) Chrome/138.0.0.0 Safari/537.36","WebKit","Chrome","138.0.0.0","Windows","10.0","https://app.prolific.com/","en-US,en;q=0.9","6109656bb28bc0fadcad52ca","686d226cabeef709c732f8e1","686e31290849c14d410e97e8","6109656bb28bc0fadcad52ca","2025-07-09T09:25:11.257Z","","","","","","AttribQ","","","","","","","","","","","","","","","","","","","","","","","","","","","","","","","","","","","","","","50"
"3651","","<div style=""width:500px;"">
  <p>How much control did you have over the ball?</p>
  </div>","100","html-slider-response","41","1032007","0.0-10.0-2.0","105","1","2025-07-09 09:08:00","7701e855f2ef39aa3fd6c71abdc6918a","165.165.122.12","Mozilla/5.0 (Windows NT 10.0; Win64; x64) AppleWebKit/537.36 (KHTML, like Gecko) Chrome/138.0.0.0 Safari/537.36","WebKit","Chrome","138.0.0.0","Windows","10.0","https://app.prolific.com/","en-US,en;q=0.9","6109656bb28bc0fadcad52ca","686d226cabeef709c732f8e1","686e31290849c14d410e97e8","6109656bb28bc0fadcad52ca","2025-07-09T09:25:14.910Z","","","","","","ControlQ","","","","","","","","","","","","","","","","","","","","","","","","","","","","","","","","","","","","","","50"
"6216","","<div style=""width:500px;"">
  <p>How would you describe your current emotional state?</p>
  </div>","14","html-slider-response","42","1038225","0.0-10.0-3.0","105","1","2025-07-09 09:08:00","7701e855f2ef39aa3fd6c71abdc6918a","165.165.122.12","Mozilla/5.0 (Windows NT 10.0; Win64; x64) AppleWebKit/537.36 (KHTML, like Gecko) Chrome/138.0.0.0 Safari/537.36","WebKit","Chrome","138.0.0.0","Windows","10.0","https://app.prolific.com/","en-US,en;q=0.9","6109656bb28bc0fadcad52ca","686d226cabeef709c732f8e1","686e31290849c14d410e97e8","6109656bb28bc0fadcad52ca","2025-07-09T09:25:21.128Z","","","","","","StressQ","","","","","","","","","","","","","","","","","","","","","","","","","","","","","","","","","","","","","","50"
"4442","","<div style=""width:500px;"">
  <p>What best describes how you currently feel?</p>
  </div>","100","html-slider-response","43","1042669","0.0-10.0-4.0","105","1","2025-07-09 09:08:00","7701e855f2ef39aa3fd6c71abdc6918a","165.165.122.12","Mozilla/5.0 (Windows NT 10.0; Win64; x64) AppleWebKit/537.36 (KHTML, like Gecko) Chrome/138.0.0.0 Safari/537.36","WebKit","Chrome","138.0.0.0","Windows","10.0","https://app.prolific.com/","en-US,en;q=0.9","6109656bb28bc0fadcad52ca","686d226cabeef709c732f8e1","686e31290849c14d410e97e8","6109656bb28bc0fadcad52ca","2025-07-09T09:25:25.572Z","","","","","","MotivationQ","","","","","","","","","","","","","","","","","","","","","","","","","","","","","","","","","","","","","","50"
"","","","","ctl-task-cpt","44","1076293","0.0-10.0-0.1","105","1","2025-07-09 09:08:00","7701e855f2ef39aa3fd6c71abdc6918a","165.165.122.12","Mozilla/5.0 (Windows NT 10.0; Win64; x64) AppleWebKit/537.36 (KHTML, like Gecko) Chrome/138.0.0.0 Safari/537.36","WebKit","Chrome","138.0.0.0","Windows","10.0","https://app.prolific.com/","en-US,en;q=0.9","6109656bb28bc0fadcad52ca","686d226cabeef709c732f8e1","686e31290849c14d410e97e8","6109656bb28bc0fadcad52ca","2025-07-09T09:25:59.196Z","","","","","","","","","","","","","","","","win-only","3","g1:SW,g2:NE","0.9","2","0","1045496.7","1647","6656","30617.8","1","4","8","6","2","8","8","11","3","0.08333333333333333","1425.7","3000","75","[""up"",""right""]","{""num_key_presses"":8,""num_perfect"":7,""num_errors"":0,""num_randdir"":1,""num_randdir_good_moves"":0,""num_whilered"":0,""num_whileblue"":0,""num_blue"":0,""num_good_moves"":7}","[299.22232142857143,301.12857142857143,0.3,299.22232142857143,301.12857142857143,100.3,299.22232142857143,301.12857142857143,204.1,299.22232142857143,301.12857142857143,304.1,299.22232142857143,301.12857142857143,410.7,299.22232142857143,301.12857142857143,515,299.22232142857143,301.12857142857143,618.6,344.22232142857143,244.12857142857143,720.4,467.22232142857143,147.12857142857143,820.6,467.22232142857143,147.12857142857143,923.5,467.22232142857143,147.12857142857143,1024.4,481.22232142857143,42.128571428571426,1125.7,520.2223214285714,24.128571428571426,1228.4,522.2223214285714,27.128571428571426,1328.8,527.2223214285714,39.128571428571426,1436.6,528.2223214285714,41.128571428571426,1542.2,528.2223214285714,41.128571428571426,1650.7,528.2223214285714,41.128571428571426,1750.9,528.2223214285714,41.128571428571426,1853.4,528.2223214285714,41.128571428571426,1954.4,528.2223214285714,41.128571428571426,2059.3,528.2223214285714,41.128571428571426,2159.8,528.2223214285714,41.128571428571426,2268.2,528.2223214285714,41.128571428571426,2368.5,528.2223214285714,41.128571428571426,2468.9,528.2223214285714,41.128571428571426,2575.3,528.2223214285714,41.128571428571426,2678.9,528.2223214285714,41.128571428571426,2783.6,528.2223214285714,41.128571428571426,2885.7,528.2223214285714,41.128571428571426,2989.1,528.2223214285714,41.128571428571426,3093.5,528.2223214285714,41.128571428571426,3199.9,528.2223214285714,41.128571428571426,3305.7,528.2223214285714,41.128571428571426,3408.5,528.2223214285714,41.128571428571426,3511.7,528.2223214285714,41.128571428571426,3615,528.2223214285714,41.128571428571426,3721.6,528.2223214285714,41.128571428571426,3824,528.2223214285714,41.128571428571426,3929,528.2223214285714,41.128571428571426,4029.3,528.2223214285714,41.128571428571426,4129.3,528.2223214285714,41.128571428571426,4229.8,528.2223214285714,41.128571428571426,4333.7,528.2223214285714,41.128571428571426,4435.1,528.2223214285714,41.128571428571426,4538.5,528.2223214285714,41.128571428571426,4638.5,528.2223214285714,41.128571428571426,4738.7,528.2223214285714,41.128571428571426,4844.2,528.2223214285714,41.128571428571426,4952.6]","[1500.6,1500.6,1000,0,500.6,""smooth"",""right"",""right"",""good_move"",4642.8,3141.5,2667.3,1501.3,474.3,""smooth"",""up"",""up"",""good_move"",7438.9,2795.5,2325.9,4643.4,469.6,""smooth"",""up"",""up"",""good_move"",10980.5,3541.3,3127.6,7439.2,413.7,""smooth"",""right"",""right"",""good_move"",14688.4,3707.5,3346,10980.9,361.5,""smooth"",""up"",""up"",""good_move"",16971,2282,1882.5,14689,399.5,""oops"",""right"",""left"",""bad_move"",21037.2,4065.4,3646.2,16971.8,419.2,""smooth"",""right"",""right"",""good_move"",23852.8,2815.3,2388,21037.5,427.3,""smooth"",""right"",""right"",""good_move""]","",""
"4442","","<div style=""width:500px;"">
  <p>What determined the result of this run?</p>
  </div>","73","html-slider-response","45","1080737","0.0-10.0-1.1","105","1","2025-07-09 09:08:00","7701e855f2ef39aa3fd6c71abdc6918a","165.165.122.12","Mozilla/5.0 (Windows NT 10.0; Win64; x64) AppleWebKit/537.36 (KHTML, like Gecko) Chrome/138.0.0.0 Safari/537.36","WebKit","Chrome","138.0.0.0","Windows","10.0","https://app.prolific.com/","en-US,en;q=0.9","6109656bb28bc0fadcad52ca","686d226cabeef709c732f8e1","686e31290849c14d410e97e8","6109656bb28bc0fadcad52ca","2025-07-09T09:26:03.640Z","","","","","","AttribQ","","","","","","","","","","","","","","","","","","","","","","","","","","","","","","","","","","","","","","50"
"4062","","<div style=""width:500px;"">
  <p>How much control did you have over the ball?</p>
  </div>","60","html-slider-response","46","1084801","0.0-10.0-2.1","105","1","2025-07-09 09:08:00","7701e855f2ef39aa3fd6c71abdc6918a","165.165.122.12","Mozilla/5.0 (Windows NT 10.0; Win64; x64) AppleWebKit/537.36 (KHTML, like Gecko) Chrome/138.0.0.0 Safari/537.36","WebKit","Chrome","138.0.0.0","Windows","10.0","https://app.prolific.com/","en-US,en;q=0.9","6109656bb28bc0fadcad52ca","686d226cabeef709c732f8e1","686e31290849c14d410e97e8","6109656bb28bc0fadcad52ca","2025-07-09T09:26:07.704Z","","","","","","ControlQ","","","","","","","","","","","","","","","","","","","","","","","","","","","","","","","","","","","","","","50"
"5730","","<div style=""width:500px;"">
  <p>How would you describe your current emotional state?</p>
  </div>","12","html-slider-response","47","1090533","0.0-10.0-3.1","105","1","2025-07-09 09:08:00","7701e855f2ef39aa3fd6c71abdc6918a","165.165.122.12","Mozilla/5.0 (Windows NT 10.0; Win64; x64) AppleWebKit/537.36 (KHTML, like Gecko) Chrome/138.0.0.0 Safari/537.36","WebKit","Chrome","138.0.0.0","Windows","10.0","https://app.prolific.com/","en-US,en;q=0.9","6109656bb28bc0fadcad52ca","686d226cabeef709c732f8e1","686e31290849c14d410e97e8","6109656bb28bc0fadcad52ca","2025-07-09T09:26:13.436Z","","","","","","StressQ","","","","","","","","","","","","","","","","","","","","","","","","","","","","","","","","","","","","","","50"
"3359","","<div style=""width:500px;"">
  <p>What best describes how you currently feel?</p>
  </div>","98","html-slider-response","48","1093895","0.0-10.0-4.1","105","1","2025-07-09 09:08:00","7701e855f2ef39aa3fd6c71abdc6918a","165.165.122.12","Mozilla/5.0 (Windows NT 10.0; Win64; x64) AppleWebKit/537.36 (KHTML, like Gecko) Chrome/138.0.0.0 Safari/537.36","WebKit","Chrome","138.0.0.0","Windows","10.0","https://app.prolific.com/","en-US,en;q=0.9","6109656bb28bc0fadcad52ca","686d226cabeef709c732f8e1","686e31290849c14d410e97e8","6109656bb28bc0fadcad52ca","2025-07-09T09:26:16.799Z","","","","","","MotivationQ","","","","","","","","","","","","","","","","","","","","","","","","","","","","","","","","","","","","","","50"
"","","","","ctl-task-cpt","49","1123496","0.0-10.0-0.2","105","1","2025-07-09 09:08:00","7701e855f2ef39aa3fd6c71abdc6918a","165.165.122.12","Mozilla/5.0 (Windows NT 10.0; Win64; x64) AppleWebKit/537.36 (KHTML, like Gecko) Chrome/138.0.0.0 Safari/537.36","WebKit","Chrome","138.0.0.0","Windows","10.0","https://app.prolific.com/","en-US,en;q=0.9","6109656bb28bc0fadcad52ca","686d226cabeef709c732f8e1","686e31290849c14d410e97e8","6109656bb28bc0fadcad52ca","2025-07-09T09:26:46.399Z","","","","","","","","","","","","","","","","win-only","0","g1:NW,g2:SE","0.8","3","0","1096723.8","1442.7","6444.7","26580.5","1","4","8","6","2","8","8","19","11","0.14393939393939395","1045.7","3000","1160","[""down"",""right""]","{""num_key_presses"":6,""num_perfect"":6,""num_errors"":0,""num_randdir"":0,""num_randdir_good_moves"":0,""num_whilered"":0,""num_whileblue"":0,""num_blue"":1,""num_good_moves"":6}","[302.22232142857143,293.12857142857143,0.4,302.22232142857143,293.12857142857143,109,302.22232142857143,293.12857142857143,214,302.22232142857143,293.12857142857143,314.6,302.22232142857143,293.12857142857143,417.9,302.22232142857143,293.12857142857143,518.3,302.22232142857143,293.12857142857143,618.4,428.22232142857143,394.12857142857143,719.2,524.2223214285714,528.1285714285714,827.6,525.2223214285714,530.1285714285714,939.8,525.2223214285714,530.1285714285714,1039.9,525.2223214285714,530.1285714285714,1140.4,525.2223214285714,530.1285714285714,1243.7,525.2223214285714,530.1285714285714,1344.7,525.2223214285714,530.1285714285714,1448.6,525.2223214285714,530.1285714285714,1548.7,525.2223214285714,530.1285714285714,1659.8,525.2223214285714,530.1285714285714,1763.4,525.2223214285714,530.1285714285714,1873.9,525.2223214285714,530.1285714285714,1978.3,525.2223214285714,530.1285714285714,2083.7,525.2223214285714,530.1285714285714,2183.8,525.2223214285714,530.1285714285714,2289.9,525.2223214285714,530.1285714285714,2394.1,525.2223214285714,530.1285714285714,2494.7,525.2223214285714,530.1285714285714,2597.9,525.2223214285714,530.1285714285714,2699,525.2223214285714,530.1285714285714,2806.9,525.2223214285714,530.1285714285714,2911.6,525.2223214285714,530.1285714285714,3021.2,525.2223214285714,530.1285714285714,3123.3,525.2223214285714,530.1285714285714,3225,525.2223214285714,530.1285714285714,3327.8,525.2223214285714,530.1285714285714,3428.4,525.2223214285714,530.1285714285714,3529.8,525.2223214285714,530.1285714285714,3639.1,525.2223214285714,530.1285714285714,3746.8,525.2223214285714,530.1285714285714,3849.2,525.2223214285714,530.1285714285714,3952.8,525.2223214285714,530.1285714285714,4053.3,525.2223214285714,530.1285714285714,4160.1,525.2223214285714,530.1285714285714,4270.7,525.2223214285714,530.1285714285714,4373.3,525.2223214285714,530.1285714285714,4474.4,525.2223214285714,530.1285714285714,4578.6,525.2223214285714,530.1285714285714,4687.5,525.2223214285714,530.1285714285714,4787.7,525.2223214285714,530.1285714285714,4888.4,525.2223214285714,530.1285714285714,4988.9]","[5077.8,5077.8,2733.2,2005.7,338.9,""smooth"",""down"",""down"",""good_move"",7721.7,2643.4,2217.4,5078.3,426,""smooth"",""down"",""down"",""good_move"",11471.9,3749.4,3340.4,7722.5,409,""smooth"",""down"",""down"",""good_move"",14864.3,3392.2,2958.9,11472.1,433.3,""smooth"",""right"",""right"",""good_move"",17025.6,2160.8,1759.5,14864.8,401.3,""smooth"",""right"",""right"",""good_move"",20041.1,3015.3,2675.3,17025.8,340,""smooth"",""right"",""right"",""good_move""]","",""
"4601","","<div style=""width:500px;"">
  <p>What determined the result of this run?</p>
  </div>","99","html-slider-response","50","1128098","0.0-10.0-1.2","105","1","2025-07-09 09:08:00","7701e855f2ef39aa3fd6c71abdc6918a","165.165.122.12","Mozilla/5.0 (Windows NT 10.0; Win64; x64) AppleWebKit/537.36 (KHTML, like Gecko) Chrome/138.0.0.0 Safari/537.36","WebKit","Chrome","138.0.0.0","Windows","10.0","https://app.prolific.com/","en-US,en;q=0.9","6109656bb28bc0fadcad52ca","686d226cabeef709c732f8e1","686e31290849c14d410e97e8","6109656bb28bc0fadcad52ca","2025-07-09T09:26:51.001Z","","","","","","AttribQ","","","","","","","","","","","","","","","","","","","","","","","","","","","","","","","","","","","","","","50"
"2712","","<div style=""width:500px;"">
  <p>How much control did you have over the ball?</p>
  </div>","100","html-slider-response","51","1130812","0.0-10.0-2.2","105","1","2025-07-09 09:08:00","7701e855f2ef39aa3fd6c71abdc6918a","165.165.122.12","Mozilla/5.0 (Windows NT 10.0; Win64; x64) AppleWebKit/537.36 (KHTML, like Gecko) Chrome/138.0.0.0 Safari/537.36","WebKit","Chrome","138.0.0.0","Windows","10.0","https://app.prolific.com/","en-US,en;q=0.9","6109656bb28bc0fadcad52ca","686d226cabeef709c732f8e1","686e31290849c14d410e97e8","6109656bb28bc0fadcad52ca","2025-07-09T09:26:53.715Z","","","","","","ControlQ","","","","","","","","","","","","","","","","","","","","","","","","","","","","","","","","","","","","","","50"
"3644","","<div style=""width:500px;"">
  <p>How would you describe your current emotional state?</p>
  </div>","7","html-slider-response","52","1134458","0.0-10.0-3.2","105","1","2025-07-09 09:08:00","7701e855f2ef39aa3fd6c71abdc6918a","165.165.122.12","Mozilla/5.0 (Windows NT 10.0; Win64; x64) AppleWebKit/537.36 (KHTML, like Gecko) Chrome/138.0.0.0 Safari/537.36","WebKit","Chrome","138.0.0.0","Windows","10.0","https://app.prolific.com/","en-US,en;q=0.9","6109656bb28bc0fadcad52ca","686d226cabeef709c732f8e1","686e31290849c14d410e97e8","6109656bb28bc0fadcad52ca","2025-07-09T09:26:57.361Z","","","","","","StressQ","","","","","","","","","","","","","","","","","","","","","","","","","","","","","","","","","","","","","","50"
"3177","","<div style=""width:500px;"">
  <p>What best describes how you currently feel?</p>
  </div>","99","html-slider-response","53","1137637","0.0-10.0-4.2","105","1","2025-07-09 09:08:00","7701e855f2ef39aa3fd6c71abdc6918a","165.165.122.12","Mozilla/5.0 (Windows NT 10.0; Win64; x64) AppleWebKit/537.36 (KHTML, like Gecko) Chrome/138.0.0.0 Safari/537.36","WebKit","Chrome","138.0.0.0","Windows","10.0","https://app.prolific.com/","en-US,en;q=0.9","6109656bb28bc0fadcad52ca","686d226cabeef709c732f8e1","686e31290849c14d410e97e8","6109656bb28bc0fadcad52ca","2025-07-09T09:27:00.540Z","","","","","","MotivationQ","","","","","","","","","","","","","","","","","","","","","","","","","","","","","","","","","","","","","","50"
"","","","","ctl-task-cpt","54","1185937","0.0-10.0-0.3","105","1","2025-07-09 09:08:00","7701e855f2ef39aa3fd6c71abdc6918a","165.165.122.12","Mozilla/5.0 (Windows NT 10.0; Win64; x64) AppleWebKit/537.36 (KHTML, like Gecko) Chrome/138.0.0.0 Safari/537.36","WebKit","Chrome","138.0.0.0","Windows","10.0","https://app.prolific.com/","en-US,en;q=0.9","6109656bb28bc0fadcad52ca","686d226cabeef709c732f8e1","686e31290849c14d410e97e8","6109656bb28bc0fadcad52ca","2025-07-09T09:27:48.840Z","","","","","","","","","","","","","","","","win-only","2","g1:SE,g2:NW","0.7","4","0","1140465.7","1672.1","6674.5","45271.2","1","4","4","6","2","-4","-7","12","19","0.09090909090909091","2613.1","3000","-2310","[""left"",""up""]","{""num_key_presses"":12,""num_perfect"":7,""num_errors"":3,""num_randdir"":2,""num_randdir_good_moves"":0,""num_whilered"":0,""num_whileblue"":1,""num_blue"":2,""num_good_moves"":7}","[302.22232142857143,301.12857142857143,0.2,302.22232142857143,301.12857142857143,131.7,302.22232142857143,301.12857142857143,234.6,302.22232142857143,301.12857142857143,335.3,302.22232142857143,301.12857142857143,438.4,302.22232142857143,301.12857142857143,539.4,302.22232142857143,301.12857142857143,640.6,303.22232142857143,301.12857142857143,744,305.22232142857143,301.12857142857143,844.2,237.22232142857143,255.12857142857143,944.2,224.22232142857143,254.12857142857143,1050.2,224.22232142857143,254.12857142857143,1152,207.22232142857143,225.12857142857143,1254.2,118.22232142857143,115.12857142857143,1365.1,101.22232142857143,94.12857142857143,1465.6,101.22232142857143,94.12857142857143,1565.7,101.22232142857143,94.12857142857143,1668.7,101.22232142857143,94.12857142857143,1769.5,101.22232142857143,94.12857142857143,1874,101.22232142857143,94.12857142857143,1974.4,101.22232142857143,94.12857142857143,2078.2,101.22232142857143,94.12857142857143,2181.8,101.22232142857143,94.12857142857143,2290.1,101.22232142857143,94.12857142857143,2395.6,63.222321428571426,91.12857142857143,2498.8,63.222321428571426,91.12857142857143,2598.8,63.222321428571426,90.12857142857143,2715.8,63.222321428571426,90.12857142857143,2820.8,63.222321428571426,90.12857142857143,2921.7,63.222321428571426,90.12857142857143,3024.1,63.222321428571426,90.12857142857143,3124.4,63.222321428571426,90.12857142857143,3228.7,63.222321428571426,90.12857142857143,3335,63.222321428571426,90.12857142857143,3442.3,63.222321428571426,90.12857142857143,3544.3,63.222321428571426,90.12857142857143,3650.4,63.222321428571426,90.12857142857143,3758.6,63.222321428571426,90.12857142857143,3860.8,63.222321428571426,90.12857142857143,3965,63.222321428571426,90.12857142857143,4070.7,63.222321428571426,90.12857142857143,4170.8,63.222321428571426,90.12857142857143,4280.4,58.222321428571426,-60.871428571428574,4381,58.222321428571426,-60.871428571428574,4494.9,58.222321428571426,-60.871428571428574,4594.9,147.22232142857143,57.128571428571426,4696.1,274.22232142857143,215.12857142857143,4806.1,285.22232142857143,233.12857142857143,4908.5]","[1936,1936.1,1000,0,936.1,""smooth"",""left"",""left"",""good_move"",5209.7,3273.3,2796.5,1936.5,476.8,""smooth"",""up"",""up"",""good_move"",7955.6,2744.8,2301.9,5210.8,442.9,""smooth"",""up"",""up"",""good_move"",10869.9,2913.9,2517.3,7956,396.6,""oops"",""left"",""right"",""bad_move"",18143.7,7273,3394.9,14406.9,341.9,""smooth"",""left"",""left"",""good_move"",21236.8,3092.1,2642.5,18144.7,449.6,""smooth"",""left"",""left"",""good_move"",24225.3,2987.8,2571.1,21237.5,416.7,""oops"",""left"",""down"",""bad_move"",27136.9,2911.1,2504.9,24225.8,406.2,""smooth"",""up"",""up"",""good_move"",30540.6,3402.6,2994.9,27138,407.7,""smooth"",""up"",""up"",""good_move"",31007.2,466.2,1827.6,30541,-1361.4,""error"",""-"",""-"",""no_move"",32382,1374.5,2616.7,32011.6,-2246.3,""error"",""-"",""-"",""no_move"",36262.3,3880,2542.4,33388.4,331.5,""while_blue"",""left"",""right"",""bad_move""]","",""
"7430","","<div style=""width:500px;"">
  <p>What determined the result of this run?</p>
  </div>","71","html-slider-response","55","1193369","0.0-10.0-1.3","105","1","2025-07-09 09:08:00","7701e855f2ef39aa3fd6c71abdc6918a","165.165.122.12","Mozilla/5.0 (Windows NT 10.0; Win64; x64) AppleWebKit/537.36 (KHTML, like Gecko) Chrome/138.0.0.0 Safari/537.36","WebKit","Chrome","138.0.0.0","Windows","10.0","https://app.prolific.com/","en-US,en;q=0.9","6109656bb28bc0fadcad52ca","686d226cabeef709c732f8e1","686e31290849c14d410e97e8","6109656bb28bc0fadcad52ca","2025-07-09T09:27:56.272Z","","","","","","AttribQ","","","","","","","","","","","","","","","","","","","","","","","","","","","","","","","","","","","","","","50"
"3189","","<div style=""width:500px;"">
  <p>How much control did you have over the ball?</p>
  </div>","24","html-slider-response","56","1196561","0.0-10.0-2.3","105","1","2025-07-09 09:08:00","7701e855f2ef39aa3fd6c71abdc6918a","165.165.122.12","Mozilla/5.0 (Windows NT 10.0; Win64; x64) AppleWebKit/537.36 (KHTML, like Gecko) Chrome/138.0.0.0 Safari/537.36","WebKit","Chrome","138.0.0.0","Windows","10.0","https://app.prolific.com/","en-US,en;q=0.9","6109656bb28bc0fadcad52ca","686d226cabeef709c732f8e1","686e31290849c14d410e97e8","6109656bb28bc0fadcad52ca","2025-07-09T09:27:59.464Z","","","","","","ControlQ","","","","","","","","","","","","","","","","","","","","","","","","","","","","","","","","","","","","","","50"
"3237","","<div style=""width:500px;"">
  <p>How would you describe your current emotional state?</p>
  </div>","8","html-slider-response","57","1199801","0.0-10.0-3.3","105","1","2025-07-09 09:08:00","7701e855f2ef39aa3fd6c71abdc6918a","165.165.122.12","Mozilla/5.0 (Windows NT 10.0; Win64; x64) AppleWebKit/537.36 (KHTML, like Gecko) Chrome/138.0.0.0 Safari/537.36","WebKit","Chrome","138.0.0.0","Windows","10.0","https://app.prolific.com/","en-US,en;q=0.9","6109656bb28bc0fadcad52ca","686d226cabeef709c732f8e1","686e31290849c14d410e97e8","6109656bb28bc0fadcad52ca","2025-07-09T09:28:02.704Z","","","","","","StressQ","","","","","","","","","","","","","","","","","","","","","","","","","","","","","","","","","","","","","","50"
"4158","","<div style=""width:500px;"">
  <p>What best describes how you currently feel?</p>
  </div>","94","html-slider-response","58","1203962","0.0-10.0-4.3","105","1","2025-07-09 09:08:00","7701e855f2ef39aa3fd6c71abdc6918a","165.165.122.12","Mozilla/5.0 (Windows NT 10.0; Win64; x64) AppleWebKit/537.36 (KHTML, like Gecko) Chrome/138.0.0.0 Safari/537.36","WebKit","Chrome","138.0.0.0","Windows","10.0","https://app.prolific.com/","en-US,en;q=0.9","6109656bb28bc0fadcad52ca","686d226cabeef709c732f8e1","686e31290849c14d410e97e8","6109656bb28bc0fadcad52ca","2025-07-09T09:28:06.865Z","","","","","","MotivationQ","","","","","","","","","","","","","","","","","","","","","","","","","","","","","","","","","","","","","","50"
"","","","","ctl-task-cpt","59","1258841","0.0-10.0-0.4","105","1","2025-07-09 09:08:00","7701e855f2ef39aa3fd6c71abdc6918a","165.165.122.12","Mozilla/5.0 (Windows NT 10.0; Win64; x64) AppleWebKit/537.36 (KHTML, like Gecko) Chrome/138.0.0.0 Safari/537.36","WebKit","Chrome","138.0.0.0","Windows","10.0","https://app.prolific.com/","en-US,en;q=0.9","6109656bb28bc0fadcad52ca","686d226cabeef709c732f8e1","686e31290849c14d410e97e8","6109656bb28bc0fadcad52ca","2025-07-09T09:29:01.744Z","","","","","","","","","","","","","","","","win-only","2","g1:SE,g2:NW","0.6","5","0","1206790","2128.1","7131.3","51846","1","4","4","6","2","-4","-4","8","12","0.06060606060606061","1410.4","3000","-2185","[""left"",""up""]","{""num_key_presses"":9,""num_perfect"":5,""num_errors"":0,""num_randdir"":4,""num_randdir_good_moves"":1,""num_whilered"":0,""num_whileblue"":0,""num_blue"":5,""num_good_moves"":6}","[298.22232142857143,293.12857142857143,0.7,298.22232142857143,293.12857142857143,108.7,298.22232142857143,293.12857142857143,212,298.22232142857143,293.12857142857143,313.7,298.22232142857143,293.12857142857143,414,298.22232142857143,293.12857142857143,514,298.22232142857143,293.12857142857143,617.4,263.22232142857143,258.12857142857143,723.7,-11.777678571428574,-33.871428571428574,832.7,-14.777678571428574,-42.871428571428574,938.2,-14.777678571428574,-36.871428571428574,1040.6,-4.777678571428574,-17.871428571428574,1143.8,41.222321428571426,35.128571428571426,1248.1,45.222321428571426,38.128571428571426,1354.8,45.222321428571426,38.128571428571426,1470.9,45.222321428571426,38.128571428571426,1572.5,45.222321428571426,38.128571428571426,1674.5,45.222321428571426,38.128571428571426,1781.4,45.222321428571426,38.128571428571426,1883.4,45.222321428571426,38.128571428571426,1988.9,45.222321428571426,38.128571428571426,2093.8,45.222321428571426,38.128571428571426,2197.2,45.222321428571426,38.128571428571426,2297.9,45.222321428571426,38.128571428571426,2398,45.222321428571426,38.128571428571426,2504.6,45.222321428571426,38.128571428571426,2613.3,45.222321428571426,38.128571428571426,2715.2,45.222321428571426,38.128571428571426,2817.4,45.222321428571426,38.128571428571426,2918.4,45.222321428571426,38.128571428571426,3023.7,45.222321428571426,38.128571428571426,3132.5,45.222321428571426,38.128571428571426,3237.6,45.222321428571426,38.128571428571426,3349.8,45.222321428571426,38.128571428571426,3457.1,45.222321428571426,38.128571428571426,3565.4,45.222321428571426,38.128571428571426,3667.4,45.222321428571426,38.128571428571426,3768.4,45.222321428571426,38.128571428571426,3869.3,45.222321428571426,38.128571428571426,3969.9,45.222321428571426,38.128571428571426,4074.1,45.222321428571426,38.128571428571426,4178.9,45.222321428571426,38.128571428571426,4282,45.222321428571426,38.128571428571426,4387.7,45.222321428571426,38.128571428571426,4494.4,45.222321428571426,38.128571428571426,4598.1,45.222321428571426,38.128571428571426,4704.9,45.222321428571426,38.128571428571426,4808.3,45.222321428571426,38.128571428571426,4918.4]","[5525.9,5525.9,3085.6,2005.3,435.1,""smooth"",""up"",""up"",""good_move"",8808.6,3282.1,2859.9,5526.5,422.2,""oops"",""up"",""right"",""bad_move"",11746.3,2936.7,2481.8,8809.6,454.9,""oops"",""up"",""right"",""bad_move"",14782.3,3035.8,2584,11746.6,451.8,""smooth"",""up"",""up"",""good_move"",24251.3,9468.5,1771.8,22020.1,459.4,""smooth"",""up"",""up"",""good_move"",26987.8,2736.3,2295.7,24251.6,440.6,""oops"",""left"",""left"",""good_move"",30063.6,3075.2,2622.5,26988.4,452.7,""smooth"",""left"",""left"",""good_move"",32258.2,2194.2,1814.2,30064,380,""smooth"",""left"",""left"",""good_move"",38713.9,6455.6,2437.6,35920,356.3,""oops"",""left"",""right"",""bad_move""]","",""
"7115","","<div style=""width:500px;"">
  <p>What determined the result of this run?</p>
  </div>","90","html-slider-response","60","1265958","0.0-10.0-1.4","105","1","2025-07-09 09:08:00","7701e855f2ef39aa3fd6c71abdc6918a","165.165.122.12","Mozilla/5.0 (Windows NT 10.0; Win64; x64) AppleWebKit/537.36 (KHTML, like Gecko) Chrome/138.0.0.0 Safari/537.36","WebKit","Chrome","138.0.0.0","Windows","10.0","https://app.prolific.com/","en-US,en;q=0.9","6109656bb28bc0fadcad52ca","686d226cabeef709c732f8e1","686e31290849c14d410e97e8","6109656bb28bc0fadcad52ca","2025-07-09T09:29:08.862Z","","","","","","AttribQ","","","","","","","","","","","","","","","","","","","","","","","","","","","","","","","","","","","","","","50"
"2900","","<div style=""width:500px;"">
  <p>How much control did you have over the ball?</p>
  </div>","9","html-slider-response","61","1268860","0.0-10.0-2.4","105","1","2025-07-09 09:08:00","7701e855f2ef39aa3fd6c71abdc6918a","165.165.122.12","Mozilla/5.0 (Windows NT 10.0; Win64; x64) AppleWebKit/537.36 (KHTML, like Gecko) Chrome/138.0.0.0 Safari/537.36","WebKit","Chrome","138.0.0.0","Windows","10.0","https://app.prolific.com/","en-US,en;q=0.9","6109656bb28bc0fadcad52ca","686d226cabeef709c732f8e1","686e31290849c14d410e97e8","6109656bb28bc0fadcad52ca","2025-07-09T09:29:11.763Z","","","","","","ControlQ","","","","","","","","","","","","","","","","","","","","","","","","","","","","","","","","","","","","","","50"
"4309","","<div style=""width:500px;"">
  <p>How would you describe your current emotional state?</p>
  </div>","4","html-slider-response","62","1273171","0.0-10.0-3.4","105","1","2025-07-09 09:08:00","7701e855f2ef39aa3fd6c71abdc6918a","165.165.122.12","Mozilla/5.0 (Windows NT 10.0; Win64; x64) AppleWebKit/537.36 (KHTML, like Gecko) Chrome/138.0.0.0 Safari/537.36","WebKit","Chrome","138.0.0.0","Windows","10.0","https://app.prolific.com/","en-US,en;q=0.9","6109656bb28bc0fadcad52ca","686d226cabeef709c732f8e1","686e31290849c14d410e97e8","6109656bb28bc0fadcad52ca","2025-07-09T09:29:16.074Z","","","","","","StressQ","","","","","","","","","","","","","","","","","","","","","","","","","","","","","","","","","","","","","","50"
"3035","","<div style=""width:500px;"">
  <p>What best describes how you currently feel?</p>
  </div>","98","html-slider-response","63","1276208","0.0-10.0-4.4","105","1","2025-07-09 09:08:00","7701e855f2ef39aa3fd6c71abdc6918a","165.165.122.12","Mozilla/5.0 (Windows NT 10.0; Win64; x64) AppleWebKit/537.36 (KHTML, like Gecko) Chrome/138.0.0.0 Safari/537.36","WebKit","Chrome","138.0.0.0","Windows","10.0","https://app.prolific.com/","en-US,en;q=0.9","6109656bb28bc0fadcad52ca","686d226cabeef709c732f8e1","686e31290849c14d410e97e8","6109656bb28bc0fadcad52ca","2025-07-09T09:29:19.111Z","","","","","","MotivationQ","","","","","","","","","","","","","","","","","","","","","","","","","","","","","","","","","","","","","","50"
"","","","","ctl-task-cpt","64","1322018","0.0-10.0-0.5","105","1","2025-07-09 09:08:00","7701e855f2ef39aa3fd6c71abdc6918a","165.165.122.12","Mozilla/5.0 (Windows NT 10.0; Win64; x64) AppleWebKit/537.36 (KHTML, like Gecko) Chrome/138.0.0.0 Safari/537.36","WebKit","Chrome","138.0.0.0","Windows","10.0","https://app.prolific.com/","en-US,en;q=0.9","6109656bb28bc0fadcad52ca","686d226cabeef709c732f8e1","686e31290849c14d410e97e8","6109656bb28bc0fadcad52ca","2025-07-09T09:30:04.921Z","","","","","","","","","","","","","","","","win-only","0","g1:NW,g2:SE","0.5","6","0","1279036.3","1227.9","6239.4","42781.2","1","4","8","6","2","-8","-9","0","8","0","1286.9","3000","-2055","[""down"",""right""]","{""num_key_presses"":10,""num_perfect"":4,""num_errors"":1,""num_randdir"":5,""num_randdir_good_moves"":2,""num_whilered"":0,""num_whileblue"":0,""num_blue"":1,""num_good_moves"":6}","[300.22232142857143,298.12857142857143,0.3,300.22232142857143,298.12857142857143,110.2,300.22232142857143,298.12857142857143,218.7,300.22232142857143,298.12857142857143,335.6,300.22232142857143,298.12857142857143,439.8,300.22232142857143,298.12857142857143,542.7,300.22232142857143,298.12857142857143,659.1,436.22232142857143,421.12857142857143,766.4,503.22232142857143,503.12857142857143,867.8,508.22232142857143,509.12857142857143,985.9,510.22232142857143,510.12857142857143,1088.7,524.2223214285714,520.1285714285714,1196.6,524.2223214285714,520.1285714285714,1298.6,524.2223214285714,520.1285714285714,1417.5,524.2223214285714,520.1285714285714,1518.2,524.2223214285714,520.1285714285714,1622,524.2223214285714,520.1285714285714,1722.7,524.2223214285714,520.1285714285714,1826.3,524.2223214285714,520.1285714285714,1930.5,524.2223214285714,520.1285714285714,2047.5,524.2223214285714,520.1285714285714,2148.2,524.2223214285714,520.1285714285714,2253.4,524.2223214285714,520.1285714285714,2359.9,524.2223214285714,520.1285714285714,2463.3,524.2223214285714,520.1285714285714,2568.4,524.2223214285714,520.1285714285714,2673.1,524.2223214285714,520.1285714285714,2778.3,524.2223214285714,520.1285714285714,2889.5,524.2223214285714,520.1285714285714,2993.5,524.2223214285714,520.1285714285714,3098.4,524.2223214285714,520.1285714285714,3212.9,524.2223214285714,520.1285714285714,3313.3,524.2223214285714,520.1285714285714,3413.5,524.2223214285714,520.1285714285714,3514.2,524.2223214285714,520.1285714285714,3620,524.2223214285714,520.1285714285714,3723.6,524.2223214285714,520.1285714285714,3828.1,524.2223214285714,520.1285714285714,3942.9,524.2223214285714,520.1285714285714,4043.3,524.2223214285714,520.1285714285714,4145,524.2223214285714,520.1285714285714,4248.6,524.2223214285714,520.1285714285714,4352.5,524.2223214285714,520.1285714285714,4452.6,524.2223214285714,520.1285714285714,4553.2,524.2223214285714,520.1285714285714,4660.3,524.2223214285714,520.1285714285714,4773.1,524.2223214285714,520.1285714285714,4878.7,524.2223214285714,520.1285714285714,4980.3]","[431.8,431.8,1000,0,-568.2,""error"",""-"",""-"",""no_move"",5092.7,4660.5,3206.4,1440.9,445.4,""smooth"",""down"",""down"",""good_move"",8227.7,3134.6,2699.2,5093.1,435.4,""oops"",""down"",""down"",""good_move"",11006.9,2779,2254.4,8228,524.5,""smooth"",""right"",""right"",""good_move"",13823,2815.3,2360.6,11007.7,454.7,""oops"",""right"",""left"",""bad_move"",16706.6,2882.9,2448,13823.7,434.9,""oops"",""down"",""up"",""bad_move"",24101.2,7394.1,3142.2,20466.6,492.4,""smooth"",""right"",""right"",""good_move"",27910.7,3808.9,3409.2,24101.8,399.7,""oops"",""right"",""left"",""bad_move"",31136.9,3225.5,2700.7,27911.4,524.8,""oops"",""right"",""down"",""good_move"",34055.9,2918.6,2400,31137.3,518.6,""smooth"",""down"",""down"",""good_move""]","",""
"10621","","<div style=""width:500px;"">
  <p>What determined the result of this run?</p>
  </div>","54","html-slider-response","65","1332642","0.0-10.0-1.5","105","1","2025-07-09 09:08:00","7701e855f2ef39aa3fd6c71abdc6918a","165.165.122.12","Mozilla/5.0 (Windows NT 10.0; Win64; x64) AppleWebKit/537.36 (KHTML, like Gecko) Chrome/138.0.0.0 Safari/537.36","WebKit","Chrome","138.0.0.0","Windows","10.0","https://app.prolific.com/","en-US,en;q=0.9","6109656bb28bc0fadcad52ca","686d226cabeef709c732f8e1","686e31290849c14d410e97e8","6109656bb28bc0fadcad52ca","2025-07-09T09:30:15.545Z","","","","","","AttribQ","","","","","","","","","","","","","","","","","","","","","","","","","","","","","","","","","","","","","","50"
"2754","","<div style=""width:500px;"">
  <p>How much control did you have over the ball?</p>
  </div>","17","html-slider-response","66","1335399","0.0-10.0-2.5","105","1","2025-07-09 09:08:00","7701e855f2ef39aa3fd6c71abdc6918a","165.165.122.12","Mozilla/5.0 (Windows NT 10.0; Win64; x64) AppleWebKit/537.36 (KHTML, like Gecko) Chrome/138.0.0.0 Safari/537.36","WebKit","Chrome","138.0.0.0","Windows","10.0","https://app.prolific.com/","en-US,en;q=0.9","6109656bb28bc0fadcad52ca","686d226cabeef709c732f8e1","686e31290849c14d410e97e8","6109656bb28bc0fadcad52ca","2025-07-09T09:30:18.302Z","","","","","","ControlQ","","","","","","","","","","","","","","","","","","","","","","","","","","","","","","","","","","","","","","50"
"3858","","<div style=""width:500px;"">
  <p>How would you describe your current emotional state?</p>
  </div>","2","html-slider-response","67","1339259","0.0-10.0-3.5","105","1","2025-07-09 09:08:00","7701e855f2ef39aa3fd6c71abdc6918a","165.165.122.12","Mozilla/5.0 (Windows NT 10.0; Win64; x64) AppleWebKit/537.36 (KHTML, like Gecko) Chrome/138.0.0.0 Safari/537.36","WebKit","Chrome","138.0.0.0","Windows","10.0","https://app.prolific.com/","en-US,en;q=0.9","6109656bb28bc0fadcad52ca","686d226cabeef709c732f8e1","686e31290849c14d410e97e8","6109656bb28bc0fadcad52ca","2025-07-09T09:30:22.162Z","","","","","","StressQ","","","","","","","","","","","","","","","","","","","","","","","","","","","","","","","","","","","","","","50"
"2660","","<div style=""width:500px;"">
  <p>What best describes how you currently feel?</p>
  </div>","99","html-slider-response","68","1341921","0.0-10.0-4.5","105","1","2025-07-09 09:08:00","7701e855f2ef39aa3fd6c71abdc6918a","165.165.122.12","Mozilla/5.0 (Windows NT 10.0; Win64; x64) AppleWebKit/537.36 (KHTML, like Gecko) Chrome/138.0.0.0 Safari/537.36","WebKit","Chrome","138.0.0.0","Windows","10.0","https://app.prolific.com/","en-US,en;q=0.9","6109656bb28bc0fadcad52ca","686d226cabeef709c732f8e1","686e31290849c14d410e97e8","6109656bb28bc0fadcad52ca","2025-07-09T09:30:24.824Z","","","","","","MotivationQ","","","","","","","","","","","","","","","","","","","","","","","","","","","","","","","","","","","","","","50"
"","","","","ctl-task-cpt","69","1372982","0.0-10.0-0.6","105","1","2025-07-09 09:08:00","7701e855f2ef39aa3fd6c71abdc6918a","165.165.122.12","Mozilla/5.0 (Windows NT 10.0; Win64; x64) AppleWebKit/537.36 (KHTML, like Gecko) Chrome/138.0.0.0 Safari/537.36","WebKit","Chrome","138.0.0.0","Windows","10.0","https://app.prolific.com/","en-US,en;q=0.9","6109656bb28bc0fadcad52ca","686d226cabeef709c732f8e1","686e31290849c14d410e97e8","6109656bb28bc0fadcad52ca","2025-07-09T09:30:55.885Z","","","","","","","","","","","","","","","","win-only","2","g1:SE,g2:NW","0.4","7","0","1344748.6","3412.4","8421.3","28036.7","1","4","4","6","2","4","3","3","0","0.022727272727272728","1135.1","3000","1460","[""left"",""up""]","{""num_key_presses"":7,""num_perfect"":3,""num_errors"":1,""num_randdir"":3,""num_randdir_good_moves"":3,""num_whilered"":0,""num_whileblue"":0,""num_blue"":0,""num_good_moves"":6}","[298.22232142857143,295.12857142857143,0.8,298.22232142857143,295.12857142857143,103.8,298.22232142857143,295.12857142857143,204,298.22232142857143,295.12857142857143,320.1,298.22232142857143,295.12857142857143,423.3,298.22232142857143,295.12857142857143,527.9,298.22232142857143,295.12857142857143,629,250.22232142857143,251.12857142857143,734.3,75.22232142857143,32.128571428571426,841,71.22232142857143,26.128571428571426,943,70.22232142857143,26.128571428571426,1049.4,65.22232142857143,26.128571428571426,1150.3,65.22232142857143,26.128571428571426,1254.9,65.22232142857143,26.128571428571426,1359.5,65.22232142857143,26.128571428571426,1472.7,65.22232142857143,26.128571428571426,1572.8,65.22232142857143,26.128571428571426,1673.1,65.22232142857143,26.128571428571426,1773.5,65.22232142857143,26.128571428571426,1879,65.22232142857143,26.128571428571426,1995.5,65.22232142857143,26.128571428571426,2100.9,65.22232142857143,26.128571428571426,2203.2,65.22232142857143,26.128571428571426,2303.2,65.22232142857143,26.128571428571426,2403.7,65.22232142857143,26.128571428571426,2504.4,65.22232142857143,26.128571428571426,2604.6,65.22232142857143,26.128571428571426,2708.7,65.22232142857143,26.128571428571426,2809.5,65.22232142857143,26.128571428571426,2921.6,65.22232142857143,26.128571428571426,3024.6,65.22232142857143,26.128571428571426,3130.8,65.22232142857143,26.128571428571426,3234.7,65.22232142857143,26.128571428571426,3347.8,65.22232142857143,26.128571428571426,3448.6,65.22232142857143,26.128571428571426,3553.8,65.22232142857143,26.128571428571426,3658.1,65.22232142857143,26.128571428571426,3758.6,65.22232142857143,26.128571428571426,3859,65.22232142857143,26.128571428571426,3960.4,65.22232142857143,26.128571428571426,4075.1,65.22232142857143,26.128571428571426,4179.2,65.22232142857143,26.128571428571426,4283.6,65.22232142857143,26.128571428571426,4388.5,65.22232142857143,26.128571428571426,4489.8,65.22232142857143,26.128571428571426,4603.2,65.22232142857143,26.128571428571426,4714,65.22232142857143,26.128571428571426,4814,65.22232142857143,26.128571428571426,4914.5]","[621.5,621.5,1000,0,-378.5,""error"",""-"",""-"",""no_move"",4858.7,4237,2743.2,1628.2,487.3,""smooth"",""up"",""up"",""good_move"",7965.3,3105.9,2684.3,4859.4,421.6,""smooth"",""up"",""up"",""good_move"",10795.7,2830,2503.5,7965.8,326.4,""oops"",""left"",""left"",""good_move"",13741.7,2945.6,2580.9,10796.1,364.7,""oops"",""left"",""left"",""good_move"",16903.7,3161.5,2737,13742.2,424.5,""smooth"",""left"",""left"",""good_move"",19478.6,2574.6,2211.5,16904,363.1,""oops"",""up"",""up"",""good_move""]","",""
"4508","","<div style=""width:500px;"">
  <p>What determined the result of this run?</p>
  </div>","84","html-slider-response","70","1377492","0.0-10.0-1.6","105","1","2025-07-09 09:08:00","7701e855f2ef39aa3fd6c71abdc6918a","165.165.122.12","Mozilla/5.0 (Windows NT 10.0; Win64; x64) AppleWebKit/537.36 (KHTML, like Gecko) Chrome/138.0.0.0 Safari/537.36","WebKit","Chrome","138.0.0.0","Windows","10.0","https://app.prolific.com/","en-US,en;q=0.9","6109656bb28bc0fadcad52ca","686d226cabeef709c732f8e1","686e31290849c14d410e97e8","6109656bb28bc0fadcad52ca","2025-07-09T09:31:00.395Z","","","","","","AttribQ","","","","","","","","","","","","","","","","","","","","","","","","","","","","","","","","","","","","","","50"
"3877","","<div style=""width:500px;"">
  <p>How much control did you have over the ball?</p>
  </div>","90","html-slider-response","71","1381371","0.0-10.0-2.6","105","1","2025-07-09 09:08:00","7701e855f2ef39aa3fd6c71abdc6918a","165.165.122.12","Mozilla/5.0 (Windows NT 10.0; Win64; x64) AppleWebKit/537.36 (KHTML, like Gecko) Chrome/138.0.0.0 Safari/537.36","WebKit","Chrome","138.0.0.0","Windows","10.0","https://app.prolific.com/","en-US,en;q=0.9","6109656bb28bc0fadcad52ca","686d226cabeef709c732f8e1","686e31290849c14d410e97e8","6109656bb28bc0fadcad52ca","2025-07-09T09:31:04.275Z","","","","","","ControlQ","","","","","","","","","","","","","","","","","","","","","","","","","","","","","","","","","","","","","","50"
"2865","","<div style=""width:500px;"">
  <p>How would you describe your current emotional state?</p>
  </div>","3","html-slider-response","72","1384238","0.0-10.0-3.6","105","1","2025-07-09 09:08:00","7701e855f2ef39aa3fd6c71abdc6918a","165.165.122.12","Mozilla/5.0 (Windows NT 10.0; Win64; x64) AppleWebKit/537.36 (KHTML, like Gecko) Chrome/138.0.0.0 Safari/537.36","WebKit","Chrome","138.0.0.0","Windows","10.0","https://app.prolific.com/","en-US,en;q=0.9","6109656bb28bc0fadcad52ca","686d226cabeef709c732f8e1","686e31290849c14d410e97e8","6109656bb28bc0fadcad52ca","2025-07-09T09:31:07.141Z","","","","","","StressQ","","","","","","","","","","","","","","","","","","","","","","","","","","","","","","","","","","","","","","50"
"2620","","<div style=""width:500px;"">
  <p>What best describes how you currently feel?</p>
  </div>","98","html-slider-response","73","1386861","0.0-10.0-4.6","105","1","2025-07-09 09:08:00","7701e855f2ef39aa3fd6c71abdc6918a","165.165.122.12","Mozilla/5.0 (Windows NT 10.0; Win64; x64) AppleWebKit/537.36 (KHTML, like Gecko) Chrome/138.0.0.0 Safari/537.36","WebKit","Chrome","138.0.0.0","Windows","10.0","https://app.prolific.com/","en-US,en;q=0.9","6109656bb28bc0fadcad52ca","686d226cabeef709c732f8e1","686e31290849c14d410e97e8","6109656bb28bc0fadcad52ca","2025-07-09T09:31:09.764Z","","","","","","MotivationQ","","","","","","","","","","","","","","","","","","","","","","","","","","","","","","","","","","","","","","50"
"","","","","ctl-task-cpt","74","1432016","0.0-10.0-0.7","105","1","2025-07-09 09:08:00","7701e855f2ef39aa3fd6c71abdc6918a","165.165.122.12","Mozilla/5.0 (Windows NT 10.0; Win64; x64) AppleWebKit/537.36 (KHTML, like Gecko) Chrome/138.0.0.0 Safari/537.36","WebKit","Chrome","138.0.0.0","Windows","10.0","https://app.prolific.com/","en-US,en;q=0.9","6109656bb28bc0fadcad52ca","686d226cabeef709c732f8e1","686e31290849c14d410e97e8","6109656bb28bc0fadcad52ca","2025-07-09T09:31:54.920Z","","","","","","","","","","","","","","","","win-only","0","g1:NW,g2:SE","0.3","8","0","1389690.1","7594.2","12607.8","42122.2","1","4","8","6","2","8","8","11","3","0.08333333333333333","1770.2","3000","170","[""down"",""right""]","{""num_key_presses"":10,""num_perfect"":3,""num_errors"":0,""num_randdir"":7,""num_randdir_good_moves"":5,""num_whilered"":0,""num_whileblue"":0,""num_blue"":1,""num_good_moves"":8}","[298.22232142857143,296.12857142857143,0.7,298.22232142857143,296.12857142857143,102,298.22232142857143,296.12857142857143,208.1,298.22232142857143,296.12857142857143,327.6,298.22232142857143,296.12857142857143,427.6,298.22232142857143,296.12857142857143,528.6,298.22232142857143,296.12857142857143,631.6,298.22232142857143,296.12857142857143,734,298.22232142857143,296.12857142857143,835.7,298.22232142857143,296.12857142857143,938.5,298.22232142857143,296.12857142857143,1041.9,298.22232142857143,296.12857142857143,1159.6,487.22232142857143,422.12857142857143,1260.7,616.2223214285714,542.1285714285714,1365.5,614.2223214285714,558.1285714285714,1467.9,584.2223214285714,546.1285714285714,1574.3,551.2223214285714,530.1285714285714,1689.6,551.2223214285714,530.1285714285714,1789.5,551.2223214285714,530.1285714285714,1900.4,551.2223214285714,530.1285714285714,2002.9,551.2223214285714,530.1285714285714,2104.1,551.2223214285714,530.1285714285714,2211,551.2223214285714,530.1285714285714,2311.4,551.2223214285714,530.1285714285714,2412.6,551.2223214285714,530.1285714285714,2512.6,551.2223214285714,530.1285714285714,2616.8,551.2223214285714,530.1285714285714,2717.7,551.2223214285714,530.1285714285714,2823.1,551.2223214285714,530.1285714285714,2937.3,551.2223214285714,530.1285714285714,3041.9,551.2223214285714,530.1285714285714,3144.3,551.2223214285714,530.1285714285714,3246.3,551.2223214285714,530.1285714285714,3357,551.2223214285714,530.1285714285714,3470.3,551.2223214285714,530.1285714285714,3571.3,551.2223214285714,530.1285714285714,3681,551.2223214285714,530.1285714285714,3785.6,551.2223214285714,530.1285714285714,3888.4,551.2223214285714,530.1285714285714,3992.2,551.2223214285714,530.1285714285714,4093.6,551.2223214285714,530.1285714285714,4199.8,551.2223214285714,530.1285714285714,4302.6,551.2223214285714,530.1285714285714,4420.3,551.2223214285714,530.1285714285714,4536.3,551.2223214285714,530.1285714285714,4643.3,551.2223214285714,530.1285714285714,4747.9,551.2223214285714,530.1285714285714,4851.5,551.2223214285714,530.1285714285714,4957.5]","[1553.8,1553.8,1000,0,553.9,""smooth"",""down"",""down"",""good_move"",4138.3,2583.6,2152.6,1554.7,431,""smooth"",""down"",""down"",""good_move"",7018.9,2880,2445.2,4138.9,434.8,""smooth"",""right"",""right"",""good_move"",9131,2111.6,1713.2,7019.5,398.3,""oops"",""right"",""up"",""bad_move"",11141.3,2009.2,1647,9132.2,362.2,""oops"",""right"",""down"",""good_move"",17448,6306.2,2841.1,14189.6,417.3,""oops"",""right"",""up"",""bad_move"",20474.9,3026.5,2543.1,17448.4,483.4,""oops"",""down"",""right"",""good_move"",24388.5,3913,3280.6,20475.5,632.4,""oops"",""down"",""right"",""good_move"",26839.1,2450.2,1835.7,24388.9,614.5,""oops"",""left"",""down"",""good_move"",29376.7,2536.8,2135,26839.9,401.8,""oops"",""left"",""down"",""good_move""]","",""
"4234","","<div style=""width:500px;"">
  <p>What determined the result of this run?</p>
  </div>","79","html-slider-response","75","1436253","0.0-10.0-1.7","105","1","2025-07-09 09:08:00","7701e855f2ef39aa3fd6c71abdc6918a","165.165.122.12","Mozilla/5.0 (Windows NT 10.0; Win64; x64) AppleWebKit/537.36 (KHTML, like Gecko) Chrome/138.0.0.0 Safari/537.36","WebKit","Chrome","138.0.0.0","Windows","10.0","https://app.prolific.com/","en-US,en;q=0.9","6109656bb28bc0fadcad52ca","686d226cabeef709c732f8e1","686e31290849c14d410e97e8","6109656bb28bc0fadcad52ca","2025-07-09T09:31:59.157Z","","","","","","AttribQ","","","","","","","","","","","","","","","","","","","","","","","","","","","","","","","","","","","","","","50"
"3405","","<div style=""width:500px;"">
  <p>How much control did you have over the ball?</p>
  </div>","63","html-slider-response","76","1439661","0.0-10.0-2.7","105","1","2025-07-09 09:08:00","7701e855f2ef39aa3fd6c71abdc6918a","165.165.122.12","Mozilla/5.0 (Windows NT 10.0; Win64; x64) AppleWebKit/537.36 (KHTML, like Gecko) Chrome/138.0.0.0 Safari/537.36","WebKit","Chrome","138.0.0.0","Windows","10.0","https://app.prolific.com/","en-US,en;q=0.9","6109656bb28bc0fadcad52ca","686d226cabeef709c732f8e1","686e31290849c14d410e97e8","6109656bb28bc0fadcad52ca","2025-07-09T09:32:02.564Z","","","","","","ControlQ","","","","","","","","","","","","","","","","","","","","","","","","","","","","","","","","","","","","","","50"
"3326","","<div style=""width:500px;"">
  <p>How would you describe your current emotional state?</p>
  </div>","1","html-slider-response","77","1442989","0.0-10.0-3.7","105","1","2025-07-09 09:08:00","7701e855f2ef39aa3fd6c71abdc6918a","165.165.122.12","Mozilla/5.0 (Windows NT 10.0; Win64; x64) AppleWebKit/537.36 (KHTML, like Gecko) Chrome/138.0.0.0 Safari/537.36","WebKit","Chrome","138.0.0.0","Windows","10.0","https://app.prolific.com/","en-US,en;q=0.9","6109656bb28bc0fadcad52ca","686d226cabeef709c732f8e1","686e31290849c14d410e97e8","6109656bb28bc0fadcad52ca","2025-07-09T09:32:05.893Z","","","","","","StressQ","","","","","","","","","","","","","","","","","","","","","","","","","","","","","","","","","","","","","","50"
"3396","","<div style=""width:500px;"">
  <p>What best describes how you currently feel?</p>
  </div>","99","html-slider-response","78","1446388","0.0-10.0-4.7","105","1","2025-07-09 09:08:00","7701e855f2ef39aa3fd6c71abdc6918a","165.165.122.12","Mozilla/5.0 (Windows NT 10.0; Win64; x64) AppleWebKit/537.36 (KHTML, like Gecko) Chrome/138.0.0.0 Safari/537.36","WebKit","Chrome","138.0.0.0","Windows","10.0","https://app.prolific.com/","en-US,en;q=0.9","6109656bb28bc0fadcad52ca","686d226cabeef709c732f8e1","686e31290849c14d410e97e8","6109656bb28bc0fadcad52ca","2025-07-09T09:32:09.291Z","","","","","","MotivationQ","","","","","","","","","","","","","","","","","","","","","","","","","","","","","","","","","","","","","","50"
"","","","","ctl-task-cpt","79","1521714","0.0-10.0-0.8","105","1","2025-07-09 09:08:00","7701e855f2ef39aa3fd6c71abdc6918a","165.165.122.12","Mozilla/5.0 (Windows NT 10.0; Win64; x64) AppleWebKit/537.36 (KHTML, like Gecko) Chrome/138.0.0.0 Safari/537.36","WebKit","Chrome","138.0.0.0","Windows","10.0","https://app.prolific.com/","en-US,en;q=0.9","6109656bb28bc0fadcad52ca","686d226cabeef709c732f8e1","686e31290849c14d410e97e8","6109656bb28bc0fadcad52ca","2025-07-09T09:33:24.617Z","","","","","","","","","","","","","","","","win-only","1","g1:NE,g2:SW","0.2","9","0","1449215.6","9443.4","14449.4","72306.4","1","4","4","6","2","-4","-6","5","11","0.03787878787878788","1333.6","3000","-1805","[""down"",""left""]","{""num_key_presses"":13,""num_perfect"":2,""num_errors"":2,""num_randdir"":9,""num_randdir_good_moves"":6,""num_whilered"":0,""num_whileblue"":1,""num_blue"":7,""num_good_moves"":8}","[296.22232142857143,303.12857142857143,0.4,296.22232142857143,303.12857142857143,100.9,296.22232142857143,303.12857142857143,204.2,296.22232142857143,303.12857142857143,320.1,296.22232142857143,303.12857142857143,425.5,296.22232142857143,303.12857142857143,526.4,296.22232142857143,303.12857142857143,627.1,289.22232142857143,307.12857142857143,742.6,133.22232142857143,441.12857142857143,849.9,110.22232142857143,468.12857142857143,950,84.22232142857143,493.12857142857143,1051.2,79.22232142857143,506.12857142857143,1170.5,75.22232142857143,518.1285714285714,1272.9,75.22232142857143,519.1285714285714,1374.7,75.22232142857143,519.1285714285714,1478.2,75.22232142857143,519.1285714285714,1580.1,75.22232142857143,519.1285714285714,1684.1,75.22232142857143,519.1285714285714,1804,75.22232142857143,519.1285714285714,1904.2,75.22232142857143,519.1285714285714,2008.2,75.22232142857143,519.1285714285714,2124.5,75.22232142857143,519.1285714285714,2228.3,75.22232142857143,519.1285714285714,2328.5,75.22232142857143,519.1285714285714,2432.3,75.22232142857143,519.1285714285714,2532.9,75.22232142857143,519.1285714285714,2634.8,75.22232142857143,519.1285714285714,2737.8,75.22232142857143,519.1285714285714,2839.6,75.22232142857143,519.1285714285714,2946.6,75.22232142857143,519.1285714285714,3050.1,75.22232142857143,519.1285714285714,3151.4,75.22232142857143,519.1285714285714,3253.2,75.22232142857143,519.1285714285714,3358.5,75.22232142857143,519.1285714285714,3461.6,75.22232142857143,519.1285714285714,3562.2,75.22232142857143,519.1285714285714,3663.4,75.22232142857143,519.1285714285714,3766.1,75.22232142857143,519.1285714285714,3868.2,75.22232142857143,519.1285714285714,3988,75.22232142857143,519.1285714285714,4088.8,75.22232142857143,519.1285714285714,4193.2,75.22232142857143,519.1285714285714,4296.8,75.22232142857143,519.1285714285714,4411.6,75.22232142857143,519.1285714285714,4526.6,75.22232142857143,519.1285714285714,4635.6,75.22232142857143,519.1285714285714,4741.4,75.22232142857143,519.1285714285714,4842.9,75.22232142857143,519.1285714285714,4961.7]","[7899.4,7899.4,1973.4,5141.9,784.1,""oops"",""down"",""right"",""bad_move"",10536.4,2636.1,2006.7,7900.3,629.4,""oops"",""up"",""left"",""good_move"",17243.6,6706.4,2803.5,13942.2,497.9,""oops"",""up"",""down"",""good_move"",19827.9,2583.6,2036.5,17244.3,547.1,""oops"",""up"",""down"",""good_move"",29838,10009.8,1749.8,27627.8,460.4,""oops"",""up"",""up"",""bad_move"",37544.4,7705.7,3397.4,33770.9,376.1,""oops"",""left"",""left"",""good_move"",39703.2,2158.2,1665.2,37545.1,492.9,""smooth"",""left"",""left"",""good_move"",42000.5,2296.7,1929.5,39703.8,367.2,""smooth"",""left"",""left"",""good_move"",45122.4,3121.5,2736.6,42000.9,384.9,""oops"",""down"",""up"",""bad_move"",48124.5,3001.4,2679,45123.1,322.4,""oops"",""up"",""down"",""good_move"",50914.9,2789.6,2439.8,48125.3,349.8,""oops"",""up"",""down"",""good_move"",53604.1,2688.6,2368.1,50915.6,320.5,""while_blue"",""up"",""up"",""bad_move"",54417.5,812.5,2284.9,53605,-1472.4,""error"",""-"",""-"",""no_move""]","",""
"3799","","<div style=""width:500px;"">
  <p>What determined the result of this run?</p>
  </div>","70","html-slider-response","80","1525514","0.0-10.0-1.8","105","1","2025-07-09 09:08:00","7701e855f2ef39aa3fd6c71abdc6918a","165.165.122.12","Mozilla/5.0 (Windows NT 10.0; Win64; x64) AppleWebKit/537.36 (KHTML, like Gecko) Chrome/138.0.0.0 Safari/537.36","WebKit","Chrome","138.0.0.0","Windows","10.0","https://app.prolific.com/","en-US,en;q=0.9","6109656bb28bc0fadcad52ca","686d226cabeef709c732f8e1","686e31290849c14d410e97e8","6109656bb28bc0fadcad52ca","2025-07-09T09:33:28.418Z","","","","","","AttribQ","","","","","","","","","","","","","","","","","","","","","","","","","","","","","","","","","","","","","","50"
"5005","","<div style=""width:500px;"">
  <p>How much control did you have over the ball?</p>
  </div>","8","html-slider-response","81","1530521","0.0-10.0-2.8","105","1","2025-07-09 09:08:00","7701e855f2ef39aa3fd6c71abdc6918a","165.165.122.12","Mozilla/5.0 (Windows NT 10.0; Win64; x64) AppleWebKit/537.36 (KHTML, like Gecko) Chrome/138.0.0.0 Safari/537.36","WebKit","Chrome","138.0.0.0","Windows","10.0","https://app.prolific.com/","en-US,en;q=0.9","6109656bb28bc0fadcad52ca","686d226cabeef709c732f8e1","686e31290849c14d410e97e8","6109656bb28bc0fadcad52ca","2025-07-09T09:33:33.424Z","","","","","","ControlQ","","","","","","","","","","","","","","","","","","","","","","","","","","","","","","","","","","","","","","50"
"3462","","<div style=""width:500px;"">
  <p>How would you describe your current emotional state?</p>
  </div>","3","html-slider-response","82","1533985","0.0-10.0-3.8","105","1","2025-07-09 09:08:00","7701e855f2ef39aa3fd6c71abdc6918a","165.165.122.12","Mozilla/5.0 (Windows NT 10.0; Win64; x64) AppleWebKit/537.36 (KHTML, like Gecko) Chrome/138.0.0.0 Safari/537.36","WebKit","Chrome","138.0.0.0","Windows","10.0","https://app.prolific.com/","en-US,en;q=0.9","6109656bb28bc0fadcad52ca","686d226cabeef709c732f8e1","686e31290849c14d410e97e8","6109656bb28bc0fadcad52ca","2025-07-09T09:33:36.888Z","","","","","","StressQ","","","","","","","","","","","","","","","","","","","","","","","","","","","","","","","","","","","","","","50"
"3419","","<div style=""width:500px;"">
  <p>What best describes how you currently feel?</p>
  </div>","99","html-slider-response","83","1537406","0.0-10.0-4.8","105","1","2025-07-09 09:08:00","7701e855f2ef39aa3fd6c71abdc6918a","165.165.122.12","Mozilla/5.0 (Windows NT 10.0; Win64; x64) AppleWebKit/537.36 (KHTML, like Gecko) Chrome/138.0.0.0 Safari/537.36","WebKit","Chrome","138.0.0.0","Windows","10.0","https://app.prolific.com/","en-US,en;q=0.9","6109656bb28bc0fadcad52ca","686d226cabeef709c732f8e1","686e31290849c14d410e97e8","6109656bb28bc0fadcad52ca","2025-07-09T09:33:40.309Z","","","","","","MotivationQ","","","","","","","","","","","","","","","","","","","","","","","","","","","","","","","","","","","","","","50"
