"rt","response_timestamp","stimulus","response","trial_type","trial_index","time_elapsed","internal_node_id","run_id","condition","recorded_at","source_code_version","ip","user_agent","device","browser","browser_version","platform","platform_version","referer","accept_language","PROLIFIC_PID","STUDY_ID","SESSION_ID","prolific_id","realtime","view_history","question_order","consent","success","question_id","eventType","responses","item_order","radio_event_ids","radio_event_times","key_event_times","mouse_event_times","straightlining","zigzagging","honeypot","which_type","canvas_config","goals_layout","control_level","trial_number","tutorial_trial_number","trial_start_time","phase1_start_time","phase2_start_time","phase3_start_time","goal_1_value","goal_1_distance","goal_2_value","goal_2_distance","goal_selected","outcome","outcome_total","participant_final_score","participant_initial_score","participant_final_score_prop","goal_choice_rt","allocated_time","allocated_time_remaining","goal_direction","counts","mouse_movements","key_presses","correct","slider_start","sub_question"
"4018","1752052069068","<p style='font-size:40px;line-height:1.25'><strong>Welcome to the experiment!</strong></p><p style='font-size:1.1em;line-height:1.25'>Thank you for your interest in our experiment! Before you begin, it is important that we obtain your informed consent to participate in the study.</p><p style='font-size:1.1em;line-height:1.25'>On the next screen will be an <strong>information sheet</strong> for you to read. To participate in the study we need you to read this information sheet and the following consent form carefully. If you agree with all the statements, please click the <strong>I agree</strong> button.</p><p style='font-size:1.1em;line-height:1.25'>Press <strong>Next</strong> to read the information sheet.</p>","0","custom-html-button-response","0","4021","0.0-0.0","89","1","2025-07-09 09:07:44","7701e855f2ef39aa3fd6c71abdc6918a","150.143.112.140","Mozilla/5.0 (Windows NT 10.0; Win64; x64) AppleWebKit/537.36 (KHTML, like Gecko) Chrome/138.0.0.0 Safari/537.36","WebKit","Chrome","138.0.0.0","Windows","10.0","https://app.prolific.com/","en-GB,en-US;q=0.9,en;q=0.8","5537b204fdf99b51eefed679","686d226cabeef709c732f8e1","686e31332af13ddc08f8bb50","5537b204fdf99b51eefed679","2025-07-09T09:07:49.070Z","","","","","","","","","","","","","","","","","","","","","","","","","","","","","","","","","","","","","","","","","","","","",""
"5217","","","","instructions","1","9239","0.0-1.0","89","1","2025-07-09 09:07:44","7701e855f2ef39aa3fd6c71abdc6918a","150.143.112.140","Mozilla/5.0 (Windows NT 10.0; Win64; x64) AppleWebKit/537.36 (KHTML, like Gecko) Chrome/138.0.0.0 Safari/537.36","WebKit","Chrome","138.0.0.0","Windows","10.0","https://app.prolific.com/","en-GB,en-US;q=0.9,en;q=0.8","5537b204fdf99b51eefed679","686d226cabeef709c732f8e1","686e31332af13ddc08f8bb50","5537b204fdf99b51eefed679","","[{""page_index"":0,""viewing_time"":3532},{""page_index"":1,""viewing_time"":1684}]","","","","","","","","","","","","","","","","","","","","","","","","","","","","","","","","","","","","","","","","","","","",""
"2865","","","{""Q0"":"""",""Q1"":"""",""Q2"":"""",""Q3"":"""",""Q4"":"""",""Q5"":"""",""Q6"":""I agree""}","survey-multi-choice","2","12106","0.0-2.0","89","1","2025-07-09 09:07:44","7701e855f2ef39aa3fd6c71abdc6918a","150.143.112.140","Mozilla/5.0 (Windows NT 10.0; Win64; x64) AppleWebKit/537.36 (KHTML, like Gecko) Chrome/138.0.0.0 Safari/537.36","WebKit","Chrome","138.0.0.0","Windows","10.0","https://app.prolific.com/","en-GB,en-US;q=0.9,en;q=0.8","5537b204fdf99b51eefed679","686d226cabeef709c732f8e1","686e31332af13ddc08f8bb50","5537b204fdf99b51eefed679","","","[0,1,2,3,4,5,6]","true","","","","","","","","","","","","","","","","","","","","","","","","","","","","","","","","","","","","","","","","","",""
"7798","","","","fullscreen","3","20910","0.0-4.0","89","1","2025-07-09 09:07:44","7701e855f2ef39aa3fd6c71abdc6918a","150.143.112.140","Mozilla/5.0 (Windows NT 10.0; Win64; x64) AppleWebKit/537.36 (KHTML, like Gecko) Chrome/138.0.0.0 Safari/537.36","WebKit","Chrome","138.0.0.0","Windows","10.0","https://app.prolific.com/","en-GB,en-US;q=0.9,en;q=0.8","5537b204fdf99b51eefed679","686d226cabeef709c732f8e1","686e31332af13ddc08f8bb50","5537b204fdf99b51eefed679","","","","","true","","","","","","","","","","","","","","","","","","","","","","","","","","","","","","","","","","","","","","","","",""
"3508","1752052089468"," <p style='font-size:1.1em;line-height:1.25'>Thank you for completing the consent form and closing all other tabs.</p><p style='font-size:1.1em;line-height:1.25'>We will now invite you to fill in some demographic information and questionnaires, before starting the game.<br>This will take about 5 minutes.<br></p><p style='font-size:1.1em;line-height:1.25'>Press the <strong>Next</strong> button to continue.</p>","0","custom-html-button-response","4","24420","0.0-5.0","89","1","2025-07-09 09:07:44","7701e855f2ef39aa3fd6c71abdc6918a","150.143.112.140","Mozilla/5.0 (Windows NT 10.0; Win64; x64) AppleWebKit/537.36 (KHTML, like Gecko) Chrome/138.0.0.0 Safari/537.36","WebKit","Chrome","138.0.0.0","Windows","10.0","https://app.prolific.com/","en-GB,en-US;q=0.9,en;q=0.8","5537b204fdf99b51eefed679","686d226cabeef709c732f8e1","686e31332af13ddc08f8bb50","5537b204fdf99b51eefed679","2025-07-09T09:08:09.469Z","","","","","","","","","","","","","","","","","","","","","","","","","","","","","","","","","","","","","","","","","","","","",""
"3585","","","{""age"":""40""}","survey-text","5","28008","0.0-6.0-0.0","89","1","2025-07-09 09:07:44","7701e855f2ef39aa3fd6c71abdc6918a","150.143.112.140","Mozilla/5.0 (Windows NT 10.0; Win64; x64) AppleWebKit/537.36 (KHTML, like Gecko) Chrome/138.0.0.0 Safari/537.36","WebKit","Chrome","138.0.0.0","Windows","10.0","https://app.prolific.com/","en-GB,en-US;q=0.9,en;q=0.8","5537b204fdf99b51eefed679","686d226cabeef709c732f8e1","686e31332af13ddc08f8bb50","5537b204fdf99b51eefed679","","","","","","0","demographics","","","","","","","","","","","","","","","","","","","","","","","","","","","","","","","","","","","","","","",""
"2193","","","{""gender_identity"":""female/woman""}","survey-multi-choice","6","30202","0.0-6.0-1.0","89","1","2025-07-09 09:07:44","7701e855f2ef39aa3fd6c71abdc6918a","150.143.112.140","Mozilla/5.0 (Windows NT 10.0; Win64; x64) AppleWebKit/537.36 (KHTML, like Gecko) Chrome/138.0.0.0 Safari/537.36","WebKit","Chrome","138.0.0.0","Windows","10.0","https://app.prolific.com/","en-GB,en-US;q=0.9,en;q=0.8","5537b204fdf99b51eefed679","686d226cabeef709c732f8e1","686e31332af13ddc08f8bb50","5537b204fdf99b51eefed679","","","[0]","","","1","demographics","","","","","","","","","","","","","","","","","","","","","","","","","","","","","","","","","","","","","","",""
"1929","","","{""assigned_sex"":""female""}","survey-multi-choice","7","32133","0.0-6.0-2.0","89","1","2025-07-09 09:07:44","7701e855f2ef39aa3fd6c71abdc6918a","150.143.112.140","Mozilla/5.0 (Windows NT 10.0; Win64; x64) AppleWebKit/537.36 (KHTML, like Gecko) Chrome/138.0.0.0 Safari/537.36","WebKit","Chrome","138.0.0.0","Windows","10.0","https://app.prolific.com/","en-GB,en-US;q=0.9,en;q=0.8","5537b204fdf99b51eefed679","686d226cabeef709c732f8e1","686e31332af13ddc08f8bb50","5537b204fdf99b51eefed679","","","[0]","","","2","demographics","","","","","","","","","","","","","","","","","","","","","","","","","","","","","","","","","","","","","","",""
"2459","","","{""menstrual_cycle"":""Yes""}","survey-multi-choice","8","34592","0.0-6.0-3.0","89","1","2025-07-09 09:07:44","7701e855f2ef39aa3fd6c71abdc6918a","150.143.112.140","Mozilla/5.0 (Windows NT 10.0; Win64; x64) AppleWebKit/537.36 (KHTML, like Gecko) Chrome/138.0.0.0 Safari/537.36","WebKit","Chrome","138.0.0.0","Windows","10.0","https://app.prolific.com/","en-GB,en-US;q=0.9,en;q=0.8","5537b204fdf99b51eefed679","686d226cabeef709c732f8e1","686e31332af13ddc08f8bb50","5537b204fdf99b51eefed679","","","[0]","","","4","demographics","","","","","","","","","","","","","","","","","","","","","","","","","","","","","","","","","","","","","","",""
"2689","","","{""education"":""Bachelor's Degree (e.g., BA)""}","survey-multi-choice","9","37282","0.0-6.0-4.0","89","1","2025-07-09 09:07:44","7701e855f2ef39aa3fd6c71abdc6918a","150.143.112.140","Mozilla/5.0 (Windows NT 10.0; Win64; x64) AppleWebKit/537.36 (KHTML, like Gecko) Chrome/138.0.0.0 Safari/537.36","WebKit","Chrome","138.0.0.0","Windows","10.0","https://app.prolific.com/","en-GB,en-US;q=0.9,en;q=0.8","5537b204fdf99b51eefed679","686d226cabeef709c732f8e1","686e31332af13ddc08f8bb50","5537b204fdf99b51eefed679","","","[0]","","","5","demographics","","","","","","","","","","","","","","","","","","","","","","","","","","","","","","","","","","","","","","",""
"5889","","","{""education"":""GCSE/Standard Grades""}","survey-multi-choice","10","43172","0.0-6.0-5.0","89","1","2025-07-09 09:07:44","7701e855f2ef39aa3fd6c71abdc6918a","150.143.112.140","Mozilla/5.0 (Windows NT 10.0; Win64; x64) AppleWebKit/537.36 (KHTML, like Gecko) Chrome/138.0.0.0 Safari/537.36","WebKit","Chrome","138.0.0.0","Windows","10.0","https://app.prolific.com/","en-GB,en-US;q=0.9,en;q=0.8","5537b204fdf99b51eefed679","686d226cabeef709c732f8e1","686e31332af13ddc08f8bb50","5537b204fdf99b51eefed679","2025-07-09T09:08:28.221Z","","[0]","","","6","demographics","","","","","","","","","","","","","","","","","","","","","","","","","","","","","","","","","","","","","","",""
"8493","","","{""mental_health_condition"":""no"",""mental_health_treatment"":""no"",""psychiatric_medication"":""none""}","survey-text","11","51668","0.0-7.0-0.0","89","1","2025-07-09 09:07:44","7701e855f2ef39aa3fd6c71abdc6918a","150.143.112.140","Mozilla/5.0 (Windows NT 10.0; Win64; x64) AppleWebKit/537.36 (KHTML, like Gecko) Chrome/138.0.0.0 Safari/537.36","WebKit","Chrome","138.0.0.0","Windows","10.0","https://app.prolific.com/","en-GB,en-US;q=0.9,en;q=0.8","5537b204fdf99b51eefed679","686d226cabeef709c732f8e1","686e31332af13ddc08f8bb50","5537b204fdf99b51eefed679","2025-07-09T09:08:36.717Z","","","","","1","mental_health","","","","","","","","","","","","","","","","","","","","","","","","","","","","","","","","","","","","","","",""
"8175","","","{""depression_history"":[""Yes""]}","survey-multi-select","12","59846","0.0-7.0-1.0","89","1","2025-07-09 09:07:44","7701e855f2ef39aa3fd6c71abdc6918a","150.143.112.140","Mozilla/5.0 (Windows NT 10.0; Win64; x64) AppleWebKit/537.36 (KHTML, like Gecko) Chrome/138.0.0.0 Safari/537.36","WebKit","Chrome","138.0.0.0","Windows","10.0","https://app.prolific.com/","en-GB,en-US;q=0.9,en;q=0.8","5537b204fdf99b51eefed679","686d226cabeef709c732f8e1","686e31332af13ddc08f8bb50","5537b204fdf99b51eefed679","","","[0]","","","","mental_health","","","","","","","","","","","","","","","","","","","","","","","","","","","","","","","","","","","","","","",""
"7125","","","{""depression_episodes"":""1-2"",""depression_recent"":""More than 1 year ago""}","survey-multi-choice","13","66972","0.0-7.0-2.0-0.0","89","1","2025-07-09 09:07:44","7701e855f2ef39aa3fd6c71abdc6918a","150.143.112.140","Mozilla/5.0 (Windows NT 10.0; Win64; x64) AppleWebKit/537.36 (KHTML, like Gecko) Chrome/138.0.0.0 Safari/537.36","WebKit","Chrome","138.0.0.0","Windows","10.0","https://app.prolific.com/","en-GB,en-US;q=0.9,en;q=0.8","5537b204fdf99b51eefed679","686d226cabeef709c732f8e1","686e31332af13ddc08f8bb50","5537b204fdf99b51eefed679","2025-07-09T09:08:52.021Z","","[0,1]","","","3","mental_health","","","","","","","","","","","","","","","","","","","","","","","","","","","","","","","","","","","","","","",""
"25652.299999999814","","","","survey-template","14","92627","0.0-7.0-3.0","89","1","2025-07-09 09:07:44","7701e855f2ef39aa3fd6c71abdc6918a","150.143.112.140","Mozilla/5.0 (Windows NT 10.0; Win64; x64) AppleWebKit/537.36 (KHTML, like Gecko) Chrome/138.0.0.0 Safari/537.36","WebKit","Chrome","138.0.0.0","Windows","10.0","https://app.prolific.com/","en-GB,en-US;q=0.9,en;q=0.8","5537b204fdf99b51eefed679","686d226cabeef709c732f8e1","686e31332af13ddc08f8bb50","5537b204fdf99b51eefed679","2025-07-09T09:09:17.677Z","","","","","","ius","{""Q01"":""3"",""Q02"":""4"",""Q03"":""4"",""Q04"":""3"",""Q05"":""3"",""Q06"":""4"",""Q07"":""4"",""Q08"":""0"",""Q09"":""3"",""Q10"":""3"",""Q11"":""4"",""Q12"":""4"",""Q13"":""3""}","[0,1,2,3,4,5,6,7,8,9,10,11,12]","[""Q01"",""Q02"",""Q03"",""Q04"",""Q05"",""Q06"",""Q07"",""Q08"",""Q09"",""Q10"",""Q11"",""Q12"",""Q13""]","[3284.7999999998137,3945.7999999998137,5932.299999999814,9079.599999999627,10385,12532,14281.099999999627,16035.099999999627,17780.900000000373,18841,20263,22041.200000000186,24607.200000000186]","[]","[3284.7999999998137,3945.7999999998137,5507.5,5932.299999999814,9079.599999999627,10385,12532,14281.099999999627,16035.099999999627,17780.900000000373,18841,20263,22041.200000000186,24607.200000000186,25651]","0.46153846153846156","0.5","0","","","","","","","","","","","","","","","","","","","","","","","","","","","","","",""
"1635","1752052159312","<p style='font-size:1.1em;line-height:1.25'>In the following, we will ask you a few questions relating to your experiences over the past month.<br></p><p style='font-size:1.1em;line-height:1.25'>Press the <strong>Next</strong> button to continue.</p>","0","custom-html-button-response","15","94264","0.0-7.0-4.0","89","1","2025-07-09 09:07:44","7701e855f2ef39aa3fd6c71abdc6918a","150.143.112.140","Mozilla/5.0 (Windows NT 10.0; Win64; x64) AppleWebKit/537.36 (KHTML, like Gecko) Chrome/138.0.0.0 Safari/537.36","WebKit","Chrome","138.0.0.0","Windows","10.0","https://app.prolific.com/","en-GB,en-US;q=0.9,en;q=0.8","5537b204fdf99b51eefed679","686d226cabeef709c732f8e1","686e31332af13ddc08f8bb50","5537b204fdf99b51eefed679","2025-07-09T09:09:19.313Z","","","","","","","","","","","","","","","","","","","","","","","","","","","","","","","","","","","","","","","","","","","","",""
"30157","","","","survey-template","16","124423","0.0-7.0-5.0","89","1","2025-07-09 09:07:44","7701e855f2ef39aa3fd6c71abdc6918a","150.143.112.140","Mozilla/5.0 (Windows NT 10.0; Win64; x64) AppleWebKit/537.36 (KHTML, like Gecko) Chrome/138.0.0.0 Safari/537.36","WebKit","Chrome","138.0.0.0","Windows","10.0","https://app.prolific.com/","en-GB,en-US;q=0.9,en;q=0.8","5537b204fdf99b51eefed679","686d226cabeef709c732f8e1","686e31332af13ddc08f8bb50","5537b204fdf99b51eefed679","2025-07-09T09:09:49.472Z","","","","","","pss","{""Q01"":""2"",""Q02"":""3"",""Q03"":""3"",""Q04"":""2"",""Q05"":""2"",""Q06"":""2"",""Q07"":""3"",""Q08"":""2"",""Q09"":""3"",""Q10"":""3""}","[0,1,2,3,4,5,6,7,8,9]","[""Q01"",""Q02"",""Q03"",""Q04"",""Q05"",""Q06"",""Q07"",""Q08"",""Q09"",""Q10""]","[2771.600000000559,4570.100000000559,6141.700000000186,9635.900000000373,17349.60000000056,18739.799999999814,22117.799999999814,23501.700000000186,25772.60000000056,27969.799999999814]","[]","[1.2000000001862645,2771.600000000559,4570.100000000559,6141.700000000186,9635.900000000373,17349.60000000056,18739.799999999814,22117.799999999814,23501.700000000186,25202.10000000056,25772.60000000056,27969.799999999814,30155.900000000373]","0.5","0.5555555555555556","0","","","","","","","","","","","","","","","","","","","","","","","","","","","","","",""
"1923","1752052191396","<p style='font-size:1.1em;line-height:1.25'>Thank you for your answers! Now we will ask you a few more questions relating to your feelings in the last 24 hours.<br></p><p style='font-size:1.1em;line-height:1.25'>Press the <strong>Next</strong> button to continue.</p>","0","custom-html-button-response","17","126347","0.0-7.0-6.0","89","1","2025-07-09 09:07:44","7701e855f2ef39aa3fd6c71abdc6918a","150.143.112.140","Mozilla/5.0 (Windows NT 10.0; Win64; x64) AppleWebKit/537.36 (KHTML, like Gecko) Chrome/138.0.0.0 Safari/537.36","WebKit","Chrome","138.0.0.0","Windows","10.0","https://app.prolific.com/","en-GB,en-US;q=0.9,en;q=0.8","5537b204fdf99b51eefed679","686d226cabeef709c732f8e1","686e31332af13ddc08f8bb50","5537b204fdf99b51eefed679","2025-07-09T09:09:51.396Z","","","","","","","","","","","","","","","","","","","","","","","","","","","","","","","","","","","","","","","","","","","","",""
"42297.700000000186","","","","survey-template","18","168648","0.0-7.0-7.0","89","1","2025-07-09 09:07:44","7701e855f2ef39aa3fd6c71abdc6918a","150.143.112.140","Mozilla/5.0 (Windows NT 10.0; Win64; x64) AppleWebKit/537.36 (KHTML, like Gecko) Chrome/138.0.0.0 Safari/537.36","WebKit","Chrome","138.0.0.0","Windows","10.0","https://app.prolific.com/","en-GB,en-US;q=0.9,en;q=0.8","5537b204fdf99b51eefed679","686d226cabeef709c732f8e1","686e31332af13ddc08f8bb50","5537b204fdf99b51eefed679","2025-07-09T09:10:33.697Z","","","","","","drsp","{""Q01"":""2"",""Q02"":""2"",""Q03"":""0"",""Q04"":""3"",""Q05"":""2"",""Q06"":""1"",""Q07"":""1"",""Q08"":""0"",""Q09"":""1"",""Q10"":""2"",""Q11"":""2"",""Q12"":""1"",""Q13"":""1"",""Q14"":""1"",""Q15"":""0"",""Q16"":""2"",""Q17"":""0"",""Q18"":""0"",""Q19"":""0"",""Q20"":""0"",""Q21"":""0""}","[0,1,2,3,4,5,6,7,8,9,10,11,12,13,14,15,16,17,18,19,20]","[""Q01"",""Q02"",""Q03"",""Q04"",""Q05"",""Q06"",""Q07"",""Q08"",""Q09"",""Q10"",""Q11"",""Q12"",""Q13"",""Q14"",""Q15"",""Q16"",""Q17"",""Q18"",""Q19"",""Q20"",""Q21""]","[3645.300000000745,6101.700000000186,7129.300000000745,10245.700000000186,11156.700000000186,14295.600000000559,15074.700000000186,15833.5,17941.200000000186,19681.900000000373,20701.400000000373,22471.300000000745,23188.200000000186,24072,25933.700000000186,26922.300000000745,28197.400000000373,30362.700000000186,35101.300000000745,35942.40000000037,37194.10000000056]","[]","[0,3645.300000000745,4719.800000000745,6101.700000000186,7129.300000000745,10245.700000000186,11156.700000000186,14295.600000000559,15074.700000000186,15833.5,17941.200000000186,18768.400000000373,19681.900000000373,20252.200000000186,20701.400000000373,22471.300000000745,23188.200000000186,24072,25933.700000000186,26922.300000000745,28197.400000000373,30362.700000000186,35101.300000000745,35942.40000000037,36893.60000000056,37194.10000000056,42295.5]","0.38095238095238093","0.35","0","","","","","","","","","","","","","","","","","","","","","","","","","","","","","",""
"10137.900000000373","","","","survey-template","19","178788","0.0-7.0-8.0","89","1","2025-07-09 09:07:44","7701e855f2ef39aa3fd6c71abdc6918a","150.143.112.140","Mozilla/5.0 (Windows NT 10.0; Win64; x64) AppleWebKit/537.36 (KHTML, like Gecko) Chrome/138.0.0.0 Safari/537.36","WebKit","Chrome","138.0.0.0","Windows","10.0","https://app.prolific.com/","en-GB,en-US;q=0.9,en;q=0.8","5537b204fdf99b51eefed679","686d226cabeef709c732f8e1","686e31332af13ddc08f8bb50","5537b204fdf99b51eefed679","2025-07-09T09:10:43.837Z","","","","","","stress","{""Q01"":""2"",""Q02"":""4"",""Q03"":""2""}","[0,1,2]","[""Q01"",""Q02"",""Q03""]","[3504.4000000003725,7033.200000000186,7554.700000000186]","[]","[2925.7000000001863,3504.4000000003725,7033.200000000186,7554.700000000186,10137.400000000373]","0.6666666666666666","1","0","","","","","","","","","","","","","","","","","","","","","","","","","","","","","",""
"146129","","","","instructions","20","324917","0.0-8.0-0.0","89","1","2025-07-09 09:07:44","7701e855f2ef39aa3fd6c71abdc6918a","150.143.112.140","Mozilla/5.0 (Windows NT 10.0; Win64; x64) AppleWebKit/537.36 (KHTML, like Gecko) Chrome/138.0.0.0 Safari/537.36","WebKit","Chrome","138.0.0.0","Windows","10.0","https://app.prolific.com/","en-GB,en-US;q=0.9,en;q=0.8","5537b204fdf99b51eefed679","686d226cabeef709c732f8e1","686e31332af13ddc08f8bb50","5537b204fdf99b51eefed679","","[{""page_index"":0,""viewing_time"":19401},{""page_index"":1,""viewing_time"":30696},{""page_index"":2,""viewing_time"":80874},{""page_index"":3,""viewing_time"":15158}]","","","","","","","","","","","","","","","","","","","","","","","","","","","","","","","","","","","","","","","","","","","",""
"","","","","ctl-task-cpt","21","350588","0.0-8.0-1.0","89","1","2025-07-09 09:07:44","7701e855f2ef39aa3fd6c71abdc6918a","150.143.112.140","Mozilla/5.0 (Windows NT 10.0; Win64; x64) AppleWebKit/537.36 (KHTML, like Gecko) Chrome/138.0.0.0 Safari/537.36","WebKit","Chrome","138.0.0.0","Windows","10.0","https://app.prolific.com/","en-GB,en-US;q=0.9,en;q=0.8","5537b204fdf99b51eefed679","686d226cabeef709c732f8e1","686e31332af13ddc08f8bb50","5537b204fdf99b51eefed679","","","","","","","","","","","","","","","","","win-only","3","g1:SW,g2:NE","1","0","1","326473","2860.9","6862.4","22663.8","2","4","4","6","1","2","0","0","0","0","2883.9","4000","2275","[""down"",""left""]","{""num_key_presses"":6,""num_perfect"":4,""num_errors"":2,""num_randdir"":0,""num_randdir_good_moves"":0,""num_whilered"":0,""num_whileblue"":0,""num_blue"":0,""num_good_moves"":4}","[414.0714133126395,412.82142761775424,0.4,414.0714133126395,412.82142761775424,102.7,414.0714133126395,412.82142761775424,204.5,414.0714133126395,412.82142761775424,306,414.0714133126395,412.82142761775424,410.2,414.0714133126395,412.82142761775424,510.3,414.0714133126395,412.82142761775424,610.4,414.0714133126395,412.82142761775424,717.1,414.0714133126395,412.82142761775424,821.3,414.0714133126395,412.82142761775424,925.2,414.0714133126395,412.82142761775424,1030.1,414.0714133126395,412.82142761775424,1133.5,414.0714133126395,412.82142761775424,1233.9,414.0714133126395,412.82142761775424,1334.5,414.0714133126395,412.82142761775424,1439.8,414.0714133126395,412.82142761775424,1540.1,414.0714133126395,412.82142761775424,1640.2,414.0714133126395,412.82142761775424,1751.4,414.0714133126395,412.82142761775424,1852.2,414.0714133126395,412.82142761775424,1955.6,414.0714133126395,412.82142761775424,2060.6,414.0714133126395,412.82142761775424,2167.1,414.0714133126395,412.82142761775424,2267.4,414.0714133126395,412.82142761775424,2369.7,414.0714133126395,412.82142761775424,2475.2,376.5714133126395,456.57142761775424,2575.4,141.5714133126395,661.5714276177542,2684.2,104.0714133126395,687.8214276177542,2784.2,80.3214133126395,730.3214276177542,2886,80.3214133126395,730.3214276177542,2990.9,80.3214133126395,730.3214276177542,3094.8,80.3214133126395,730.3214276177542,3201,80.3214133126395,730.3214276177542,3304.9,80.3214133126395,730.3214276177542,3405.3,80.3214133126395,730.3214276177542,3509.5,80.3214133126395,730.3214276177542,3609.8,80.3214133126395,730.3214276177542,3710.2,80.3214133126395,730.3214276177542,3817.9,80.3214133126395,730.3214276177542,3917.9]","[905.6,905.6,1000,0,-94.4,""error"",""-"",""-"",""no_move"",5469.4,4563.6,2920.7,1908.5,640.2,""smooth"",""down"",""down"",""good_move"",5935,465.3,2103.7,5469.7,-1638.4,""error"",""-"",""-"",""no_move"",9542.2,3607,2170,6935.5,436.7,""smooth"",""left"",""left"",""good_move"",12939.9,3397.4,2950.4,9542.5,447,""smooth"",""down"",""down"",""good_move"",15698.2,2758.3,2335.6,12940,422.7,""smooth"",""left"",""left"",""good_move""]","","",""
"13871","","","","instructions","22","364459","0.0-8.0-2.0","89","1","2025-07-09 09:07:44","7701e855f2ef39aa3fd6c71abdc6918a","150.143.112.140","Mozilla/5.0 (Windows NT 10.0; Win64; x64) AppleWebKit/537.36 (KHTML, like Gecko) Chrome/138.0.0.0 Safari/537.36","WebKit","Chrome","138.0.0.0","Windows","10.0","https://app.prolific.com/","en-GB,en-US;q=0.9,en;q=0.8","5537b204fdf99b51eefed679","686d226cabeef709c732f8e1","686e31332af13ddc08f8bb50","5537b204fdf99b51eefed679","","[{""page_index"":0,""viewing_time"":13870}]","","","","","","","","","","","","","","","","","","","","","","","","","","","","","","","","","","","","","","","","","","","",""
"","","","","ctl-task-cpt","23","411831","0.0-8.0-3.0","89","1","2025-07-09 09:07:44","7701e855f2ef39aa3fd6c71abdc6918a","150.143.112.140","Mozilla/5.0 (Windows NT 10.0; Win64; x64) AppleWebKit/537.36 (KHTML, like Gecko) Chrome/138.0.0.0 Safari/537.36","WebKit","Chrome","138.0.0.0","Windows","10.0","https://app.prolific.com/","en-GB,en-US;q=0.9,en;q=0.8","5537b204fdf99b51eefed679","686d226cabeef709c732f8e1","686e31332af13ddc08f8bb50","5537b204fdf99b51eefed679","","","","","","","","","","","","","","","","","win-only","3","g1:SW,g2:NE","0.35","0","3","366013.9","1241.6","5246.6","44356","2","4","8","6","1","-2","-2","0","0","0","1910.4","4000","-3015","[""down"",""left""]","{""num_key_presses"":7,""num_perfect"":3,""num_errors"":0,""num_randdir"":4,""num_randdir_good_moves"":2,""num_whilered"":0,""num_whileblue"":0,""num_blue"":5,""num_good_moves"":5}","[416.5714133126395,417.82142761775424,0.1,416.5714133126395,417.82142761775424,103.6,419.0714133126395,427.82142761775424,203.8,497.8214133126395,507.82142761775424,308.8,526.5714133126395,531.5714276177542,408.8,526.5714133126395,531.5714276177542,509.4,526.5714133126395,531.5714276177542,614.1,526.5714133126395,531.5714276177542,719,526.5714133126395,531.5714276177542,819.2,521.5714133126395,534.0714276177542,919.4,400.3214133126395,582.8214276177542,1024,266.5714133126395,642.8214276177542,1124.1,227.8214133126395,661.5714276177542,1225,186.5714133126395,687.8214276177542,1329.1,151.5714133126395,706.5714276177542,1429.5,114.0714133126395,726.5714276177542,1534.9,92.8214133126395,741.5714276177542,1639.3,82.8214133126395,755.3214276177542,1744,82.8214133126395,755.3214276177542,1844,82.8214133126395,754.0714276177542,1944.1,82.8214133126395,754.0714276177542,2049,82.8214133126395,754.0714276177542,2154.9,82.8214133126395,754.0714276177542,2258.9,91.5714133126395,754.0714276177542,2359,226.5714133126395,754.0714276177542,2459.4,387.8214133126395,754.0714276177542,2564.1,475.3214133126395,762.8214276177542,2664.2,547.8214133126395,770.3214276177542,2764.2,606.5714133126395,771.5714276177542,2869.4,606.5714133126395,771.5714276177542,2974.5,606.5714133126395,771.5714276177542,3079,606.5714133126395,771.5714276177542,3179.1,606.5714133126395,771.5714276177542,3279.6,606.5714133126395,771.5714276177542,3384.2,606.5714133126395,771.5714276177542,3489,606.5714133126395,771.5714276177542,3590.2,606.5714133126395,771.5714276177542,3694.1,606.5714133126395,771.5714276177542,3798.6,606.5714133126395,771.5714276177542,3898.7,606.5714133126395,771.5714276177542,3998.8]","[1559.6,1559.6,1000,0,559.6,""oops"",""down"",""right"",""bad_move"",10836,9276.3,1986.8,8410.3,439,""smooth"",""left"",""left"",""good_move"",20050.1,9214,2625,16643.8,781.3,""oops"",""left"",""right"",""bad_move"",23700.5,3650.3,2932.6,20050.2,717.7,""oops"",""left"",""left"",""good_move"",30119.2,6418.5,1870.1,27879,370.1,""oops"",""down"",""left"",""good_move"",33250.7,3131.4,2423,30119.3,708.4,""smooth"",""down"",""down"",""good_move"",36868.8,3617.9,3181.9,33250.9,436,""smooth"",""down"",""down"",""good_move""]","","",""
"30222","","","","instructions","24","442053","0.0-8.0-4.0","89","1","2025-07-09 09:07:44","7701e855f2ef39aa3fd6c71abdc6918a","150.143.112.140","Mozilla/5.0 (Windows NT 10.0; Win64; x64) AppleWebKit/537.36 (KHTML, like Gecko) Chrome/138.0.0.0 Safari/537.36","WebKit","Chrome","138.0.0.0","Windows","10.0","https://app.prolific.com/","en-GB,en-US;q=0.9,en;q=0.8","5537b204fdf99b51eefed679","686d226cabeef709c732f8e1","686e31332af13ddc08f8bb50","5537b204fdf99b51eefed679","","[{""page_index"":0,""viewing_time"":6373},{""page_index"":1,""viewing_time"":23848}]","","","","","","","","","","","","","","","","","","","","","","","","","","","","","","","","","","","","","","","","","","","",""
"23063","","","{""green_ball"":[""Ball sometimes shakes and moves in a random direction""]}","survey-multi-select","25","465119","0.0-8.0-5.0-0.0","89","1","2025-07-09 09:07:44","7701e855f2ef39aa3fd6c71abdc6918a","150.143.112.140","Mozilla/5.0 (Windows NT 10.0; Win64; x64) AppleWebKit/537.36 (KHTML, like Gecko) Chrome/138.0.0.0 Safari/537.36","WebKit","Chrome","138.0.0.0","Windows","10.0","https://app.prolific.com/","en-GB,en-US;q=0.9,en;q=0.8","5537b204fdf99b51eefed679","686d226cabeef709c732f8e1","686e31332af13ddc08f8bb50","5537b204fdf99b51eefed679","","","[0]","","","","quiz","","","","","","","","","","","","","","","","","","","","","","","","","","","","","","","","","","","","","true","",""
"1598","","<p align='center'><b>CORRECT!</b> Indeed, the green ball may sometimes shake and move in a random direction.</p>","0","html-button-response","26","466718","0.0-8.0-5.0-1.0","89","1","2025-07-09 09:07:44","7701e855f2ef39aa3fd6c71abdc6918a","150.143.112.140","Mozilla/5.0 (Windows NT 10.0; Win64; x64) AppleWebKit/537.36 (KHTML, like Gecko) Chrome/138.0.0.0 Safari/537.36","WebKit","Chrome","138.0.0.0","Windows","10.0","https://app.prolific.com/","en-GB,en-US;q=0.9,en;q=0.8","5537b204fdf99b51eefed679","686d226cabeef709c732f8e1","686e31332af13ddc08f8bb50","5537b204fdf99b51eefed679","","","","","","","","","","","","","","","","","","","","","","","","","","","","","","","","","","","","","","","","","","","","","",""
"5781","","","{""yellow_ball"":[""Ball doesn‘t move and I get -1 penalty point""]}","survey-multi-select","27","472500","0.0-8.0-6.0-0.0","89","1","2025-07-09 09:07:44","7701e855f2ef39aa3fd6c71abdc6918a","150.143.112.140","Mozilla/5.0 (Windows NT 10.0; Win64; x64) AppleWebKit/537.36 (KHTML, like Gecko) Chrome/138.0.0.0 Safari/537.36","WebKit","Chrome","138.0.0.0","Windows","10.0","https://app.prolific.com/","en-GB,en-US;q=0.9,en;q=0.8","5537b204fdf99b51eefed679","686d226cabeef709c732f8e1","686e31332af13ddc08f8bb50","5537b204fdf99b51eefed679","","","[0]","","","","quiz","","","","","","","","","","","","","","","","","","","","","","","","","","","","","","","","","","","","","true","",""
"981","","<p align='center'><b>CORRECT!</b> Indeed, the yellow ball never moves and you receive a penalty.</p>","0","html-button-response","28","473482","0.0-8.0-6.0-1.0","89","1","2025-07-09 09:07:44","7701e855f2ef39aa3fd6c71abdc6918a","150.143.112.140","Mozilla/5.0 (Windows NT 10.0; Win64; x64) AppleWebKit/537.36 (KHTML, like Gecko) Chrome/138.0.0.0 Safari/537.36","WebKit","Chrome","138.0.0.0","Windows","10.0","https://app.prolific.com/","en-GB,en-US;q=0.9,en;q=0.8","5537b204fdf99b51eefed679","686d226cabeef709c732f8e1","686e31332af13ddc08f8bb50","5537b204fdf99b51eefed679","","","","","","","","","","","","","","","","","","","","","","","","","","","","","","","","","","","","","","","","","","","","","",""
"2556","","","{""blue_ball"":[""Ball doesn‘t move and I get -1 penalty point""]}","survey-multi-select","29","476039","0.0-8.0-7.0-0.0","89","1","2025-07-09 09:07:44","7701e855f2ef39aa3fd6c71abdc6918a","150.143.112.140","Mozilla/5.0 (Windows NT 10.0; Win64; x64) AppleWebKit/537.36 (KHTML, like Gecko) Chrome/138.0.0.0 Safari/537.36","WebKit","Chrome","138.0.0.0","Windows","10.0","https://app.prolific.com/","en-GB,en-US;q=0.9,en;q=0.8","5537b204fdf99b51eefed679","686d226cabeef709c732f8e1","686e31332af13ddc08f8bb50","5537b204fdf99b51eefed679","","","[0]","","","","quiz","","","","","","","","","","","","","","","","","","","","","","","","","","","","","","","","","","","","","false","",""
"3639","","<p align='center'><b>INCORRECT.</b> The blue ball always shakes and moves randomly.</p>","0","html-button-response","30","479679","0.0-8.0-7.0-1.0","89","1","2025-07-09 09:07:44","7701e855f2ef39aa3fd6c71abdc6918a","150.143.112.140","Mozilla/5.0 (Windows NT 10.0; Win64; x64) AppleWebKit/537.36 (KHTML, like Gecko) Chrome/138.0.0.0 Safari/537.36","WebKit","Chrome","138.0.0.0","Windows","10.0","https://app.prolific.com/","en-GB,en-US;q=0.9,en;q=0.8","5537b204fdf99b51eefed679","686d226cabeef709c732f8e1","686e31332af13ddc08f8bb50","5537b204fdf99b51eefed679","","","","","","","","","","","","","","","","","","","","","","","","","","","","","","","","","","","","","","","","","","","","","",""
"4950","","","{""blue_ball"":[""Ball always shakes and moves in a random direction""]}","survey-multi-select","31","484630","0.0-8.0-7.1-0.1","89","1","2025-07-09 09:07:44","7701e855f2ef39aa3fd6c71abdc6918a","150.143.112.140","Mozilla/5.0 (Windows NT 10.0; Win64; x64) AppleWebKit/537.36 (KHTML, like Gecko) Chrome/138.0.0.0 Safari/537.36","WebKit","Chrome","138.0.0.0","Windows","10.0","https://app.prolific.com/","en-GB,en-US;q=0.9,en;q=0.8","5537b204fdf99b51eefed679","686d226cabeef709c732f8e1","686e31332af13ddc08f8bb50","5537b204fdf99b51eefed679","","","[0]","","","","quiz","","","","","","","","","","","","","","","","","","","","","","","","","","","","","","","","","","","","","true","",""
"2350","","<p align='center'><b>CORRECT!</b> Indeed, the blue ball always shakes and moves in a random direction. Also there is a penalty of -1 point.</p>","0","html-button-response","32","486981","0.0-8.0-7.1-1.1","89","1","2025-07-09 09:07:44","7701e855f2ef39aa3fd6c71abdc6918a","150.143.112.140","Mozilla/5.0 (Windows NT 10.0; Win64; x64) AppleWebKit/537.36 (KHTML, like Gecko) Chrome/138.0.0.0 Safari/537.36","WebKit","Chrome","138.0.0.0","Windows","10.0","https://app.prolific.com/","en-GB,en-US;q=0.9,en;q=0.8","5537b204fdf99b51eefed679","686d226cabeef709c732f8e1","686e31332af13ddc08f8bb50","5537b204fdf99b51eefed679","","","","","","","","","","","","","","","","","","","","","","","","","","","","","","","","","","","","","","","","","","","","","",""
"2656","","","{""bonus"":[""When I reach 50% of points""]}","survey-multi-select","33","489638","0.0-8.0-8.0-0.0","89","1","2025-07-09 09:07:44","7701e855f2ef39aa3fd6c71abdc6918a","150.143.112.140","Mozilla/5.0 (Windows NT 10.0; Win64; x64) AppleWebKit/537.36 (KHTML, like Gecko) Chrome/138.0.0.0 Safari/537.36","WebKit","Chrome","138.0.0.0","Windows","10.0","https://app.prolific.com/","en-GB,en-US;q=0.9,en;q=0.8","5537b204fdf99b51eefed679","686d226cabeef709c732f8e1","686e31332af13ddc08f8bb50","5537b204fdf99b51eefed679","","","[0]","","","","quiz","","","","","","","","","","","","","","","","","","","","","","","","","","","","","","","","","","","","","true","",""
"1074","","<p align='center'><b>CORRECT!</b> Indeed, you receive 2 pounds extra when you reach 50% of points.</p>","0","html-button-response","34","490713","0.0-8.0-8.0-1.0","89","1","2025-07-09 09:07:44","7701e855f2ef39aa3fd6c71abdc6918a","150.143.112.140","Mozilla/5.0 (Windows NT 10.0; Win64; x64) AppleWebKit/537.36 (KHTML, like Gecko) Chrome/138.0.0.0 Safari/537.36","WebKit","Chrome","138.0.0.0","Windows","10.0","https://app.prolific.com/","en-GB,en-US;q=0.9,en;q=0.8","5537b204fdf99b51eefed679","686d226cabeef709c732f8e1","686e31332af13ddc08f8bb50","5537b204fdf99b51eefed679","","","","","","","","","","","","","","","","","","","","","","","","","","","","","","","","","","","","","","","","","","","","","",""
"1724","","","","instructions","35","492437","0.0-8.0-9.0","89","1","2025-07-09 09:07:44","7701e855f2ef39aa3fd6c71abdc6918a","150.143.112.140","Mozilla/5.0 (Windows NT 10.0; Win64; x64) AppleWebKit/537.36 (KHTML, like Gecko) Chrome/138.0.0.0 Safari/537.36","WebKit","Chrome","138.0.0.0","Windows","10.0","https://app.prolific.com/","en-GB,en-US;q=0.9,en;q=0.8","5537b204fdf99b51eefed679","686d226cabeef709c732f8e1","686e31332af13ddc08f8bb50","5537b204fdf99b51eefed679","","[{""page_index"":0,""viewing_time"":1723}]","","","","","","","","","","","","","","","","","","","","","","","","","","","","","","","","","","","","","","","","","","","",""
"7665","","<p>Before you start with this game please answer the following three questions yourself. </p>
  <p>Through this game, we measure several aspects of your cognitive performance, such as reaction times, multi-tasking capabilities </p>
  <p>and the ability to assess the situation you are in.</p>
  <p></p>
  <p><b>How good do you usually are in such tasks?</b></p>","55","html-slider-response","36","500103","0.0-9.0-0.0","89","1","2025-07-09 09:07:44","7701e855f2ef39aa3fd6c71abdc6918a","150.143.112.140","Mozilla/5.0 (Windows NT 10.0; Win64; x64) AppleWebKit/537.36 (KHTML, like Gecko) Chrome/138.0.0.0 Safari/537.36","WebKit","Chrome","138.0.0.0","Windows","10.0","https://app.prolific.com/","en-GB,en-US;q=0.9,en;q=0.8","5537b204fdf99b51eefed679","686d226cabeef709c732f8e1","686e31332af13ddc08f8bb50","5537b204fdf99b51eefed679","2025-07-09T09:16:05.152Z","","","","","","PreSkillQ","","","","","","","","","","","","","","","","","","","","","","","","","","","","","","","","","","","","","","50",""
"4373","","<div style=""width:500px;"">
  <p>How well do you think you will perform in this task compared to other participants?</p>
  </div>","50","html-slider-response","37","504477","0.0-9.0-1.0","89","1","2025-07-09 09:07:44","7701e855f2ef39aa3fd6c71abdc6918a","150.143.112.140","Mozilla/5.0 (Windows NT 10.0; Win64; x64) AppleWebKit/537.36 (KHTML, like Gecko) Chrome/138.0.0.0 Safari/537.36","WebKit","Chrome","138.0.0.0","Windows","10.0","https://app.prolific.com/","en-GB,en-US;q=0.9,en;q=0.8","5537b204fdf99b51eefed679","686d226cabeef709c732f8e1","686e31332af13ddc08f8bb50","5537b204fdf99b51eefed679","2025-07-09T09:16:09.526Z","","","","","","PrePerfQ","","","","","","","","","","","","","","","","","","","","","","","","","","","","","","","","","","","","","","50",""
"2324","","<div style=""width:500px;"">
  <p>What best describes how you currently feel?</p>
  </div>","65","html-slider-response","38","506802","0.0-9.0-2.0","89","1","2025-07-09 09:07:44","7701e855f2ef39aa3fd6c71abdc6918a","150.143.112.140","Mozilla/5.0 (Windows NT 10.0; Win64; x64) AppleWebKit/537.36 (KHTML, like Gecko) Chrome/138.0.0.0 Safari/537.36","WebKit","Chrome","138.0.0.0","Windows","10.0","https://app.prolific.com/","en-GB,en-US;q=0.9,en;q=0.8","5537b204fdf99b51eefed679","686d226cabeef709c732f8e1","686e31332af13ddc08f8bb50","5537b204fdf99b51eefed679","2025-07-09T09:16:11.851Z","","","","","","PreMotivationQ","","","","","","","","","","","","","","","","","","","","","","","","","","","","","","","","","","","","","","50",""
"","","","","ctl-task-cpt","39","528121","0.0-10.0-0.0","89","1","2025-07-09 09:07:44","7701e855f2ef39aa3fd6c71abdc6918a","150.143.112.140","Mozilla/5.0 (Windows NT 10.0; Win64; x64) AppleWebKit/537.36 (KHTML, like Gecko) Chrome/138.0.0.0 Safari/537.36","WebKit","Chrome","138.0.0.0","Windows","10.0","https://app.prolific.com/","en-GB,en-US;q=0.9,en;q=0.8","5537b204fdf99b51eefed679","686d226cabeef709c732f8e1","686e31332af13ddc08f8bb50","5537b204fdf99b51eefed679","2025-07-09T09:16:33.171Z","","","","","","","","","","","","","","","","win-only","3","g1:SW,g2:NE","1","1","0","508357.8","2975.6","7981.8","18301.7","1","4","4","6","1","1","1","1","0","0.007575757575757576","1238.4","3000","1280","[""down"",""left""]","{""num_key_presses"":4,""num_perfect"":4,""num_errors"":0,""num_randdir"":0,""num_randdir_good_moves"":0,""num_whilered"":0,""num_whileblue"":0,""num_blue"":0,""num_good_moves"":4}","[415.3214133126395,414.07142761775424,0.2,415.3214133126395,414.07142761775424,101.4,415.3214133126395,414.07142761775424,205.6,415.3214133126395,414.07142761775424,306.9,415.3214133126395,414.07142761775424,410.4,415.3214133126395,414.07142761775424,542.4,394.0714133126395,426.57142761775424,645.4,306.5714133126395,481.57142761775424,745.6,231.5714133126395,551.5714276177542,845.9,180.3214133126395,600.3214276177542,950.6,129.0714133126395,657.8214276177542,1051.2,95.3214133126395,730.3214276177542,1156.5,91.5714133126395,749.0714276177542,1259.9,91.5714133126395,750.3214276177542,1365.1,91.5714133126395,750.3214276177542,1471.6,86.5714133126395,742.8214276177542,1571.7,85.3214133126395,742.8214276177542,1672.3,85.3214133126395,742.8214276177542,1775.5,102.8214133126395,746.5714276177542,1880,137.8214133126395,749.0714276177542,1980.2,147.8214133126395,749.0714276177542,2080.5,160.3214133126395,747.8214276177542,2180.8,164.0714133126395,746.5714276177542,2281.5,166.5714133126395,746.5714276177542,2384.8,190.3214133126395,741.5714276177542,2486,196.5714133126395,739.0714276177542,2590.5,197.8214133126395,739.0714276177542,2695.2,197.8214133126395,739.0714276177542,2795.6,197.8214133126395,739.0714276177542,2895.6,197.8214133126395,737.8214276177542,3000,197.8214133126395,737.8214276177542,3100.7,197.8214133126395,737.8214276177542,3207.2,197.8214133126395,737.8214276177542,3310.4,196.5714133126395,742.8214276177542,3415.4,186.5714133126395,755.3214276177542,3520.6,186.5714133126395,755.3214276177542,3624.9,205.3214133126395,740.3214276177542,3725.1,247.8214133126395,722.8214276177542,3825.4,254.0714133126395,722.8214276177542,3930.2,254.0714133126395,722.8214276177542,4030.2,254.0714133126395,722.8214276177542,4130.2,254.0714133126395,722.8214276177542,4230.6,254.0714133126395,722.8214276177542,4331.4,254.0714133126395,722.8214276177542,4434.9,254.0714133126395,722.8214276177542,4535.1,254.0714133126395,722.8214276177542,4635.3,254.0714133126395,722.8214276177542,4735.4,254.0714133126395,722.8214276177542,4841,254.0714133126395,722.8214276177542,4941.1]","[1421,1421,1000,0,421,""smooth"",""down"",""down"",""good_move"",4764.5,3343.3,2771.5,1421.2,571.8,""smooth"",""left"",""left"",""good_move"",7902.1,3137.2,2760.2,4764.9,377,""smooth"",""down"",""down"",""good_move"",10235.5,2333.2,1954.8,7902.4,378.4,""smooth"",""left"",""left"",""good_move""]","","",""
"4133","","<div style=""width:500px;"">
  <p>What determined the result of this run?</p>
  </div>","82","html-slider-response","40","532256","0.0-10.0-1.0","89","1","2025-07-09 09:07:44","7701e855f2ef39aa3fd6c71abdc6918a","150.143.112.140","Mozilla/5.0 (Windows NT 10.0; Win64; x64) AppleWebKit/537.36 (KHTML, like Gecko) Chrome/138.0.0.0 Safari/537.36","WebKit","Chrome","138.0.0.0","Windows","10.0","https://app.prolific.com/","en-GB,en-US;q=0.9,en;q=0.8","5537b204fdf99b51eefed679","686d226cabeef709c732f8e1","686e31332af13ddc08f8bb50","5537b204fdf99b51eefed679","2025-07-09T09:16:37.305Z","","","","","","AttribQ","","","","","","","","","","","","","","","","","","","","","","","","","","","","","","","","","","","","","","50",""
"1787","","<div style=""width:500px;"">
  <p>How much control did you have over the ball?</p>
  </div>","89","html-slider-response","41","534044","0.0-10.0-2.0","89","1","2025-07-09 09:07:44","7701e855f2ef39aa3fd6c71abdc6918a","150.143.112.140","Mozilla/5.0 (Windows NT 10.0; Win64; x64) AppleWebKit/537.36 (KHTML, like Gecko) Chrome/138.0.0.0 Safari/537.36","WebKit","Chrome","138.0.0.0","Windows","10.0","https://app.prolific.com/","en-GB,en-US;q=0.9,en;q=0.8","5537b204fdf99b51eefed679","686d226cabeef709c732f8e1","686e31332af13ddc08f8bb50","5537b204fdf99b51eefed679","2025-07-09T09:16:39.093Z","","","","","","ControlQ","","","","","","","","","","","","","","","","","","","","","","","","","","","","","","","","","","","","","","50",""
"3712","","<div style=""width:500px;"">
  <p>How would you describe your current emotional state?</p>
  </div>","17","html-slider-response","42","537757","0.0-10.0-3.0","89","1","2025-07-09 09:07:44","7701e855f2ef39aa3fd6c71abdc6918a","150.143.112.140","Mozilla/5.0 (Windows NT 10.0; Win64; x64) AppleWebKit/537.36 (KHTML, like Gecko) Chrome/138.0.0.0 Safari/537.36","WebKit","Chrome","138.0.0.0","Windows","10.0","https://app.prolific.com/","en-GB,en-US;q=0.9,en;q=0.8","5537b204fdf99b51eefed679","686d226cabeef709c732f8e1","686e31332af13ddc08f8bb50","5537b204fdf99b51eefed679","2025-07-09T09:16:42.806Z","","","","","","StressQ","","","","","","","","","","","","","","","","","","","","","","","","","","","","","","","","","","","","","","50",""
"3029","","<div style=""width:500px;"">
  <p>What best describes how you currently feel?</p>
  </div>","84","html-slider-response","43","540787","0.0-10.0-4.0","89","1","2025-07-09 09:07:44","7701e855f2ef39aa3fd6c71abdc6918a","150.143.112.140","Mozilla/5.0 (Windows NT 10.0; Win64; x64) AppleWebKit/537.36 (KHTML, like Gecko) Chrome/138.0.0.0 Safari/537.36","WebKit","Chrome","138.0.0.0","Windows","10.0","https://app.prolific.com/","en-GB,en-US;q=0.9,en;q=0.8","5537b204fdf99b51eefed679","686d226cabeef709c732f8e1","686e31332af13ddc08f8bb50","5537b204fdf99b51eefed679","2025-07-09T09:16:45.836Z","","","","","","MotivationQ","","","","","","","","","","","","","","","","","","","","","","","","","","","","","","","","","","","","","","50",""
"","","","","ctl-task-cpt","44","572556","0.0-10.0-0.1","89","1","2025-07-09 09:07:44","7701e855f2ef39aa3fd6c71abdc6918a","150.143.112.140","Mozilla/5.0 (Windows NT 10.0; Win64; x64) AppleWebKit/537.36 (KHTML, like Gecko) Chrome/138.0.0.0 Safari/537.36","WebKit","Chrome","138.0.0.0","Windows","10.0","https://app.prolific.com/","en-GB,en-US;q=0.9,en;q=0.8","5537b204fdf99b51eefed679","686d226cabeef709c732f8e1","686e31332af13ddc08f8bb50","5537b204fdf99b51eefed679","2025-07-09T09:17:17.605Z","","","","","","","","","","","","","","","","win-only","1","g1:NE,g2:SW","0.9","2","0","542343","2192.6","7195.7","28752.5","1","4","8","6","2","8","7","8","1","0.06060606060606061","5003","3000","385","[""down"",""left""]","{""num_key_presses"":8,""num_perfect"":6,""num_errors"":1,""num_randdir"":1,""num_randdir_good_moves"":0,""num_whilered"":0,""num_whileblue"":1,""num_blue"":1,""num_good_moves"":7}","[421.5714133126395,417.82142761775424,0.3,421.5714133126395,417.82142761775424,100.1,421.5714133126395,417.82142761775424,204.5,421.5714133126395,417.82142761775424,308.3,421.5714133126395,417.82142761775424,408.5,421.5714133126395,417.82142761775424,509.3,421.5714133126395,417.82142761775424,612.9,421.5714133126395,417.82142761775424,713.6,421.5714133126395,417.82142761775424,816.3,421.5714133126395,417.82142761775424,918.2,421.5714133126395,417.82142761775424,1018.7,421.5714133126395,417.82142761775424,1123.4,421.5714133126395,417.82142761775424,1228.9,421.5714133126395,417.82142761775424,1333.5,421.5714133126395,417.82142761775424,1434.8,421.5714133126395,417.82142761775424,1538.8,421.5714133126395,417.82142761775424,1642.8,421.5714133126395,417.82142761775424,1743.5,421.5714133126395,417.82142761775424,1843.8,421.5714133126395,417.82142761775424,1949.1,391.5714133126395,430.32142761775424,2049.6,339.0714133126395,444.07142761775424,2149.9,301.5714133126395,472.82142761775424,2253.5,201.5714133126395,574.0714276177542,2358.4,134.0714133126395,662.8214276177542,2458.4,122.8214133126395,691.5714276177542,2558.8,101.5714133126395,729.0714276177542,2659.4,81.5714133126395,756.5714276177542,2763.1,81.5714133126395,756.5714276177542,2863.6,81.5714133126395,756.5714276177542,2967.8,111.5714133126395,732.8214276177542,3068.2,567.8214133126395,306.57142761775424,3168.4,645.3214133126395,236.57142761775424,3273.5,601.5714133126395,281.57142761775424,3377.7,199.0714133126395,584.0714276177542,3477.9,64.0714133126395,705.3214276177542,3579.6,32.82141331263951,746.5714276177542,3683.9,26.571413312639507,752.8214276177542,3788.6,30.321413312639507,751.5714276177542,3893,112.8214133126395,702.8214276177542,3997.9,476.5714133126395,335.32142761775424,4098.1,606.5714133126395,187.82142761775424,4202.9,671.5714133126395,122.82142761775425,4303,736.5714133126395,100.32142761775425,4403.4,761.5714133126395,86.57142761775425,4503.4,767.8214133126395,80.32142761775425,4607.9,767.8214133126395,80.32142761775425,4708.5,767.8214133126395,80.32142761775425,4813.6,767.8214133126395,80.32142761775425,4918.7]","[1696.1,1696.1,1000,0,696.1,""smooth"",""down"",""down"",""good_move"",4150.7,2454.2,2090.1,1696.5,364.1,""smooth"",""down"",""down"",""good_move"",7780.1,3629.3,3257.9,4150.8,371.4,""smooth"",""down"",""down"",""good_move"",10745.2,2964.9,2591.1,7780.3,373.8,""smooth"",""left"",""left"",""good_move"",13200.2,2454.6,2144.6,10745.6,310,""oops"",""left"",""right"",""bad_move"",15815.4,2614.9,2310.2,13200.5,304.7,""smooth"",""left"",""left"",""good_move"",19091.7,3276,3021.2,15815.7,254.8,""smooth"",""left"",""left"",""good_move"",21465,2373.1,2092.5,19091.9,280.6,""while_blue"",""left"",""left"",""good_move""]","","",""
"3799","","<div style=""width:500px;"">
  <p>What determined the result of this run?</p>
  </div>","41","html-slider-response","45","576356","0.0-10.0-1.1","89","1","2025-07-09 09:07:44","7701e855f2ef39aa3fd6c71abdc6918a","150.143.112.140","Mozilla/5.0 (Windows NT 10.0; Win64; x64) AppleWebKit/537.36 (KHTML, like Gecko) Chrome/138.0.0.0 Safari/537.36","WebKit","Chrome","138.0.0.0","Windows","10.0","https://app.prolific.com/","en-GB,en-US;q=0.9,en;q=0.8","5537b204fdf99b51eefed679","686d226cabeef709c732f8e1","686e31332af13ddc08f8bb50","5537b204fdf99b51eefed679","2025-07-09T09:17:21.405Z","","","","","","AttribQ","","","","","","","","","","","","","","","","","","","","","","","","","","","","","","","","","","","","","","50",""
"2536","","<div style=""width:500px;"">
  <p>How much control did you have over the ball?</p>
  </div>","63","html-slider-response","46","578893","0.0-10.0-2.1","89","1","2025-07-09 09:07:44","7701e855f2ef39aa3fd6c71abdc6918a","150.143.112.140","Mozilla/5.0 (Windows NT 10.0; Win64; x64) AppleWebKit/537.36 (KHTML, like Gecko) Chrome/138.0.0.0 Safari/537.36","WebKit","Chrome","138.0.0.0","Windows","10.0","https://app.prolific.com/","en-GB,en-US;q=0.9,en;q=0.8","5537b204fdf99b51eefed679","686d226cabeef709c732f8e1","686e31332af13ddc08f8bb50","5537b204fdf99b51eefed679","2025-07-09T09:17:23.942Z","","","","","","ControlQ","","","","","","","","","","","","","","","","","","","","","","","","","","","","","","","","","","","","","","50",""
"2294","","<div style=""width:500px;"">
  <p>How would you describe your current emotional state?</p>
  </div>","50","html-slider-response","47","581188","0.0-10.0-3.1","89","1","2025-07-09 09:07:44","7701e855f2ef39aa3fd6c71abdc6918a","150.143.112.140","Mozilla/5.0 (Windows NT 10.0; Win64; x64) AppleWebKit/537.36 (KHTML, like Gecko) Chrome/138.0.0.0 Safari/537.36","WebKit","Chrome","138.0.0.0","Windows","10.0","https://app.prolific.com/","en-GB,en-US;q=0.9,en;q=0.8","5537b204fdf99b51eefed679","686d226cabeef709c732f8e1","686e31332af13ddc08f8bb50","5537b204fdf99b51eefed679","2025-07-09T09:17:26.237Z","","","","","","StressQ","","","","","","","","","","","","","","","","","","","","","","","","","","","","","","","","","","","","","","50",""
"1999","","<div style=""width:500px;"">
  <p>What best describes how you currently feel?</p>
  </div>","72","html-slider-response","48","583188","0.0-10.0-4.1","89","1","2025-07-09 09:07:44","7701e855f2ef39aa3fd6c71abdc6918a","150.143.112.140","Mozilla/5.0 (Windows NT 10.0; Win64; x64) AppleWebKit/537.36 (KHTML, like Gecko) Chrome/138.0.0.0 Safari/537.36","WebKit","Chrome","138.0.0.0","Windows","10.0","https://app.prolific.com/","en-GB,en-US;q=0.9,en;q=0.8","5537b204fdf99b51eefed679","686d226cabeef709c732f8e1","686e31332af13ddc08f8bb50","5537b204fdf99b51eefed679","2025-07-09T09:17:28.237Z","","","","","","MotivationQ","","","","","","","","","","","","","","","","","","","","","","","","","","","","","","","","","","","","","","50",""
"","","","","ctl-task-cpt","49","602405","0.0-10.0-0.2","89","1","2025-07-09 09:07:44","7701e855f2ef39aa3fd6c71abdc6918a","150.143.112.140","Mozilla/5.0 (Windows NT 10.0; Win64; x64) AppleWebKit/537.36 (KHTML, like Gecko) Chrome/138.0.0.0 Safari/537.36","WebKit","Chrome","138.0.0.0","Windows","10.0","https://app.prolific.com/","en-GB,en-US;q=0.9,en;q=0.8","5537b204fdf99b51eefed679","686d226cabeef709c732f8e1","686e31332af13ddc08f8bb50","5537b204fdf99b51eefed679","2025-07-09T09:17:47.454Z","","","","","","","","","","","","","","","","win-only","2","g1:SE,g2:NW","0.8","3","0","584743.4","1340.5","6344.9","16196.7","1","4","8","6","1","1","1","9","8","0.06818181818181818","1087.8","3000","1450","[""down"",""right""]","{""num_key_presses"":4,""num_perfect"":3,""num_errors"":0,""num_randdir"":1,""num_randdir_good_moves"":1,""num_whilered"":0,""num_whileblue"":0,""num_blue"":0,""num_good_moves"":4}","[421.5714133126395,416.57142761775424,0.2,421.5714133126395,416.57142761775424,101,421.5714133126395,416.57142761775424,205.3,421.5714133126395,416.57142761775424,306.5,421.5714133126395,416.57142761775424,410.4,421.5714133126395,416.57142761775424,518,429.0714133126395,434.07142761775424,618.9,497.8214133126395,516.5714276177542,719.3,546.5714133126395,569.0714276177542,820.6,639.0714133126395,656.5714276177542,926,721.5714133126395,736.5714276177542,1034.8,750.3214133126395,766.5714276177542,1134.9,750.3214133126395,766.5714276177542,1240.3,750.3214133126395,766.5714276177542,1341.5,750.3214133126395,766.5714276177542,1441.9,747.8214133126395,765.3214276177542,1545.6,746.5714133126395,762.8214276177542,1652.1,741.5714133126395,760.3214276177542,1770.4,736.5714133126395,776.5714276177542,1871.6,736.5714133126395,776.5714276177542,1976.1,737.8214133126395,776.5714276177542,2076.4,759.0714133126395,752.8214276177542,2176.9,802.8214133126395,742.8214276177542,2282.3,856.5714133126395,741.5714276177542,2386.5,951.5714133126395,731.5714276177542,2487.5,961.5714133126395,726.5714276177542,2590.4,961.5714133126395,726.5714276177542,2696.2,961.5714133126395,726.5714276177542,2806.9,961.5714133126395,726.5714276177542,2910.7,961.5714133126395,726.5714276177542,3017.8,960.3214133126395,725.3214276177542,3120.9,959.0714133126395,724.0714276177542,3221.5,960.3214133126395,749.0714276177542,3325.4,960.3214133126395,749.0714276177542,3425.9,972.8214133126395,727.8214276177542,3527.5,965.3214133126395,702.8214276177542,3634.1,966.5714133126395,696.5714276177542,3738.2,966.5714133126395,696.5714276177542,3840.6,966.5714133126395,696.5714276177542,3944.9,966.5714133126395,696.5714276177542,4046.9,966.5714133126395,696.5714276177542,4152.6,966.5714133126395,696.5714276177542,4254.9,966.5714133126395,696.5714276177542,4357.7,966.5714133126395,696.5714276177542,4457.7,966.5714133126395,696.5714276177542,4559.7,966.5714133126395,696.5714276177542,4660.5,966.5714133126395,696.5714276177542,4760.5,966.5714133126395,696.5714276177542,4866.2,966.5714133126395,696.5714276177542,4971.3]","[1462.7,1462.7,1000,0,462.7,""smooth"",""down"",""down"",""good_move"",4134.6,2671.4,2231.3,1463.2,440.1,""smooth"",""down"",""down"",""good_move"",7137.1,3002.4,2565.3,4134.7,437.1,""smooth"",""right"",""right"",""good_move"",9742.7,2605.3,2233.1,7137.4,372.2,""oops"",""right"",""right"",""good_move""]","","",""
"1716","","<div style=""width:500px;"">
  <p>What determined the result of this run?</p>
  </div>","89","html-slider-response","50","604122","0.0-10.0-1.2","89","1","2025-07-09 09:07:44","7701e855f2ef39aa3fd6c71abdc6918a","150.143.112.140","Mozilla/5.0 (Windows NT 10.0; Win64; x64) AppleWebKit/537.36 (KHTML, like Gecko) Chrome/138.0.0.0 Safari/537.36","WebKit","Chrome","138.0.0.0","Windows","10.0","https://app.prolific.com/","en-GB,en-US;q=0.9,en;q=0.8","5537b204fdf99b51eefed679","686d226cabeef709c732f8e1","686e31332af13ddc08f8bb50","5537b204fdf99b51eefed679","2025-07-09T09:17:49.171Z","","","","","","AttribQ","","","","","","","","","","","","","","","","","","","","","","","","","","","","","","","","","","","","","","50",""
"1546","","<div style=""width:500px;"">
  <p>How much control did you have over the ball?</p>
  </div>","75","html-slider-response","51","605669","0.0-10.0-2.2","89","1","2025-07-09 09:07:44","7701e855f2ef39aa3fd6c71abdc6918a","150.143.112.140","Mozilla/5.0 (Windows NT 10.0; Win64; x64) AppleWebKit/537.36 (KHTML, like Gecko) Chrome/138.0.0.0 Safari/537.36","WebKit","Chrome","138.0.0.0","Windows","10.0","https://app.prolific.com/","en-GB,en-US;q=0.9,en;q=0.8","5537b204fdf99b51eefed679","686d226cabeef709c732f8e1","686e31332af13ddc08f8bb50","5537b204fdf99b51eefed679","2025-07-09T09:17:50.718Z","","","","","","ControlQ","","","","","","","","","","","","","","","","","","","","","","","","","","","","","","","","","","","","","","50",""
"2799","","<div style=""width:500px;"">
  <p>How would you describe your current emotional state?</p>
  </div>","23","html-slider-response","52","608468","0.0-10.0-3.2","89","1","2025-07-09 09:07:44","7701e855f2ef39aa3fd6c71abdc6918a","150.143.112.140","Mozilla/5.0 (Windows NT 10.0; Win64; x64) AppleWebKit/537.36 (KHTML, like Gecko) Chrome/138.0.0.0 Safari/537.36","WebKit","Chrome","138.0.0.0","Windows","10.0","https://app.prolific.com/","en-GB,en-US;q=0.9,en;q=0.8","5537b204fdf99b51eefed679","686d226cabeef709c732f8e1","686e31332af13ddc08f8bb50","5537b204fdf99b51eefed679","2025-07-09T09:17:53.517Z","","","","","","StressQ","","","","","","","","","","","","","","","","","","","","","","","","","","","","","","","","","","","","","","50",""
"1890","","<div style=""width:500px;"">
  <p>What best describes how you currently feel?</p>
  </div>","79","html-slider-response","53","610360","0.0-10.0-4.2","89","1","2025-07-09 09:07:44","7701e855f2ef39aa3fd6c71abdc6918a","150.143.112.140","Mozilla/5.0 (Windows NT 10.0; Win64; x64) AppleWebKit/537.36 (KHTML, like Gecko) Chrome/138.0.0.0 Safari/537.36","WebKit","Chrome","138.0.0.0","Windows","10.0","https://app.prolific.com/","en-GB,en-US;q=0.9,en;q=0.8","5537b204fdf99b51eefed679","686d226cabeef709c732f8e1","686e31332af13ddc08f8bb50","5537b204fdf99b51eefed679","2025-07-09T09:17:55.409Z","","","","","","MotivationQ","","","","","","","","","","","","","","","","","","","","","","","","","","","","","","","","","","","","","","50",""
"","","","","ctl-task-cpt","54","628381","0.0-10.0-0.3","89","1","2025-07-09 09:07:44","7701e855f2ef39aa3fd6c71abdc6918a","150.143.112.140","Mozilla/5.0 (Windows NT 10.0; Win64; x64) AppleWebKit/537.36 (KHTML, like Gecko) Chrome/138.0.0.0 Safari/537.36","WebKit","Chrome","138.0.0.0","Windows","10.0","https://app.prolific.com/","en-GB,en-US;q=0.9,en;q=0.8","5537b204fdf99b51eefed679","686d226cabeef709c732f8e1","686e31332af13ddc08f8bb50","5537b204fdf99b51eefed679","2025-07-09T09:18:13.430Z","","","","","","","","","","","","","","","","win-only","0","g1:NW,g2:SE","0.7","4","0","611915.6","1113","6115.8","15015.7","1","4","4","6","1","1","1","10","9","0.07575757575757576","1378.2","3000","1455","[""left"",""up""]","{""num_key_presses"":4,""num_perfect"":3,""num_errors"":0,""num_randdir"":1,""num_randdir_good_moves"":1,""num_whilered"":0,""num_whileblue"":0,""num_blue"":0,""num_good_moves"":4}","[412.8214133126395,416.57142761775424,0.2,412.8214133126395,416.57142761775424,102.5,412.8214133126395,416.57142761775424,202.8,412.8214133126395,416.57142761775424,303,412.8214133126395,416.57142761775424,403.9,412.8214133126395,416.57142761775424,508.3,412.8214133126395,417.82142761775424,614.1,417.8214133126395,426.57142761775424,718.4,421.5714133126395,431.57142761775424,818.8,375.3214133126395,389.07142761775424,923.2,156.5714133126395,187.82142761775424,1023.5,131.5714133126395,151.57142761775424,1128,115.3214133126395,131.57142761775424,1228.8,94.0714133126395,106.57142761775425,1335,92.8214133126395,106.57142761775425,1437.8,92.8214133126395,106.57142761775425,1542.7,92.8214133126395,106.57142761775425,1643.5,96.5714133126395,121.57142761775425,1745.1,145.3214133126395,241.57142761775424,1850.2,190.3214133126395,329.07142761775424,1952.8,204.0714133126395,341.57142761775424,2057.6,216.5714133126395,376.57142761775424,2158.5,216.5714133126395,376.57142761775424,2265.6,246.5714133126395,365.32142761775424,2369.9,424.0714133126395,366.57142761775424,2472.3,474.0714133126395,380.32142761775424,2573.3,474.0714133126395,380.32142761775424,2679.3,474.0714133126395,380.32142761775424,2783.8,474.0714133126395,380.32142761775424,2887.9,474.0714133126395,380.32142761775424,2994.1,474.0714133126395,380.32142761775424,3099.8,474.0714133126395,380.32142761775424,3203.1,474.0714133126395,380.32142761775424,3307.8,474.0714133126395,380.32142761775424,3415.3,474.0714133126395,380.32142761775424,3520,474.0714133126395,380.32142761775424,3623.1,474.0714133126395,380.32142761775424,3728.2,474.0714133126395,380.32142761775424,3828.7,474.0714133126395,380.32142761775424,3928.9,474.0714133126395,380.32142761775424,4030.9,474.0714133126395,380.32142761775424,4132.7,474.0714133126395,380.32142761775424,4236.7,474.0714133126395,380.32142761775424,4337.8,474.0714133126395,380.32142761775424,4443.1,474.0714133126395,380.32142761775424,4543.3,474.0714133126395,380.32142761775424,4647.6,474.0714133126395,380.32142761775424,4749.6,474.0714133126395,380.32142761775424,4852.9,474.0714133126395,380.32142761775424,4957.9]","[1401.7,1401.7,1000,0,401.7,""smooth"",""left"",""left"",""good_move"",4000.8,2598.1,2246.2,1402.7,351.9,""smooth"",""left"",""left"",""good_move"",6073.7,2072.8,1746.8,4000.9,326,""smooth"",""up"",""up"",""good_move"",8804.2,2730.2,2231.2,6074,499,""oops"",""up"",""up"",""good_move""]","","",""
"2188","","<div style=""width:500px;"">
  <p>What determined the result of this run?</p>
  </div>","87","html-slider-response","55","630570","0.0-10.0-1.3","89","1","2025-07-09 09:07:44","7701e855f2ef39aa3fd6c71abdc6918a","150.143.112.140","Mozilla/5.0 (Windows NT 10.0; Win64; x64) AppleWebKit/537.36 (KHTML, like Gecko) Chrome/138.0.0.0 Safari/537.36","WebKit","Chrome","138.0.0.0","Windows","10.0","https://app.prolific.com/","en-GB,en-US;q=0.9,en;q=0.8","5537b204fdf99b51eefed679","686d226cabeef709c732f8e1","686e31332af13ddc08f8bb50","5537b204fdf99b51eefed679","2025-07-09T09:18:15.620Z","","","","","","AttribQ","","","","","","","","","","","","","","","","","","","","","","","","","","","","","","","","","","","","","","50",""
"1720","","<div style=""width:500px;"">
  <p>How much control did you have over the ball?</p>
  </div>","83","html-slider-response","56","632293","0.0-10.0-2.3","89","1","2025-07-09 09:07:44","7701e855f2ef39aa3fd6c71abdc6918a","150.143.112.140","Mozilla/5.0 (Windows NT 10.0; Win64; x64) AppleWebKit/537.36 (KHTML, like Gecko) Chrome/138.0.0.0 Safari/537.36","WebKit","Chrome","138.0.0.0","Windows","10.0","https://app.prolific.com/","en-GB,en-US;q=0.9,en;q=0.8","5537b204fdf99b51eefed679","686d226cabeef709c732f8e1","686e31332af13ddc08f8bb50","5537b204fdf99b51eefed679","2025-07-09T09:18:17.342Z","","","","","","ControlQ","","","","","","","","","","","","","","","","","","","","","","","","","","","","","","","","","","","","","","50",""
"1969","","<div style=""width:500px;"">
  <p>How would you describe your current emotional state?</p>
  </div>","19","html-slider-response","57","634263","0.0-10.0-3.3","89","1","2025-07-09 09:07:44","7701e855f2ef39aa3fd6c71abdc6918a","150.143.112.140","Mozilla/5.0 (Windows NT 10.0; Win64; x64) AppleWebKit/537.36 (KHTML, like Gecko) Chrome/138.0.0.0 Safari/537.36","WebKit","Chrome","138.0.0.0","Windows","10.0","https://app.prolific.com/","en-GB,en-US;q=0.9,en;q=0.8","5537b204fdf99b51eefed679","686d226cabeef709c732f8e1","686e31332af13ddc08f8bb50","5537b204fdf99b51eefed679","2025-07-09T09:18:19.312Z","","","","","","StressQ","","","","","","","","","","","","","","","","","","","","","","","","","","","","","","","","","","","","","","50",""
"1830","","<div style=""width:500px;"">
  <p>What best describes how you currently feel?</p>
  </div>","80","html-slider-response","58","636094","0.0-10.0-4.3","89","1","2025-07-09 09:07:44","7701e855f2ef39aa3fd6c71abdc6918a","150.143.112.140","Mozilla/5.0 (Windows NT 10.0; Win64; x64) AppleWebKit/537.36 (KHTML, like Gecko) Chrome/138.0.0.0 Safari/537.36","WebKit","Chrome","138.0.0.0","Windows","10.0","https://app.prolific.com/","en-GB,en-US;q=0.9,en;q=0.8","5537b204fdf99b51eefed679","686d226cabeef709c732f8e1","686e31332af13ddc08f8bb50","5537b204fdf99b51eefed679","2025-07-09T09:18:21.143Z","","","","","","MotivationQ","","","","","","","","","","","","","","","","","","","","","","","","","","","","","","","","","","","","","","50",""
"","","","","ctl-task-cpt","59","665260","0.0-10.0-0.4","89","1","2025-07-09 09:07:44","7701e855f2ef39aa3fd6c71abdc6918a","150.143.112.140","Mozilla/5.0 (Windows NT 10.0; Win64; x64) AppleWebKit/537.36 (KHTML, like Gecko) Chrome/138.0.0.0 Safari/537.36","WebKit","Chrome","138.0.0.0","Windows","10.0","https://app.prolific.com/","en-GB,en-US;q=0.9,en;q=0.8","5537b204fdf99b51eefed679","686d226cabeef709c732f8e1","686e31332af13ddc08f8bb50","5537b204fdf99b51eefed679","2025-07-09T09:18:50.309Z","","","","","","","","","","","","","","","","win-only","1","g1:NE,g2:SW","0.6","5","0","637649.7","2787.9","7788.3","26151.1","1","4","8","6","1","1","1","11","10","0.08333333333333333","1640.2","3000","920","[""up"",""right""]","{""num_key_presses"":6,""num_perfect"":5,""num_errors"":0,""num_randdir"":1,""num_randdir_good_moves"":0,""num_whilered"":0,""num_whileblue"":0,""num_blue"":1,""num_good_moves"":5}","[417.8214133126395,416.57142761775424,0.2,417.8214133126395,416.57142761775424,103.6,417.8214133126395,416.57142761775424,204,436.5714133126395,460.32142761775424,309.3,444.0714133126395,465.32142761775424,413.3,444.0714133126395,465.32142761775424,514.2,469.0714133126395,429.07142761775424,623,500.3214133126395,397.82142761775424,729.7,501.5714133126395,396.57142761775424,829.8,504.0714133126395,401.57142761775424,937,504.0714133126395,401.57142761775424,1038.3,520.3214133126395,370.32142761775424,1143.4,689.0714133126395,191.57142761775424,1248.3,714.0714133126395,165.32142761775424,1353.8,747.8214133126395,117.82142761775425,1457.7,756.5714133126395,99.07142761775425,1558.3,756.5714133126395,99.07142761775425,1658.4,756.5714133126395,99.07142761775425,1763.9,756.5714133126395,99.07142761775425,1864.6,751.5714133126395,126.57142761775425,1964.7,735.3214133126395,205.32142761775424,2071.5,716.5714133126395,309.07142761775424,2172.9,707.8214133126395,347.82142761775424,2278.8,707.8214133126395,350.32142761775424,2386,707.8214133126395,350.32142761775424,2487.8,707.8214133126395,350.32142761775424,2588.9,707.8214133126395,350.32142761775424,2693.1,707.8214133126395,350.32142761775424,2797.3,707.8214133126395,350.32142761775424,2901.8,707.8214133126395,350.32142761775424,3002.4,707.8214133126395,350.32142761775424,3104.3,707.8214133126395,350.32142761775424,3205.7,707.8214133126395,350.32142761775424,3308.6,665.3214133126395,387.82142761775424,3412.8,625.3214133126395,409.07142761775424,3518.8,611.5714133126395,416.57142761775424,3622.8,611.5714133126395,416.57142761775424,3727.4,611.5714133126395,416.57142761775424,3827.9,611.5714133126395,416.57142761775424,3932.6,611.5714133126395,416.57142761775424,4036.4,611.5714133126395,416.57142761775424,4137.8,611.5714133126395,416.57142761775424,4243,611.5714133126395,416.57142761775424,4343.8,611.5714133126395,416.57142761775424,4448.4,611.5714133126395,416.57142761775424,4555.4,611.5714133126395,416.57142761775424,4657.6,611.5714133126395,416.57142761775424,4764.7,611.5714133126395,416.57142761775424,4868.1,611.5714133126395,416.57142761775424,4968.5]","[1359.8,1359.8,1000,0,359.8,""smooth"",""right"",""right"",""good_move"",3600.5,2240.6,1880,1360.1,360.5,""smooth"",""right"",""right"",""good_move"",7385.3,3784.5,3382.9,3600.8,401.6,""smooth"",""up"",""up"",""good_move"",9769.7,2384.1,2060.4,7385.6,323.7,""oops"",""up"",""left"",""bad_move"",12553.4,2783.4,2451.2,9770,332.2,""smooth"",""up"",""up"",""good_move"",18275.6,5722,2183.6,15697.3,394.7,""smooth"",""right"",""right"",""good_move""]","","",""
"2625","","<div style=""width:500px;"">
  <p>What determined the result of this run?</p>
  </div>","69","html-slider-response","60","667886","0.0-10.0-1.4","89","1","2025-07-09 09:07:44","7701e855f2ef39aa3fd6c71abdc6918a","150.143.112.140","Mozilla/5.0 (Windows NT 10.0; Win64; x64) AppleWebKit/537.36 (KHTML, like Gecko) Chrome/138.0.0.0 Safari/537.36","WebKit","Chrome","138.0.0.0","Windows","10.0","https://app.prolific.com/","en-GB,en-US;q=0.9,en;q=0.8","5537b204fdf99b51eefed679","686d226cabeef709c732f8e1","686e31332af13ddc08f8bb50","5537b204fdf99b51eefed679","2025-07-09T09:18:52.935Z","","","","","","AttribQ","","","","","","","","","","","","","","","","","","","","","","","","","","","","","","","","","","","","","","50",""
"1669","","<div style=""width:500px;"">
  <p>How much control did you have over the ball?</p>
  </div>","70","html-slider-response","61","669556","0.0-10.0-2.4","89","1","2025-07-09 09:07:44","7701e855f2ef39aa3fd6c71abdc6918a","150.143.112.140","Mozilla/5.0 (Windows NT 10.0; Win64; x64) AppleWebKit/537.36 (KHTML, like Gecko) Chrome/138.0.0.0 Safari/537.36","WebKit","Chrome","138.0.0.0","Windows","10.0","https://app.prolific.com/","en-GB,en-US;q=0.9,en;q=0.8","5537b204fdf99b51eefed679","686d226cabeef709c732f8e1","686e31332af13ddc08f8bb50","5537b204fdf99b51eefed679","2025-07-09T09:18:54.605Z","","","","","","ControlQ","","","","","","","","","","","","","","","","","","","","","","","","","","","","","","","","","","","","","","50",""
"1469","","<div style=""width:500px;"">
  <p>How would you describe your current emotional state?</p>
  </div>","30","html-slider-response","62","671026","0.0-10.0-3.4","89","1","2025-07-09 09:07:44","7701e855f2ef39aa3fd6c71abdc6918a","150.143.112.140","Mozilla/5.0 (Windows NT 10.0; Win64; x64) AppleWebKit/537.36 (KHTML, like Gecko) Chrome/138.0.0.0 Safari/537.36","WebKit","Chrome","138.0.0.0","Windows","10.0","https://app.prolific.com/","en-GB,en-US;q=0.9,en;q=0.8","5537b204fdf99b51eefed679","686d226cabeef709c732f8e1","686e31332af13ddc08f8bb50","5537b204fdf99b51eefed679","2025-07-09T09:18:56.075Z","","","","","","StressQ","","","","","","","","","","","","","","","","","","","","","","","","","","","","","","","","","","","","","","50",""
"1667","","<div style=""width:500px;"">
  <p>What best describes how you currently feel?</p>
  </div>","77","html-slider-response","63","672695","0.0-10.0-4.4","89","1","2025-07-09 09:07:44","7701e855f2ef39aa3fd6c71abdc6918a","150.143.112.140","Mozilla/5.0 (Windows NT 10.0; Win64; x64) AppleWebKit/537.36 (KHTML, like Gecko) Chrome/138.0.0.0 Safari/537.36","WebKit","Chrome","138.0.0.0","Windows","10.0","https://app.prolific.com/","en-GB,en-US;q=0.9,en;q=0.8","5537b204fdf99b51eefed679","686d226cabeef709c732f8e1","686e31332af13ddc08f8bb50","5537b204fdf99b51eefed679","2025-07-09T09:18:57.745Z","","","","","","MotivationQ","","","","","","","","","","","","","","","","","","","","","","","","","","","","","","","","","","","","","","50",""
"","","","","ctl-task-cpt","64","708899","0.0-10.0-0.5","89","1","2025-07-09 09:07:44","7701e855f2ef39aa3fd6c71abdc6918a","150.143.112.140","Mozilla/5.0 (Windows NT 10.0; Win64; x64) AppleWebKit/537.36 (KHTML, like Gecko) Chrome/138.0.0.0 Safari/537.36","WebKit","Chrome","138.0.0.0","Windows","10.0","https://app.prolific.com/","en-GB,en-US;q=0.9,en;q=0.8","5537b204fdf99b51eefed679","686d226cabeef709c732f8e1","686e31332af13ddc08f8bb50","5537b204fdf99b51eefed679","2025-07-09T09:19:33.949Z","","","","","","","","","","","","","","","","win-only","2","g1:SE,g2:NW","0.5","6","0","674252.3","817.5","5819.1","33180.4","1","4","4","6","1","1","1","12","11","0.09090909090909091","970.2","3000","920","[""down"",""right""]","{""num_key_presses"":6,""num_perfect"":3,""num_errors"":0,""num_randdir"":3,""num_randdir_good_moves"":2,""num_whilered"":0,""num_whileblue"":0,""num_blue"":3,""num_good_moves"":5}","[419.0714133126395,410.32142761775424,0.3,419.0714133126395,410.32142761775424,103.1,419.0714133126395,410.32142761775424,205.6,419.0714133126395,410.32142761775424,322.6,419.0714133126395,410.32142761775424,423.8,422.8214133126395,416.57142761775424,526.3,614.0714133126395,556.5714276177542,628.7,684.0714133126395,626.5714276177542,729,721.5714133126395,681.5714276177542,837,747.8214133126395,729.0714276177542,939,752.8214133126395,737.8214276177542,1039,752.8214133126395,737.8214276177542,1139.6,752.8214133126395,737.8214276177542,1252.1,752.8214133126395,737.8214276177542,1353.8,752.8214133126395,736.5714276177542,1454.3,752.8214133126395,736.5714276177542,1554.4,752.8214133126395,736.5714276177542,1658,752.8214133126395,736.5714276177542,1758.4,752.8214133126395,736.5714276177542,1858.6,751.5714133126395,736.5714276177542,1967.6,751.5714133126395,734.0714276177542,2070.3,785.3214133126395,740.3214276177542,2173.8,785.3214133126395,740.3214276177542,2276.5,814.0714133126395,715.3214276177542,2378.9,857.8214133126395,682.8214276177542,2489.1,921.5714133126395,655.3214276177542,2601.8,922.8214133126395,652.8214276177542,2702.2,922.8214133126395,652.8214276177542,2803,922.8214133126395,652.8214276177542,2903.6,922.8214133126395,652.8214276177542,3003.6,922.8214133126395,652.8214276177542,3109.3,922.8214133126395,652.8214276177542,3213.5,922.8214133126395,652.8214276177542,3318,922.8214133126395,652.8214276177542,3419.7,922.8214133126395,652.8214276177542,3524.2,922.8214133126395,652.8214276177542,3637.3,922.8214133126395,652.8214276177542,3738.1,922.8214133126395,652.8214276177542,3839,922.8214133126395,652.8214276177542,3952,922.8214133126395,652.8214276177542,4052.3,922.8214133126395,652.8214276177542,4154,922.8214133126395,652.8214276177542,4258.9,922.8214133126395,652.8214276177542,4368.3,922.8214133126395,652.8214276177542,4469.1,922.8214133126395,652.8214276177542,4572.8,922.8214133126395,652.8214276177542,4674.4,922.8214133126395,652.8214276177542,4778.5,922.8214133126395,652.8214276177542,4891.8,922.8214133126395,652.8214276177542,4992.9]","[1436.2,1436.2,1000,0,436.2,""smooth"",""down"",""down"",""good_move"",11642,10205.5,3470.9,7720.5,450.6,""oops"",""down"",""down"",""good_move"",14695.5,3053.2,2599.5,11642.3,453.7,""smooth"",""right"",""right"",""good_move"",20892.4,6196.7,2694.2,17775.3,422.9,""oops"",""right"",""left"",""bad_move"",23596.8,2704.2,2306.3,20892.6,397.9,""oops"",""right"",""right"",""good_move"",27251,3654.2,3279.4,23596.9,374.8,""smooth"",""right"",""right"",""good_move""]","","",""
"2548","","<div style=""width:500px;"">
  <p>What determined the result of this run?</p>
  </div>","74","html-slider-response","65","711448","0.0-10.0-1.5","89","1","2025-07-09 09:07:44","7701e855f2ef39aa3fd6c71abdc6918a","150.143.112.140","Mozilla/5.0 (Windows NT 10.0; Win64; x64) AppleWebKit/537.36 (KHTML, like Gecko) Chrome/138.0.0.0 Safari/537.36","WebKit","Chrome","138.0.0.0","Windows","10.0","https://app.prolific.com/","en-GB,en-US;q=0.9,en;q=0.8","5537b204fdf99b51eefed679","686d226cabeef709c732f8e1","686e31332af13ddc08f8bb50","5537b204fdf99b51eefed679","2025-07-09T09:19:36.497Z","","","","","","AttribQ","","","","","","","","","","","","","","","","","","","","","","","","","","","","","","","","","","","","","","50",""
"2239","","<div style=""width:500px;"">
  <p>How much control did you have over the ball?</p>
  </div>","73","html-slider-response","66","713689","0.0-10.0-2.5","89","1","2025-07-09 09:07:44","7701e855f2ef39aa3fd6c71abdc6918a","150.143.112.140","Mozilla/5.0 (Windows NT 10.0; Win64; x64) AppleWebKit/537.36 (KHTML, like Gecko) Chrome/138.0.0.0 Safari/537.36","WebKit","Chrome","138.0.0.0","Windows","10.0","https://app.prolific.com/","en-GB,en-US;q=0.9,en;q=0.8","5537b204fdf99b51eefed679","686d226cabeef709c732f8e1","686e31332af13ddc08f8bb50","5537b204fdf99b51eefed679","2025-07-09T09:19:38.738Z","","","","","","ControlQ","","","","","","","","","","","","","","","","","","","","","","","","","","","","","","","","","","","","","","50",""
"1690","","<div style=""width:500px;"">
  <p>How would you describe your current emotional state?</p>
  </div>","22","html-slider-response","67","715380","0.0-10.0-3.5","89","1","2025-07-09 09:07:44","7701e855f2ef39aa3fd6c71abdc6918a","150.143.112.140","Mozilla/5.0 (Windows NT 10.0; Win64; x64) AppleWebKit/537.36 (KHTML, like Gecko) Chrome/138.0.0.0 Safari/537.36","WebKit","Chrome","138.0.0.0","Windows","10.0","https://app.prolific.com/","en-GB,en-US;q=0.9,en;q=0.8","5537b204fdf99b51eefed679","686d226cabeef709c732f8e1","686e31332af13ddc08f8bb50","5537b204fdf99b51eefed679","2025-07-09T09:19:40.429Z","","","","","","StressQ","","","","","","","","","","","","","","","","","","","","","","","","","","","","","","","","","","","","","","50",""
"1815","","<div style=""width:500px;"">
  <p>What best describes how you currently feel?</p>
  </div>","80","html-slider-response","68","717196","0.0-10.0-4.5","89","1","2025-07-09 09:07:44","7701e855f2ef39aa3fd6c71abdc6918a","150.143.112.140","Mozilla/5.0 (Windows NT 10.0; Win64; x64) AppleWebKit/537.36 (KHTML, like Gecko) Chrome/138.0.0.0 Safari/537.36","WebKit","Chrome","138.0.0.0","Windows","10.0","https://app.prolific.com/","en-GB,en-US;q=0.9,en;q=0.8","5537b204fdf99b51eefed679","686d226cabeef709c732f8e1","686e31332af13ddc08f8bb50","5537b204fdf99b51eefed679","2025-07-09T09:19:42.245Z","","","","","","MotivationQ","","","","","","","","","","","","","","","","","","","","","","","","","","","","","","","","","","","","","","50",""
"","","","","ctl-task-cpt","69","767288","0.0-10.0-0.6","89","1","2025-07-09 09:07:44","7701e855f2ef39aa3fd6c71abdc6918a","150.143.112.140","Mozilla/5.0 (Windows NT 10.0; Win64; x64) AppleWebKit/537.36 (KHTML, like Gecko) Chrome/138.0.0.0 Safari/537.36","WebKit","Chrome","138.0.0.0","Windows","10.0","https://app.prolific.com/","en-GB,en-US;q=0.9,en;q=0.8","5537b204fdf99b51eefed679","686d226cabeef709c732f8e1","686e31332af13ddc08f8bb50","5537b204fdf99b51eefed679","2025-07-09T09:20:32.337Z","","","","","","","","","","","","","","","","win-only","2","g1:SE,g2:NW","0.4","7","0","718753.3","1760.5","6762","47071.8","1","4","8","6","2","-8","-9","3","12","0.022727272727272728","1948.6","3000","-2295","[""left"",""up""]","{""num_key_presses"":10,""num_perfect"":4,""num_errors"":1,""num_randdir"":5,""num_randdir_good_moves"":3,""num_whilered"":0,""num_whileblue"":1,""num_blue"":4,""num_good_moves"":7}","[414.0714133126395,416.57142761775424,0.3,414.0714133126395,416.57142761775424,102.4,414.0714133126395,416.57142761775424,211.1,414.0714133126395,416.57142761775424,311.8,414.0714133126395,416.57142761775424,416.8,412.8214133126395,416.57142761775424,521.7,306.5714133126395,315.32142761775424,623.2,176.5714133126395,201.57142761775424,726.1,126.5714133126395,155.32142761775424,830.1,106.5714133126395,145.32142761775424,930.3,54.07141331263951,211.57142761775424,1033.2,54.07141331263951,211.57142761775424,1135.7,55.32141331263951,197.82142761775424,1236.7,54.07141331263951,182.82142761775424,1337.9,56.57141331263951,155.32142761775424,1442.7,57.82141331263951,122.82142761775425,1544.9,55.32141331263951,92.82142761775425,1645.3,55.32141331263951,91.57142761775425,1752.9,55.32141331263951,91.57142761775425,1859.5,55.32141331263951,91.57142761775425,1961.2,55.32141331263951,91.57142761775425,2062.4,55.32141331263951,91.57142761775425,2165,60.32141331263951,95.32142761775425,2265,114.0714133126395,122.82142761775425,2374.8,131.5714133126395,137.82142761775424,2475.5,161.5714133126395,171.57142761775424,2581.6,191.5714133126395,214.07142761775424,2682,191.5714133126395,216.57142761775424,2786.8,191.5714133126395,216.57142761775424,2890.3,191.5714133126395,216.57142761775424,2991.8,191.5714133126395,216.57142761775424,3095.7,191.5714133126395,216.57142761775424,3201.1,195.3214133126395,222.82142761775424,3307.6,217.8214133126395,266.57142761775424,3409.7,217.8214133126395,266.57142761775424,3510.3,217.8214133126395,266.57142761775424,3614.7,270.3214133126395,265.32142761775424,3716.5,357.8214133126395,264.07142761775424,3818.9,357.8214133126395,264.07142761775424,3924,357.8214133126395,264.07142761775424,4029.7,357.8214133126395,264.07142761775424,4130.4,357.8214133126395,264.07142761775424,4234.9,357.8214133126395,264.07142761775424,4335.5,357.8214133126395,264.07142761775424,4436.4,357.8214133126395,264.07142761775424,4540.6,357.8214133126395,264.07142761775424,4641.8,357.8214133126395,264.07142761775424,4745.3,357.8214133126395,264.07142761775424,4845.7,357.8214133126395,264.07142761775424,4945.8]","[5027.6,5027.6,2646.3,2011.6,369.8,""smooth"",""left"",""left"",""good_move"",7789.3,2761.3,2409.5,5028,351.8,""smooth"",""left"",""left"",""good_move"",10585.3,2795.7,2283.5,7789.6,512.2,""oops"",""left"",""down"",""bad_move"",16538.6,5953.1,2740.3,13470.4,327.9,""oops"",""left"",""up"",""good_move"",19966.8,3428,3074.7,16538.8,353.3,""oops"",""left"",""up"",""good_move"",22767.5,2800.4,2416.2,19967.1,384.2,""oops"",""left"",""down"",""bad_move"",25888.3,3120.4,2733.2,22767.9,387.2,""smooth"",""left"",""left"",""good_move"",27975.1,2086.3,1729.9,25888.8,356.4,""while_blue"",""up"",""down"",""bad_move"",31202.5,3227.2,2508.3,27975.3,718.9,""smooth"",""up"",""up"",""good_move"",34440.7,3237.2,2857.8,31203.6,379.3,""oops"",""up"",""up"",""good_move""]","","",""
"3889","","<div style=""width:500px;"">
  <p>What determined the result of this run?</p>
  </div>","12","html-slider-response","70","771178","0.0-10.0-1.6","89","1","2025-07-09 09:07:44","7701e855f2ef39aa3fd6c71abdc6918a","150.143.112.140","Mozilla/5.0 (Windows NT 10.0; Win64; x64) AppleWebKit/537.36 (KHTML, like Gecko) Chrome/138.0.0.0 Safari/537.36","WebKit","Chrome","138.0.0.0","Windows","10.0","https://app.prolific.com/","en-GB,en-US;q=0.9,en;q=0.8","5537b204fdf99b51eefed679","686d226cabeef709c732f8e1","686e31332af13ddc08f8bb50","5537b204fdf99b51eefed679","2025-07-09T09:20:36.227Z","","","","","","AttribQ","","","","","","","","","","","","","","","","","","","","","","","","","","","","","","","","","","","","","","50",""
"2022","","<div style=""width:500px;"">
  <p>How much control did you have over the ball?</p>
  </div>","9","html-slider-response","71","773203","0.0-10.0-2.6","89","1","2025-07-09 09:07:44","7701e855f2ef39aa3fd6c71abdc6918a","150.143.112.140","Mozilla/5.0 (Windows NT 10.0; Win64; x64) AppleWebKit/537.36 (KHTML, like Gecko) Chrome/138.0.0.0 Safari/537.36","WebKit","Chrome","138.0.0.0","Windows","10.0","https://app.prolific.com/","en-GB,en-US;q=0.9,en;q=0.8","5537b204fdf99b51eefed679","686d226cabeef709c732f8e1","686e31332af13ddc08f8bb50","5537b204fdf99b51eefed679","2025-07-09T09:20:38.252Z","","","","","","ControlQ","","","","","","","","","","","","","","","","","","","","","","","","","","","","","","","","","","","","","","50",""
"1862","","<div style=""width:500px;"">
  <p>How would you describe your current emotional state?</p>
  </div>","57","html-slider-response","72","775067","0.0-10.0-3.6","89","1","2025-07-09 09:07:44","7701e855f2ef39aa3fd6c71abdc6918a","150.143.112.140","Mozilla/5.0 (Windows NT 10.0; Win64; x64) AppleWebKit/537.36 (KHTML, like Gecko) Chrome/138.0.0.0 Safari/537.36","WebKit","Chrome","138.0.0.0","Windows","10.0","https://app.prolific.com/","en-GB,en-US;q=0.9,en;q=0.8","5537b204fdf99b51eefed679","686d226cabeef709c732f8e1","686e31332af13ddc08f8bb50","5537b204fdf99b51eefed679","2025-07-09T09:20:40.116Z","","","","","","StressQ","","","","","","","","","","","","","","","","","","","","","","","","","","","","","","","","","","","","","","50",""
"2352","","<div style=""width:500px;"">
  <p>What best describes how you currently feel?</p>
  </div>","70","html-slider-response","73","777422","0.0-10.0-4.6","89","1","2025-07-09 09:07:44","7701e855f2ef39aa3fd6c71abdc6918a","150.143.112.140","Mozilla/5.0 (Windows NT 10.0; Win64; x64) AppleWebKit/537.36 (KHTML, like Gecko) Chrome/138.0.0.0 Safari/537.36","WebKit","Chrome","138.0.0.0","Windows","10.0","https://app.prolific.com/","en-GB,en-US;q=0.9,en;q=0.8","5537b204fdf99b51eefed679","686d226cabeef709c732f8e1","686e31332af13ddc08f8bb50","5537b204fdf99b51eefed679","2025-07-09T09:20:42.471Z","","","","","","MotivationQ","","","","","","","","","","","","","","","","","","","","","","","","","","","","","","","","","","","","","","50",""
"","","","","ctl-task-cpt","74","802856","0.0-10.0-0.7","89","1","2025-07-09 09:07:44","7701e855f2ef39aa3fd6c71abdc6918a","150.143.112.140","Mozilla/5.0 (Windows NT 10.0; Win64; x64) AppleWebKit/537.36 (KHTML, like Gecko) Chrome/138.0.0.0 Safari/537.36","WebKit","Chrome","138.0.0.0","Windows","10.0","https://app.prolific.com/","en-GB,en-US;q=0.9,en;q=0.8","5537b204fdf99b51eefed679","686d226cabeef709c732f8e1","686e31332af13ddc08f8bb50","5537b204fdf99b51eefed679","2025-07-09T09:21:07.905Z","","","","","","","","","","","","","","","","win-only","0","g1:NW,g2:SE","0.3","8","0","778978.9","1057.3","6071","22411","1","4","4","6","1","1","1","4","3","0.030303030303030304","5013.7","3000","910","[""left"",""up""]","{""num_key_presses"":6,""num_perfect"":2,""num_errors"":0,""num_randdir"":4,""num_randdir_good_moves"":3,""num_whilered"":0,""num_whileblue"":0,""num_blue"":0,""num_good_moves"":5}","[421.5714133126395,416.57142761775424,0.2,421.5714133126395,416.57142761775424,106.8,421.5714133126395,416.57142761775424,210.2,421.5714133126395,416.57142761775424,313.4,421.5714133126395,416.57142761775424,413.6,421.5714133126395,416.57142761775424,521.5,421.5714133126395,416.57142761775424,625,421.5714133126395,416.57142761775424,729.3,421.5714133126395,416.57142761775424,834.3,339.0714133126395,342.82142761775424,941.2,120.3214133126395,186.57142761775424,1045.8,91.5714133126395,141.57142761775424,1148.7,82.8214133126395,115.32142761775425,1249.8,72.8214133126395,111.57142761775425,1358.6,100.3214133126395,151.57142761775424,1461.7,100.3214133126395,151.57142761775424,1561.9,106.5714133126395,135.32142761775424,1662.4,107.8214133126395,119.07142761775425,1762.4,107.8214133126395,119.07142761775425,1864,107.8214133126395,119.07142761775425,1969.6,107.8214133126395,119.07142761775425,2070,97.8214133126395,95.32142761775425,2181.9,97.8214133126395,91.57142761775425,2283.9,97.8214133126395,91.57142761775425,2384,97.8214133126395,91.57142761775425,2489.7,97.8214133126395,91.57142761775425,2593.8,97.8214133126395,91.57142761775425,2694.1,97.8214133126395,91.57142761775425,2795.9,97.8214133126395,92.82142761775425,2899.5,97.8214133126395,92.82142761775425,3000.6,97.8214133126395,92.82142761775425,3108.5,96.5714133126395,92.82142761775425,3211.9,96.5714133126395,92.82142761775425,3314.8,96.5714133126395,92.82142761775425,3429.2,96.5714133126395,92.82142761775425,3529.9,96.5714133126395,92.82142761775425,3630.6,96.5714133126395,92.82142761775425,3734.4,96.5714133126395,92.82142761775425,3845.8,96.5714133126395,92.82142761775425,3947.1,96.5714133126395,92.82142761775425,4049.5,96.5714133126395,92.82142761775425,4163.3,96.5714133126395,92.82142761775425,4269.7,96.5714133126395,92.82142761775425,4378.1,96.5714133126395,92.82142761775425,4478.3,96.5714133126395,92.82142761775425,4579.6,96.5714133126395,92.82142761775425,4679.6,96.5714133126395,92.82142761775425,4780.1,96.5714133126395,92.82142761775425,4884.1,396.5714133126395,444.07142761775424,4984.3]","[1831.4,1831.4,1000,0,831.4,""smooth"",""left"",""left"",""good_move"",4282.8,2450.9,2060.1,1831.9,390.8,""smooth"",""left"",""left"",""good_move"",6898.4,2615.3,2241.2,4283.1,374.1,""oops"",""up"",""right"",""bad_move"",10334,3435,3027.1,6899,407.9,""oops"",""up"",""left"",""good_move"",12922.7,2588.4,2243,10334.3,345.4,""oops"",""up"",""up"",""good_move"",16219.1,3295.8,2733.8,12923.3,562,""oops"",""up"",""up"",""good_move""]","","",""
"2207","","<div style=""width:500px;"">
  <p>What determined the result of this run?</p>
  </div>","73","html-slider-response","75","805065","0.0-10.0-1.7","89","1","2025-07-09 09:07:44","7701e855f2ef39aa3fd6c71abdc6918a","150.143.112.140","Mozilla/5.0 (Windows NT 10.0; Win64; x64) AppleWebKit/537.36 (KHTML, like Gecko) Chrome/138.0.0.0 Safari/537.36","WebKit","Chrome","138.0.0.0","Windows","10.0","https://app.prolific.com/","en-GB,en-US;q=0.9,en;q=0.8","5537b204fdf99b51eefed679","686d226cabeef709c732f8e1","686e31332af13ddc08f8bb50","5537b204fdf99b51eefed679","2025-07-09T09:21:10.114Z","","","","","","AttribQ","","","","","","","","","","","","","","","","","","","","","","","","","","","","","","","","","","","","","","50",""
"1514","","<div style=""width:500px;"">
  <p>How much control did you have over the ball?</p>
  </div>","73","html-slider-response","76","806581","0.0-10.0-2.7","89","1","2025-07-09 09:07:44","7701e855f2ef39aa3fd6c71abdc6918a","150.143.112.140","Mozilla/5.0 (Windows NT 10.0; Win64; x64) AppleWebKit/537.36 (KHTML, like Gecko) Chrome/138.0.0.0 Safari/537.36","WebKit","Chrome","138.0.0.0","Windows","10.0","https://app.prolific.com/","en-GB,en-US;q=0.9,en;q=0.8","5537b204fdf99b51eefed679","686d226cabeef709c732f8e1","686e31332af13ddc08f8bb50","5537b204fdf99b51eefed679","2025-07-09T09:21:11.630Z","","","","","","ControlQ","","","","","","","","","","","","","","","","","","","","","","","","","","","","","","","","","","","","","","50",""
"1636","","<div style=""width:500px;"">
  <p>How would you describe your current emotional state?</p>
  </div>","34","html-slider-response","77","808219","0.0-10.0-3.7","89","1","2025-07-09 09:07:44","7701e855f2ef39aa3fd6c71abdc6918a","150.143.112.140","Mozilla/5.0 (Windows NT 10.0; Win64; x64) AppleWebKit/537.36 (KHTML, like Gecko) Chrome/138.0.0.0 Safari/537.36","WebKit","Chrome","138.0.0.0","Windows","10.0","https://app.prolific.com/","en-GB,en-US;q=0.9,en;q=0.8","5537b204fdf99b51eefed679","686d226cabeef709c732f8e1","686e31332af13ddc08f8bb50","5537b204fdf99b51eefed679","2025-07-09T09:21:13.268Z","","","","","","StressQ","","","","","","","","","","","","","","","","","","","","","","","","","","","","","","","","","","","","","","50",""
"1891","","<div style=""width:500px;"">
  <p>What best describes how you currently feel?</p>
  </div>","77","html-slider-response","78","810111","0.0-10.0-4.7","89","1","2025-07-09 09:07:44","7701e855f2ef39aa3fd6c71abdc6918a","150.143.112.140","Mozilla/5.0 (Windows NT 10.0; Win64; x64) AppleWebKit/537.36 (KHTML, like Gecko) Chrome/138.0.0.0 Safari/537.36","WebKit","Chrome","138.0.0.0","Windows","10.0","https://app.prolific.com/","en-GB,en-US;q=0.9,en;q=0.8","5537b204fdf99b51eefed679","686d226cabeef709c732f8e1","686e31332af13ddc08f8bb50","5537b204fdf99b51eefed679","2025-07-09T09:21:15.160Z","","","","","","MotivationQ","","","","","","","","","","","","","","","","","","","","","","","","","","","","","","","","","","","","","","50",""
"","","","","ctl-task-cpt","79","837248","0.0-10.0-0.8","89","1","2025-07-09 09:07:44","7701e855f2ef39aa3fd6c71abdc6918a","150.143.112.140","Mozilla/5.0 (Windows NT 10.0; Win64; x64) AppleWebKit/537.36 (KHTML, like Gecko) Chrome/138.0.0.0 Safari/537.36","WebKit","Chrome","138.0.0.0","Windows","10.0","https://app.prolific.com/","en-GB,en-US;q=0.9,en;q=0.8","5537b204fdf99b51eefed679","686d226cabeef709c732f8e1","686e31332af13ddc08f8bb50","5537b204fdf99b51eefed679","2025-07-09T09:21:42.297Z","","","","","","","","","","","","","","","","win-only","0","g1:NW,g2:SE","0.2","9","0","811667.7","879.6","5881.5","24116","1","4","4","6","2","4","4","8","4","0.06060606060606061","4159.9","3000","1145","[""down"",""right""]","{""num_key_presses"":6,""num_perfect"":1,""num_errors"":0,""num_randdir"":5,""num_randdir_good_moves"":5,""num_whilered"":0,""num_whileblue"":0,""num_blue"":1,""num_good_moves"":6}","[414.0714133126395,425.32142761775424,0.3,414.0714133126395,425.32142761775424,106.2,414.0714133126395,425.32142761775424,216.6,414.0714133126395,425.32142761775424,322,414.0714133126395,425.32142761775424,424.6,414.0714133126395,426.57142761775424,530.5,414.0714133126395,426.57142761775424,630.9,444.0714133126395,431.57142761775424,731.6,457.8214133126395,434.07142761775424,844.7,457.8214133126395,430.32142761775424,946.1,469.0714133126395,419.07142761775424,1046.1,491.5714133126395,409.07142761775424,1146.2,496.5714133126395,407.82142761775424,1246.4,496.5714133126395,407.82142761775424,1351.1,496.5714133126395,407.82142761775424,1451.1,496.5714133126395,406.57142761775424,1560.7,496.5714133126395,406.57142761775424,1662.1,496.5714133126395,406.57142761775424,1765.7,496.5714133126395,406.57142761775424,1865.7,496.5714133126395,406.57142761775424,1966.6,496.5714133126395,407.82142761775424,2078.9,567.8214133126395,526.5714276177542,2180.1,615.3214133126395,620.3214276177542,2280.1,629.0714133126395,676.5714276177542,2381.2,637.8214133126395,721.5714276177542,2482,661.5714133126395,742.8214276177542,2586.1,714.0714133126395,747.8214276177542,2686.9,736.5714133126395,747.8214276177542,2796.3,760.3214133126395,749.0714276177542,2901.4,760.3214133126395,749.0714276177542,3011.3,760.3214133126395,749.0714276177542,3111.9,760.3214133126395,749.0714276177542,3213.5,760.3214133126395,749.0714276177542,3315.7,760.3214133126395,749.0714276177542,3416.5,760.3214133126395,749.0714276177542,3516.6,760.3214133126395,749.0714276177542,3617.1,760.3214133126395,749.0714276177542,3721.4,760.3214133126395,749.0714276177542,3830.6,760.3214133126395,749.0714276177542,3932.2,760.3214133126395,749.0714276177542,4037.7,760.3214133126395,749.0714276177542,4147.9,760.3214133126395,749.0714276177542,4249,760.3214133126395,749.0714276177542,4352,760.3214133126395,749.0714276177542,4457.6,760.3214133126395,749.0714276177542,4563.3,760.3214133126395,749.0714276177542,4663.3,760.3214133126395,749.0714276177542,4764.8,760.3214133126395,749.0714276177542,4866.5,760.3214133126395,749.0714276177542,4971.6]","[4698.3,4698.3,1959.6,2013.8,724.9,""smooth"",""down"",""down"",""good_move"",6996.7,2298,1911.6,4698.7,386.4,""oops"",""down"",""right"",""good_move"",9577.9,2580.8,2247.5,6997.1,333.3,""oops"",""down"",""right"",""good_move"",12431.1,2852.8,2494.5,9578.3,358.3,""oops"",""down"",""down"",""good_move"",15068.3,2636.9,2305.9,12431.5,331,""oops"",""down"",""right"",""good_move"",18117.4,3048.1,2721.1,15069.3,327,""oops"",""down"",""down"",""good_move""]","","",""
"2728","","<div style=""width:500px;"">
  <p>What determined the result of this run?</p>
  </div>","36","html-slider-response","80","839977","0.0-10.0-1.8","89","1","2025-07-09 09:07:44","7701e855f2ef39aa3fd6c71abdc6918a","150.143.112.140","Mozilla/5.0 (Windows NT 10.0; Win64; x64) AppleWebKit/537.36 (KHTML, like Gecko) Chrome/138.0.0.0 Safari/537.36","WebKit","Chrome","138.0.0.0","Windows","10.0","https://app.prolific.com/","en-GB,en-US;q=0.9,en;q=0.8","5537b204fdf99b51eefed679","686d226cabeef709c732f8e1","686e31332af13ddc08f8bb50","5537b204fdf99b51eefed679","2025-07-09T09:21:45.026Z","","","","","","AttribQ","","","","","","","","","","","","","","","","","","","","","","","","","","","","","","","","","","","","","","50",""
"3231","","<div style=""width:500px;"">
  <p>How much control did you have over the ball?</p>
  </div>","54","html-slider-response","81","843210","0.0-10.0-2.8","89","1","2025-07-09 09:07:44","7701e855f2ef39aa3fd6c71abdc6918a","150.143.112.140","Mozilla/5.0 (Windows NT 10.0; Win64; x64) AppleWebKit/537.36 (KHTML, like Gecko) Chrome/138.0.0.0 Safari/537.36","WebKit","Chrome","138.0.0.0","Windows","10.0","https://app.prolific.com/","en-GB,en-US;q=0.9,en;q=0.8","5537b204fdf99b51eefed679","686d226cabeef709c732f8e1","686e31332af13ddc08f8bb50","5537b204fdf99b51eefed679","2025-07-09T09:21:48.259Z","","","","","","ControlQ","","","","","","","","","","","","","","","","","","","","","","","","","","","","","","","","","","","","","","50",""
"1906","","<div style=""width:500px;"">
  <p>How would you describe your current emotional state?</p>
  </div>","33","html-slider-response","82","845118","0.0-10.0-3.8","89","1","2025-07-09 09:07:44","7701e855f2ef39aa3fd6c71abdc6918a","150.143.112.140","Mozilla/5.0 (Windows NT 10.0; Win64; x64) AppleWebKit/537.36 (KHTML, like Gecko) Chrome/138.0.0.0 Safari/537.36","WebKit","Chrome","138.0.0.0","Windows","10.0","https://app.prolific.com/","en-GB,en-US;q=0.9,en;q=0.8","5537b204fdf99b51eefed679","686d226cabeef709c732f8e1","686e31332af13ddc08f8bb50","5537b204fdf99b51eefed679","2025-07-09T09:21:50.167Z","","","","","","StressQ","","","","","","","","","","","","","","","","","","","","","","","","","","","","","","","","","","","","","","50",""
"1822","","<div style=""width:500px;"">
  <p>What best describes how you currently feel?</p>
  </div>","73","html-slider-response","83","846943","0.0-10.0-4.8","89","1","2025-07-09 09:07:44","7701e855f2ef39aa3fd6c71abdc6918a","150.143.112.140","Mozilla/5.0 (Windows NT 10.0; Win64; x64) AppleWebKit/537.36 (KHTML, like Gecko) Chrome/138.0.0.0 Safari/537.36","WebKit","Chrome","138.0.0.0","Windows","10.0","https://app.prolific.com/","en-GB,en-US;q=0.9,en;q=0.8","5537b204fdf99b51eefed679","686d226cabeef709c732f8e1","686e31332af13ddc08f8bb50","5537b204fdf99b51eefed679","2025-07-09T09:21:51.992Z","","","","","","MotivationQ","","","","","","","","","","","","","","","","","","","","","","","","","","","","","","","","","","","","","","50",""
"","","","","ctl-task-cpt","84","881284","0.0-10.0-0.9","89","1","2025-07-09 09:07:44","7701e855f2ef39aa3fd6c71abdc6918a","150.143.112.140","Mozilla/5.0 (Windows NT 10.0; Win64; x64) AppleWebKit/537.36 (KHTML, like Gecko) Chrome/138.0.0.0 Safari/537.36","WebKit","Chrome","138.0.0.0","Windows","10.0","https://app.prolific.com/","en-GB,en-US;q=0.9,en;q=0.8","5537b204fdf99b51eefed679","686d226cabeef709c732f8e1","686e31332af13ddc08f8bb50","5537b204fdf99b51eefed679","2025-07-09T09:22:26.333Z","","","","","","","","","","","","","","","","win-only","1","g1:NE,g2:SW","0.4","10","0","848502.7","751.2","5754.5","31315.9","1","4","8","6","2","8","8","16","8","0.12121212121212122","1406.6","3000","1075","[""down"",""left""]","{""num_key_presses"":8,""num_perfect"":4,""num_errors"":0,""num_randdir"":4,""num_randdir_good_moves"":3,""num_whilered"":0,""num_whileblue"":0,""num_blue"":1,""num_good_moves"":7}","[420.3214133126395,406.57142761775424,0.7,420.3214133126395,406.57142761775424,103.3,421.5714133126395,411.57142761775424,212,466.5714133126395,481.57142761775424,312.6,486.5714133126395,495.32142761775424,415.3,491.5714133126395,481.57142761775424,518.7,491.5714133126395,481.57142761775424,625.3,487.8214133126395,481.57142761775424,732.5,460.3214133126395,484.07142761775424,838.4,342.8214133126395,536.5714276177542,941,242.8214133126395,596.5714276177542,1046.7,192.8214133126395,637.8214276177542,1156.8,142.8214133126395,696.5714276177542,1275.2,102.8214133126395,746.5714276177542,1378.2,101.5714133126395,749.0714276177542,1483.3,101.5714133126395,750.3214276177542,1584.4,101.5714133126395,750.3214276177542,1684.7,101.5714133126395,750.3214276177542,1785.6,112.8214133126395,750.3214276177542,1885.7,355.3214133126395,741.5714276177542,1988.4,402.8214133126395,731.5714276177542,2089.5,402.8214133126395,731.5714276177542,2197.5,402.8214133126395,731.5714276177542,2305.4,402.8214133126395,731.5714276177542,2405.7,402.8214133126395,731.5714276177542,2509.8,402.8214133126395,730.3214276177542,2618.2,402.8214133126395,730.3214276177542,2724.1,402.8214133126395,730.3214276177542,2828.3,402.8214133126395,730.3214276177542,2929.4,402.8214133126395,730.3214276177542,3034.2,402.8214133126395,730.3214276177542,3139.2,402.8214133126395,730.3214276177542,3240.8,402.8214133126395,730.3214276177542,3355.5,402.8214133126395,730.3214276177542,3471.5,402.8214133126395,730.3214276177542,3572.9,402.8214133126395,730.3214276177542,3676,572.8214133126395,735.3214276177542,3784,676.5714133126395,746.5714276177542,3890.3,676.5714133126395,746.5714276177542,3990.4,676.5714133126395,746.5714276177542,4091.3,676.5714133126395,746.5714276177542,4196.7,676.5714133126395,746.5714276177542,4297.1,676.5714133126395,746.5714276177542,4402.1,676.5714133126395,746.5714276177542,4502.3,676.5714133126395,746.5714276177542,4604.7,676.5714133126395,746.5714276177542,4706.8,676.5714133126395,746.5714276177542,4809.6,676.5714133126395,746.5714276177542,4911.2]","[4930.9,4930.9,2592.9,2003.4,334.6,""smooth"",""down"",""down"",""good_move"",7286.4,2355.1,2028.6,4931.3,326.5,""smooth"",""down"",""down"",""good_move"",10054.1,2767.4,2396.2,7286.7,371.3,""oops"",""left"",""down"",""good_move"",13474,3419.7,3076.1,10054.3,343.6,""smooth"",""left"",""left"",""good_move"",16474.5,3000.1,2652.7,13474.4,347.4,""oops"",""left"",""left"",""good_move"",18925,2450.2,2073.9,16474.9,376.3,""oops"",""left"",""right"",""bad_move"",22478.8,3553.3,3087.3,18925.5,466,""smooth"",""left"",""left"",""good_move"",25428,2948.8,2624.9,22479.2,323.9,""oops"",""left"",""left"",""good_move""]","","",""
"1406","","<div style=""width:500px;"">
  <p>What determined the result of this run?</p>
