"rt","response_timestamp","stimulus","response","trial_type","trial_index","time_elapsed","internal_node_id","run_id","condition","recorded_at","source_code_version","ip","user_agent","device","browser","browser_version","platform","platform_version","referer","accept_language","PROLIFIC_PID","STUDY_ID","SESSION_ID","prolific_id","realtime","view_history","question_order","consent","success","question_id","eventType","responses","item_order","radio_event_ids","radio_event_times","key_event_times","mouse_event_times","straightlining","zigzagging","honeypot","which_type","canvas_config","goals_layout","control_level","trial_number","tutorial_trial_number","trial_start_time","phase1_start_time","phase2_start_time","phase3_start_time","goal_1_value","goal_1_distance","goal_2_value","goal_2_distance","goal_selected","outcome","outcome_total","participant_final_score","participant_initial_score","participant_final_score_prop","goal_choice_rt","allocated_time","allocated_time_remaining","goal_direction","counts","mouse_movements","key_presses","correct","slider_start","sub_question"
"48803","1752052198704","<p style='font-size:40px;line-height:1.25'><strong>Welcome to the experiment!</strong></p><p style='font-size:1.1em;line-height:1.25'>Thank you for your interest in our experiment! Before you begin, it is important that we obtain your informed consent to participate in the study.</p><p style='font-size:1.1em;line-height:1.25'>On the next screen will be an <strong>information sheet</strong> for you to read. To participate in the study we need you to read this information sheet and the following consent form carefully. If you agree with all the statements, please click the <strong>I agree</strong> button.</p><p style='font-size:1.1em;line-height:1.25'>Press <strong>Next</strong> to read the information sheet.</p>","0","custom-html-button-response","0","48806","0.0-0.0","137","1","2025-07-09 09:09:05","7701e855f2ef39aa3fd6c71abdc6918a","102.33.94.125","Mozilla/5.0 (Windows NT 10.0; Win64; x64) AppleWebKit/537.36 (KHTML, like Gecko) Chrome/137.0.0.0 Safari/537.36","WebKit","Chrome","137.0.0.0","Windows","10.0","https://app.prolific.com/","en-ZA,en-GB;q=0.9,en-US;q=0.8,en;q=0.7","64d23e803ee1da9a01e52faa","686d226cabeef709c732f8e1","686e314656119378462f47e5","64d23e803ee1da9a01e52faa","2025-07-09T09:09:58.705Z","","","","","","","","","","","","","","","","","","","","","","","","","","","","","","","","","","","","","","","","","","","","",""
"80808","","","","instructions","1","129616","0.0-1.0","137","1","2025-07-09 09:09:05","7701e855f2ef39aa3fd6c71abdc6918a","102.33.94.125","Mozilla/5.0 (Windows NT 10.0; Win64; x64) AppleWebKit/537.36 (KHTML, like Gecko) Chrome/137.0.0.0 Safari/537.36","WebKit","Chrome","137.0.0.0","Windows","10.0","https://app.prolific.com/","en-ZA,en-GB;q=0.9,en-US;q=0.8,en;q=0.7","64d23e803ee1da9a01e52faa","686d226cabeef709c732f8e1","686e314656119378462f47e5","64d23e803ee1da9a01e52faa","","[{""page_index"":0,""viewing_time"":67101},{""page_index"":1,""viewing_time"":13707}]","","","","","","","","","","","","","","","","","","","","","","","","","","","","","","","","","","","","","","","","","","","",""
"8930","","","{""Q0"":"""",""Q1"":"""",""Q2"":"""",""Q3"":"""",""Q4"":"""",""Q5"":"""",""Q6"":""I agree""}","survey-multi-choice","2","138549","0.0-2.0","137","1","2025-07-09 09:09:05","7701e855f2ef39aa3fd6c71abdc6918a","102.33.94.125","Mozilla/5.0 (Windows NT 10.0; Win64; x64) AppleWebKit/537.36 (KHTML, like Gecko) Chrome/137.0.0.0 Safari/537.36","WebKit","Chrome","137.0.0.0","Windows","10.0","https://app.prolific.com/","en-ZA,en-GB;q=0.9,en-US;q=0.8,en;q=0.7","64d23e803ee1da9a01e52faa","686d226cabeef709c732f8e1","686e314656119378462f47e5","64d23e803ee1da9a01e52faa","","","[0,1,2,3,4,5,6]","true","","","","","","","","","","","","","","","","","","","","","","","","","","","","","","","","","","","","","","","","","",""
"30173","","","","fullscreen","3","169740","0.0-4.0","137","1","2025-07-09 09:09:05","7701e855f2ef39aa3fd6c71abdc6918a","102.33.94.125","Mozilla/5.0 (Windows NT 10.0; Win64; x64) AppleWebKit/537.36 (KHTML, like Gecko) Chrome/137.0.0.0 Safari/537.36","WebKit","Chrome","137.0.0.0","Windows","10.0","https://app.prolific.com/","en-ZA,en-GB;q=0.9,en-US;q=0.8,en;q=0.7","64d23e803ee1da9a01e52faa","686d226cabeef709c732f8e1","686e314656119378462f47e5","64d23e803ee1da9a01e52faa","","","","","true","","","","","","","","","","","","","","","","","","","","","","","","","","","","","","","","","","","","","","","","",""
"10196","1752052329838"," <p style='font-size:1.1em;line-height:1.25'>Thank you for completing the consent form and closing all other tabs.</p><p style='font-size:1.1em;line-height:1.25'>We will now invite you to fill in some demographic information and questionnaires, before starting the game.<br>This will take about 5 minutes.<br></p><p style='font-size:1.1em;line-height:1.25'>Press the <strong>Next</strong> button to continue.</p>","0","custom-html-button-response","4","179939","0.0-5.0","137","1","2025-07-09 09:09:05","7701e855f2ef39aa3fd6c71abdc6918a","102.33.94.125","Mozilla/5.0 (Windows NT 10.0; Win64; x64) AppleWebKit/537.36 (KHTML, like Gecko) Chrome/137.0.0.0 Safari/537.36","WebKit","Chrome","137.0.0.0","Windows","10.0","https://app.prolific.com/","en-ZA,en-GB;q=0.9,en-US;q=0.8,en;q=0.7","64d23e803ee1da9a01e52faa","686d226cabeef709c732f8e1","686e314656119378462f47e5","64d23e803ee1da9a01e52faa","2025-07-09T09:12:09.838Z","","","","","","","","","","","","","","","","","","","","","","","","","","","","","","","","","","","","","","","","","","","","",""
"4764","","","{""age"":""26""}","survey-text","5","184706","0.0-6.0-0.0","137","1","2025-07-09 09:09:05","7701e855f2ef39aa3fd6c71abdc6918a","102.33.94.125","Mozilla/5.0 (Windows NT 10.0; Win64; x64) AppleWebKit/537.36 (KHTML, like Gecko) Chrome/137.0.0.0 Safari/537.36","WebKit","Chrome","137.0.0.0","Windows","10.0","https://app.prolific.com/","en-ZA,en-GB;q=0.9,en-US;q=0.8,en;q=0.7","64d23e803ee1da9a01e52faa","686d226cabeef709c732f8e1","686e314656119378462f47e5","64d23e803ee1da9a01e52faa","","","","","","0","demographics","","","","","","","","","","","","","","","","","","","","","","","","","","","","","","","","","","","","","","",""
"5019","","","{""gender_identity"":""female/woman""}","survey-multi-choice","6","189726","0.0-6.0-1.0","137","1","2025-07-09 09:09:05","7701e855f2ef39aa3fd6c71abdc6918a","102.33.94.125","Mozilla/5.0 (Windows NT 10.0; Win64; x64) AppleWebKit/537.36 (KHTML, like Gecko) Chrome/137.0.0.0 Safari/537.36","WebKit","Chrome","137.0.0.0","Windows","10.0","https://app.prolific.com/","en-ZA,en-GB;q=0.9,en-US;q=0.8,en;q=0.7","64d23e803ee1da9a01e52faa","686d226cabeef709c732f8e1","686e314656119378462f47e5","64d23e803ee1da9a01e52faa","","","[0]","","","1","demographics","","","","","","","","","","","","","","","","","","","","","","","","","","","","","","","","","","","","","","",""
"3867","","","{""assigned_sex"":""female""}","survey-multi-choice","7","193594","0.0-6.0-2.0","137","1","2025-07-09 09:09:05","7701e855f2ef39aa3fd6c71abdc6918a","102.33.94.125","Mozilla/5.0 (Windows NT 10.0; Win64; x64) AppleWebKit/537.36 (KHTML, like Gecko) Chrome/137.0.0.0 Safari/537.36","WebKit","Chrome","137.0.0.0","Windows","10.0","https://app.prolific.com/","en-ZA,en-GB;q=0.9,en-US;q=0.8,en;q=0.7","64d23e803ee1da9a01e52faa","686d226cabeef709c732f8e1","686e314656119378462f47e5","64d23e803ee1da9a01e52faa","","","[0]","","","2","demographics","","","","","","","","","","","","","","","","","","","","","","","","","","","","","","","","","","","","","","",""
"6102","","","{""menstrual_cycle"":""Yes""}","survey-multi-choice","8","199697","0.0-6.0-3.0","137","1","2025-07-09 09:09:05","7701e855f2ef39aa3fd6c71abdc6918a","102.33.94.125","Mozilla/5.0 (Windows NT 10.0; Win64; x64) AppleWebKit/537.36 (KHTML, like Gecko) Chrome/137.0.0.0 Safari/537.36","WebKit","Chrome","137.0.0.0","Windows","10.0","https://app.prolific.com/","en-ZA,en-GB;q=0.9,en-US;q=0.8,en;q=0.7","64d23e803ee1da9a01e52faa","686d226cabeef709c732f8e1","686e314656119378462f47e5","64d23e803ee1da9a01e52faa","","","[0]","","","4","demographics","","","","","","","","","","","","","","","","","","","","","","","","","","","","","","","","","","","","","","",""
"7374","","","{""education"":""Bachelor's Degree (e.g., BA)""}","survey-multi-choice","9","207072","0.0-6.0-4.0","137","1","2025-07-09 09:09:05","7701e855f2ef39aa3fd6c71abdc6918a","102.33.94.125","Mozilla/5.0 (Windows NT 10.0; Win64; x64) AppleWebKit/537.36 (KHTML, like Gecko) Chrome/137.0.0.0 Safari/537.36","WebKit","Chrome","137.0.0.0","Windows","10.0","https://app.prolific.com/","en-ZA,en-GB;q=0.9,en-US;q=0.8,en;q=0.7","64d23e803ee1da9a01e52faa","686d226cabeef709c732f8e1","686e314656119378462f47e5","64d23e803ee1da9a01e52faa","","","[0]","","","5","demographics","","","","","","","","","","","","","","","","","","","","","","","","","","","","","","","","","","","","","","",""
"17049","","","{""education"":""GCSE/Standard Grades""}","survey-multi-choice","10","224122","0.0-6.0-5.0","137","1","2025-07-09 09:09:05","7701e855f2ef39aa3fd6c71abdc6918a","102.33.94.125","Mozilla/5.0 (Windows NT 10.0; Win64; x64) AppleWebKit/537.36 (KHTML, like Gecko) Chrome/137.0.0.0 Safari/537.36","WebKit","Chrome","137.0.0.0","Windows","10.0","https://app.prolific.com/","en-ZA,en-GB;q=0.9,en-US;q=0.8,en;q=0.7","64d23e803ee1da9a01e52faa","686d226cabeef709c732f8e1","686e314656119378462f47e5","64d23e803ee1da9a01e52faa","2025-07-09T09:12:54.021Z","","[0]","","","6","demographics","","","","","","","","","","","","","","","","","","","","","","","","","","","","","","","","","","","","","","",""
"19419","","","{""mental_health_condition"":""No"",""mental_health_treatment"":""No"",""psychiatric_medication"":""N/A""}","survey-text","11","243549","0.0-7.0-0.0","137","1","2025-07-09 09:09:05","7701e855f2ef39aa3fd6c71abdc6918a","102.33.94.125","Mozilla/5.0 (Windows NT 10.0; Win64; x64) AppleWebKit/537.36 (KHTML, like Gecko) Chrome/137.0.0.0 Safari/537.36","WebKit","Chrome","137.0.0.0","Windows","10.0","https://app.prolific.com/","en-ZA,en-GB;q=0.9,en-US;q=0.8,en;q=0.7","64d23e803ee1da9a01e52faa","686d226cabeef709c732f8e1","686e314656119378462f47e5","64d23e803ee1da9a01e52faa","2025-07-09T09:13:13.448Z","","","","","1","mental_health","","","","","","","","","","","","","","","","","","","","","","","","","","","","","","","","","","","","","","",""
"15502","","","{""depression_history"":[""Yes""]}","survey-multi-select","12","259052","0.0-7.0-1.0","137","1","2025-07-09 09:09:05","7701e855f2ef39aa3fd6c71abdc6918a","102.33.94.125","Mozilla/5.0 (Windows NT 10.0; Win64; x64) AppleWebKit/537.36 (KHTML, like Gecko) Chrome/137.0.0.0 Safari/537.36","WebKit","Chrome","137.0.0.0","Windows","10.0","https://app.prolific.com/","en-ZA,en-GB;q=0.9,en-US;q=0.8,en;q=0.7","64d23e803ee1da9a01e52faa","686d226cabeef709c732f8e1","686e314656119378462f47e5","64d23e803ee1da9a01e52faa","","","[0]","","","","mental_health","","","","","","","","","","","","","","","","","","","","","","","","","","","","","","","","","","","","","","",""
"14532","","","{""depression_episodes"":""1-2"",""depression_recent"":""Currently experiencing an episode""}","survey-multi-choice","13","273585","0.0-7.0-2.0-0.0","137","1","2025-07-09 09:09:05","7701e855f2ef39aa3fd6c71abdc6918a","102.33.94.125","Mozilla/5.0 (Windows NT 10.0; Win64; x64) AppleWebKit/537.36 (KHTML, like Gecko) Chrome/137.0.0.0 Safari/537.36","WebKit","Chrome","137.0.0.0","Windows","10.0","https://app.prolific.com/","en-ZA,en-GB;q=0.9,en-US;q=0.8,en;q=0.7","64d23e803ee1da9a01e52faa","686d226cabeef709c732f8e1","686e314656119378462f47e5","64d23e803ee1da9a01e52faa","2025-07-09T09:13:43.484Z","","[0,1]","","","3","mental_health","","","","","","","","","","","","","","","","","","","","","","","","","","","","","","","","","","","","","","",""
"88398.7000002861","","","","survey-template","14","362002","0.0-7.0-3.0","137","1","2025-07-09 09:09:05","7701e855f2ef39aa3fd6c71abdc6918a","102.33.94.125","Mozilla/5.0 (Windows NT 10.0; Win64; x64) AppleWebKit/537.36 (KHTML, like Gecko) Chrome/137.0.0.0 Safari/537.36","WebKit","Chrome","137.0.0.0","Windows","10.0","https://app.prolific.com/","en-ZA,en-GB;q=0.9,en-US;q=0.8,en;q=0.7","64d23e803ee1da9a01e52faa","686d226cabeef709c732f8e1","686e314656119378462f47e5","64d23e803ee1da9a01e52faa","2025-07-09T09:15:11.901Z","","","","","","ius","{""Q01"":""4"",""Q02"":""3"",""Q03"":""3"",""Q04"":""4"",""Q05"":""4"",""Q06"":""3"",""Q07"":""3"",""Q08"":""0"",""Q09"":""4"",""Q10"":""4"",""Q11"":""3"",""Q12"":""3"",""Q13"":""3""}","[0,1,2,3,4,5,6,7,8,9,10,11,12]","[""Q01"",""Q02"",""Q03"",""Q04"",""Q04"",""Q05"",""Q06"",""Q07"",""Q08"",""Q09"",""Q09"",""Q10"",""Q11"",""Q12"",""Q13""]","[10573.5,13385.900000095367,15312.300000190735,23551.700000286102,25428.5,34302.2000002861,36793.60000038147,40384.800000190735,51803.40000009537,70944.10000038147,72118.80000019073,76917.5,79610.40000009537,83580.30000019073,87170]","[]","[9519.5,10573.5,13385.900000095367,15312.300000190735,23551.700000286102,25428.5,32553.700000286102,34302.2000002861,36793.60000038147,40384.800000190735,51803.40000009537,70944.10000038147,72118.80000019073,73746.10000038147,75413.30000019073,76917.5,79610.40000009537,83580.30000019073,87170,88396.7000002861]","0.5384615384615384","0.4166666666666667","0","","","","","","","","","","","","","","","","","","","","","","","","","","","","","",""
"4163","1752052516065","<p style='font-size:1.1em;line-height:1.25'>In the following, we will ask you a few questions relating to your experiences over the past month.<br></p><p style='font-size:1.1em;line-height:1.25'>Press the <strong>Next</strong> button to continue.</p>","0","custom-html-button-response","15","366166","0.0-7.0-4.0","137","1","2025-07-09 09:09:05","7701e855f2ef39aa3fd6c71abdc6918a","102.33.94.125","Mozilla/5.0 (Windows NT 10.0; Win64; x64) AppleWebKit/537.36 (KHTML, like Gecko) Chrome/137.0.0.0 Safari/537.36","WebKit","Chrome","137.0.0.0","Windows","10.0","https://app.prolific.com/","en-ZA,en-GB;q=0.9,en-US;q=0.8,en;q=0.7","64d23e803ee1da9a01e52faa","686d226cabeef709c732f8e1","686e314656119378462f47e5","64d23e803ee1da9a01e52faa","2025-07-09T09:15:16.065Z","","","","","","","","","","","","","","","","","","","","","","","","","","","","","","","","","","","","","","","","","","","","",""
"109089.5","","","","survey-template","16","475263","0.0-7.0-5.0","137","1","2025-07-09 09:09:05","7701e855f2ef39aa3fd6c71abdc6918a","102.33.94.125","Mozilla/5.0 (Windows NT 10.0; Win64; x64) AppleWebKit/537.36 (KHTML, like Gecko) Chrome/137.0.0.0 Safari/537.36","WebKit","Chrome","137.0.0.0","Windows","10.0","https://app.prolific.com/","en-ZA,en-GB;q=0.9,en-US;q=0.8,en;q=0.7","64d23e803ee1da9a01e52faa","686d226cabeef709c732f8e1","686e314656119378462f47e5","64d23e803ee1da9a01e52faa","2025-07-09T09:17:05.162Z","","","","","","pss","{""Q01"":""3"",""Q02"":""2"",""Q03"":""2"",""Q04"":""0"",""Q05"":""0"",""Q06"":""3"",""Q07"":""1"",""Q08"":""1"",""Q09"":""2"",""Q10"":""2""}","[0,1,2,3,4,5,6,7,8,9]","[""Q01"",""Q02"",""Q02"",""Q03"",""Q03"",""Q04"",""Q05"",""Q06"",""Q07"",""Q08"",""Q09"",""Q10""]","[8548,17718.300000190735,21151.199999809265,50659,55951.09999990463,62181.300000190735,67109.40000009537,71914.80000019073,80824.09999990463,89916.09999990463,96345.90000009537,107821.09999990463]","[]","[0,8548,17718.300000190735,21151.199999809265,50659,55062.40000009537,55951.09999990463,62181.300000190735,64778.300000190735,67109.40000009537,71914.80000019073,77268.19999980927,80824.09999990463,89916.09999990463,96345.90000009537,106829.59999990463,107821.09999990463,109084.59999990463]","0.4","0.3333333333333333","0","","","","","","","","","","","","","","","","","","","","","","","","","","","","","",""
"3320","1752052628485","<p style='font-size:1.1em;line-height:1.25'>Thank you for your answers! Now we will ask you a few more questions relating to your feelings in the last 24 hours.<br></p><p style='font-size:1.1em;line-height:1.25'>Press the <strong>Next</strong> button to continue.</p>","0","custom-html-button-response","17","478586","0.0-7.0-6.0","137","1","2025-07-09 09:09:05","7701e855f2ef39aa3fd6c71abdc6918a","102.33.94.125","Mozilla/5.0 (Windows NT 10.0; Win64; x64) AppleWebKit/537.36 (KHTML, like Gecko) Chrome/137.0.0.0 Safari/537.36","WebKit","Chrome","137.0.0.0","Windows","10.0","https://app.prolific.com/","en-ZA,en-GB;q=0.9,en-US;q=0.8,en;q=0.7","64d23e803ee1da9a01e52faa","686d226cabeef709c732f8e1","686e314656119378462f47e5","64d23e803ee1da9a01e52faa","2025-07-09T09:17:08.485Z","","","","","","","","","","","","","","","","","","","","","","","","","","","","","","","","","","","","","","","","","","","","",""
"86026.69999980927","","","","survey-template","18","564618","0.0-7.0-7.0","137","1","2025-07-09 09:09:05","7701e855f2ef39aa3fd6c71abdc6918a","102.33.94.125","Mozilla/5.0 (Windows NT 10.0; Win64; x64) AppleWebKit/537.36 (KHTML, like Gecko) Chrome/137.0.0.0 Safari/537.36","WebKit","Chrome","137.0.0.0","Windows","10.0","https://app.prolific.com/","en-ZA,en-GB;q=0.9,en-US;q=0.8,en;q=0.7","64d23e803ee1da9a01e52faa","686d226cabeef709c732f8e1","686e314656119378462f47e5","64d23e803ee1da9a01e52faa","2025-07-09T09:18:34.517Z","","","","","","drsp","{""Q01"":""1"",""Q02"":""1"",""Q03"":""0"",""Q04"":""2"",""Q05"":""3"",""Q06"":""2"",""Q07"":""1"",""Q08"":""0"",""Q09"":""1"",""Q10"":""1"",""Q11"":""2"",""Q12"":""1"",""Q13"":""2"",""Q14"":""4"",""Q15"":""1"",""Q16"":""1"",""Q17"":""1"",""Q18"":""3"",""Q19"":""0"",""Q20"":""1"",""Q21"":""1""}","[0,1,2,3,4,5,6,7,8,9,10,11,12,13,14,15,16,17,18,19,20]","[""Q01"",""Q02"",""Q03"",""Q04"",""Q05"",""Q06"",""Q07"",""Q08"",""Q09"",""Q10"",""Q11"",""Q12"",""Q13"",""Q14"",""Q14"",""Q15"",""Q16"",""Q17"",""Q18"",""Q19"",""Q20"",""Q21""]","[3136.5999999046326,5260.900000095367,7603.199999809265,10409.400000095367,14048.800000190735,19462.300000190735,23235.199999809265,26169.900000095367,28521.800000190735,30745.400000095367,34216.800000190735,37870.59999990463,39625.59999990463,45223,48223.300000190735,53494.800000190735,57298.90000009537,58698.5,69799,77052.40000009537,80499.30000019073,84433.80000019073]","[]","[0,3136.5999999046326,5260.900000095367,7603.199999809265,10409.400000095367,14048.800000190735,19462.300000190735,23235.199999809265,26169.900000095367,28521.800000190735,30745.400000095367,34216.800000190735,37870.59999990463,39625.59999990463,45223,48223.300000190735,53494.800000190735,57298.90000009537,58698.5,69799,77052.40000009537,80499.30000019073,84433.80000019073,86020.90000009537]","0.5238095238095238","0.5","0","","","","","","","","","","","","","","","","","","","","","","","","","","","","","",""
"14305","","","","survey-template","19","578924","0.0-7.0-8.0","137","1","2025-07-09 09:09:05","7701e855f2ef39aa3fd6c71abdc6918a","102.33.94.125","Mozilla/5.0 (Windows NT 10.0; Win64; x64) AppleWebKit/537.36 (KHTML, like Gecko) Chrome/137.0.0.0 Safari/537.36","WebKit","Chrome","137.0.0.0","Windows","10.0","https://app.prolific.com/","en-ZA,en-GB;q=0.9,en-US;q=0.8,en;q=0.7","64d23e803ee1da9a01e52faa","686d226cabeef709c732f8e1","686e314656119378462f47e5","64d23e803ee1da9a01e52faa","2025-07-09T09:18:48.823Z","","","","","","stress","{""Q01"":""1"",""Q02"":""4"",""Q03"":""1""}","[0,1,2]","[""Q01"",""Q02"",""Q03""]","[4330.39999961853,9342.599999904633,13077.299999713898]","[]","[4330.39999961853,9342.599999904633,13077.299999713898,14304.099999904633]","1","0","0","","","","","","","","","","","","","","","","","","","","","","","","","","","","","",""
"105157","","","","instructions","20","684083","0.0-8.0-0.0","137","1","2025-07-09 09:09:05","7701e855f2ef39aa3fd6c71abdc6918a","102.33.94.125","Mozilla/5.0 (Windows NT 10.0; Win64; x64) AppleWebKit/537.36 (KHTML, like Gecko) Chrome/137.0.0.0 Safari/537.36","WebKit","Chrome","137.0.0.0","Windows","10.0","https://app.prolific.com/","en-ZA,en-GB;q=0.9,en-US;q=0.8,en;q=0.7","64d23e803ee1da9a01e52faa","686d226cabeef709c732f8e1","686e314656119378462f47e5","64d23e803ee1da9a01e52faa","","[{""page_index"":0,""viewing_time"":25374},{""page_index"":1,""viewing_time"":31516},{""page_index"":2,""viewing_time"":27776},{""page_index"":3,""viewing_time"":20491}]","","","","","","","","","","","","","","","","","","","","","","","","","","","","","","","","","","","","","","","","","","","",""
"","","","","ctl-task-cpt","21","723366","0.0-8.0-1.0","137","1","2025-07-09 09:09:05","7701e855f2ef39aa3fd6c71abdc6918a","102.33.94.125","Mozilla/5.0 (Windows NT 10.0; Win64; x64) AppleWebKit/537.36 (KHTML, like Gecko) Chrome/137.0.0.0 Safari/537.36","WebKit","Chrome","137.0.0.0","Windows","10.0","https://app.prolific.com/","en-ZA,en-GB;q=0.9,en-US;q=0.8,en;q=0.7","64d23e803ee1da9a01e52faa","686d226cabeef709c732f8e1","686e314656119378462f47e5","64d23e803ee1da9a01e52faa","","","","","","","","","","","","","","","","","win-only","3","g1:SW,g2:NE","1","0","1","690280.7","6038.2","10041","36272.8","2","4","4","6","2","4","3","3","0","0.022727272727272728","4002.7","4000","1055","[""up"",""right""]","{""num_key_presses"":7,""num_perfect"":6,""num_errors"":1,""num_randdir"":0,""num_randdir_good_moves"":0,""num_whilered"":0,""num_whileblue"":0,""num_blue"":2,""num_good_moves"":6}","[412.8214133126395,416.57142761775424,0.2,412.8214133126395,416.57142761775424,104,412.8214133126395,416.57142761775424,208.7,412.8214133126395,416.57142761775424,310,412.8214133126395,416.57142761775424,413.5,412.8214133126395,416.57142761775424,517.7,412.8214133126395,416.57142761775424,617.8,412.8214133126395,416.57142761775424,725.5,362.8214133126395,471.57142761775424,825.6,360.3214133126395,476.57142761775424,927.5,356.5714133126395,479.07142761775424,1028.5,351.5714133126395,480.32142761775424,1132.2,350.3214133126395,480.32142761775424,1233.8,350.3214133126395,480.32142761775424,1342.4,350.3214133126395,480.32142761775424,1447.4,350.3214133126395,480.32142761775424,1547.4,350.3214133126395,480.32142761775424,1647.4,350.3214133126395,480.32142761775424,1752.4,350.3214133126395,480.32142761775424,1858.9,350.3214133126395,480.32142761775424,1963,350.3214133126395,480.32142761775424,2068.2,350.3214133126395,480.32142761775424,2175.2,350.3214133126395,480.32142761775424,2275.6,350.3214133126395,480.32142761775424,2375.6,350.3214133126395,480.32142761775424,2478,350.3214133126395,480.32142761775424,2578.2,350.3214133126395,480.32142761775424,2683.5,350.3214133126395,480.32142761775424,2792.1,350.3214133126395,480.32142761775424,2892.3,350.3214133126395,480.32142761775424,2997.2,350.3214133126395,480.32142761775424,3098.2,350.3214133126395,480.32142761775424,3203.1,350.3214133126395,480.32142761775424,3308.9,350.3214133126395,480.32142761775424,3409,350.3214133126395,480.32142761775424,3513,350.3214133126395,480.32142761775424,3618.6,350.3214133126395,480.32142761775424,3725.5,350.3214133126395,480.32142761775424,3825.6,350.3214133126395,480.32142761775424,3927.2]","[639.3,639.3,1000,0,-360.7,""error"",""-"",""-"",""no_move"",4655.3,4015.8,2236.7,1644.7,773.9,""smooth"",""right"",""right"",""good_move"",11863.6,7207.5,2533.9,8472.5,857.2,""smooth"",""up"",""up"",""good_move"",14461.4,2597.6,2171.7,11863.8,425.9,""smooth"",""right"",""right"",""good_move"",17642.3,3180.8,2751.8,14461.5,429,""smooth"",""up"",""up"",""good_move"",23895.4,6252.9,2266,21272.1,357.3,""smooth"",""up"",""up"",""good_move"",26138.4,2242.9,1748.9,23895.5,494,""smooth"",""right"",""right"",""good_move""]","","",""
"17687","","","","instructions","22","741053","0.0-8.0-2.0","137","1","2025-07-09 09:09:05","7701e855f2ef39aa3fd6c71abdc6918a","102.33.94.125","Mozilla/5.0 (Windows NT 10.0; Win64; x64) AppleWebKit/537.36 (KHTML, like Gecko) Chrome/137.0.0.0 Safari/537.36","WebKit","Chrome","137.0.0.0","Windows","10.0","https://app.prolific.com/","en-ZA,en-GB;q=0.9,en-US;q=0.8,en;q=0.7","64d23e803ee1da9a01e52faa","686d226cabeef709c732f8e1","686e314656119378462f47e5","64d23e803ee1da9a01e52faa","","[{""page_index"":0,""viewing_time"":17687}]","","","","","","","","","","","","","","","","","","","","","","","","","","","","","","","","","","","","","","","","","","","",""
"","","","","ctl-task-cpt","23","788868","0.0-8.0-3.0","137","1","2025-07-09 09:09:05","7701e855f2ef39aa3fd6c71abdc6918a","102.33.94.125","Mozilla/5.0 (Windows NT 10.0; Win64; x64) AppleWebKit/537.36 (KHTML, like Gecko) Chrome/137.0.0.0 Safari/537.36","WebKit","Chrome","137.0.0.0","Windows","10.0","https://app.prolific.com/","en-ZA,en-GB;q=0.9,en-US;q=0.8,en;q=0.7","64d23e803ee1da9a01e52faa","686d226cabeef709c732f8e1","686e314656119378462f47e5","64d23e803ee1da9a01e52faa","","","","","","","","","","","","","","","","","win-only","3","g1:SW,g2:NE","0.35","0","3","747250.2","3157.3","7161.7","44806.1","2","4","8","6","2","-8","-10","0","0","0","4004.3","4000","-2995","[""up"",""right""]","{""num_key_presses"":10,""num_perfect"":4,""num_errors"":2,""num_randdir"":4,""num_randdir_good_moves"":2,""num_whilered"":0,""num_whileblue"":2,""num_blue"":4,""num_good_moves"":5}","[412.8214133126395,415.32142761775424,0.2,412.8214133126395,415.32142761775424,103.6,412.8214133126395,415.32142761775424,209,412.8214133126395,415.32142761775424,314,412.8214133126395,415.32142761775424,418.3,412.8214133126395,415.32142761775424,524.1,412.8214133126395,415.32142761775424,628.2,412.8214133126395,415.32142761775424,728.6,412.8214133126395,415.32142761775424,829.7,412.8214133126395,415.32142761775424,934.4,412.8214133126395,415.32142761775424,1038.8,412.8214133126395,415.32142761775424,1138.9,412.8214133126395,415.32142761775424,1243.5,412.8214133126395,415.32142761775424,1348.6,412.8214133126395,415.32142761775424,1453.8,412.8214133126395,415.32142761775424,1559.5,412.8214133126395,415.32142761775424,1665.2,412.8214133126395,415.32142761775424,1768.1,412.8214133126395,415.32142761775424,1868.3,412.8214133126395,415.32142761775424,1974,412.8214133126395,415.32142761775424,2078.6,412.8214133126395,415.32142761775424,2179,412.8214133126395,415.32142761775424,2283.3,412.8214133126395,415.32142761775424,2383.3,412.8214133126395,415.32142761775424,2488.9,412.8214133126395,415.32142761775424,2594.2,412.8214133126395,415.32142761775424,2698.5,412.8214133126395,415.32142761775424,2798.8,412.8214133126395,415.32142761775424,2898.9,412.8214133126395,415.32142761775424,2999.4,412.8214133126395,415.32142761775424,3103.2,412.8214133126395,415.32142761775424,3203.3,412.8214133126395,415.32142761775424,3309.7,412.8214133126395,415.32142761775424,3414.1,412.8214133126395,415.32142761775424,3515,412.8214133126395,415.32142761775424,3618.2,412.8214133126395,415.32142761775424,3723.4,412.8214133126395,415.32142761775424,3823.9,412.8214133126395,415.32142761775424,3925.2]","[1476.3,1476.3,1000,0,476.3,""oops"",""up"",""left"",""bad_move"",4522.1,3045.5,2557.6,1476.6,487.9,""smooth"",""down"",""down"",""bad_move"",7135.2,2613,2142.4,4522.3,470.6,""oops"",""up"",""down"",""bad_move"",10797.7,3662.4,3150.4,7135.4,512,""smooth"",""left"",""left"",""bad_move"",13994.1,3196,2769.3,10798.1,426.7,""oops"",""up"",""right"",""good_move"",17540.2,3545.9,3184.7,13994.3,361.2,""oops"",""up"",""up"",""good_move"",19657.5,2117,1678.6,17540.5,438.4,""while_blue"",""up"",""down"",""bad_move"",22433.1,2775.4,2247.6,19657.7,527.8,""smooth"",""up"",""up"",""good_move"",28526.8,6093.5,2674.9,25479.4,372.5,""while_blue"",""up"",""up"",""good_move"",31761,3234.1,2749.9,28526.9,484.2,""smooth"",""up"",""up"",""good_move""]","","",""
"37069","","","","instructions","24","825938","0.0-8.0-4.0","137","1","2025-07-09 09:09:05","7701e855f2ef39aa3fd6c71abdc6918a","102.33.94.125","Mozilla/5.0 (Windows NT 10.0; Win64; x64) AppleWebKit/537.36 (KHTML, like Gecko) Chrome/137.0.0.0 Safari/537.36","WebKit","Chrome","137.0.0.0","Windows","10.0","https://app.prolific.com/","en-ZA,en-GB;q=0.9,en-US;q=0.8,en;q=0.7","64d23e803ee1da9a01e52faa","686d226cabeef709c732f8e1","686e314656119378462f47e5","64d23e803ee1da9a01e52faa","","[{""page_index"":0,""viewing_time"":16939},{""page_index"":1,""viewing_time"":20129}]","","","","","","","","","","","","","","","","","","","","","","","","","","","","","","","","","","","","","","","","","","","",""
"27574","","","{""green_ball"":[""Ball always moves in the direction I press"",""Ball sometimes shakes and moves in a random direction""]}","survey-multi-select","25","853517","0.0-8.0-5.0-0.0","137","1","2025-07-09 09:09:05","7701e855f2ef39aa3fd6c71abdc6918a","102.33.94.125","Mozilla/5.0 (Windows NT 10.0; Win64; x64) AppleWebKit/537.36 (KHTML, like Gecko) Chrome/137.0.0.0 Safari/537.36","WebKit","Chrome","137.0.0.0","Windows","10.0","https://app.prolific.com/","en-ZA,en-GB;q=0.9,en-US;q=0.8,en;q=0.7","64d23e803ee1da9a01e52faa","686d226cabeef709c732f8e1","686e314656119378462f47e5","64d23e803ee1da9a01e52faa","","","[0]","","","","quiz","","","","","","","","","","","","","","","","","","","","","","","","","","","","","","","","","","","","","false","",""
"6033","","<p align='center'><b>INCORRECT.</b> Usually the green ball moves in the indicated direction, but sometimes it shakes and moves randomly. </p>","0","html-button-response","26","859551","0.0-8.0-5.0-1.0","137","1","2025-07-09 09:09:05","7701e855f2ef39aa3fd6c71abdc6918a","102.33.94.125","Mozilla/5.0 (Windows NT 10.0; Win64; x64) AppleWebKit/537.36 (KHTML, like Gecko) Chrome/137.0.0.0 Safari/537.36","WebKit","Chrome","137.0.0.0","Windows","10.0","https://app.prolific.com/","en-ZA,en-GB;q=0.9,en-US;q=0.8,en;q=0.7","64d23e803ee1da9a01e52faa","686d226cabeef709c732f8e1","686e314656119378462f47e5","64d23e803ee1da9a01e52faa","","","","","","","","","","","","","","","","","","","","","","","","","","","","","","","","","","","","","","","","","","","","","",""
"18060","","","{""green_ball"":[""Ball sometimes shakes and moves in a random direction""]}","survey-multi-select","27","877613","0.0-8.0-5.1-0.1","137","1","2025-07-09 09:09:05","7701e855f2ef39aa3fd6c71abdc6918a","102.33.94.125","Mozilla/5.0 (Windows NT 10.0; Win64; x64) AppleWebKit/537.36 (KHTML, like Gecko) Chrome/137.0.0.0 Safari/537.36","WebKit","Chrome","137.0.0.0","Windows","10.0","https://app.prolific.com/","en-ZA,en-GB;q=0.9,en-US;q=0.8,en;q=0.7","64d23e803ee1da9a01e52faa","686d226cabeef709c732f8e1","686e314656119378462f47e5","64d23e803ee1da9a01e52faa","","","[0]","","","","quiz","","","","","","","","","","","","","","","","","","","","","","","","","","","","","","","","","","","","","true","",""
"2654","","<p align='center'><b>CORRECT!</b> Indeed, the green ball may sometimes shake and move in a random direction.</p>","0","html-button-response","28","880268","0.0-8.0-5.1-1.1","137","1","2025-07-09 09:09:05","7701e855f2ef39aa3fd6c71abdc6918a","102.33.94.125","Mozilla/5.0 (Windows NT 10.0; Win64; x64) AppleWebKit/537.36 (KHTML, like Gecko) Chrome/137.0.0.0 Safari/537.36","WebKit","Chrome","137.0.0.0","Windows","10.0","https://app.prolific.com/","en-ZA,en-GB;q=0.9,en-US;q=0.8,en;q=0.7","64d23e803ee1da9a01e52faa","686d226cabeef709c732f8e1","686e314656119378462f47e5","64d23e803ee1da9a01e52faa","","","","","","","","","","","","","","","","","","","","","","","","","","","","","","","","","","","","","","","","","","","","","",""
"12116","","","{""yellow_ball"":[""Ball doesn‘t move and I get -1 penalty point""]}","survey-multi-select","29","892385","0.0-8.0-6.0-0.0","137","1","2025-07-09 09:09:05","7701e855f2ef39aa3fd6c71abdc6918a","102.33.94.125","Mozilla/5.0 (Windows NT 10.0; Win64; x64) AppleWebKit/537.36 (KHTML, like Gecko) Chrome/137.0.0.0 Safari/537.36","WebKit","Chrome","137.0.0.0","Windows","10.0","https://app.prolific.com/","en-ZA,en-GB;q=0.9,en-US;q=0.8,en;q=0.7","64d23e803ee1da9a01e52faa","686d226cabeef709c732f8e1","686e314656119378462f47e5","64d23e803ee1da9a01e52faa","","","[0]","","","","quiz","","","","","","","","","","","","","","","","","","","","","","","","","","","","","","","","","","","","","true","",""
"1629","","<p align='center'><b>CORRECT!</b> Indeed, the yellow ball never moves and you receive a penalty.</p>","0","html-button-response","30","894015","0.0-8.0-6.0-1.0","137","1","2025-07-09 09:09:05","7701e855f2ef39aa3fd6c71abdc6918a","102.33.94.125","Mozilla/5.0 (Windows NT 10.0; Win64; x64) AppleWebKit/537.36 (KHTML, like Gecko) Chrome/137.0.0.0 Safari/537.36","WebKit","Chrome","137.0.0.0","Windows","10.0","https://app.prolific.com/","en-ZA,en-GB;q=0.9,en-US;q=0.8,en;q=0.7","64d23e803ee1da9a01e52faa","686d226cabeef709c732f8e1","686e314656119378462f47e5","64d23e803ee1da9a01e52faa","","","","","","","","","","","","","","","","","","","","","","","","","","","","","","","","","","","","","","","","","","","","","",""
"10143","","","{""blue_ball"":[""Ball doesn‘t move and I get -1 penalty point""]}","survey-multi-select","31","904160","0.0-8.0-7.0-0.0","137","1","2025-07-09 09:09:05","7701e855f2ef39aa3fd6c71abdc6918a","102.33.94.125","Mozilla/5.0 (Windows NT 10.0; Win64; x64) AppleWebKit/537.36 (KHTML, like Gecko) Chrome/137.0.0.0 Safari/537.36","WebKit","Chrome","137.0.0.0","Windows","10.0","https://app.prolific.com/","en-ZA,en-GB;q=0.9,en-US;q=0.8,en;q=0.7","64d23e803ee1da9a01e52faa","686d226cabeef709c732f8e1","686e314656119378462f47e5","64d23e803ee1da9a01e52faa","","","[0]","","","","quiz","","","","","","","","","","","","","","","","","","","","","","","","","","","","","","","","","","","","","false","",""
"2143","","<p align='center'><b>INCORRECT.</b> The blue ball always shakes and moves randomly.</p>","0","html-button-response","32","906304","0.0-8.0-7.0-1.0","137","1","2025-07-09 09:09:05","7701e855f2ef39aa3fd6c71abdc6918a","102.33.94.125","Mozilla/5.0 (Windows NT 10.0; Win64; x64) AppleWebKit/537.36 (KHTML, like Gecko) Chrome/137.0.0.0 Safari/537.36","WebKit","Chrome","137.0.0.0","Windows","10.0","https://app.prolific.com/","en-ZA,en-GB;q=0.9,en-US;q=0.8,en;q=0.7","64d23e803ee1da9a01e52faa","686d226cabeef709c732f8e1","686e314656119378462f47e5","64d23e803ee1da9a01e52faa","","","","","","","","","","","","","","","","","","","","","","","","","","","","","","","","","","","","","","","","","","","","","",""
"4750","","","{""blue_ball"":[""Ball always shakes and moves in a random direction""]}","survey-multi-select","33","911055","0.0-8.0-7.1-0.1","137","1","2025-07-09 09:09:05","7701e855f2ef39aa3fd6c71abdc6918a","102.33.94.125","Mozilla/5.0 (Windows NT 10.0; Win64; x64) AppleWebKit/537.36 (KHTML, like Gecko) Chrome/137.0.0.0 Safari/537.36","WebKit","Chrome","137.0.0.0","Windows","10.0","https://app.prolific.com/","en-ZA,en-GB;q=0.9,en-US;q=0.8,en;q=0.7","64d23e803ee1da9a01e52faa","686d226cabeef709c732f8e1","686e314656119378462f47e5","64d23e803ee1da9a01e52faa","","","[0]","","","","quiz","","","","","","","","","","","","","","","","","","","","","","","","","","","","","","","","","","","","","true","",""
"1673","","<p align='center'><b>CORRECT!</b> Indeed, the blue ball always shakes and moves in a random direction. Also there is a penalty of -1 point.</p>","0","html-button-response","34","912729","0.0-8.0-7.1-1.1","137","1","2025-07-09 09:09:05","7701e855f2ef39aa3fd6c71abdc6918a","102.33.94.125","Mozilla/5.0 (Windows NT 10.0; Win64; x64) AppleWebKit/537.36 (KHTML, like Gecko) Chrome/137.0.0.0 Safari/537.36","WebKit","Chrome","137.0.0.0","Windows","10.0","https://app.prolific.com/","en-ZA,en-GB;q=0.9,en-US;q=0.8,en;q=0.7","64d23e803ee1da9a01e52faa","686d226cabeef709c732f8e1","686e314656119378462f47e5","64d23e803ee1da9a01e52faa","","","","","","","","","","","","","","","","","","","","","","","","","","","","","","","","","","","","","","","","","","","","","",""
"14591","","","{""bonus"":[""When I don‘t get penalty points""]}","survey-multi-select","35","927321","0.0-8.0-8.0-0.0","137","1","2025-07-09 09:09:05","7701e855f2ef39aa3fd6c71abdc6918a","102.33.94.125","Mozilla/5.0 (Windows NT 10.0; Win64; x64) AppleWebKit/537.36 (KHTML, like Gecko) Chrome/137.0.0.0 Safari/537.36","WebKit","Chrome","137.0.0.0","Windows","10.0","https://app.prolific.com/","en-ZA,en-GB;q=0.9,en-US;q=0.8,en;q=0.7","64d23e803ee1da9a01e52faa","686d226cabeef709c732f8e1","686e314656119378462f47e5","64d23e803ee1da9a01e52faa","","","[0]","","","","quiz","","","","","","","","","","","","","","","","","","","","","","","","","","","","","","","","","","","","","false","",""
"2387","","<p align='center'><b>INCORRECT.</b> You receive 2 pounds extra when you reach 50% of points </p>","0","html-button-response","36","929710","0.0-8.0-8.0-1.0","137","1","2025-07-09 09:09:05","7701e855f2ef39aa3fd6c71abdc6918a","102.33.94.125","Mozilla/5.0 (Windows NT 10.0; Win64; x64) AppleWebKit/537.36 (KHTML, like Gecko) Chrome/137.0.0.0 Safari/537.36","WebKit","Chrome","137.0.0.0","Windows","10.0","https://app.prolific.com/","en-ZA,en-GB;q=0.9,en-US;q=0.8,en;q=0.7","64d23e803ee1da9a01e52faa","686d226cabeef709c732f8e1","686e314656119378462f47e5","64d23e803ee1da9a01e52faa","","","","","","","","","","","","","","","","","","","","","","","","","","","","","","","","","","","","","","","","","","","","","",""
"3017","","","{""bonus"":[""When I reach 50% of points""]}","survey-multi-select","37","932728","0.0-8.0-8.1-0.1","137","1","2025-07-09 09:09:05","7701e855f2ef39aa3fd6c71abdc6918a","102.33.94.125","Mozilla/5.0 (Windows NT 10.0; Win64; x64) AppleWebKit/537.36 (KHTML, like Gecko) Chrome/137.0.0.0 Safari/537.36","WebKit","Chrome","137.0.0.0","Windows","10.0","https://app.prolific.com/","en-ZA,en-GB;q=0.9,en-US;q=0.8,en;q=0.7","64d23e803ee1da9a01e52faa","686d226cabeef709c732f8e1","686e314656119378462f47e5","64d23e803ee1da9a01e52faa","","","[0]","","","","quiz","","","","","","","","","","","","","","","","","","","","","","","","","","","","","","","","","","","","","true","",""
"1512","","<p align='center'><b>CORRECT!</b> Indeed, you receive 2 pounds extra when you reach 50% of points.</p>","0","html-button-response","38","934241","0.0-8.0-8.1-1.1","137","1","2025-07-09 09:09:05","7701e855f2ef39aa3fd6c71abdc6918a","102.33.94.125","Mozilla/5.0 (Windows NT 10.0; Win64; x64) AppleWebKit/537.36 (KHTML, like Gecko) Chrome/137.0.0.0 Safari/537.36","WebKit","Chrome","137.0.0.0","Windows","10.0","https://app.prolific.com/","en-ZA,en-GB;q=0.9,en-US;q=0.8,en;q=0.7","64d23e803ee1da9a01e52faa","686d226cabeef709c732f8e1","686e314656119378462f47e5","64d23e803ee1da9a01e52faa","","","","","","","","","","","","","","","","","","","","","","","","","","","","","","","","","","","","","","","","","","","","","",""
"3161","","","","instructions","39","937403","0.0-8.0-9.0","137","1","2025-07-09 09:09:05","7701e855f2ef39aa3fd6c71abdc6918a","102.33.94.125","Mozilla/5.0 (Windows NT 10.0; Win64; x64) AppleWebKit/537.36 (KHTML, like Gecko) Chrome/137.0.0.0 Safari/537.36","WebKit","Chrome","137.0.0.0","Windows","10.0","https://app.prolific.com/","en-ZA,en-GB;q=0.9,en-US;q=0.8,en;q=0.7","64d23e803ee1da9a01e52faa","686d226cabeef709c732f8e1","686e314656119378462f47e5","64d23e803ee1da9a01e52faa","","[{""page_index"":0,""viewing_time"":3161}]","","","","","","","","","","","","","","","","","","","","","","","","","","","","","","","","","","","","","","","","","","","",""
"7088","","<p>Before you start with this game please answer the following three questions yourself. </p>
  <p>Through this game, we measure several aspects of your cognitive performance, such as reaction times, multi-tasking capabilities </p>
  <p>and the ability to assess the situation you are in.</p>
  <p></p>
  <p><b>How good do you usually are in such tasks?</b></p>","86","html-slider-response","40","944493","0.0-9.0-0.0","137","1","2025-07-09 09:09:05","7701e855f2ef39aa3fd6c71abdc6918a","102.33.94.125","Mozilla/5.0 (Windows NT 10.0; Win64; x64) AppleWebKit/537.36 (KHTML, like Gecko) Chrome/137.0.0.0 Safari/537.36","WebKit","Chrome","137.0.0.0","Windows","10.0","https://app.prolific.com/","en-ZA,en-GB;q=0.9,en-US;q=0.8,en;q=0.7","64d23e803ee1da9a01e52faa","686d226cabeef709c732f8e1","686e314656119378462f47e5","64d23e803ee1da9a01e52faa","2025-07-09T09:24:54.392Z","","","","","","PreSkillQ","","","","","","","","","","","","","","","","","","","","","","","","","","","","","","","","","","","","","","50",""
"4580","","<div style=""width:500px;"">
  <p>How well do you think you will perform in this task compared to other participants?</p>
  </div>","99","html-slider-response","41","949074","0.0-9.0-1.0","137","1","2025-07-09 09:09:05","7701e855f2ef39aa3fd6c71abdc6918a","102.33.94.125","Mozilla/5.0 (Windows NT 10.0; Win64; x64) AppleWebKit/537.36 (KHTML, like Gecko) Chrome/137.0.0.0 Safari/537.36","WebKit","Chrome","137.0.0.0","Windows","10.0","https://app.prolific.com/","en-ZA,en-GB;q=0.9,en-US;q=0.8,en;q=0.7","64d23e803ee1da9a01e52faa","686d226cabeef709c732f8e1","686e314656119378462f47e5","64d23e803ee1da9a01e52faa","2025-07-09T09:24:58.973Z","","","","","","PrePerfQ","","","","","","","","","","","","","","","","","","","","","","","","","","","","","","","","","","","","","","50",""
"3744","","<div style=""width:500px;"">
  <p>What best describes how you currently feel?</p>
  </div>","87","html-slider-response","42","952819","0.0-9.0-2.0","137","1","2025-07-09 09:09:05","7701e855f2ef39aa3fd6c71abdc6918a","102.33.94.125","Mozilla/5.0 (Windows NT 10.0; Win64; x64) AppleWebKit/537.36 (KHTML, like Gecko) Chrome/137.0.0.0 Safari/537.36","WebKit","Chrome","137.0.0.0","Windows","10.0","https://app.prolific.com/","en-ZA,en-GB;q=0.9,en-US;q=0.8,en;q=0.7","64d23e803ee1da9a01e52faa","686d226cabeef709c732f8e1","686e314656119378462f47e5","64d23e803ee1da9a01e52faa","2025-07-09T09:25:02.718Z","","","","","","PreMotivationQ","","","","","","","","","","","","","","","","","","","","","","","","","","","","","","","","","","","","","","50",""
"","","","","ctl-task-cpt","43","982981","0.0-10.0-0.0","137","1","2025-07-09 09:09:05","7701e855f2ef39aa3fd6c71abdc6918a","102.33.94.125","Mozilla/5.0 (Windows NT 10.0; Win64; x64) AppleWebKit/537.36 (KHTML, like Gecko) Chrome/137.0.0.0 Safari/537.36","WebKit","Chrome","137.0.0.0","Windows","10.0","https://app.prolific.com/","en-ZA,en-GB;q=0.9,en-US;q=0.8,en;q=0.7","64d23e803ee1da9a01e52faa","686d226cabeef709c732f8e1","686e314656119378462f47e5","64d23e803ee1da9a01e52faa","2025-07-09T09:25:32.880Z","","","","","","","","","","","","","","","","win-only","0","g1:NW,g2:SE","1","1","0","959014.5","1559.4","6560.1","27136.2","1","4","4","6","2","4","4","4","0","0.030303030303030304","1716.7","3000","330","[""down"",""right""]","{""num_key_presses"":6,""num_perfect"":6,""num_errors"":0,""num_randdir"":0,""num_randdir_good_moves"":0,""num_whilered"":0,""num_whileblue"":0,""num_blue"":1,""num_good_moves"":6}","[411.5714133126395,410.32142761775424,0.2,411.5714133126395,410.32142761775424,100.5,411.5714133126395,410.32142761775424,201.2,411.5714133126395,410.32142761775424,301.4,411.5714133126395,410.32142761775424,407.3,411.5714133126395,410.32142761775424,517.1,411.5714133126395,410.32142761775424,617.8,411.5714133126395,410.32142761775424,718,411.5714133126395,410.32142761775424,821.6,411.5714133126395,410.32142761775424,922.6,616.5714133126395,546.5714276177542,1026.9,745.3214133126395,680.3214276177542,1133.9,751.5714133126395,706.5714276177542,1234.3,772.8214133126395,736.5714276177542,1336.6,780.3214133126395,746.5714276177542,1437,781.5714133126395,751.5714276177542,1541.5,781.5714133126395,751.5714276177542,1643.1,781.5714133126395,751.5714276177542,1751,781.5714133126395,751.5714276177542,1851.5,781.5714133126395,751.5714276177542,1956.5,781.5714133126395,751.5714276177542,2056.8,781.5714133126395,751.5714276177542,2157.1,781.5714133126395,751.5714276177542,2267.5,781.5714133126395,751.5714276177542,2371.8,699.0714133126395,690.3214276177542,2472.5,450.3214133126395,465.32142761775424,2577,429.0714133126395,452.82142761775424,2683.8,429.0714133126395,452.82142761775424,2783.9,429.0714133126395,452.82142761775424,2883.9,429.0714133126395,452.82142761775424,2983.9,429.0714133126395,452.82142761775424,3086.7,429.0714133126395,452.82142761775424,3187.1,429.0714133126395,452.82142761775424,3287.9,429.0714133126395,452.82142761775424,3392,429.0714133126395,452.82142761775424,3500.4,429.0714133126395,452.82142761775424,3600.4,429.0714133126395,452.82142761775424,3701.1,429.0714133126395,452.82142761775424,3801.2,429.0714133126395,452.82142761775424,3907.5,429.0714133126395,452.82142761775424,4017.9,429.0714133126395,452.82142761775424,4122,429.0714133126395,452.82142761775424,4226.9,429.0714133126395,452.82142761775424,4327.7,429.0714133126395,452.82142761775424,4433.9,429.0714133126395,452.82142761775424,4534.1,429.0714133126395,452.82142761775424,4636.7,429.0714133126395,452.82142761775424,4737,429.0714133126395,452.82142761775424,4837.5,429.0714133126395,452.82142761775424,4942.1]","[1665.6,1665.6,1000,0,665.6,""smooth"",""down"",""down"",""good_move"",4619.5,2953.6,2495.2,1666,458.3,""smooth"",""right"",""right"",""good_move"",8399,3779.2,3310.4,4619.8,468.8,""smooth"",""down"",""down"",""good_move"",14816,6416.8,2437.7,11922.2,456.1,""smooth"",""down"",""down"",""good_move"",17699,2882.9,2346,14816.1,536.9,""smooth"",""right"",""right"",""good_move"",20482.4,2783.2,2349.2,17699.2,434,""smooth"",""right"",""right"",""good_move""]","","",""
"3756","","<div style=""width:500px;"">
  <p>What determined the result of this run?</p>
  </div>","100","html-slider-response","44","986739","0.0-10.0-1.0","137","1","2025-07-09 09:09:05","7701e855f2ef39aa3fd6c71abdc6918a","102.33.94.125","Mozilla/5.0 (Windows NT 10.0; Win64; x64) AppleWebKit/537.36 (KHTML, like Gecko) Chrome/137.0.0.0 Safari/537.36","WebKit","Chrome","137.0.0.0","Windows","10.0","https://app.prolific.com/","en-ZA,en-GB;q=0.9,en-US;q=0.8,en;q=0.7","64d23e803ee1da9a01e52faa","686d226cabeef709c732f8e1","686e314656119378462f47e5","64d23e803ee1da9a01e52faa","2025-07-09T09:25:36.638Z","","","","","","AttribQ","","","","","","","","","","","","","","","","","","","","","","","","","","","","","","","","","","","","","","50",""
"3881","","<div style=""width:500px;"">
  <p>How much control did you have over the ball?</p>
  </div>","91","html-slider-response","45","990621","0.0-10.0-2.0","137","1","2025-07-09 09:09:05","7701e855f2ef39aa3fd6c71abdc6918a","102.33.94.125","Mozilla/5.0 (Windows NT 10.0; Win64; x64) AppleWebKit/537.36 (KHTML, like Gecko) Chrome/137.0.0.0 Safari/537.36","WebKit","Chrome","137.0.0.0","Windows","10.0","https://app.prolific.com/","en-ZA,en-GB;q=0.9,en-US;q=0.8,en;q=0.7","64d23e803ee1da9a01e52faa","686d226cabeef709c732f8e1","686e314656119378462f47e5","64d23e803ee1da9a01e52faa","2025-07-09T09:25:40.520Z","","","","","","ControlQ","","","","","","","","","","","","","","","","","","","","","","","","","","","","","","","","","","","","","","50",""
"5377","","<div style=""width:500px;"">
  <p>How would you describe your current emotional state?</p>
  </div>","4","html-slider-response","46","995998","0.0-10.0-3.0","137","1","2025-07-09 09:09:05","7701e855f2ef39aa3fd6c71abdc6918a","102.33.94.125","Mozilla/5.0 (Windows NT 10.0; Win64; x64) AppleWebKit/537.36 (KHTML, like Gecko) Chrome/137.0.0.0 Safari/537.36","WebKit","Chrome","137.0.0.0","Windows","10.0","https://app.prolific.com/","en-ZA,en-GB;q=0.9,en-US;q=0.8,en;q=0.7","64d23e803ee1da9a01e52faa","686d226cabeef709c732f8e1","686e314656119378462f47e5","64d23e803ee1da9a01e52faa","2025-07-09T09:25:45.898Z","","","","","","StressQ","","","","","","","","","","","","","","","","","","","","","","","","","","","","","","","","","","","","","","50",""
"3935","","<div style=""width:500px;"">
  <p>What best describes how you currently feel?</p>
  </div>","93","html-slider-response","47","999935","0.0-10.0-4.0","137","1","2025-07-09 09:09:05","7701e855f2ef39aa3fd6c71abdc6918a","102.33.94.125","Mozilla/5.0 (Windows NT 10.0; Win64; x64) AppleWebKit/537.36 (KHTML, like Gecko) Chrome/137.0.0.0 Safari/537.36","WebKit","Chrome","137.0.0.0","Windows","10.0","https://app.prolific.com/","en-ZA,en-GB;q=0.9,en-US;q=0.8,en;q=0.7","64d23e803ee1da9a01e52faa","686d226cabeef709c732f8e1","686e314656119378462f47e5","64d23e803ee1da9a01e52faa","2025-07-09T09:25:49.834Z","","","","","","MotivationQ","","","","","","","","","","","","","","","","","","","","","","","","","","","","","","","","","","","","","","50",""
"","","","","ctl-task-cpt","48","1034134","0.0-10.0-0.1","137","1","2025-07-09 09:09:05","7701e855f2ef39aa3fd6c71abdc6918a","102.33.94.125","Mozilla/5.0 (Windows NT 10.0; Win64; x64) AppleWebKit/537.36 (KHTML, like Gecko) Chrome/137.0.0.0 Safari/537.36","WebKit","Chrome","137.0.0.0","Windows","10.0","https://app.prolific.com/","en-ZA,en-GB;q=0.9,en-US;q=0.8,en;q=0.7","64d23e803ee1da9a01e52faa","686d226cabeef709c732f8e1","686e314656119378462f47e5","64d23e803ee1da9a01e52faa","2025-07-09T09:26:24.033Z","","","","","","","","","","","","","","","","win-only","0","g1:NW,g2:SE","0.9","2","0","1006129.2","1711.8","6712.6","31182","1","4","8","6","2","-8","-8","0","4","0","2007.7","3000","-2695","[""down"",""right""]","{""num_key_presses"":7,""num_perfect"":6,""num_errors"":0,""num_randdir"":1,""num_randdir_good_moves"":0,""num_whilered"":0,""num_whileblue"":0,""num_blue"":1,""num_good_moves"":6}","[420.3214133126395,411.57142761775424,0.2,420.3214133126395,411.57142761775424,101.3,420.3214133126395,411.57142761775424,201.9,420.3214133126395,411.57142761775424,304.1,420.3214133126395,411.57142761775424,409.4,420.3214133126395,411.57142761775424,519,420.3214133126395,411.57142761775424,619.9,420.3214133126395,411.57142761775424,725.3,420.3214133126395,411.57142761775424,829.4,420.3214133126395,411.57142761775424,933.9,420.3214133126395,411.57142761775424,1039,420.3214133126395,411.57142761775424,1143.8,789.0714133126395,714.0714276177542,1245,870.3214133126395,815.3214276177542,1352.8,869.0714133126395,816.5714276177542,1454.8,867.8214133126395,816.5714276177542,1559.8,867.8214133126395,816.5714276177542,1668.2,776.5714133126395,747.8214276177542,1768.2,766.5714133126395,741.5714276177542,1869.7,766.5714133126395,741.5714276177542,1974,766.5714133126395,741.5714276177542,2084.9,766.5714133126395,741.5714276177542,2189.1,766.5714133126395,741.5714276177542,2293.7,766.5714133126395,741.5714276177542,2401.2,766.5714133126395,741.5714276177542,2503.9,766.5714133126395,741.5714276177542,2608.7,766.5714133126395,741.5714276177542,2708.7,766.5714133126395,741.5714276177542,2809,766.5714133126395,741.5714276177542,2909,697.8214133126395,711.5714276177542,3009.7,680.3214133126395,705.3214276177542,3117.7,680.3214133126395,705.3214276177542,3218.8,680.3214133126395,705.3214276177542,3319,680.3214133126395,705.3214276177542,3423.8,680.3214133126395,705.3214276177542,3525.1,680.3214133126395,705.3214276177542,3634,680.3214133126395,705.3214276177542,3738.8,680.3214133126395,705.3214276177542,3839.1,680.3214133126395,705.3214276177542,3939.4,680.3214133126395,705.3214276177542,4044.1,680.3214133126395,705.3214276177542,4151.1,680.3214133126395,705.3214276177542,4254.8,680.3214133126395,705.3214276177542,4359.7,680.3214133126395,705.3214276177542,4460,680.3214133126395,705.3214276177542,4566.7,680.3214133126395,705.3214276177542,4666.8,680.3214133126395,705.3214276177542,4769.3,680.3214133126395,705.3214276177542,4873.8,680.3214133126395,705.3214276177542,4974.2]","[1492.9,1492.9,1000,0,492.9,""smooth"",""down"",""down"",""good_move"",4865,3371.7,2907.3,1493.3,464.4,""oops"",""down"",""left"",""bad_move"",10415.3,5549.9,1920.2,8065.7,429.4,""smooth"",""down"",""down"",""good_move"",13082.2,2666.8,2178.8,10415.5,487.9,""smooth"",""right"",""right"",""good_move"",16632.4,3549.8,3123.9,13082.6,425.9,""smooth"",""right"",""right"",""good_move"",20048.4,3415.9,2958.4,16632.6,457.4,""smooth"",""right"",""right"",""good_move"",22347.7,2299.1,1834.8,20048.6,464.3,""smooth"",""right"",""right"",""good_move""]","","",""
"4562","","<div style=""width:500px;"">
  <p>What determined the result of this run?</p>
  </div>","57","html-slider-response","49","1038697","0.0-10.0-1.1","137","1","2025-07-09 09:09:05","7701e855f2ef39aa3fd6c71abdc6918a","102.33.94.125","Mozilla/5.0 (Windows NT 10.0; Win64; x64) AppleWebKit/537.36 (KHTML, like Gecko) Chrome/137.0.0.0 Safari/537.36","WebKit","Chrome","137.0.0.0","Windows","10.0","https://app.prolific.com/","en-ZA,en-GB;q=0.9,en-US;q=0.8,en;q=0.7","64d23e803ee1da9a01e52faa","686d226cabeef709c732f8e1","686e314656119378462f47e5","64d23e803ee1da9a01e52faa","2025-07-09T09:26:28.596Z","","","","","","AttribQ","","","","","","","","","","","","","","","","","","","","","","","","","","","","","","","","","","","","","","50",""
"2967","","<div style=""width:500px;"">
  <p>How much control did you have over the ball?</p>
  </div>","78","html-slider-response","50","1041664","0.0-10.0-2.1","137","1","2025-07-09 09:09:05","7701e855f2ef39aa3fd6c71abdc6918a","102.33.94.125","Mozilla/5.0 (Windows NT 10.0; Win64; x64) AppleWebKit/537.36 (KHTML, like Gecko) Chrome/137.0.0.0 Safari/537.36","WebKit","Chrome","137.0.0.0","Windows","10.0","https://app.prolific.com/","en-ZA,en-GB;q=0.9,en-US;q=0.8,en;q=0.7","64d23e803ee1da9a01e52faa","686d226cabeef709c732f8e1","686e314656119378462f47e5","64d23e803ee1da9a01e52faa","2025-07-09T09:26:31.563Z","","","","","","ControlQ","","","","","","","","","","","","","","","","","","","","","","","","","","","","","","","","","","","","","","50",""
"4006","","<div style=""width:500px;"">
  <p>How would you describe your current emotional state?</p>
  </div>","70","html-slider-response","51","1045670","0.0-10.0-3.1","137","1","2025-07-09 09:09:05","7701e855f2ef39aa3fd6c71abdc6918a","102.33.94.125","Mozilla/5.0 (Windows NT 10.0; Win64; x64) AppleWebKit/537.36 (KHTML, like Gecko) Chrome/137.0.0.0 Safari/537.36","WebKit","Chrome","137.0.0.0","Windows","10.0","https://app.prolific.com/","en-ZA,en-GB;q=0.9,en-US;q=0.8,en;q=0.7","64d23e803ee1da9a01e52faa","686d226cabeef709c732f8e1","686e314656119378462f47e5","64d23e803ee1da9a01e52faa","2025-07-09T09:26:35.569Z","","","","","","StressQ","","","","","","","","","","","","","","","","","","","","","","","","","","","","","","","","","","","","","","50",""
"4576","","<div style=""width:500px;"">
  <p>What best describes how you currently feel?</p>
  </div>","65","html-slider-response","52","1050247","0.0-10.0-4.1","137","1","2025-07-09 09:09:05","7701e855f2ef39aa3fd6c71abdc6918a","102.33.94.125","Mozilla/5.0 (Windows NT 10.0; Win64; x64) AppleWebKit/537.36 (KHTML, like Gecko) Chrome/137.0.0.0 Safari/537.36","WebKit","Chrome","137.0.0.0","Windows","10.0","https://app.prolific.com/","en-ZA,en-GB;q=0.9,en-US;q=0.8,en;q=0.7","64d23e803ee1da9a01e52faa","686d226cabeef709c732f8e1","686e314656119378462f47e5","64d23e803ee1da9a01e52faa","2025-07-09T09:26:40.146Z","","","","","","MotivationQ","","","","","","","","","","","","","","","","","","","","","","","","","","","","","","","","","","","","","","50",""
"","","","","ctl-task-cpt","53","1069916","0.0-10.0-0.2","137","1","2025-07-09 09:09:05","7701e855f2ef39aa3fd6c71abdc6918a","102.33.94.125","Mozilla/5.0 (Windows NT 10.0; Win64; x64) AppleWebKit/537.36 (KHTML, like Gecko) Chrome/137.0.0.0 Safari/537.36","WebKit","Chrome","137.0.0.0","Windows","10.0","https://app.prolific.com/","en-ZA,en-GB;q=0.9,en-US;q=0.8,en;q=0.7","64d23e803ee1da9a01e52faa","686d226cabeef709c732f8e1","686e314656119378462f47e5","64d23e803ee1da9a01e52faa","2025-07-09T09:26:59.815Z","","","","","","","","","","","","","","","","win-only","0","g1:NW,g2:SE","0.8","3","0","1056441.2","1459.7","6461.6","16661.5","1","4","8","6","1","1","0","0","0","0","1750.5","3000","1830","[""left"",""up""]","{""num_key_presses"":4,""num_perfect"":3,""num_errors"":1,""num_randdir"":0,""num_randdir_good_moves"":0,""num_whilered"":0,""num_whileblue"":1,""num_blue"":1,""num_good_moves"":4}","[414.0714133126395,410.32142761775424,0.1,414.0714133126395,410.32142761775424,100.7,414.0714133126395,410.32142761775424,207.3,414.0714133126395,410.32142761775424,307.8,414.0714133126395,410.32142761775424,409,414.0714133126395,410.32142761775424,511.9,414.0714133126395,410.32142761775424,617.2,414.0714133126395,410.32142761775424,725,414.0714133126395,410.32142761775424,827.1,244.0714133126395,226.57142761775424,931.5,201.5714133126395,201.57142761775424,1035.9,160.3214133126395,179.07142761775424,1140.2,100.3214133126395,125.32142761775425,1240.7,71.5714133126395,105.32142761775425,1341.3,70.3214133126395,104.07142761775425,1446,72.8214133126395,104.07142761775425,1546.7,72.8214133126395,101.57142761775425,1651.8,72.8214133126395,101.57142761775425,1753.3,72.8214133126395,101.57142761775425,1857.8,72.8214133126395,101.57142761775425,1958.4,72.8214133126395,101.57142761775425,2058.6,72.8214133126395,101.57142761775425,2158.7,72.8214133126395,101.57142761775425,2258.8,231.5714133126395,261.57142761775424,2361.1,266.5714133126395,325.32142761775424,2461.6,266.5714133126395,325.32142761775424,2566.5,266.5714133126395,325.32142761775424,2675.1,266.5714133126395,325.32142761775424,2776.3,266.5714133126395,325.32142761775424,2876.4,266.5714133126395,325.32142761775424,2982.3,235.3214133126395,301.57142761775424,3087.2,196.5714133126395,271.57142761775424,3192,187.8214133126395,264.07142761775424,3297.4,187.8214133126395,262.82142761775424,3401.1,187.8214133126395,262.82142761775424,3503.6,187.8214133126395,262.82142761775424,3609.8,187.8214133126395,262.82142761775424,3711.4,187.8214133126395,262.82142761775424,3811.4,187.8214133126395,262.82142761775424,3916.3,187.8214133126395,262.82142761775424,4016.6,187.8214133126395,262.82142761775424,4124.4,187.8214133126395,262.82142761775424,4224.6,187.8214133126395,262.82142761775424,4324.6,187.8214133126395,262.82142761775424,4425.4,187.8214133126395,262.82142761775424,4526.2,187.8214133126395,262.82142761775424,4626.2,187.8214133126395,262.82142761775424,4726.2,187.8214133126395,262.82142761775424,4831.7,187.8214133126395,262.82142761775424,4940.2]","[1572.9,1572.9,1000,0,572.9,""smooth"",""up"",""up"",""good_move"",4287.4,2714.2,2344.1,1573.2,370.1,""smooth"",""left"",""left"",""good_move"",7255.5,2967.9,2577.9,4287.6,390,""smooth"",""up"",""up"",""good_move"",10104.8,2849.1,2467.1,7255.7,382,""while_blue"",""left"",""left"",""good_move""]","","",""
"3802","","<div style=""width:500px;"">
  <p>What determined the result of this run?</p>
  </div>","27","html-slider-response","54","1073719","0.0-10.0-1.2","137","1","2025-07-09 09:09:05","7701e855f2ef39aa3fd6c71abdc6918a","102.33.94.125","Mozilla/5.0 (Windows NT 10.0; Win64; x64) AppleWebKit/537.36 (KHTML, like Gecko) Chrome/137.0.0.0 Safari/537.36","WebKit","Chrome","137.0.0.0","Windows","10.0","https://app.prolific.com/","en-ZA,en-GB;q=0.9,en-US;q=0.8,en;q=0.7","64d23e803ee1da9a01e52faa","686d226cabeef709c732f8e1","686e314656119378462f47e5","64d23e803ee1da9a01e52faa","2025-07-09T09:27:03.618Z","","","","","","AttribQ","","","","","","","","","","","","","","","","","","","","","","","","","","","","","","","","","","","","","","50",""
"4122","","<div style=""width:500px;"">
  <p>How much control did you have over the ball?</p>
  </div>","35","html-slider-response","55","1077842","0.0-10.0-2.2","137","1","2025-07-09 09:09:05","7701e855f2ef39aa3fd6c71abdc6918a","102.33.94.125","Mozilla/5.0 (Windows NT 10.0; Win64; x64) AppleWebKit/537.36 (KHTML, like Gecko) Chrome/137.0.0.0 Safari/537.36","WebKit","Chrome","137.0.0.0","Windows","10.0","https://app.prolific.com/","en-ZA,en-GB;q=0.9,en-US;q=0.8,en;q=0.7","64d23e803ee1da9a01e52faa","686d226cabeef709c732f8e1","686e314656119378462f47e5","64d23e803ee1da9a01e52faa","2025-07-09T09:27:07.741Z","","","","","","ControlQ","","","","","","","","","","","","","","","","","","","","","","","","","","","","","","","","","","","","","","50",""
"3307","","<div style=""width:500px;"">
  <p>How would you describe your current emotional state?</p>
  </div>","86","html-slider-response","56","1081150","0.0-10.0-3.2","137","1","2025-07-09 09:09:05","7701e855f2ef39aa3fd6c71abdc6918a","102.33.94.125","Mozilla/5.0 (Windows NT 10.0; Win64; x64) AppleWebKit/537.36 (KHTML, like Gecko) Chrome/137.0.0.0 Safari/537.36","WebKit","Chrome","137.0.0.0","Windows","10.0","https://app.prolific.com/","en-ZA,en-GB;q=0.9,en-US;q=0.8,en;q=0.7","64d23e803ee1da9a01e52faa","686d226cabeef709c732f8e1","686e314656119378462f47e5","64d23e803ee1da9a01e52faa","2025-07-09T09:27:11.049Z","","","","","","StressQ","","","","","","","","","","","","","","","","","","","","","","","","","","","","","","","","","","","","","","50",""
"3521","","<div style=""width:500px;"">
  <p>What best describes how you currently feel?</p>
  </div>","65","html-slider-response","57","1084672","0.0-10.0-4.2","137","1","2025-07-09 09:09:05","7701e855f2ef39aa3fd6c71abdc6918a","102.33.94.125","Mozilla/5.0 (Windows NT 10.0; Win64; x64) AppleWebKit/537.36 (KHTML, like Gecko) Chrome/137.0.0.0 Safari/537.36","WebKit","Chrome","137.0.0.0","Windows","10.0","https://app.prolific.com/","en-ZA,en-GB;q=0.9,en-US;q=0.8,en;q=0.7","64d23e803ee1da9a01e52faa","686d226cabeef709c732f8e1","686e314656119378462f47e5","64d23e803ee1da9a01e52faa","2025-07-09T09:27:14.571Z","","","","","","MotivationQ","","","","","","","","","","","","","","","","","","","","","","","","","","","","","","","","","","","","","","50",""
"","","","","ctl-task-cpt","58","1114467","0.0-10.0-0.3","137","1","2025-07-09 09:09:05","7701e855f2ef39aa3fd6c71abdc6918a","102.33.94.125","Mozilla/5.0 (Windows NT 10.0; Win64; x64) AppleWebKit/537.36 (KHTML, like Gecko) Chrome/137.0.0.0 Safari/537.36","WebKit","Chrome","137.0.0.0","Windows","10.0","https://app.prolific.com/","en-ZA,en-GB;q=0.9,en-US;q=0.8,en;q=0.7","64d23e803ee1da9a01e52faa","686d226cabeef709c732f8e1","686e314656119378462f47e5","64d23e803ee1da9a01e52faa","2025-07-09T09:27:44.366Z","","","","","","","","","","","","","","","","win-only","1","g1:NE,g2:SW","0.7","4","0","1090864.7","1258.4","6260","26776.7","1","4","4","6","1","-1","-1","0","0","0","2390.8","3000","-2695","[""up"",""right""]","{""num_key_presses"":6,""num_perfect"":4,""num_errors"":0,""num_randdir"":2,""num_randdir_good_moves"":0,""num_whilered"":0,""num_whileblue"":0,""num_blue"":0,""num_good_moves"":4}","[409.0714133126395,412.82142761775424,0.2,409.0714133126395,412.82142761775424,102,409.0714133126395,412.82142761775424,207.7,409.0714133126395,412.82142761775424,318.7,409.0714133126395,412.82142761775424,419.8,409.0714133126395,412.82142761775424,522.4,409.0714133126395,412.82142761775424,623.7,409.0714133126395,412.82142761775424,728.5,466.5714133126395,349.07142761775424,836.8,472.8214133126395,346.57142761775424,937.6,459.0714133126395,351.57142761775424,1037.6,301.5714133126395,532.8214276177542,1143,164.0714133126395,722.8214276177542,1243.7,125.3214133126395,741.5714276177542,1351.8,94.0714133126395,756.5714276177542,1452.7,86.5714133126395,759.0714276177542,1557.1,84.0714133126395,760.3214276177542,1657.3,611.5714133126395,140.32142761775424,1762.6,801.5714133126395,-27.178572382245747,1862.6,800.3214133126395,-24.678572382245747,1971,789.0714133126395,-3.428572382245747,2073.6,771.5714133126395,51.57142761775425,2177.5,771.5714133126395,51.57142761775425,2284.7,771.5714133126395,51.57142761775425,2387.3,771.5714133126395,51.57142761775425,2488,771.5714133126395,51.57142761775425,2592,771.5714133126395,51.57142761775425,2692.6,771.5714133126395,51.57142761775425,2801.5,771.5714133126395,51.57142761775425,2901.8,601.5714133126395,300.32142761775424,3001.9,581.5714133126395,342.82142761775424,3104.5,581.5714133126395,344.07142761775424,3208.4,581.5714133126395,344.07142761775424,3318.4,581.5714133126395,344.07142761775424,3418.5,581.5714133126395,344.07142761775424,3522.3,581.5714133126395,344.07142761775424,3627.1,581.5714133126395,344.07142761775424,3727.4,581.5714133126395,344.07142761775424,3828,581.5714133126395,344.07142761775424,3935.4,581.5714133126395,344.07142761775424,4037,581.5714133126395,344.07142761775424,4137.5,581.5714133126395,344.07142761775424,4238.3,581.5714133126395,344.07142761775424,4342.3,581.5714133126395,344.07142761775424,4442.5,581.5714133126395,344.07142761775424,4551.2,581.5714133126395,344.07142761775424,4651.8,581.5714133126395,344.07142761775424,4753,581.5714133126395,344.07142761775424,4858.2,581.5714133126395,344.07142761775424,4968.8]","[1636.9,1636.9,1000,0,636.9,""smooth"",""right"",""right"",""good_move"",4933.5,3296.5,2674,1637.1,622.4,""oops"",""right"",""left"",""bad_move"",7969,3035.3,2564.9,4933.7,470.4,""oops"",""up"",""down"",""bad_move"",10812.6,2843.3,2322,7969.3,521.3,""smooth"",""right"",""right"",""good_move"",14114.7,3301.9,2759,10812.8,542.9,""smooth"",""right"",""right"",""good_move"",17232.4,3117.5,2726.3,14114.9,391.2,""smooth"",""up"",""up"",""good_move""]","","",""
"5423","","<div style=""width:500px;"">
  <p>What determined the result of this run?</p>
  </div>","61","html-slider-response","59","1119890","0.0-10.0-1.3","137","1","2025-07-09 09:09:05","7701e855f2ef39aa3fd6c71abdc6918a","102.33.94.125","Mozilla/5.0 (Windows NT 10.0; Win64; x64) AppleWebKit/537.36 (KHTML, like Gecko) Chrome/137.0.0.0 Safari/537.36","WebKit","Chrome","137.0.0.0","Windows","10.0","https://app.prolific.com/","en-ZA,en-GB;q=0.9,en-US;q=0.8,en;q=0.7","64d23e803ee1da9a01e52faa","686d226cabeef709c732f8e1","686e314656119378462f47e5","64d23e803ee1da9a01e52faa","2025-07-09T09:27:49.790Z","","","","","","AttribQ","","","","","","","","","","","","","","","","","","","","","","","","","","","","","","","","","","","","","","50",""
"2928","","<div style=""width:500px;"">
  <p>How much control did you have over the ball?</p>
  </div>","56","html-slider-response","60","1122819","0.0-10.0-2.3","137","1","2025-07-09 09:09:05","7701e855f2ef39aa3fd6c71abdc6918a","102.33.94.125","Mozilla/5.0 (Windows NT 10.0; Win64; x64) AppleWebKit/537.36 (KHTML, like Gecko) Chrome/137.0.0.0 Safari/537.36","WebKit","Chrome","137.0.0.0","Windows","10.0","https://app.prolific.com/","en-ZA,en-GB;q=0.9,en-US;q=0.8,en;q=0.7","64d23e803ee1da9a01e52faa","686d226cabeef709c732f8e1","686e314656119378462f47e5","64d23e803ee1da9a01e52faa","2025-07-09T09:27:52.718Z","","","","","","ControlQ","","","","","","","","","","","","","","","","","","","","","","","","","","","","","","","","","","","","","","50",""
"3238","","<div style=""width:500px;"">
  <p>How would you describe your current emotional state?</p>
  </div>","59","html-slider-response","61","1126058","0.0-10.0-3.3","137","1","2025-07-09 09:09:05","7701e855f2ef39aa3fd6c71abdc6918a","102.33.94.125","Mozilla/5.0 (Windows NT 10.0; Win64; x64) AppleWebKit/537.36 (KHTML, like Gecko) Chrome/137.0.0.0 Safari/537.36","WebKit","Chrome","137.0.0.0","Windows","10.0","https://app.prolific.com/","en-ZA,en-GB;q=0.9,en-US;q=0.8,en;q=0.7","64d23e803ee1da9a01e52faa","686d226cabeef709c732f8e1","686e314656119378462f47e5","64d23e803ee1da9a01e52faa","2025-07-09T09:27:55.957Z","","","","","","StressQ","","","","","","","","","","","","","","","","","","","","","","","","","","","","","","","","","","","","","","50",""
"4271","","<div style=""width:500px;"">
  <p>What best describes how you currently feel?</p>
  </div>","59","html-slider-response","62","1130330","0.0-10.0-4.3","137","1","2025-07-09 09:09:05","7701e855f2ef39aa3fd6c71abdc6918a","102.33.94.125","Mozilla/5.0 (Windows NT 10.0; Win64; x64) AppleWebKit/537.36 (KHTML, like Gecko) Chrome/137.0.0.0 Safari/537.36","WebKit","Chrome","137.0.0.0","Windows","10.0","https://app.prolific.com/","en-ZA,en-GB;q=0.9,en-US;q=0.8,en;q=0.7","64d23e803ee1da9a01e52faa","686d226cabeef709c732f8e1","686e314656119378462f47e5","64d23e803ee1da9a01e52faa","2025-07-09T09:28:00.229Z","","","","","","MotivationQ","","","","","","","","","","","","","","","","","","","","","","","","","","","","","","","","","","","","","","50",""
"","","","","ctl-task-cpt","63","1181783","0.0-10.0-0.4","137","1","2025-07-09 09:09:05","7701e855f2ef39aa3fd6c71abdc6918a","102.33.94.125","Mozilla/5.0 (Windows NT 10.0; Win64; x64) AppleWebKit/537.36 (KHTML, like Gecko) Chrome/137.0.0.0 Safari/537.36","WebKit","Chrome","137.0.0.0","Windows","10.0","https://app.prolific.com/","en-ZA,en-GB;q=0.9,en-US;q=0.8,en;q=0.7","64d23e803ee1da9a01e52faa","686d226cabeef709c732f8e1","686e314656119378462f47e5","64d23e803ee1da9a01e52faa","2025-07-09T09:28:51.682Z","","","","","","","","","","","","","","","","win-only","2","g1:SE,g2:NW","0.6","5","0","1136523.6","1640.4","6642","48433.4","1","4","4","6","2","-4","-5","0","0","0","1565.5","3000","-2635","[""left"",""up""]","{""num_key_presses"":8,""num_perfect"":4,""num_errors"":1,""num_randdir"":3,""num_randdir_good_moves"":1,""num_whilered"":0,""num_whileblue"":1,""num_blue"":6,""num_good_moves"":5}","[412.8214133126395,416.57142761775424,0.3,412.8214133126395,416.57142761775424,101.5,412.8214133126395,416.57142761775424,211.8,412.8214133126395,416.57142761775424,315,412.8214133126395,416.57142761775424,415.1,412.8214133126395,416.57142761775424,516,412.8214133126395,416.57142761775424,628.6,412.8214133126395,416.57142761775424,728.8,400.3214133126395,410.32142761775424,830,184.0714133126395,175.32142761775424,930.2,147.8214133126395,116.57142761775425,1031.8,106.5714133126395,67.82142761775425,1135.6,82.8214133126395,44.07142761775425,1235.7,79.0714133126395,42.82142761775425,1345.5,79.0714133126395,42.82142761775425,1446,79.0714133126395,42.82142761775425,1546.1,79.0714133126395,42.82142761775425,1651.2,79.0714133126395,42.82142761775425,1755.1,79.0714133126395,42.82142761775425,1855.2,79.0714133126395,42.82142761775425,1961.3,79.0714133126395,42.82142761775425,2065.6,79.0714133126395,42.82142761775425,2169.8,79.0714133126395,42.82142761775425,2270.4,116.5714133126395,117.82142761775425,2370.7,244.0714133126395,511.57142761775424,2478.1,247.8214133126395,547.8214276177542,2579.1,247.8214133126395,547.8214276177542,2681.8,247.8214133126395,547.8214276177542,2785.9,247.8214133126395,547.8214276177542,2885.9,247.8214133126395,547.8214276177542,2990.6,247.8214133126395,547.8214276177542,3096.6,247.8214133126395,547.8214276177542,3201.8,247.8214133126395,547.8214276177542,3306.5,247.8214133126395,547.8214276177542,3411,247.8214133126395,547.8214276177542,3516.5,247.8214133126395,547.8214276177542,3629.2,247.8214133126395,547.8214276177542,3729.5,247.8214133126395,547.8214276177542,3830.4,247.8214133126395,547.8214276177542,3935.4,247.8214133126395,547.8214276177542,4035.6,247.8214133126395,547.8214276177542,4141.1,247.8214133126395,547.8214276177542,4244.1,247.8214133126395,547.8214276177542,4345.9,247.8214133126395,547.8214276177542,4446.6,247.8214133126395,547.8214276177542,4546.8,247.8214133126395,547.8214276177542,4651.3,247.8214133126395,547.8214276177542,4760.4,247.8214133126395,547.8214276177542,4860.4,247.8214133126395,547.8214276177542,4961.5]","[1689.2,1689.2,1000,0,689.2,""smooth"",""up"",""up"",""good_move"",5625,3934.8,3453.1,1690.2,481.7,""oops"",""up"",""right"",""bad_move"",9324.6,3699.1,3249.3,5625.5,449.8,""smooth"",""left"",""left"",""good_move"",12662.8,3337.3,2992.7,9325.6,344.5,""while_blue"",""left"",""right"",""bad_move"",18457.8,5794.8,1837.7,16209.1,411,""oops"",""left"",""left"",""good_move"",23943.7,5485.7,2160.3,21334.7,448.7,""oops"",""left"",""right"",""bad_move"",29557.2,5613.2,2376.4,26694.1,486.7,""smooth"",""up"",""up"",""good_move"",39425.9,9868.4,1970.5,36959.5,495.9,""smooth"",""up"",""up"",""good_move""]","","",""
"9529","","<div style=""width:500px;"">
  <p>What determined the result of this run?</p>
  </div>","62","html-slider-response","64","1191314","0.0-10.0-1.4","137","1","2025-07-09 09:09:05","7701e855f2ef39aa3fd6c71abdc6918a","102.33.94.125","Mozilla/5.0 (Windows NT 10.0; Win64; x64) AppleWebKit/537.36 (KHTML, like Gecko) Chrome/137.0.0.0 Safari/537.36","WebKit","Chrome","137.0.0.0","Windows","10.0","https://app.prolific.com/","en-ZA,en-GB;q=0.9,en-US;q=0.8,en;q=0.7","64d23e803ee1da9a01e52faa","686d226cabeef709c732f8e1","686e314656119378462f47e5","64d23e803ee1da9a01e52faa","2025-07-09T09:29:01.213Z","","","","","","AttribQ","","","","","","","","","","","","","","","","","","","","","","","","","","","","","","","","","","","","","","50",""
"5044","","<div style=""width:500px;"">
  <p>How much control did you have over the ball?</p>
  </div>","65","html-slider-response","65","1196363","0.0-10.0-2.4","137","1","2025-07-09 09:09:05","7701e855f2ef39aa3fd6c71abdc6918a","102.33.94.125","Mozilla/5.0 (Windows NT 10.0; Win64; x64) AppleWebKit/537.36 (KHTML, like Gecko) Chrome/137.0.0.0 Safari/537.36","WebKit","Chrome","137.0.0.0","Windows","10.0","https://app.prolific.com/","en-ZA,en-GB;q=0.9,en-US;q=0.8,en;q=0.7","64d23e803ee1da9a01e52faa","686d226cabeef709c732f8e1","686e314656119378462f47e5","64d23e803ee1da9a01e52faa","2025-07-09T09:29:06.262Z","","","","","","ControlQ","","","","","","","","","","","","","","","","","","","","","","","","","","","","","","","","","","","","","","50",""
"3750","","<div style=""width:500px;"">
  <p>How would you describe your current emotional state?</p>
  </div>","74","html-slider-response","66","1200114","0.0-10.0-3.4","137","1","2025-07-09 09:09:05","7701e855f2ef39aa3fd6c71abdc6918a","102.33.94.125","Mozilla/5.0 (Windows NT 10.0; Win64; x64) AppleWebKit/537.36 (KHTML, like Gecko) Chrome/137.0.0.0 Safari/537.36","WebKit","Chrome","137.0.0.0","Windows","10.0","https://app.prolific.com/","en-ZA,en-GB;q=0.9,en-US;q=0.8,en;q=0.7","64d23e803ee1da9a01e52faa","686d226cabeef709c732f8e1","686e314656119378462f47e5","64d23e803ee1da9a01e52faa","2025-07-09T09:29:10.014Z","","","","","","StressQ","","","","","","","","","","","","","","","","","","","","","","","","","","","","","","","","","","","","","","50",""
"3118","","<div style=""width:500px;"">
  <p>What best describes how you currently feel?</p>
  </div>","66","html-slider-response","67","1203235","0.0-10.0-4.4","137","1","2025-07-09 09:09:05","7701e855f2ef39aa3fd6c71abdc6918a","102.33.94.125","Mozilla/5.0 (Windows NT 10.0; Win64; x64) AppleWebKit/537.36 (KHTML, like Gecko) Chrome/137.0.0.0 Safari/537.36","WebKit","Chrome","137.0.0.0","Windows","10.0","https://app.prolific.com/","en-ZA,en-GB;q=0.9,en-US;q=0.8,en;q=0.7","64d23e803ee1da9a01e52faa","686d226cabeef709c732f8e1","686e314656119378462f47e5","64d23e803ee1da9a01e52faa","2025-07-09T09:29:13.134Z","","","","","","MotivationQ","","","","","","","","","","","","","","","","","","","","","","","","","","","","","","","","","","","","","","50",""
"","","","","ctl-task-cpt","68","1227630","0.0-10.0-0.5","137","1","2025-07-09 09:09:05","7701e855f2ef39aa3fd6c71abdc6918a","102.33.94.125","Mozilla/5.0 (Windows NT 10.0; Win64; x64) AppleWebKit/537.36 (KHTML, like Gecko) Chrome/137.0.0.0 Safari/537.36","WebKit","Chrome","137.0.0.0","Windows","10.0","https://app.prolific.com/","en-ZA,en-GB;q=0.9,en-US;q=0.8,en;q=0.7","64d23e803ee1da9a01e52faa","686d226cabeef709c732f8e1","686e314656119378462f47e5","64d23e803ee1da9a01e52faa","2025-07-09T09:29:37.529Z","","","","","","","","","","","","","","","","win-only","1","g1:NE,g2:SW","0.5","6","0","1209427.6","1639.7","6640.8","21376.4","1","4","8","6","1","1","1","1","0","0.007575757575757576","2057.5","3000","1210","[""up"",""right""]","{""num_key_presses"":4,""num_perfect"":3,""num_errors"":0,""num_randdir"":1,""num_randdir_good_moves"":1,""num_whilered"":0,""num_whileblue"":0,""num_blue"":1,""num_good_moves"":4}","[416.5714133126395,407.82142761775424,0.2,416.5714133126395,407.82142761775424,107.9,416.5714133126395,407.82142761775424,208.7,416.5714133126395,407.82142761775424,310.8,416.5714133126395,407.82142761775424,416.1,416.5714133126395,407.82142761775424,516.2,416.5714133126395,407.82142761775424,624.2,416.5714133126395,407.82142761775424,724.2,416.5714133126395,407.82142761775424,825.2,416.5714133126395,407.82142761775424,926.1,416.5714133126395,407.82142761775424,1030.8,416.5714133126395,407.82142761775424,1131.2,422.8214133126395,391.57142761775424,1232.6,524.0714133126395,257.82142761775424,1341.7,581.5714133126395,212.82142761775424,1445.7,629.0714133126395,170.32142761775424,1547.2,701.5714133126395,125.32142761775425,1650.6,757.8214133126395,45.32142761775425,1750.9,759.0714133126395,41.57142761775425,1858.1,759.0714133126395,41.57142761775425,1962.2,759.0714133126395,41.57142761775425,2065.9,759.0714133126395,41.57142761775425,2175.1,759.0714133126395,41.57142761775425,2284.2,759.0714133126395,41.57142761775425,2387,759.0714133126395,41.57142761775425,2490.4,759.0714133126395,41.57142761775425,2591.8,759.0714133126395,41.57142761775425,2695.9,631.5714133126395,181.57142761775424,2795.9,531.5714133126395,331.57142761775424,2896.9,522.8214133126395,351.57142761775424,3007.2,519.0714133126395,356.57142761775424,3108.7,515.3214133126395,357.82142761775424,3211.3,510.3214133126395,356.57142761775424,3311.9,507.8214133126395,356.57142761775424,3417,507.8214133126395,356.57142761775424,3525.5,507.8214133126395,356.57142761775424,3625.8,507.8214133126395,356.57142761775424,3726,507.8214133126395,356.57142761775424,3830.6,507.8214133126395,356.57142761775424,3940.8,507.8214133126395,356.57142761775424,4045.7,507.8214133126395,356.57142761775424,4146.1,507.8214133126395,356.57142761775424,4250.6,507.8214133126395,356.57142761775424,4356.9,507.8214133126395,356.57142761775424,4460.6,507.8214133126395,356.57142761775424,4561.9,507.8214133126395,356.57142761775424,4662.1,507.8214133126395,356.57142761775424,4766.3,507.8214133126395,356.57142761775424,4874.2,507.8214133126395,356.57142761775424,4975.1]","[1580.1,1580.1,1000,0,580.1,""oops"",""up"",""up"",""good_move"",4728.4,3148.1,2546.9,1580.3,601.2,""smooth"",""up"",""up"",""good_move"",7700.6,2971.9,2499.3,4728.7,472.6,""smooth"",""right"",""right"",""good_move"",14637.3,6936.1,2708,11454.5,474.8,""smooth"",""right"",""right"",""good_move""]","","",""
"3734","","<div style=""width:500px;"">
  <p>What determined the result of this run?</p>
  </div>","79","html-slider-response","69","1231367","0.0-10.0-1.5","137","1","2025-07-09 09:09:05","7701e855f2ef39aa3fd6c71abdc6918a","102.33.94.125","Mozilla/5.0 (Windows NT 10.0; Win64; x64) AppleWebKit/537.36 (KHTML, like Gecko) Chrome/137.0.0.0 Safari/537.36","WebKit","Chrome","137.0.0.0","Windows","10.0","https://app.prolific.com/","en-ZA,en-GB;q=0.9,en-US;q=0.8,en;q=0.7","64d23e803ee1da9a01e52faa","686d226cabeef709c732f8e1","686e314656119378462f47e5","64d23e803ee1da9a01e52faa","2025-07-09T09:29:41.266Z","","","","","","AttribQ","","","","","","","","","","","","","","","","","","","","","","","","","","","","","","","","","","","","","","50",""
"3468","","<div style=""width:500px;"">
  <p>How much control did you have over the ball?</p>
  </div>","71","html-slider-response","70","1234836","0.0-10.0-2.5","137","1","2025-07-09 09:09:05","7701e855f2ef39aa3fd6c71abdc6918a","102.33.94.125","Mozilla/5.0 (Windows NT 10.0; Win64; x64) AppleWebKit/537.36 (KHTML, like Gecko) Chrome/137.0.0.0 Safari/537.36","WebKit","Chrome","137.0.0.0","Windows","10.0","https://app.prolific.com/","en-ZA,en-GB;q=0.9,en-US;q=0.8,en;q=0.7","64d23e803ee1da9a01e52faa","686d226cabeef709c732f8e1","686e314656119378462f47e5","64d23e803ee1da9a01e52faa","2025-07-09T09:29:44.735Z","","","","","","ControlQ","","","","","","","","","","","","","","","","","","","","","","","","","","","","","","","","","","","","","","50",""
"6325","","<div style=""width:500px;"">
  <p>How would you describe your current emotional state?</p>
  </div>","23","html-slider-response","71","1241163","0.0-10.0-3.5","137","1","2025-07-09 09:09:05","7701e855f2ef39aa3fd6c71abdc6918a","102.33.94.125","Mozilla/5.0 (Windows NT 10.0; Win64; x64) AppleWebKit/537.36 (KHTML, like Gecko) Chrome/137.0.0.0 Safari/537.36","WebKit","Chrome","137.0.0.0","Windows","10.0","https://app.prolific.com/","en-ZA,en-GB;q=0.9,en-US;q=0.8,en;q=0.7","64d23e803ee1da9a01e52faa","686d226cabeef709c732f8e1","686e314656119378462f47e5","64d23e803ee1da9a01e52faa","2025-07-09T09:29:51.062Z","","","","","","StressQ","","","","","","","","","","","","","","","","","","","","","","","","","","","","","","","","","","","","","","50",""
"4465","","<div style=""width:500px;"">
  <p>What best describes how you currently feel?</p>
  </div>","71","html-slider-response","72","1245633","0.0-10.0-4.5","137","1","2025-07-09 09:09:05","7701e855f2ef39aa3fd6c71abdc6918a","102.33.94.125","Mozilla/5.0 (Windows NT 10.0; Win64; x64) AppleWebKit/537.36 (KHTML, like Gecko) Chrome/137.0.0.0 Safari/537.36","WebKit","Chrome","137.0.0.0","Windows","10.0","https://app.prolific.com/","en-ZA,en-GB;q=0.9,en-US;q=0.8,en;q=0.7","64d23e803ee1da9a01e52faa","686d226cabeef709c732f8e1","686e314656119378462f47e5","64d23e803ee1da9a01e52faa","2025-07-09T09:29:55.532Z","","","","","","MotivationQ","","","","","","","","","","","","","","","","","","","","","","","","","","","","","","","","","","","","","","50",""
"","","","","ctl-task-cpt","73","1278601","0.0-10.0-0.6","137","1","2025-07-09 09:09:05","7701e855f2ef39aa3fd6c71abdc6918a","102.33.94.125","Mozilla/5.0 (Windows NT 10.0; Win64; x64) AppleWebKit/537.36 (KHTML, like Gecko) Chrome/137.0.0.0 Safari/537.36","WebKit","Chrome","137.0.0.0","Windows","10.0","https://app.prolific.com/","en-ZA,en-GB;q=0.9,en-US;q=0.8,en;q=0.7","64d23e803ee1da9a01e52faa","686d226cabeef709c732f8e1","686e314656119378462f47e5","64d23e803ee1da9a01e52faa","2025-07-09T09:30:28.500Z","","","","","","","","","","","","","","","","win-only","3","g1:SW,g2:NE","0.4","7","0","1251828.5","1313.2","6314.1","29946.1","1","4","4","6","2","-4","-4","0","1","0","1581.4","3000","-2870","[""up"",""right""]","{""num_key_presses"":6,""num_perfect"":3,""num_errors"":0,""num_randdir"":3,""num_randdir_good_moves"":2,""num_whilered"":0,""num_whileblue"":0,""num_blue"":1,""num_good_moves"":5}","[405.3214133126395,411.57142761775424,0.2,405.3214133126395,411.57142761775424,100.4,405.3214133126395,411.57142761775424,200.6,405.3214133126395,411.57142761775424,301,405.3214133126395,411.57142761775424,403.3,405.3214133126395,411.57142761775424,503.6,405.3214133126395,411.57142761775424,603.6,405.3214133126395,411.57142761775424,703.6,405.3214133126395,411.57142761775424,816.4,624.0714133126395,151.57142761775424,917.1,701.5714133126395,94.07142761775425,1019.7,726.5714133126395,87.82142761775425,1123.9,742.8214133126395,82.82142761775425,1235.4,746.5714133126395,82.82142761775425,1338.7,747.8214133126395,82.82142761775425,1443.2,747.8214133126395,82.82142761775425,1550.3,747.8214133126395,82.82142761775425,1650.5,747.8214133126395,82.82142761775425,1753.1,747.8214133126395,82.82142761775425,1866.1,747.8214133126395,82.82142761775425,1967,747.8214133126395,82.82142761775425,2068.1,747.8214133126395,82.82142761775425,2172.9,747.8214133126395,82.82142761775425,2273.5,542.8214133126395,307.82142761775424,2381.8,472.8214133126395,391.57142761775424,2482.7,464.0714133126395,395.32142761775424,2583.3,450.3214133126395,401.57142761775424,2684.1,416.5714133126395,421.57142761775424,2787.2,407.8214133126395,425.32142761775424,2888,407.8214133126395,425.32142761775424,3000.1,407.8214133126395,425.32142761775424,3102.8,407.8214133126395,425.32142761775424,3208.5,407.8214133126395,425.32142761775424,3316.3,407.8214133126395,425.32142761775424,3417.5,407.8214133126395,425.32142761775424,3517.9,407.8214133126395,425.32142761775424,3621.3,401.5714133126395,431.57142761775424,3722.9,366.5714133126395,455.32142761775424,3823.4,362.8214133126395,456.57142761775424,3927.8,362.8214133126395,456.57142761775424,4031.7,362.8214133126395,456.57142761775424,4132.5,362.8214133126395,456.57142761775424,4237.9,362.8214133126395,456.57142761775424,4337.9,362.8214133126395,456.57142761775424,4437.9,362.8214133126395,456.57142761775424,4538.1,362.8214133126395,456.57142761775424,4643.6,362.8214133126395,456.57142761775424,4749.5,362.8214133126395,456.57142761775424,4850.3,362.8214133126395,456.57142761775424,4953.1]","[1585.6,1585.6,1000,0,585.6,""smooth"",""right"",""right"",""good_move"",8199.6,6613.8,2109.3,5672.2,418.2,""oops"",""up"",""up"",""good_move"",11813.6,3613.7,3100,8199.9,513.7,""oops"",""right"",""up"",""good_move"",14230.6,2416.9,1523.1,11813.7,893.8,""smooth"",""right"",""right"",""good_move"",17571.7,3340.7,2819.9,14231,520.8,""oops"",""up"",""left"",""bad_move"",20804.1,3232.3,2832.1,17571.9,400.1,""smooth"",""right"",""right"",""good_move""]","","",""
"4046","","<div style=""width:500px;"">
  <p>What determined the result of this run?</p>
  </div>","79","html-slider-response","74","1282648","0.0-10.0-1.6","137","1","2025-07-09 09:09:05","7701e855f2ef39aa3fd6c71abdc6918a","102.33.94.125","Mozilla/5.0 (Windows NT 10.0; Win64; x64) AppleWebKit/537.36 (KHTML, like Gecko) Chrome/137.0.0.0 Safari/537.36","WebKit","Chrome","137.0.0.0","Windows","10.0","https://app.prolific.com/","en-ZA,en-GB;q=0.9,en-US;q=0.8,en;q=0.7","64d23e803ee1da9a01e52faa","686d226cabeef709c732f8e1","686e314656119378462f47e5","64d23e803ee1da9a01e52faa","2025-07-09T09:30:32.548Z","","","","","","AttribQ","","","","","","","","","","","","","","","","","","","","","","","","","","","","","","","","","","","","","","50",""
"3780","","<div style=""width:500px;"">
  <p>How much control did you have over the ball?</p>
  </div>","59","html-slider-response","75","1286432","0.0-10.0-2.6","137","1","2025-07-09 09:09:05","7701e855f2ef39aa3fd6c71abdc6918a","102.33.94.125","Mozilla/5.0 (Windows NT 10.0; Win64; x64) AppleWebKit/537.36 (KHTML, like Gecko) Chrome/137.0.0.0 Safari/537.36","WebKit","Chrome","137.0.0.0","Windows","10.0","https://app.prolific.com/","en-ZA,en-GB;q=0.9,en-US;q=0.8,en;q=0.7","64d23e803ee1da9a01e52faa","686d226cabeef709c732f8e1","686e314656119378462f47e5","64d23e803ee1da9a01e52faa","2025-07-09T09:30:36.331Z","","","","","","ControlQ","","","","","","","","","","","","","","","","","","","","","","","","","","","","","","","","","","","","","","50",""
"3839","","<div style=""width:500px;"">
  <p>How would you describe your current emotional state?</p>
  </div>","27","html-slider-response","76","1290272","0.0-10.0-3.6","137","1","2025-07-09 09:09:05","7701e855f2ef39aa3fd6c71abdc6918a","102.33.94.125","Mozilla/5.0 (Windows NT 10.0; Win64; x64) AppleWebKit/537.36 (KHTML, like Gecko) Chrome/137.0.0.0 Safari/537.36","WebKit","Chrome","137.0.0.0","Windows","10.0","https://app.prolific.com/","en-ZA,en-GB;q=0.9,en-US;q=0.8,en;q=0.7","64d23e803ee1da9a01e52faa","686d226cabeef709c732f8e1","686e314656119378462f47e5","64d23e803ee1da9a01e52faa","2025-07-09T09:30:40.172Z","","","","","","StressQ","","","","","","","","","","","","","","","","","","","","","","","","","","","","","","","","","","","","","","50",""
"5517","","<div style=""width:500px;"">
  <p>What best describes how you currently feel?</p>
  </div>","40","html-slider-response","77","1295792","0.0-10.0-4.6","137","1","2025-07-09 09:09:05","7701e855f2ef39aa3fd6c71abdc6918a","102.33.94.125","Mozilla/5.0 (Windows NT 10.0; Win64; x64) AppleWebKit/537.36 (KHTML, like Gecko) Chrome/137.0.0.0 Safari/537.36","WebKit","Chrome","137.0.0.0","Windows","10.0","https://app.prolific.com/","en-ZA,en-GB;q=0.9,en-US;q=0.8,en;q=0.7","64d23e803ee1da9a01e52faa","686d226cabeef709c732f8e1","686e314656119378462f47e5","64d23e803ee1da9a01e52faa","2025-07-09T09:30:45.691Z","","","","","","MotivationQ","","","","","","","","","","","","","","","","","","","","","","","","","","","","","","","","","","","","","","50",""
"","","","","ctl-task-cpt","78","1333599","0.0-10.0-0.7","137","1","2025-07-09 09:09:05","7701e855f2ef39aa3fd6c71abdc6918a","102.33.94.125","Mozilla/5.0 (Windows NT 10.0; Win64; x64) AppleWebKit/537.36 (KHTML, like Gecko) Chrome/137.0.0.0 Safari/537.36","WebKit","Chrome","137.0.0.0","Windows","10.0","https://app.prolific.com/","en-ZA,en-GB;q=0.9,en-US;q=0.8,en;q=0.7","64d23e803ee1da9a01e52faa","686d226cabeef709c732f8e1","686e314656119378462f47e5","64d23e803ee1da9a01e52faa","2025-07-09T09:31:23.498Z","","","","","","","","","","","","","","","","win-only","2","g1:SE,g2:NW","0.3","8","0","1301987.1","1474.4","6477.5","34785.7","1","4","8","6","2","-8","-8","0","0","0","1428.5","3000","-2295","[""left"",""up""]","{""num_key_presses"":8,""num_perfect"":3,""num_errors"":0,""num_randdir"":5,""num_randdir_good_moves"":2,""num_whilered"":0,""num_whileblue"":0,""num_blue"":1,""num_good_moves"":5}","[409.0714133126395,409.07142761775424,0.2,409.0714133126395,409.07142761775424,102,409.0714133126395,409.07142761775424,213.6,409.0714133126395,409.07142761775424,316.1,409.0714133126395,409.07142761775424,416.3,409.0714133126395,409.07142761775424,530.7,409.0714133126395,409.07142761775424,631.5,409.0714133126395,409.07142761775424,736.9,409.0714133126395,409.07142761775424,842.2,111.5714133126395,130.32142761775424,947.4,66.5714133126395,89.07142761775425,1048.2,51.57141331263951,75.32142761775425,1153.1,41.57141331263951,69.07142761775425,1263.8,41.57141331263951,69.07142761775425,1364.2,41.57141331263951,69.07142761775425,1465.7,41.57141331263951,69.07142761775425,1566.7,41.57141331263951,69.07142761775425,1666.9,41.57141331263951,69.07142761775425,1780.2,41.57141331263951,69.07142761775425,1881.7,41.57141331263951,69.07142761775425,1987.1,41.57141331263951,69.07142761775425,2093.4,45.32141331263951,71.57142761775425,2195.9,142.8214133126395,242.82142761775424,2297.5,161.5714133126395,292.82142761775424,2401,161.5714133126395,292.82142761775424,2501.6,161.5714133126395,292.82142761775424,2614.8,161.5714133126395,292.82142761775424,2716.7,161.5714133126395,292.82142761775424,2816.9,161.5714133126395,292.82142761775424,2921.7,161.5714133126395,292.82142761775424,3023.1,161.5714133126395,292.82142761775424,3130.3,161.5714133126395,292.82142761775424,3230.7,161.5714133126395,292.82142761775424,3336.7,161.5714133126395,292.82142761775424,3437.9,161.5714133126395,292.82142761775424,3541.7,161.5714133126395,292.82142761775424,3648,161.5714133126395,292.82142761775424,3751.3,161.5714133126395,292.82142761775424,3856.3,161.5714133126395,292.82142761775424,3961.9,161.5714133126395,292.82142761775424,4063.5,161.5714133126395,292.82142761775424,4166.7,161.5714133126395,292.82142761775424,4271.2,161.5714133126395,292.82142761775424,4371.3,161.5714133126395,292.82142761775424,4476.9,161.5714133126395,292.82142761775424,4577,161.5714133126395,292.82142761775424,4681.2,161.5714133126395,292.82142761775424,4797.9,161.5714133126395,292.82142761775424,4898.4]","[1588.1,1588.1,1000,0,588.1,""smooth"",""left"",""left"",""good_move"",7635.6,6046.3,2504.2,4698,433.5,""oops"",""left"",""down"",""bad_move"",10340.6,2704.6,2237.9,7636,466.7,""oops"",""left"",""up"",""good_move"",13525.8,3184.9,2704.5,10340.9,480.4,""oops"",""up"",""up"",""good_move"",16825.9,3300.1,2849.5,13525.8,450.6,""smooth"",""left"",""left"",""good_move"",19694.9,2868.7,2457.9,16826.2,410.8,""oops"",""up"",""down"",""bad_move"",22389.5,2694.3,2122.6,19695.2,571.7,""smooth"",""left"",""left"",""good_move"",25777,3387.2,3003,22389.9,384.1,""oops"",""up"",""right"",""bad_move""]","","",""
"3894","","<div style=""width:500px;"">
  <p>What determined the result of this run?</p>
  </div>","71","html-slider-response","79","1337494","0.0-10.0-1.7","137","1","2025-07-09 09:09:05","7701e855f2ef39aa3fd6c71abdc6918a","102.33.94.125","Mozilla/5.0 (Windows NT 10.0; Win64; x64) AppleWebKit/537.36 (KHTML, like Gecko) Chrome/137.0.0.0 Safari/537.36","WebKit","Chrome","137.0.0.0","Windows","10.0","https://app.prolific.com/","en-ZA,en-GB;q=0.9,en-US;q=0.8,en;q=0.7","64d23e803ee1da9a01e52faa","686d226cabeef709c732f8e1","686e314656119378462f47e5","64d23e803ee1da9a01e52faa","2025-07-09T09:31:27.393Z","","","","","","AttribQ","","","","","","","","","","","","","","","","","","","","","","","","","","","","","","","","","","","","","","50",""
"4474","","<div style=""width:500px;"">
  <p>How much control did you have over the ball?</p>
  </div>","63","html-slider-response","80","1341969","0.0-10.0-2.7","137","1","2025-07-09 09:09:05","7701e855f2ef39aa3fd6c71abdc6918a","102.33.94.125","Mozilla/5.0 (Windows NT 10.0; Win64; x64) AppleWebKit/537.36 (KHTML, like Gecko) Chrome/137.0.0.0 Safari/537.36","WebKit","Chrome","137.0.0.0","Windows","10.0","https://app.prolific.com/","en-ZA,en-GB;q=0.9,en-US;q=0.8,en;q=0.7","64d23e803ee1da9a01e52faa","686d226cabeef709c732f8e1","686e314656119378462f47e5","64d23e803ee1da9a01e52faa","2025-07-09T09:31:31.869Z","","","","","","ControlQ","","","","","","","","","","","","","","","","","","","","","","","","","","","","","","","","","","","","","","50",""
"3536","","<div style=""width:500px;"">
  <p>How would you describe your current emotional state?</p>
  </div>","66","html-slider-response","81","1345508","0.0-10.0-3.7","137","1","2025-07-09 09:09:05","7701e855f2ef39aa3fd6c71abdc6918a","102.33.94.125","Mozilla/5.0 (Windows NT 10.0; Win64; x64) AppleWebKit/537.36 (KHTML, like Gecko) Chrome/137.0.0.0 Safari/537.36","WebKit","Chrome","137.0.0.0","Windows","10.0","https://app.prolific.com/","en-ZA,en-GB;q=0.9,en-US;q=0.8,en;q=0.7","64d23e803ee1da9a01e52faa","686d226cabeef709c732f8e1","686e314656119378462f47e5","64d23e803ee1da9a01e52faa","2025-07-09T09:31:35.407Z","","","","","","StressQ","","","","","","","","","","","","","","","","","","","","","","","","","","","","","","","","","","","","","","50",""
"3813","","<div style=""width:500px;"">
  <p>What best describes how you currently feel?</p>
  </div>","60","html-slider-response","82","1349323","0.0-10.0-4.7","137","1","2025-07-09 09:09:05","7701e855f2ef39aa3fd6c71abdc6918a","102.33.94.125","Mozilla/5.0 (Windows NT 10.0; Win64; x64) AppleWebKit/537.36 (KHTML, like Gecko) Chrome/137.0.0.0 Safari/537.36","WebKit","Chrome","137.0.0.0","Windows","10.0","https://app.prolific.com/","en-ZA,en-GB;q=0.9,en-US;q=0.8,en;q=0.7","64d23e803ee1da9a01e52faa","686d226cabeef709c732f8e1","686e314656119378462f47e5","64d23e803ee1da9a01e52faa","2025-07-09T09:31:39.222Z","","","","","","MotivationQ","","","","","","","","","","","","","","","","","","","","","","","","","","","","","","","","","","","","","","50",""
"","","","","ctl-task-cpt","83","1394353","0.0-10.0-0.8","137","1","2025-07-09 09:09:05","7701e855f2ef39aa3fd6c71abdc6918a","102.33.94.125","Mozilla/5.0 (Windows NT 10.0; Win64; x64) AppleWebKit/537.36 (KHTML, like Gecko) Chrome/137.0.0.0 Safari/537.36","WebKit","Chrome","137.0.0.0","Windows","10.0","https://app.prolific.com/","en-ZA,en-GB;q=0.9,en-US;q=0.8,en;q=0.7","64d23e803ee1da9a01e52faa","686d226cabeef709c732f8e1","686e314656119378462f47e5","64d23e803ee1da9a01e52faa","2025-07-09T09:32:24.253Z","","","","","","","","","","","","","","","","win-only","2","g1:SE,g2:NW","0.2","9","0","1355518","1554","6562","42006.9","1","4","4","6","2","-4","-4","0","0","0","2086.8","3000","-2300","[""left"",""up""]","{""num_key_presses"":9,""num_perfect"":2,""num_errors"":0,""num_randdir"":7,""num_randdir_good_moves"":5,""num_whilered"":0,""num_whileblue"":0,""num_blue"":2,""num_good_moves"":7}","[409.0714133126395,414.07142761775424,0.2,409.0714133126395,414.07142761775424,102.9,409.0714133126395,414.07142761775424,202.9,409.0714133126395,414.07142761775424,306.7,409.0714133126395,414.07142761775424,419.4,409.0714133126395,414.07142761775424,521.1,409.0714133126395,414.07142761775424,621.4,409.0714133126395,414.07142761775424,721.6,409.0714133126395,414.07142761775424,826.3,409.0714133126395,414.07142761775424,926.7,409.0714133126395,414.07142761775424,1035.7,312.8214133126395,320.32142761775424,1136.4,186.5714133126395,161.57142761775424,1236.8,135.3214133126395,136.57142761775424,1337,96.5714133126395,104.07142761775425,1441.4,87.8214133126395,97.82142761775425,1546.9,84.0714133126395,96.57142761775425,1647,84.0714133126395,96.57142761775425,1753.3,84.0714133126395,96.57142761775425,1856.4,84.0714133126395,96.57142761775425,1957.2,84.0714133126395,96.57142761775425,2063,84.0714133126395,96.57142761775425,2167.8,84.0714133126395,96.57142761775425,2269.5,84.0714133126395,96.57142761775425,2371.4,84.0714133126395,96.57142761775425,2471.7,84.0714133126395,96.57142761775425,2572.3,84.0714133126395,96.57142761775425,2686.5,84.0714133126395,96.57142761775425,2787.7,84.0714133126395,96.57142761775425,2887.7,84.0714133126395,96.57142761775425,2991.5,84.0714133126395,96.57142761775425,3102.1,106.5714133126395,139.07142761775424,3203.5,154.0714133126395,312.82142761775424,3306.6,175.3214133126395,365.32142761775424,3407.9,175.3214133126395,366.57142761775424,3522.8,175.3214133126395,366.57142761775424,3627.4,175.3214133126395,366.57142761775424,3730.4,175.3214133126395,366.57142761775424,3833.6,175.3214133126395,366.57142761775424,3940.7,175.3214133126395,366.57142761775424,4045.4,175.3214133126395,366.57142761775424,4147.4,175.3214133126395,366.57142761775424,4250.9,175.3214133126395,366.57142761775424,4355.2,175.3214133126395,366.57142761775424,4458.7,175.3214133126395,366.57142761775424,4562.3,175.3214133126395,366.57142761775424,4669.9,175.3214133126395,366.57142761775424,4785.8,175.3214133126395,366.57142761775424,4892.3,175.3214133126395,366.57142761775424,4997.3]","[1437.1,1437.2,1000,0,437.2,""oops"",""left"",""right"",""bad_move"",4529.8,3091.9,2570.1,1437.9,521.8,""oops"",""up"",""up"",""good_move"",7450.4,2919.5,2499.3,4530.9,420.2,""oops"",""left"",""left"",""good_move"",10563.7,3113,2543.3,7450.7,569.7,""smooth"",""up"",""up"",""good_move"",16318.2,5754.4,2683.2,13234,401,""smooth"",""left"",""left"",""good_move"",19623.7,3305.2,2864.7,16318.5,440.5,""oops"",""up"",""left"",""good_move"",23161.3,3537.2,3100,19624.3,437.1,""oops"",""left"",""up"",""good_move"",25932.6,2770.9,2314.9,23161.7,456,""oops"",""left"",""right"",""bad_move"",32410.3,6477.5,2098.3,29846.9,465.1,""oops"",""left"",""left"",""good_move""]","","",""
"8384","","<div style=""width:500px;"">
  <p>What determined the result of this run?</p>
  </div>","14","html-slider-response","84","1402739","0.0-10.0-1.8","137","1","2025-07-09 09:09:05","7701e855f2ef39aa3fd6c71abdc6918a","102.33.94.125","Mozilla/5.0 (Windows NT 10.0; Win64; x64) AppleWebKit/537.36 (KHTML, like Gecko) Chrome/137.0.0.0 Safari/537.36","WebKit","Chrome","137.0.0.0","Windows","10.0","https://app.prolific.com/","en-ZA,en-GB;q=0.9,en-US;q=0.8,en;q=0.7","64d23e803ee1da9a01e52faa","686d226cabeef709c732f8e1","686e314656119378462f47e5","64d23e803ee1da9a01e52faa","2025-07-09T09:32:32.638Z","","","","","","AttribQ","","","","","","","","","","","","","","","","","","","","","","","","","","","","","","","","","","","","","","50",""
"4367","","<div style=""width:500px;"">
  <p>How much control did you have over the ball?</p>
  </div>","38","html-slider-response","85","1407110","0.0-10.0-2.8","137","1","2025-07-09 09:09:05","7701e855f2ef39aa3fd6c71abdc6918a","102.33.94.125","Mozilla/5.0 (Windows NT 10.0; Win64; x64) AppleWebKit/537.36 (KHTML, like Gecko) Chrome/137.0.0.0 Safari/537.36","WebKit","Chrome","137.0.0.0","Windows","10.0","https://app.prolific.com/","en-ZA,en-GB;q=0.9,en-US;q=0.8,en;q=0.7","64d23e803ee1da9a01e52faa","686d226cabeef709c732f8e1","686e314656119378462f47e5","64d23e803ee1da9a01e52faa","2025-07-09T09:32:37.010Z","","","","","","ControlQ","","","","","","","","","","","","","","","","","","","","","","","","","","","","","","","","","","","","","","50",""
"5692","","<div style=""width:500px;"">
  <p>How would you describe your current emotional state?</p>
  </div>","81","html-slider-response","86","1412805","0.0-10.0-3.8","137","1","2025-07-09 09:09:05","7701e855f2ef39aa3fd6c71abdc6918a","102.33.94.125","Mozilla/5.0 (Windows NT 10.0; Win64; x64) AppleWebKit/537.36 (KHTML, like Gecko) Chrome/137.0.0.0 Safari/537.36","WebKit","Chrome","137.0.0.0","Windows","10.0","https://app.prolific.com/","en-ZA,en-GB;q=0.9,en-US;q=0.8,en;q=0.7","64d23e803ee1da9a01e52faa","686d226cabeef709c732f8e1","686e314656119378462f47e5","64d23e803ee1da9a01e52faa","2025-07-09T09:32:42.704Z","","","","","","StressQ","","","","","","","","","","","","","","","","","","","","","","","","","","","","","","","","","","","","","","50",""
"2897","","<div style=""width:500px;"">
  <p>What best describes how you currently feel?</p>
