"rt","response_timestamp","stimulus","response","trial_type","trial_index","time_elapsed","internal_node_id","run_id","condition","recorded_at","source_code_version","ip","user_agent","device","browser","browser_version","platform","platform_version","referer","accept_language","PROLIFIC_PID","STUDY_ID","SESSION_ID","prolific_id","realtime","view_history","question_order","consent","success","question_id","eventType","responses","item_order","radio_event_ids","radio_event_times","key_event_times","mouse_event_times","straightlining","zigzagging","honeypot","which_type","canvas_config","goals_layout","control_level","trial_number","tutorial_trial_number","trial_start_time","phase1_start_time","phase2_start_time","phase3_start_time","goal_1_value","goal_1_distance","goal_2_value","goal_2_distance","goal_selected","outcome","outcome_total","participant_final_score","participant_initial_score","participant_final_score_prop","goal_choice_rt","allocated_time","allocated_time_remaining","goal_direction","counts","mouse_movements","key_presses","correct","slider_start","sub_question"
"19916","1752052184557","<p style='font-size:40px;line-height:1.25'><strong>Welcome to the experiment!</strong></p><p style='font-size:1.1em;line-height:1.25'>Thank you for your interest in our experiment! Before you begin, it is important that we obtain your informed consent to participate in the study.</p><p style='font-size:1.1em;line-height:1.25'>On the next screen will be an <strong>information sheet</strong> for you to read. To participate in the study we need you to read this information sheet and the following consent form carefully. If you agree with all the statements, please click the <strong>I agree</strong> button.</p><p style='font-size:1.1em;line-height:1.25'>Press <strong>Next</strong> to read the information sheet.</p>","0","custom-html-button-response","0","19925","0.0-0.0","144","1","2025-07-09 09:09:16","7701e855f2ef39aa3fd6c71abdc6918a","41.13.188.129","Mozilla/5.0 (Windows NT 10.0; Win64; x64) AppleWebKit/537.36 (KHTML, like Gecko) Chrome/138.0.0.0 Safari/537.36","WebKit","Chrome","138.0.0.0","Windows","10.0","https://app.prolific.com/","en-GB,en-US;q=0.9,en;q=0.8","66a1a7d0d0d19196eb010216","686d226cabeef709c732f8e1","686e3130544e64150cd0d526","66a1a7d0d0d19196eb010216","2025-07-09T09:09:44.560Z","","","","","","","","","","","","","","","","","","","","","","","","","","","","","","","","","","","","","","","","","","","","",""
"279107","","","","instructions","1","299035","0.0-1.0","144","1","2025-07-09 09:09:16","7701e855f2ef39aa3fd6c71abdc6918a","41.13.188.129","Mozilla/5.0 (Windows NT 10.0; Win64; x64) AppleWebKit/537.36 (KHTML, like Gecko) Chrome/138.0.0.0 Safari/537.36","WebKit","Chrome","138.0.0.0","Windows","10.0","https://app.prolific.com/","en-GB,en-US;q=0.9,en;q=0.8","66a1a7d0d0d19196eb010216","686d226cabeef709c732f8e1","686e3130544e64150cd0d526","66a1a7d0d0d19196eb010216","","[{""page_index"":0,""viewing_time"":8128},{""page_index"":1,""viewing_time"":270978}]","","","","","","","","","","","","","","","","","","","","","","","","","","","","","","","","","","","","","","","","","","","",""
"7216","","","{""Q0"":"""",""Q1"":"""",""Q2"":"""",""Q3"":"""",""Q4"":"""",""Q5"":"""",""Q6"":""I agree""}","survey-multi-choice","2","306264","0.0-2.0","144","1","2025-07-09 09:09:16","7701e855f2ef39aa3fd6c71abdc6918a","41.13.188.129","Mozilla/5.0 (Windows NT 10.0; Win64; x64) AppleWebKit/537.36 (KHTML, like Gecko) Chrome/138.0.0.0 Safari/537.36","WebKit","Chrome","138.0.0.0","Windows","10.0","https://app.prolific.com/","en-GB,en-US;q=0.9,en;q=0.8","66a1a7d0d0d19196eb010216","686d226cabeef709c732f8e1","686e3130544e64150cd0d526","66a1a7d0d0d19196eb010216","","","[0,1,2,3,4,5,6]","true","","","","","","","","","","","","","","","","","","","","","","","","","","","","","","","","","","","","","","","","","",""
"33246","","","","fullscreen","3","340539","0.0-4.0","144","1","2025-07-09 09:09:16","7701e855f2ef39aa3fd6c71abdc6918a","41.13.188.129","Mozilla/5.0 (Windows NT 10.0; Win64; x64) AppleWebKit/537.36 (KHTML, like Gecko) Chrome/138.0.0.0 Safari/537.36","WebKit","Chrome","138.0.0.0","Windows","10.0","https://app.prolific.com/","en-GB,en-US;q=0.9,en;q=0.8","66a1a7d0d0d19196eb010216","686d226cabeef709c732f8e1","686e3130544e64150cd0d526","66a1a7d0d0d19196eb010216","","","","","true","","","","","","","","","","","","","","","","","","","","","","","","","","","","","","","","","","","","","","","","",""
"3600","1752052508777"," <p style='font-size:1.1em;line-height:1.25'>Thank you for completing the consent form and closing all other tabs.</p><p style='font-size:1.1em;line-height:1.25'>We will now invite you to fill in some demographic information and questionnaires, before starting the game.<br>This will take about 5 minutes.<br></p><p style='font-size:1.1em;line-height:1.25'>Press the <strong>Next</strong> button to continue.</p>","0","custom-html-button-response","4","344144","0.0-5.0","144","1","2025-07-09 09:09:16","7701e855f2ef39aa3fd6c71abdc6918a","41.13.188.129","Mozilla/5.0 (Windows NT 10.0; Win64; x64) AppleWebKit/537.36 (KHTML, like Gecko) Chrome/138.0.0.0 Safari/537.36","WebKit","Chrome","138.0.0.0","Windows","10.0","https://app.prolific.com/","en-GB,en-US;q=0.9,en;q=0.8","66a1a7d0d0d19196eb010216","686d226cabeef709c732f8e1","686e3130544e64150cd0d526","66a1a7d0d0d19196eb010216","2025-07-09T09:15:08.779Z","","","","","","","","","","","","","","","","","","","","","","","","","","","","","","","","","","","","","","","","","","","","",""
"5674","","","{""age"":""37""}","survey-text","5","349834","0.0-6.0-0.0","144","1","2025-07-09 09:09:16","7701e855f2ef39aa3fd6c71abdc6918a","41.13.188.129","Mozilla/5.0 (Windows NT 10.0; Win64; x64) AppleWebKit/537.36 (KHTML, like Gecko) Chrome/138.0.0.0 Safari/537.36","WebKit","Chrome","138.0.0.0","Windows","10.0","https://app.prolific.com/","en-GB,en-US;q=0.9,en;q=0.8","66a1a7d0d0d19196eb010216","686d226cabeef709c732f8e1","686e3130544e64150cd0d526","66a1a7d0d0d19196eb010216","","","","","","0","demographics","","","","","","","","","","","","","","","","","","","","","","","","","","","","","","","","","","","","","","",""
"3415","","","{""gender_identity"":""female/woman""}","survey-multi-choice","6","353252","0.0-6.0-1.0","144","1","2025-07-09 09:09:16","7701e855f2ef39aa3fd6c71abdc6918a","41.13.188.129","Mozilla/5.0 (Windows NT 10.0; Win64; x64) AppleWebKit/537.36 (KHTML, like Gecko) Chrome/138.0.0.0 Safari/537.36","WebKit","Chrome","138.0.0.0","Windows","10.0","https://app.prolific.com/","en-GB,en-US;q=0.9,en;q=0.8","66a1a7d0d0d19196eb010216","686d226cabeef709c732f8e1","686e3130544e64150cd0d526","66a1a7d0d0d19196eb010216","","","[0]","","","1","demographics","","","","","","","","","","","","","","","","","","","","","","","","","","","","","","","","","","","","","","",""
"4770","","","{""assigned_sex"":""female""}","survey-multi-choice","7","358024","0.0-6.0-2.0","144","1","2025-07-09 09:09:16","7701e855f2ef39aa3fd6c71abdc6918a","41.13.188.129","Mozilla/5.0 (Windows NT 10.0; Win64; x64) AppleWebKit/537.36 (KHTML, like Gecko) Chrome/138.0.0.0 Safari/537.36","WebKit","Chrome","138.0.0.0","Windows","10.0","https://app.prolific.com/","en-GB,en-US;q=0.9,en;q=0.8","66a1a7d0d0d19196eb010216","686d226cabeef709c732f8e1","686e3130544e64150cd0d526","66a1a7d0d0d19196eb010216","","","[0]","","","2","demographics","","","","","","","","","","","","","","","","","","","","","","","","","","","","","","","","","","","","","","",""
"7306","","","{""menstrual_cycle"":""Yes""}","survey-multi-choice","8","365335","0.0-6.0-3.0","144","1","2025-07-09 09:09:16","7701e855f2ef39aa3fd6c71abdc6918a","41.13.188.129","Mozilla/5.0 (Windows NT 10.0; Win64; x64) AppleWebKit/537.36 (KHTML, like Gecko) Chrome/138.0.0.0 Safari/537.36","WebKit","Chrome","138.0.0.0","Windows","10.0","https://app.prolific.com/","en-GB,en-US;q=0.9,en;q=0.8","66a1a7d0d0d19196eb010216","686d226cabeef709c732f8e1","686e3130544e64150cd0d526","66a1a7d0d0d19196eb010216","","","[0]","","","4","demographics","","","","","","","","","","","","","","","","","","","","","","","","","","","","","","","","","","","","","","",""
"5488","","","{""education"":""Bachelor's Degree (e.g., BA)""}","survey-multi-choice","9","370826","0.0-6.0-4.0","144","1","2025-07-09 09:09:16","7701e855f2ef39aa3fd6c71abdc6918a","41.13.188.129","Mozilla/5.0 (Windows NT 10.0; Win64; x64) AppleWebKit/537.36 (KHTML, like Gecko) Chrome/138.0.0.0 Safari/537.36","WebKit","Chrome","138.0.0.0","Windows","10.0","https://app.prolific.com/","en-GB,en-US;q=0.9,en;q=0.8","66a1a7d0d0d19196eb010216","686d226cabeef709c732f8e1","686e3130544e64150cd0d526","66a1a7d0d0d19196eb010216","","","[0]","","","5","demographics","","","","","","","","","","","","","","","","","","","","","","","","","","","","","","","","","","","","","","",""
"12881","","","{""education"":""Master's Degree (e.g., MSc)""}","survey-multi-choice","10","383713","0.0-6.0-5.0","144","1","2025-07-09 09:09:16","7701e855f2ef39aa3fd6c71abdc6918a","41.13.188.129","Mozilla/5.0 (Windows NT 10.0; Win64; x64) AppleWebKit/537.36 (KHTML, like Gecko) Chrome/138.0.0.0 Safari/537.36","WebKit","Chrome","138.0.0.0","Windows","10.0","https://app.prolific.com/","en-GB,en-US;q=0.9,en;q=0.8","66a1a7d0d0d19196eb010216","686d226cabeef709c732f8e1","686e3130544e64150cd0d526","66a1a7d0d0d19196eb010216","2025-07-09T09:15:48.348Z","","[0]","","","6","demographics","","","","","","","","","","","","","","","","","","","","","","","","","","","","","","","","","","","","","","",""
"13458","","","{""mental_health_condition"":""no"",""mental_health_treatment"":""no"",""psychiatric_medication"":""no""}","survey-text","11","397217","0.0-7.0-0.0","144","1","2025-07-09 09:09:16","7701e855f2ef39aa3fd6c71abdc6918a","41.13.188.129","Mozilla/5.0 (Windows NT 10.0; Win64; x64) AppleWebKit/537.36 (KHTML, like Gecko) Chrome/138.0.0.0 Safari/537.36","WebKit","Chrome","138.0.0.0","Windows","10.0","https://app.prolific.com/","en-GB,en-US;q=0.9,en;q=0.8","66a1a7d0d0d19196eb010216","686d226cabeef709c732f8e1","686e3130544e64150cd0d526","66a1a7d0d0d19196eb010216","2025-07-09T09:16:01.852Z","","","","","1","mental_health","","","","","","","","","","","","","","","","","","","","","","","","","","","","","","","","","","","","","","",""
"12208","","","{""depression_history"":[""Yes""]}","survey-multi-select","12","409435","0.0-7.0-1.0","144","1","2025-07-09 09:09:16","7701e855f2ef39aa3fd6c71abdc6918a","41.13.188.129","Mozilla/5.0 (Windows NT 10.0; Win64; x64) AppleWebKit/537.36 (KHTML, like Gecko) Chrome/138.0.0.0 Safari/537.36","WebKit","Chrome","138.0.0.0","Windows","10.0","https://app.prolific.com/","en-GB,en-US;q=0.9,en;q=0.8","66a1a7d0d0d19196eb010216","686d226cabeef709c732f8e1","686e3130544e64150cd0d526","66a1a7d0d0d19196eb010216","","","[0]","","","","mental_health","","","","","","","","","","","","","","","","","","","","","","","","","","","","","","","","","","","","","","",""
"9819","","","{""depression_episodes"":""1-2"",""depression_recent"":""Within the past year""}","survey-multi-choice","13","419259","0.0-7.0-2.0-0.0","144","1","2025-07-09 09:09:16","7701e855f2ef39aa3fd6c71abdc6918a","41.13.188.129","Mozilla/5.0 (Windows NT 10.0; Win64; x64) AppleWebKit/537.36 (KHTML, like Gecko) Chrome/138.0.0.0 Safari/537.36","WebKit","Chrome","138.0.0.0","Windows","10.0","https://app.prolific.com/","en-GB,en-US;q=0.9,en;q=0.8","66a1a7d0d0d19196eb010216","686d226cabeef709c732f8e1","686e3130544e64150cd0d526","66a1a7d0d0d19196eb010216","2025-07-09T09:16:23.894Z","","[0,1]","","","3","mental_health","","","","","","","","","","","","","","","","","","","","","","","","","","","","","","","","","","","","","","",""
"69362.10000000149","","","","survey-template","14","488646","0.0-7.0-3.0","144","1","2025-07-09 09:09:16","7701e855f2ef39aa3fd6c71abdc6918a","41.13.188.129","Mozilla/5.0 (Windows NT 10.0; Win64; x64) AppleWebKit/537.36 (KHTML, like Gecko) Chrome/138.0.0.0 Safari/537.36","WebKit","Chrome","138.0.0.0","Windows","10.0","https://app.prolific.com/","en-GB,en-US;q=0.9,en;q=0.8","66a1a7d0d0d19196eb010216","686d226cabeef709c732f8e1","686e3130544e64150cd0d526","66a1a7d0d0d19196eb010216","2025-07-09T09:17:33.281Z","","","","","","ius","{""Q01"":""2"",""Q02"":""2"",""Q03"":""1"",""Q04"":""4"",""Q05"":""1"",""Q06"":""0"",""Q07"":""0"",""Q08"":""0"",""Q09"":""3"",""Q10"":""1"",""Q11"":""1"",""Q12"":""3"",""Q13"":""1""}","[0,1,2,3,4,5,6,7,8,9,10,11,12]","[""Q01"",""Q01"",""Q02"",""Q03"",""Q04"",""Q05"",""Q06"",""Q07"",""Q08"",""Q09"",""Q10"",""Q11"",""Q12"",""Q13""]","[4331.900000002235,6383.400000002235,9203.400000002235,14062.70000000298,21439.400000002235,24564.400000002235,28619.400000002235,45830.800000000745,49771.5,53395.60000000149,58923.10000000149,61221.300000000745,65753.70000000298,68022.5]","[]","[4331.900000002235,6383.400000002235,9203.400000002235,12551.800000000745,14062.70000000298,15480.70000000298,21439.400000002235,24564.400000002235,28619.400000002235,29499.5,45830.800000000745,49771.5,53395.60000000149,54359,58923.10000000149,61221.300000000745,65753.70000000298,68022.5,69356]","0.38461538461538464","0.16666666666666666","0","","","","","","","","","","","","","","","","","","","","","","","","","","","","","",""
"4635","1752052657919","<p style='font-size:1.1em;line-height:1.25'>In the following, we will ask you a few questions relating to your experiences over the past month.<br></p><p style='font-size:1.1em;line-height:1.25'>Press the <strong>Next</strong> button to continue.</p>","0","custom-html-button-response","15","493285","0.0-7.0-4.0","144","1","2025-07-09 09:09:16","7701e855f2ef39aa3fd6c71abdc6918a","41.13.188.129","Mozilla/5.0 (Windows NT 10.0; Win64; x64) AppleWebKit/537.36 (KHTML, like Gecko) Chrome/138.0.0.0 Safari/537.36","WebKit","Chrome","138.0.0.0","Windows","10.0","https://app.prolific.com/","en-GB,en-US;q=0.9,en;q=0.8","66a1a7d0d0d19196eb010216","686d226cabeef709c732f8e1","686e3130544e64150cd0d526","66a1a7d0d0d19196eb010216","2025-07-09T09:17:37.921Z","","","","","","","","","","","","","","","","","","","","","","","","","","","","","","","","","","","","","","","","","","","","",""
"42089.800000000745","","","","survey-template","16","535384","0.0-7.0-5.0","144","1","2025-07-09 09:09:16","7701e855f2ef39aa3fd6c71abdc6918a","41.13.188.129","Mozilla/5.0 (Windows NT 10.0; Win64; x64) AppleWebKit/537.36 (KHTML, like Gecko) Chrome/138.0.0.0 Safari/537.36","WebKit","Chrome","138.0.0.0","Windows","10.0","https://app.prolific.com/","en-GB,en-US;q=0.9,en;q=0.8","66a1a7d0d0d19196eb010216","686d226cabeef709c732f8e1","686e3130544e64150cd0d526","66a1a7d0d0d19196eb010216","2025-07-09T09:18:20.019Z","","","","","","pss","{""Q01"":""2"",""Q02"":""2"",""Q03"":""3"",""Q04"":""1"",""Q05"":""1"",""Q06"":""2"",""Q07"":""2"",""Q08"":""1"",""Q09"":""2"",""Q10"":""2""}","[0,1,2,3,4,5,6,7,8,9]","[""Q01"",""Q02"",""Q03"",""Q04"",""Q05"",""Q06"",""Q07"",""Q08"",""Q09"",""Q10""]","[4858.89999999851,7835.300000000745,10896.199999999255,15892.199999999255,18937.800000000745,23396.39999999851,27141.5,32430.300000000745,36325.199999999255,40726.699999999255]","[]","[0.19999999925494194,4858.89999999851,7835.300000000745,10896.199999999255,15892.199999999255,18937.800000000745,23396.39999999851,27141.5,32430.300000000745,36325.199999999255,40726.699999999255,42085.199999999255]","0.6","0.4444444444444444","0","","","","","","","","","","","","","","","","","","","","","","","","","","","","","",""
"3703","1752052703726","<p style='font-size:1.1em;line-height:1.25'>Thank you for your answers! Now we will ask you a few more questions relating to your feelings in the last 24 hours.<br></p><p style='font-size:1.1em;line-height:1.25'>Press the <strong>Next</strong> button to continue.</p>","0","custom-html-button-response","17","539092","0.0-7.0-6.0","144","1","2025-07-09 09:09:16","7701e855f2ef39aa3fd6c71abdc6918a","41.13.188.129","Mozilla/5.0 (Windows NT 10.0; Win64; x64) AppleWebKit/537.36 (KHTML, like Gecko) Chrome/138.0.0.0 Safari/537.36","WebKit","Chrome","138.0.0.0","Windows","10.0","https://app.prolific.com/","en-GB,en-US;q=0.9,en;q=0.8","66a1a7d0d0d19196eb010216","686d226cabeef709c732f8e1","686e3130544e64150cd0d526","66a1a7d0d0d19196eb010216","2025-07-09T09:18:23.727Z","","","","","","","","","","","","","","","","","","","","","","","","","","","","","","","","","","","","","","","","","","","","",""
"65851.39999999851","","","","survey-template","18","604956","0.0-7.0-7.0","144","1","2025-07-09 09:09:16","7701e855f2ef39aa3fd6c71abdc6918a","41.13.188.129","Mozilla/5.0 (Windows NT 10.0; Win64; x64) AppleWebKit/537.36 (KHTML, like Gecko) Chrome/138.0.0.0 Safari/537.36","WebKit","Chrome","138.0.0.0","Windows","10.0","https://app.prolific.com/","en-GB,en-US;q=0.9,en;q=0.8","66a1a7d0d0d19196eb010216","686d226cabeef709c732f8e1","686e3130544e64150cd0d526","66a1a7d0d0d19196eb010216","2025-07-09T09:19:29.592Z","","","","","","drsp","{""Q01"":""2"",""Q02"":""2"",""Q03"":""2"",""Q04"":""3"",""Q05"":""3"",""Q06"":""2"",""Q07"":""2"",""Q08"":""2"",""Q09"":""1"",""Q10"":""1"",""Q11"":""3"",""Q12"":""3"",""Q13"":""3"",""Q14"":""2"",""Q15"":""2"",""Q16"":""2"",""Q17"":""2"",""Q18"":""2"",""Q19"":""2"",""Q20"":""2"",""Q21"":""1""}","[0,1,2,3,4,5,6,7,8,9,10,11,12,13,14,15,16,17,18,19,20]","[""Q01"",""Q02"",""Q03"",""Q04"",""Q05"",""Q06"",""Q07"",""Q08"",""Q09"",""Q10"",""Q11"",""Q12"",""Q13"",""Q14"",""Q15"",""Q16"",""Q17"",""Q18"",""Q19"",""Q20"",""Q21""]","[3053.5,4827.39999999851,6154.199999999255,7942.5,9560.29999999702,11827.699999999255,13725,15982.099999997765,22553.599999997765,23902.79999999702,26084.599999997765,28443.199999999255,31743.5,34412.199999999255,36020.79999999702,38922.099999997765,46532.39999999851,48653.099999997765,52731.699999999255,57727.29999999702,63956.89999999851]","[]","[0.19999999925494194,3053.5,4827.39999999851,6154.199999999255,7942.5,9560.29999999702,11827.699999999255,13725,15982.099999997765,16955,22553.599999997765,23902.79999999702,26084.599999997765,28443.199999999255,29670.29999999702,31743.5,34412.199999999255,36020.79999999702,38922.099999997765,40449.39999999851,46532.39999999851,48653.099999997765,52731.699999999255,54490.599999997765,57727.29999999702,63956.89999999851,65840.29999999702]","0.6190476190476191","0.25","0","","","","","","","","","","","","","","","","","","","","","","","","","","","","","",""
"19565.5","","","","survey-template","19","624527","0.0-7.0-8.0","144","1","2025-07-09 09:09:16","7701e855f2ef39aa3fd6c71abdc6918a","41.13.188.129","Mozilla/5.0 (Windows NT 10.0; Win64; x64) AppleWebKit/537.36 (KHTML, like Gecko) Chrome/138.0.0.0 Safari/537.36","WebKit","Chrome","138.0.0.0","Windows","10.0","https://app.prolific.com/","en-GB,en-US;q=0.9,en;q=0.8","66a1a7d0d0d19196eb010216","686d226cabeef709c732f8e1","686e3130544e64150cd0d526","66a1a7d0d0d19196eb010216","2025-07-09T09:19:49.162Z","","","","","","stress","{""Q01"":""2"",""Q02"":""2"",""Q03"":""2""}","[0,1,2]","[""Q01"",""Q02"",""Q03""]","[3355.89999999851,7365.89999999851,13572.300000000745]","[]","[3355.89999999851,7365.89999999851,13572.300000000745,19563.300000000745]","0.6666666666666666","1","0","","","","","","","","","","","","","","","","","","","","","","","","","","","","","",""
"43893","","","","instructions","20","668424","0.0-8.0-0.0","144","1","2025-07-09 09:09:16","7701e855f2ef39aa3fd6c71abdc6918a","41.13.188.129","Mozilla/5.0 (Windows NT 10.0; Win64; x64) AppleWebKit/537.36 (KHTML, like Gecko) Chrome/138.0.0.0 Safari/537.36","WebKit","Chrome","138.0.0.0","Windows","10.0","https://app.prolific.com/","en-GB,en-US;q=0.9,en;q=0.8","66a1a7d0d0d19196eb010216","686d226cabeef709c732f8e1","686e3130544e64150cd0d526","66a1a7d0d0d19196eb010216","","[{""page_index"":0,""viewing_time"":23662},{""page_index"":1,""viewing_time"":8404},{""page_index"":2,""viewing_time"":8295},{""page_index"":3,""viewing_time"":3532}]","","","","","","","","","","","","","","","","","","","","","","","","","","","","","","","","","","","","","","","","","","","",""
"","","","","ctl-task-cpt","21","699029","0.0-8.0-1.0","144","1","2025-07-09 09:09:16","7701e855f2ef39aa3fd6c71abdc6918a","41.13.188.129","Mozilla/5.0 (Windows NT 10.0; Win64; x64) AppleWebKit/537.36 (KHTML, like Gecko) Chrome/138.0.0.0 Safari/537.36","WebKit","Chrome","138.0.0.0","Windows","10.0","https://app.prolific.com/","en-GB,en-US;q=0.9,en;q=0.8","66a1a7d0d0d19196eb010216","686d226cabeef709c732f8e1","686e3130544e64150cd0d526","66a1a7d0d0d19196eb010216","","","","","","","","","","","","","","","","","win-only","0","g1:NW,g2:SE","1","0","1","678414","2667.9","6674","27567.6","2","4","4","6","2","4","4","4","0","0.030303030303030304","1879.7","4000","2215","[""down"",""right""]","{""num_key_presses"":6,""num_perfect"":6,""num_errors"":0,""num_randdir"":0,""num_randdir_good_moves"":0,""num_whilered"":0,""num_whileblue"":0,""num_blue"":1,""num_good_moves"":6}","[294.22232142857143,298.12857142857143,3,294.22232142857143,298.12857142857143,106.9,294.22232142857143,298.12857142857143,214.1,294.22232142857143,298.12857142857143,326,294.22232142857143,298.12857142857143,428.8,294.22232142857143,298.12857142857143,537.1,294.22232142857143,298.12857142857143,646.8,252.22232142857143,261.12857142857143,750.7,159.22232142857143,127.12857142857143,859.4,159.22232142857143,124.12857142857143,959.6,261.22232142857143,215.12857142857143,1061.3,394.22232142857143,399.12857142857143,1161.7,461.22232142857143,496.12857142857143,1268.8,497.22232142857143,539.1285714285714,1377.9,522.2223214285714,558.1285714285714,1479.3,522.2223214285714,558.1285714285714,1585,522.2223214285714,558.1285714285714,1685.6,522.2223214285714,558.1285714285714,1788.5,522.2223214285714,558.1285714285714,1895.1,522.2223214285714,558.1285714285714,2000.9,522.2223214285714,558.1285714285714,2101.5,522.2223214285714,558.1285714285714,2208.6,522.2223214285714,558.1285714285714,2312.3,522.2223214285714,558.1285714285714,2418.7,522.2223214285714,558.1285714285714,2519.5,522.2223214285714,558.1285714285714,2626.1,522.2223214285714,558.1285714285714,2726.4,522.2223214285714,558.1285714285714,2829.6,522.2223214285714,558.1285714285714,2936.1,522.2223214285714,558.1285714285714,3039.8,522.2223214285714,558.1285714285714,3143.5,522.2223214285714,558.1285714285714,3247,522.2223214285714,558.1285714285714,3353.7,522.2223214285714,558.1285714285714,3459.7,522.2223214285714,558.1285714285714,3560.3,522.2223214285714,558.1285714285714,3668.2,522.2223214285714,558.1285714285714,3769.4,522.2223214285714,558.1285714285714,3876.3,522.2223214285714,558.1285714285714,3980.9]","[5129.6,5129.6,2616.3,2004.9,508.4,""smooth"",""down"",""down"",""good_move"",7798.7,2667.6,2217.3,5131.2,450.2,""smooth"",""down"",""down"",""good_move"",10763,2962.6,2546.2,7800.4,416.4,""smooth"",""down"",""down"",""good_move"",13827.3,3063.4,2574.3,10763.9,489.1,""smooth"",""right"",""right"",""good_move"",17279.2,3447.3,2974.4,13831.9,473,""smooth"",""right"",""right"",""good_move"",20756.7,3476.6,3133.1,17280.2,343.4,""smooth"",""right"",""right"",""good_move""]","","",""
"4426","","","","instructions","22","703455","0.0-8.0-2.0","144","1","2025-07-09 09:09:16","7701e855f2ef39aa3fd6c71abdc6918a","41.13.188.129","Mozilla/5.0 (Windows NT 10.0; Win64; x64) AppleWebKit/537.36 (KHTML, like Gecko) Chrome/138.0.0.0 Safari/537.36","WebKit","Chrome","138.0.0.0","Windows","10.0","https://app.prolific.com/","en-GB,en-US;q=0.9,en;q=0.8","66a1a7d0d0d19196eb010216","686d226cabeef709c732f8e1","686e3130544e64150cd0d526","66a1a7d0d0d19196eb010216","","[{""page_index"":0,""viewing_time"":4424}]","","","","","","","","","","","","","","","","","","","","","","","","","","","","","","","","","","","","","","","","","","","",""
"","","","","ctl-task-cpt","23","742383","0.0-8.0-3.0","144","1","2025-07-09 09:09:16","7701e855f2ef39aa3fd6c71abdc6918a","41.13.188.129","Mozilla/5.0 (Windows NT 10.0; Win64; x64) AppleWebKit/537.36 (KHTML, like Gecko) Chrome/138.0.0.0 Safari/537.36","WebKit","Chrome","138.0.0.0","Windows","10.0","https://app.prolific.com/","en-GB,en-US;q=0.9,en;q=0.8","66a1a7d0d0d19196eb010216","686d226cabeef709c732f8e1","686e3130544e64150cd0d526","66a1a7d0d0d19196eb010216","","","","","","","","","","","","","","","","","win-only","0","g1:NW,g2:SE","0.35","0","3","713426.1","2329.8","6334.5","35916.7","2","4","8","6","2","8","8","8","0","0.06060606060606061","1419.7","4000","855","[""down"",""right""]","{""num_key_presses"":10,""num_perfect"":4,""num_errors"":0,""num_randdir"":6,""num_randdir_good_moves"":4,""num_whilered"":0,""num_whileblue"":0,""num_blue"":0,""num_good_moves"":8}","[297.22232142857143,298.12857142857143,1.2,297.22232142857143,298.12857142857143,104.7,297.22232142857143,298.12857142857143,209.5,297.22232142857143,298.12857142857143,318.8,297.22232142857143,298.12857142857143,419.5,297.22232142857143,298.12857142857143,522.7,299.22232142857143,300.12857142857143,623,342.22232142857143,332.12857142857143,725.2,500.22232142857143,444.12857142857143,827.4,545.2223214285714,488.12857142857143,927.5,554.2223214285714,542.1285714285714,1033.4,555.2223214285714,554.1285714285714,1134.8,555.2223214285714,554.1285714285714,1240.2,555.2223214285714,554.1285714285714,1342.1,555.2223214285714,554.1285714285714,1446.4,555.2223214285714,554.1285714285714,1554.4,555.2223214285714,554.1285714285714,1656.8,555.2223214285714,554.1285714285714,1759.7,555.2223214285714,554.1285714285714,1863.8,555.2223214285714,554.1285714285714,1975.6,555.2223214285714,554.1285714285714,2075.8,555.2223214285714,554.1285714285714,2176.8,555.2223214285714,554.1285714285714,2284.9,555.2223214285714,554.1285714285714,2386.3,555.2223214285714,554.1285714285714,2486.8,555.2223214285714,554.1285714285714,2593.1,555.2223214285714,554.1285714285714,2700.3,555.2223214285714,554.1285714285714,2808.5,555.2223214285714,554.1285714285714,2914.6,555.2223214285714,554.1285714285714,3014.7,555.2223214285714,554.1285714285714,3116.7,555.2223214285714,554.1285714285714,3216.9,555.2223214285714,554.1285714285714,3323.1,555.2223214285714,554.1285714285714,3428.3,555.2223214285714,554.1285714285714,3531.7,555.2223214285714,554.1285714285714,3637,555.2223214285714,554.1285714285714,3742.8,555.2223214285714,554.1285714285714,3844.3,555.2223214285714,554.1285714285714,3947.3]","[1418.3,1418.2,1000,0.1,418.3,""oops"",""right"",""down"",""good_move"",4389.6,2970,2216,1419.6,754,""smooth"",""right"",""right"",""good_move"",6907.9,2517.4,2103.3,4390.5,414.1,""oops"",""right"",""left"",""bad_move"",10156.1,3247,2884.8,6909.1,362.2,""oops"",""down"",""down"",""good_move"",12876.7,2719.5,2397.1,10157.2,322.4,""smooth"",""down"",""down"",""good_move"",15621.5,2744,2404.6,12877.5,339.4,""oops"",""right"",""right"",""good_move"",18493.2,2870.8,2480.8,15622.4,390,""oops"",""right"",""left"",""bad_move"",21395.8,2901.6,2476.7,18494.3,424.8,""oops"",""right"",""right"",""good_move"",24790.7,3393.1,3034.4,21397.6,358.7,""smooth"",""right"",""right"",""good_move"",29462.8,4671.3,4081.5,24791.6,589.8,""smooth"",""right"",""right"",""good_move""]","","",""
"5700","","","","instructions","24","748083","0.0-8.0-4.0","144","1","2025-07-09 09:09:16","7701e855f2ef39aa3fd6c71abdc6918a","41.13.188.129","Mozilla/5.0 (Windows NT 10.0; Win64; x64) AppleWebKit/537.36 (KHTML, like Gecko) Chrome/138.0.0.0 Safari/537.36","WebKit","Chrome","138.0.0.0","Windows","10.0","https://app.prolific.com/","en-GB,en-US;q=0.9,en;q=0.8","66a1a7d0d0d19196eb010216","686d226cabeef709c732f8e1","686e3130544e64150cd0d526","66a1a7d0d0d19196eb010216","","[{""page_index"":0,""viewing_time"":1659},{""page_index"":1,""viewing_time"":4039}]","","","","","","","","","","","","","","","","","","","","","","","","","","","","","","","","","","","","","","","","","","","",""
"15217","","","{""green_ball"":[""Ball always moves in the direction I press""]}","survey-multi-select","25","763314","0.0-8.0-5.0-0.0","144","1","2025-07-09 09:09:16","7701e855f2ef39aa3fd6c71abdc6918a","41.13.188.129","Mozilla/5.0 (Windows NT 10.0; Win64; x64) AppleWebKit/537.36 (KHTML, like Gecko) Chrome/138.0.0.0 Safari/537.36","WebKit","Chrome","138.0.0.0","Windows","10.0","https://app.prolific.com/","en-GB,en-US;q=0.9,en;q=0.8","66a1a7d0d0d19196eb010216","686d226cabeef709c732f8e1","686e3130544e64150cd0d526","66a1a7d0d0d19196eb010216","","","[0]","","","","quiz","","","","","","","","","","","","","","","","","","","","","","","","","","","","","","","","","","","","","false","",""
"2834","","<p align='center'><b>INCORRECT.</b> Usually the green ball moves in the indicated direction, but sometimes it shakes and moves randomly. </p>","0","html-button-response","26","766154","0.0-8.0-5.0-1.0","144","1","2025-07-09 09:09:16","7701e855f2ef39aa3fd6c71abdc6918a","41.13.188.129","Mozilla/5.0 (Windows NT 10.0; Win64; x64) AppleWebKit/537.36 (KHTML, like Gecko) Chrome/138.0.0.0 Safari/537.36","WebKit","Chrome","138.0.0.0","Windows","10.0","https://app.prolific.com/","en-GB,en-US;q=0.9,en;q=0.8","66a1a7d0d0d19196eb010216","686d226cabeef709c732f8e1","686e3130544e64150cd0d526","66a1a7d0d0d19196eb010216","","","","","","","","","","","","","","","","","","","","","","","","","","","","","","","","","","","","","","","","","","","","","",""
"5238","","","{""green_ball"":[""Ball always shakes and moves in a random direction""]}","survey-multi-select","27","771397","0.0-8.0-5.1-0.1","144","1","2025-07-09 09:09:16","7701e855f2ef39aa3fd6c71abdc6918a","41.13.188.129","Mozilla/5.0 (Windows NT 10.0; Win64; x64) AppleWebKit/537.36 (KHTML, like Gecko) Chrome/138.0.0.0 Safari/537.36","WebKit","Chrome","138.0.0.0","Windows","10.0","https://app.prolific.com/","en-GB,en-US;q=0.9,en;q=0.8","66a1a7d0d0d19196eb010216","686d226cabeef709c732f8e1","686e3130544e64150cd0d526","66a1a7d0d0d19196eb010216","","","[0]","","","","quiz","","","","","","","","","","","","","","","","","","","","","","","","","","","","","","","","","","","","","false","",""
"3522","","<p align='center'><b>INCORRECT.</b> Usually the green ball moves in the indicated direction, but sometimes it shakes and moves randomly. </p>","0","html-button-response","28","774922","0.0-8.0-5.1-1.1","144","1","2025-07-09 09:09:16","7701e855f2ef39aa3fd6c71abdc6918a","41.13.188.129","Mozilla/5.0 (Windows NT 10.0; Win64; x64) AppleWebKit/537.36 (KHTML, like Gecko) Chrome/138.0.0.0 Safari/537.36","WebKit","Chrome","138.0.0.0","Windows","10.0","https://app.prolific.com/","en-GB,en-US;q=0.9,en;q=0.8","66a1a7d0d0d19196eb010216","686d226cabeef709c732f8e1","686e3130544e64150cd0d526","66a1a7d0d0d19196eb010216","","","","","","","","","","","","","","","","","","","","","","","","","","","","","","","","","","","","","","","","","","","","","",""
"12011","","","{""green_ball"":[""Ball always shakes and moves in a random direction""]}","survey-multi-select","29","786941","0.0-8.0-5.2-0.2","144","1","2025-07-09 09:09:16","7701e855f2ef39aa3fd6c71abdc6918a","41.13.188.129","Mozilla/5.0 (Windows NT 10.0; Win64; x64) AppleWebKit/537.36 (KHTML, like Gecko) Chrome/138.0.0.0 Safari/537.36","WebKit","Chrome","138.0.0.0","Windows","10.0","https://app.prolific.com/","en-GB,en-US;q=0.9,en;q=0.8","66a1a7d0d0d19196eb010216","686d226cabeef709c732f8e1","686e3130544e64150cd0d526","66a1a7d0d0d19196eb010216","","","[0]","","","","quiz","","","","","","","","","","","","","","","","","","","","","","","","","","","","","","","","","","","","","false","",""
"5378","","<p align='center'><b>INCORRECT.</b> Usually the green ball moves in the indicated direction, but sometimes it shakes and moves randomly. </p>","0","html-button-response","30","792321","0.0-8.0-5.2-1.2","144","1","2025-07-09 09:09:16","7701e855f2ef39aa3fd6c71abdc6918a","41.13.188.129","Mozilla/5.0 (Windows NT 10.0; Win64; x64) AppleWebKit/537.36 (KHTML, like Gecko) Chrome/138.0.0.0 Safari/537.36","WebKit","Chrome","138.0.0.0","Windows","10.0","https://app.prolific.com/","en-GB,en-US;q=0.9,en;q=0.8","66a1a7d0d0d19196eb010216","686d226cabeef709c732f8e1","686e3130544e64150cd0d526","66a1a7d0d0d19196eb010216","","","","","","","","","","","","","","","","","","","","","","","","","","","","","","","","","","","","","","","","","","","","","",""
"9622","","","{""green_ball"":[""Ball sometimes shakes and moves in a random direction""]}","survey-multi-select","31","801949","0.0-8.0-5.3-0.3","144","1","2025-07-09 09:09:16","7701e855f2ef39aa3fd6c71abdc6918a","41.13.188.129","Mozilla/5.0 (Windows NT 10.0; Win64; x64) AppleWebKit/537.36 (KHTML, like Gecko) Chrome/138.0.0.0 Safari/537.36","WebKit","Chrome","138.0.0.0","Windows","10.0","https://app.prolific.com/","en-GB,en-US;q=0.9,en;q=0.8","66a1a7d0d0d19196eb010216","686d226cabeef709c732f8e1","686e3130544e64150cd0d526","66a1a7d0d0d19196eb010216","","","[0]","","","","quiz","","","","","","","","","","","","","","","","","","","","","","","","","","","","","","","","","","","","","true","",""
"1758","","<p align='center'><b>CORRECT!</b> Indeed, the green ball may sometimes shake and move in a random direction.</p>","0","html-button-response","32","803712","0.0-8.0-5.3-1.3","144","1","2025-07-09 09:09:16","7701e855f2ef39aa3fd6c71abdc6918a","41.13.188.129","Mozilla/5.0 (Windows NT 10.0; Win64; x64) AppleWebKit/537.36 (KHTML, like Gecko) Chrome/138.0.0.0 Safari/537.36","WebKit","Chrome","138.0.0.0","Windows","10.0","https://app.prolific.com/","en-GB,en-US;q=0.9,en;q=0.8","66a1a7d0d0d19196eb010216","686d226cabeef709c732f8e1","686e3130544e64150cd0d526","66a1a7d0d0d19196eb010216","","","","","","","","","","","","","","","","","","","","","","","","","","","","","","","","","","","","","","","","","","","","","",""
"5275","","","{""yellow_ball"":[""Ball doesn‘t move and I get -1 penalty point""]}","survey-multi-select","33","808992","0.0-8.0-6.0-0.0","144","1","2025-07-09 09:09:16","7701e855f2ef39aa3fd6c71abdc6918a","41.13.188.129","Mozilla/5.0 (Windows NT 10.0; Win64; x64) AppleWebKit/537.36 (KHTML, like Gecko) Chrome/138.0.0.0 Safari/537.36","WebKit","Chrome","138.0.0.0","Windows","10.0","https://app.prolific.com/","en-GB,en-US;q=0.9,en;q=0.8","66a1a7d0d0d19196eb010216","686d226cabeef709c732f8e1","686e3130544e64150cd0d526","66a1a7d0d0d19196eb010216","","","[0]","","","","quiz","","","","","","","","","","","","","","","","","","","","","","","","","","","","","","","","","","","","","true","",""
"1739","","<p align='center'><b>CORRECT!</b> Indeed, the yellow ball never moves and you receive a penalty.</p>","0","html-button-response","34","810734","0.0-8.0-6.0-1.0","144","1","2025-07-09 09:09:16","7701e855f2ef39aa3fd6c71abdc6918a","41.13.188.129","Mozilla/5.0 (Windows NT 10.0; Win64; x64) AppleWebKit/537.36 (KHTML, like Gecko) Chrome/138.0.0.0 Safari/537.36","WebKit","Chrome","138.0.0.0","Windows","10.0","https://app.prolific.com/","en-GB,en-US;q=0.9,en;q=0.8","66a1a7d0d0d19196eb010216","686d226cabeef709c732f8e1","686e3130544e64150cd0d526","66a1a7d0d0d19196eb010216","","","","","","","","","","","","","","","","","","","","","","","","","","","","","","","","","","","","","","","","","","","","","",""
"4229","","","{""blue_ball"":[""Ball doesn‘t move and I get -1 penalty point""]}","survey-multi-select","35","814968","0.0-8.0-7.0-0.0","144","1","2025-07-09 09:09:16","7701e855f2ef39aa3fd6c71abdc6918a","41.13.188.129","Mozilla/5.0 (Windows NT 10.0; Win64; x64) AppleWebKit/537.36 (KHTML, like Gecko) Chrome/138.0.0.0 Safari/537.36","WebKit","Chrome","138.0.0.0","Windows","10.0","https://app.prolific.com/","en-GB,en-US;q=0.9,en;q=0.8","66a1a7d0d0d19196eb010216","686d226cabeef709c732f8e1","686e3130544e64150cd0d526","66a1a7d0d0d19196eb010216","","","[0]","","","","quiz","","","","","","","","","","","","","","","","","","","","","","","","","","","","","","","","","","","","","false","",""
"2201","","<p align='center'><b>INCORRECT.</b> The blue ball always shakes and moves randomly.</p>","0","html-button-response","36","817172","0.0-8.0-7.0-1.0","144","1","2025-07-09 09:09:16","7701e855f2ef39aa3fd6c71abdc6918a","41.13.188.129","Mozilla/5.0 (Windows NT 10.0; Win64; x64) AppleWebKit/537.36 (KHTML, like Gecko) Chrome/138.0.0.0 Safari/537.36","WebKit","Chrome","138.0.0.0","Windows","10.0","https://app.prolific.com/","en-GB,en-US;q=0.9,en;q=0.8","66a1a7d0d0d19196eb010216","686d226cabeef709c732f8e1","686e3130544e64150cd0d526","66a1a7d0d0d19196eb010216","","","","","","","","","","","","","","","","","","","","","","","","","","","","","","","","","","","","","","","","","","","","","",""
"4469","","","{""blue_ball"":[""Ball always shakes and moves in a random direction""]}","survey-multi-select","37","821645","0.0-8.0-7.1-0.1","144","1","2025-07-09 09:09:16","7701e855f2ef39aa3fd6c71abdc6918a","41.13.188.129","Mozilla/5.0 (Windows NT 10.0; Win64; x64) AppleWebKit/537.36 (KHTML, like Gecko) Chrome/138.0.0.0 Safari/537.36","WebKit","Chrome","138.0.0.0","Windows","10.0","https://app.prolific.com/","en-GB,en-US;q=0.9,en;q=0.8","66a1a7d0d0d19196eb010216","686d226cabeef709c732f8e1","686e3130544e64150cd0d526","66a1a7d0d0d19196eb010216","","","[0]","","","","quiz","","","","","","","","","","","","","","","","","","","","","","","","","","","","","","","","","","","","","true","",""
"1556","","<p align='center'><b>CORRECT!</b> Indeed, the blue ball always shakes and moves in a random direction. Also there is a penalty of -1 point.</p>","0","html-button-response","38","823203","0.0-8.0-7.1-1.1","144","1","2025-07-09 09:09:16","7701e855f2ef39aa3fd6c71abdc6918a","41.13.188.129","Mozilla/5.0 (Windows NT 10.0; Win64; x64) AppleWebKit/537.36 (KHTML, like Gecko) Chrome/138.0.0.0 Safari/537.36","WebKit","Chrome","138.0.0.0","Windows","10.0","https://app.prolific.com/","en-GB,en-US;q=0.9,en;q=0.8","66a1a7d0d0d19196eb010216","686d226cabeef709c732f8e1","686e3130544e64150cd0d526","66a1a7d0d0d19196eb010216","","","","","","","","","","","","","","","","","","","","","","","","","","","","","","","","","","","","","","","","","","","","","",""
"5691","","","{""bonus"":[""When I reach 80% of points""]}","survey-multi-select","39","828901","0.0-8.0-8.0-0.0","144","1","2025-07-09 09:09:16","7701e855f2ef39aa3fd6c71abdc6918a","41.13.188.129","Mozilla/5.0 (Windows NT 10.0; Win64; x64) AppleWebKit/537.36 (KHTML, like Gecko) Chrome/138.0.0.0 Safari/537.36","WebKit","Chrome","138.0.0.0","Windows","10.0","https://app.prolific.com/","en-GB,en-US;q=0.9,en;q=0.8","66a1a7d0d0d19196eb010216","686d226cabeef709c732f8e1","686e3130544e64150cd0d526","66a1a7d0d0d19196eb010216","","","[0]","","","","quiz","","","","","","","","","","","","","","","","","","","","","","","","","","","","","","","","","","","","","false","",""
"1846","","<p align='center'><b>INCORRECT.</b> You receive 2 pounds extra when you reach 50% of points </p>","0","html-button-response","40","830752","0.0-8.0-8.0-1.0","144","1","2025-07-09 09:09:16","7701e855f2ef39aa3fd6c71abdc6918a","41.13.188.129","Mozilla/5.0 (Windows NT 10.0; Win64; x64) AppleWebKit/537.36 (KHTML, like Gecko) Chrome/138.0.0.0 Safari/537.36","WebKit","Chrome","138.0.0.0","Windows","10.0","https://app.prolific.com/","en-GB,en-US;q=0.9,en;q=0.8","66a1a7d0d0d19196eb010216","686d226cabeef709c732f8e1","686e3130544e64150cd0d526","66a1a7d0d0d19196eb010216","","","","","","","","","","","","","","","","","","","","","","","","","","","","","","","","","","","","","","","","","","","","","",""
"2208","","","{""bonus"":[""When I reach 50% of points""]}","survey-multi-select","41","832966","0.0-8.0-8.1-0.1","144","1","2025-07-09 09:09:16","7701e855f2ef39aa3fd6c71abdc6918a","41.13.188.129","Mozilla/5.0 (Windows NT 10.0; Win64; x64) AppleWebKit/537.36 (KHTML, like Gecko) Chrome/138.0.0.0 Safari/537.36","WebKit","Chrome","138.0.0.0","Windows","10.0","https://app.prolific.com/","en-GB,en-US;q=0.9,en;q=0.8","66a1a7d0d0d19196eb010216","686d226cabeef709c732f8e1","686e3130544e64150cd0d526","66a1a7d0d0d19196eb010216","","","[0]","","","","quiz","","","","","","","","","","","","","","","","","","","","","","","","","","","","","","","","","","","","","true","",""
"1860","","<p align='center'><b>CORRECT!</b> Indeed, you receive 2 pounds extra when you reach 50% of points.</p>","0","html-button-response","42","834829","0.0-8.0-8.1-1.1","144","1","2025-07-09 09:09:16","7701e855f2ef39aa3fd6c71abdc6918a","41.13.188.129","Mozilla/5.0 (Windows NT 10.0; Win64; x64) AppleWebKit/537.36 (KHTML, like Gecko) Chrome/138.0.0.0 Safari/537.36","WebKit","Chrome","138.0.0.0","Windows","10.0","https://app.prolific.com/","en-GB,en-US;q=0.9,en;q=0.8","66a1a7d0d0d19196eb010216","686d226cabeef709c732f8e1","686e3130544e64150cd0d526","66a1a7d0d0d19196eb010216","","","","","","","","","","","","","","","","","","","","","","","","","","","","","","","","","","","","","","","","","","","","","",""
"2781","","","","instructions","43","837613","0.0-8.0-9.0","144","1","2025-07-09 09:09:16","7701e855f2ef39aa3fd6c71abdc6918a","41.13.188.129","Mozilla/5.0 (Windows NT 10.0; Win64; x64) AppleWebKit/537.36 (KHTML, like Gecko) Chrome/138.0.0.0 Safari/537.36","WebKit","Chrome","138.0.0.0","Windows","10.0","https://app.prolific.com/","en-GB,en-US;q=0.9,en;q=0.8","66a1a7d0d0d19196eb010216","686d226cabeef709c732f8e1","686e3130544e64150cd0d526","66a1a7d0d0d19196eb010216","","[{""page_index"":0,""viewing_time"":2781}]","","","","","","","","","","","","","","","","","","","","","","","","","","","","","","","","","","","","","","","","","","","",""
"8473","","<p>Before you start with this game please answer the following three questions yourself. </p>
  <p>Through this game, we measure several aspects of your cognitive performance, such as reaction times, multi-tasking capabilities </p>
  <p>and the ability to assess the situation you are in.</p>
  <p></p>
  <p><b>How good do you usually are in such tasks?</b></p>","84","html-slider-response","44","846097","0.0-9.0-0.0","144","1","2025-07-09 09:09:16","7701e855f2ef39aa3fd6c71abdc6918a","41.13.188.129","Mozilla/5.0 (Windows NT 10.0; Win64; x64) AppleWebKit/537.36 (KHTML, like Gecko) Chrome/138.0.0.0 Safari/537.36","WebKit","Chrome","138.0.0.0","Windows","10.0","https://app.prolific.com/","en-GB,en-US;q=0.9,en;q=0.8","66a1a7d0d0d19196eb010216","686d226cabeef709c732f8e1","686e3130544e64150cd0d526","66a1a7d0d0d19196eb010216","2025-07-09T09:23:30.733Z","","","","","","PreSkillQ","","","","","","","","","","","","","","","","","","","","","","","","","","","","","","","","","","","","","","50",""
"4480","","<div style=""width:500px;"">
  <p>How well do you think you will perform in this task compared to other participants?</p>
  </div>","81","html-slider-response","45","850583","0.0-9.0-1.0","144","1","2025-07-09 09:09:16","7701e855f2ef39aa3fd6c71abdc6918a","41.13.188.129","Mozilla/5.0 (Windows NT 10.0; Win64; x64) AppleWebKit/537.36 (KHTML, like Gecko) Chrome/138.0.0.0 Safari/537.36","WebKit","Chrome","138.0.0.0","Windows","10.0","https://app.prolific.com/","en-GB,en-US;q=0.9,en;q=0.8","66a1a7d0d0d19196eb010216","686d226cabeef709c732f8e1","686e3130544e64150cd0d526","66a1a7d0d0d19196eb010216","2025-07-09T09:23:35.218Z","","","","","","PrePerfQ","","","","","","","","","","","","","","","","","","","","","","","","","","","","","","","","","","","","","","50",""
"3420","","<div style=""width:500px;"">
  <p>What best describes how you currently feel?</p>
  </div>","87","html-slider-response","46","854006","0.0-9.0-2.0","144","1","2025-07-09 09:09:16","7701e855f2ef39aa3fd6c71abdc6918a","41.13.188.129","Mozilla/5.0 (Windows NT 10.0; Win64; x64) AppleWebKit/537.36 (KHTML, like Gecko) Chrome/138.0.0.0 Safari/537.36","WebKit","Chrome","138.0.0.0","Windows","10.0","https://app.prolific.com/","en-GB,en-US;q=0.9,en;q=0.8","66a1a7d0d0d19196eb010216","686d226cabeef709c732f8e1","686e3130544e64150cd0d526","66a1a7d0d0d19196eb010216","2025-07-09T09:23:38.641Z","","","","","","PreMotivationQ","","","","","","","","","","","","","","","","","","","","","","","","","","","","","","","","","","","","","","50",""
"","","","","ctl-task-cpt","47","879498","0.0-10.0-0.0","144","1","2025-07-09 09:09:16","7701e855f2ef39aa3fd6c71abdc6918a","41.13.188.129","Mozilla/5.0 (Windows NT 10.0; Win64; x64) AppleWebKit/537.36 (KHTML, like Gecko) Chrome/138.0.0.0 Safari/537.36","WebKit","Chrome","138.0.0.0","Windows","10.0","https://app.prolific.com/","en-GB,en-US;q=0.9,en;q=0.8","66a1a7d0d0d19196eb010216","686d226cabeef709c732f8e1","686e3130544e64150cd0d526","66a1a7d0d0d19196eb010216","2025-07-09T09:24:04.134Z","","","","","","","","","","","","","","","","win-only","1","g1:NE,g2:SW","1","1","0","863977.3","1776.4","6782.6","22476.7","1","4","8","6","2","8","8","8","0","0.06060606060606061","1419.3","3000","1380","[""down"",""left""]","{""num_key_presses"":6,""num_perfect"":6,""num_errors"":0,""num_randdir"":0,""num_randdir_good_moves"":0,""num_whilered"":0,""num_whileblue"":0,""num_blue"":0,""num_good_moves"":6}","[294.22232142857143,304.12857142857143,0.8,294.22232142857143,304.12857142857143,113.4,294.22232142857143,304.12857142857143,221.1,294.22232142857143,304.12857142857143,325.9,294.22232142857143,304.12857142857143,429.1,294.22232142857143,304.12857142857143,529.6,269.22232142857143,325.12857142857143,634.4,131.22232142857143,429.12857142857143,738.2,88.22232142857143,465.12857142857143,839.6,54.222321428571426,504.12857142857143,939.7,49.222321428571426,513.1285714285714,1042,49.222321428571426,514.1285714285714,1146.4,49.222321428571426,514.1285714285714,1249.9,49.222321428571426,514.1285714285714,1349.9,49.222321428571426,514.1285714285714,1455.3,49.222321428571426,514.1285714285714,1556.9,49.222321428571426,514.1285714285714,1662.5,49.222321428571426,514.1285714285714,1771.8,49.222321428571426,514.1285714285714,1873,49.222321428571426,514.1285714285714,1976.8,49.222321428571426,514.1285714285714,2088.8,49.222321428571426,514.1285714285714,2190.5,49.222321428571426,514.1285714285714,2299.4,49.222321428571426,514.1285714285714,2405.1,49.222321428571426,514.1285714285714,2510.8,49.222321428571426,514.1285714285714,2615,49.222321428571426,514.1285714285714,2719.7,49.222321428571426,514.1285714285714,2822.5,49.222321428571426,514.1285714285714,2924.2,49.222321428571426,514.1285714285714,3032,49.222321428571426,514.1285714285714,3135.7,49.222321428571426,514.1285714285714,3236.7,49.222321428571426,514.1285714285714,3339.5,49.222321428571426,514.1285714285714,3447.1,49.222321428571426,514.1285714285714,3550.8,49.222321428571426,514.1285714285714,3657,49.222321428571426,514.1285714285714,3760.5,49.222321428571426,514.1285714285714,3862.8,49.222321428571426,514.1285714285714,3963.6,49.222321428571426,514.1285714285714,4063.8,49.222321428571426,514.1285714285714,4168.8,49.222321428571426,514.1285714285714,4271.6,49.222321428571426,514.1285714285714,4372.5,49.222321428571426,514.1285714285714,4480.4,49.222321428571426,514.1285714285714,4585.2,49.222321428571426,514.1285714285714,4689.9,49.222321428571426,514.1285714285714,4794.3,49.222321428571426,514.1285714285714,4899.1]","[1364.6,1364.6,1000,0,364.6,""smooth"",""left"",""left"",""good_move"",4050.6,2683.9,2292.4,1366.7,391.5,""smooth"",""left"",""left"",""good_move"",6741.5,2690,2370.2,4051.5,319.8,""smooth"",""left"",""left"",""good_move"",8715.3,1972.3,1577.5,6743,394.8,""smooth"",""down"",""down"",""good_move"",12043.2,3326.8,2893.7,8716.4,433.1,""smooth"",""down"",""down"",""good_move"",15569.5,3525.4,3163.8,12044.1,361.6,""smooth"",""down"",""down"",""good_move""]","","",""
"5075","","<div style=""width:500px;"">
  <p>What determined the result of this run?</p>
  </div>","97","html-slider-response","48","884576","0.0-10.0-1.0","144","1","2025-07-09 09:09:16","7701e855f2ef39aa3fd6c71abdc6918a","41.13.188.129","Mozilla/5.0 (Windows NT 10.0; Win64; x64) AppleWebKit/537.36 (KHTML, like Gecko) Chrome/138.0.0.0 Safari/537.36","WebKit","Chrome","138.0.0.0","Windows","10.0","https://app.prolific.com/","en-GB,en-US;q=0.9,en;q=0.8","66a1a7d0d0d19196eb010216","686d226cabeef709c732f8e1","686e3130544e64150cd0d526","66a1a7d0d0d19196eb010216","2025-07-09T09:24:09.211Z","","","","","","AttribQ","","","","","","","","","","","","","","","","","","","","","","","","","","","","","","","","","","","","","","50",""
"3427","","<div style=""width:500px;"">
  <p>How much control did you have over the ball?</p>
  </div>","97","html-slider-response","49","888007","0.0-10.0-2.0","144","1","2025-07-09 09:09:16","7701e855f2ef39aa3fd6c71abdc6918a","41.13.188.129","Mozilla/5.0 (Windows NT 10.0; Win64; x64) AppleWebKit/537.36 (KHTML, like Gecko) Chrome/138.0.0.0 Safari/537.36","WebKit","Chrome","138.0.0.0","Windows","10.0","https://app.prolific.com/","en-GB,en-US;q=0.9,en;q=0.8","66a1a7d0d0d19196eb010216","686d226cabeef709c732f8e1","686e3130544e64150cd0d526","66a1a7d0d0d19196eb010216","2025-07-09T09:24:12.642Z","","","","","","ControlQ","","","","","","","","","","","","","","","","","","","","","","","","","","","","","","","","","","","","","","50",""
"3449","","<div style=""width:500px;"">
  <p>How would you describe your current emotional state?</p>
  </div>","8","html-slider-response","50","891460","0.0-10.0-3.0","144","1","2025-07-09 09:09:16","7701e855f2ef39aa3fd6c71abdc6918a","41.13.188.129","Mozilla/5.0 (Windows NT 10.0; Win64; x64) AppleWebKit/537.36 (KHTML, like Gecko) Chrome/138.0.0.0 Safari/537.36","WebKit","Chrome","138.0.0.0","Windows","10.0","https://app.prolific.com/","en-GB,en-US;q=0.9,en;q=0.8","66a1a7d0d0d19196eb010216","686d226cabeef709c732f8e1","686e3130544e64150cd0d526","66a1a7d0d0d19196eb010216","2025-07-09T09:24:16.095Z","","","","","","StressQ","","","","","","","","","","","","","","","","","","","","","","","","","","","","","","","","","","","","","","50",""
"4054","","<div style=""width:500px;"">
  <p>What best describes how you currently feel?</p>
  </div>","95","html-slider-response","51","895517","0.0-10.0-4.0","144","1","2025-07-09 09:09:16","7701e855f2ef39aa3fd6c71abdc6918a","41.13.188.129","Mozilla/5.0 (Windows NT 10.0; Win64; x64) AppleWebKit/537.36 (KHTML, like Gecko) Chrome/138.0.0.0 Safari/537.36","WebKit","Chrome","138.0.0.0","Windows","10.0","https://app.prolific.com/","en-GB,en-US;q=0.9,en;q=0.8","66a1a7d0d0d19196eb010216","686d226cabeef709c732f8e1","686e3130544e64150cd0d526","66a1a7d0d0d19196eb010216","2025-07-09T09:24:20.152Z","","","","","","MotivationQ","","","","","","","","","","","","","","","","","","","","","","","","","","","","","","","","","","","","","","50",""
"","","","","ctl-task-cpt","52","931799","0.0-10.0-0.1","144","1","2025-07-09 09:09:16","7701e855f2ef39aa3fd6c71abdc6918a","41.13.188.129","Mozilla/5.0 (Windows NT 10.0; Win64; x64) AppleWebKit/537.36 (KHTML, like Gecko) Chrome/138.0.0.0 Safari/537.36","WebKit","Chrome","138.0.0.0","Windows","10.0","https://app.prolific.com/","en-GB,en-US;q=0.9,en;q=0.8","66a1a7d0d0d19196eb010216","686d226cabeef709c732f8e1","686e3130544e64150cd0d526","66a1a7d0d0d19196eb010216","2025-07-09T09:24:56.434Z","","","","","","","","","","","","","","","","win-only","0","g1:NW,g2:SE","0.9","2","0","905493","1893.3","6899.3","33259.3","1","4","4","6","2","4","3","11","8","0.08333333333333333","1281.9","3000","620","[""down"",""right""]","{""num_key_presses"":9,""num_perfect"":7,""num_errors"":1,""num_randdir"":1,""num_randdir_good_moves"":0,""num_whilered"":0,""num_whileblue"":0,""num_blue"":0,""num_good_moves"":7}","[294.22232142857143,297.12857142857143,2.5,294.22232142857143,297.12857142857143,102.8,294.22232142857143,297.12857142857143,202.8,294.22232142857143,297.12857142857143,302.9,294.22232142857143,297.12857142857143,409.9,294.22232142857143,297.12857142857143,515.8,345.22232142857143,351.12857142857143,617.1,428.22232142857143,456.12857142857143,717.4,470.22232142857143,509.12857142857143,825.9,498.22232142857143,543.1285714285714,926.7,500.22232142857143,546.1285714285714,1030.3,500.22232142857143,546.1285714285714,1134.1,500.22232142857143,546.1285714285714,1239.8,500.22232142857143,546.1285714285714,1350.4,500.22232142857143,546.1285714285714,1452.8,500.22232142857143,546.1285714285714,1566.8,500.22232142857143,546.1285714285714,1683.7,500.22232142857143,546.1285714285714,1801.5,500.22232142857143,546.1285714285714,1902.2,500.22232142857143,546.1285714285714,2006,500.22232142857143,546.1285714285714,2106.1,500.22232142857143,546.1285714285714,2209,500.22232142857143,546.1285714285714,2319.4,500.22232142857143,546.1285714285714,2422.3,500.22232142857143,546.1285714285714,2522.8,500.22232142857143,546.1285714285714,2624.6,500.22232142857143,546.1285714285714,2727.4,500.22232142857143,546.1285714285714,2833.9,500.22232142857143,546.1285714285714,2934.2,500.22232142857143,546.1285714285714,3041.2,500.22232142857143,546.1285714285714,3146.9,500.22232142857143,546.1285714285714,3249.5,500.22232142857143,546.1285714285714,3356,500.22232142857143,546.1285714285714,3468.1,500.22232142857143,546.1285714285714,3568.1,500.22232142857143,546.1285714285714,3672.3,500.22232142857143,546.1285714285714,3780.1,500.22232142857143,546.1285714285714,3883.7,500.22232142857143,546.1285714285714,3999.6,500.22232142857143,546.1285714285714,4101.1,500.22232142857143,546.1285714285714,4202.5,500.22232142857143,546.1285714285714,4315,500.22232142857143,546.1285714285714,4417.5,500.22232142857143,546.1285714285714,4522.6,500.22232142857143,546.1285714285714,4623.6,500.22232142857143,546.1285714285714,4734.8,500.22232142857143,546.1285714285714,4839.4,500.22232142857143,546.1285714285714,4943.8]","[1627.5,1627.5,1000,0,627.5,""smooth"",""right"",""right"",""good_move"",4857.2,3228.6,2859.5,1628.7,369,""smooth"",""down"",""down"",""good_move"",7224.3,2365.7,2030.2,4858.6,335.5,""smooth"",""right"",""right"",""good_move"",10074.6,2849.4,2522.1,7225.2,327.3,""smooth"",""down"",""down"",""good_move"",12993.8,2918.2,2592.6,10075.7,325.5,""smooth"",""right"",""right"",""good_move"",16909.1,3914.4,3514.6,12994.8,399.8,""oops"",""down"",""left"",""bad_move"",19326.9,2415.7,2657.9,16911.3,-242.3,""error"",""-"",""-"",""no_move"",23199.7,3871.9,2433.7,20335.8,430.2,""smooth"",""down"",""down"",""good_move"",26241.5,3039.9,2379.4,23201.6,660.5,""smooth"",""right"",""right"",""good_move""]","","",""
"4170","","<div style=""width:500px;"">
  <p>What determined the result of this run?</p>
  </div>","94","html-slider-response","53","935972","0.0-10.0-1.1","144","1","2025-07-09 09:09:16","7701e855f2ef39aa3fd6c71abdc6918a","41.13.188.129","Mozilla/5.0 (Windows NT 10.0; Win64; x64) AppleWebKit/537.36 (KHTML, like Gecko) Chrome/138.0.0.0 Safari/537.36","WebKit","Chrome","138.0.0.0","Windows","10.0","https://app.prolific.com/","en-GB,en-US;q=0.9,en;q=0.8","66a1a7d0d0d19196eb010216","686d226cabeef709c732f8e1","686e3130544e64150cd0d526","66a1a7d0d0d19196eb010216","2025-07-09T09:25:00.608Z","","","","","","AttribQ","","","","","","","","","","","","","","","","","","","","","","","","","","","","","","","","","","","","","","50",""
"2834","","<div style=""width:500px;"">
  <p>How much control did you have over the ball?</p>
  </div>","80","html-slider-response","54","938809","0.0-10.0-2.1","144","1","2025-07-09 09:09:16","7701e855f2ef39aa3fd6c71abdc6918a","41.13.188.129","Mozilla/5.0 (Windows NT 10.0; Win64; x64) AppleWebKit/537.36 (KHTML, like Gecko) Chrome/138.0.0.0 Safari/537.36","WebKit","Chrome","138.0.0.0","Windows","10.0","https://app.prolific.com/","en-GB,en-US;q=0.9,en;q=0.8","66a1a7d0d0d19196eb010216","686d226cabeef709c732f8e1","686e3130544e64150cd0d526","66a1a7d0d0d19196eb010216","2025-07-09T09:25:03.444Z","","","","","","ControlQ","","","","","","","","","","","","","","","","","","","","","","","","","","","","","","","","","","","","","","50",""
"3499","","<div style=""width:500px;"">
  <p>How would you describe your current emotional state?</p>
  </div>","15","html-slider-response","55","942310","0.0-10.0-3.1","144","1","2025-07-09 09:09:16","7701e855f2ef39aa3fd6c71abdc6918a","41.13.188.129","Mozilla/5.0 (Windows NT 10.0; Win64; x64) AppleWebKit/537.36 (KHTML, like Gecko) Chrome/138.0.0.0 Safari/537.36","WebKit","Chrome","138.0.0.0","Windows","10.0","https://app.prolific.com/","en-GB,en-US;q=0.9,en;q=0.8","66a1a7d0d0d19196eb010216","686d226cabeef709c732f8e1","686e3130544e64150cd0d526","66a1a7d0d0d19196eb010216","2025-07-09T09:25:06.945Z","","","","","","StressQ","","","","","","","","","","","","","","","","","","","","","","","","","","","","","","","","","","","","","","50",""
"3212","","<div style=""width:500px;"">
  <p>What best describes how you currently feel?</p>
  </div>","94","html-slider-response","56","945525","0.0-10.0-4.1","144","1","2025-07-09 09:09:16","7701e855f2ef39aa3fd6c71abdc6918a","41.13.188.129","Mozilla/5.0 (Windows NT 10.0; Win64; x64) AppleWebKit/537.36 (KHTML, like Gecko) Chrome/138.0.0.0 Safari/537.36","WebKit","Chrome","138.0.0.0","Windows","10.0","https://app.prolific.com/","en-GB,en-US;q=0.9,en;q=0.8","66a1a7d0d0d19196eb010216","686d226cabeef709c732f8e1","686e3130544e64150cd0d526","66a1a7d0d0d19196eb010216","2025-07-09T09:25:10.160Z","","","","","","MotivationQ","","","","","","","","","","","","","","","","","","","","","","","","","","","","","","","","","","","","","","50",""
"","","","","ctl-task-cpt","57","983295","0.0-10.0-0.2","144","1","2025-07-09 09:09:16","7701e855f2ef39aa3fd6c71abdc6918a","41.13.188.129","Mozilla/5.0 (Windows NT 10.0; Win64; x64) AppleWebKit/537.36 (KHTML, like Gecko) Chrome/138.0.0.0 Safari/537.36","WebKit","Chrome","138.0.0.0","Windows","10.0","https://app.prolific.com/","en-GB,en-US;q=0.9,en;q=0.8","66a1a7d0d0d19196eb010216","686d226cabeef709c732f8e1","686e3130544e64150cd0d526","66a1a7d0d0d19196eb010216","2025-07-09T09:25:47.930Z","","","","","","","","","","","","","","","","win-only","0","g1:NW,g2:SE","0.8","3","0","955495.4","1670.9","6680.8","34748","1","4","8","6","2","8","8","19","11","0.14393939393939395","2212.4","3000","820","[""down"",""right""]","{""num_key_presses"":6,""num_perfect"":5,""num_errors"":0,""num_randdir"":1,""num_randdir_good_moves"":1,""num_whilered"":0,""num_whileblue"":0,""num_blue"":3,""num_good_moves"":6}","[297.22232142857143,295.12857142857143,0.7,297.22232142857143,295.12857142857143,104.5,297.22232142857143,295.12857142857143,204.6,297.22232142857143,295.12857142857143,309.6,297.22232142857143,295.12857142857143,412.6,297.22232142857143,295.12857142857143,516.4,341.22232142857143,348.12857142857143,621.1,447.22232142857143,446.12857142857143,730.1,536.2223214285714,546.1285714285714,838.4,544.2223214285714,562.1285714285714,944.4,544.2223214285714,562.1285714285714,1054.1,544.2223214285714,562.1285714285714,1156.9,544.2223214285714,562.1285714285714,1273,544.2223214285714,562.1285714285714,1390,544.2223214285714,562.1285714285714,1503.8,544.2223214285714,562.1285714285714,1610.1,544.2223214285714,562.1285714285714,1711.3,544.2223214285714,562.1285714285714,1817.5,544.2223214285714,562.1285714285714,1918.3,544.2223214285714,562.1285714285714,2024,544.2223214285714,562.1285714285714,2132.4,544.2223214285714,562.1285714285714,2233.6,544.2223214285714,562.1285714285714,2344.8,544.2223214285714,562.1285714285714,2450.2,544.2223214285714,562.1285714285714,2550.7,544.2223214285714,562.1285714285714,2655.7,544.2223214285714,562.1285714285714,2761.2,544.2223214285714,562.1285714285714,2861.4,544.2223214285714,562.1285714285714,2970,544.2223214285714,562.1285714285714,3071.5,544.2223214285714,562.1285714285714,3176.4,544.2223214285714,562.1285714285714,3277,544.2223214285714,562.1285714285714,3388.4,547.2223214285714,559.1285714285714,3488.5,653.2223214285714,458.12857142857143,3589.6,673.2223214285714,446.12857142857143,3693,673.2223214285714,446.12857142857143,3793,673.2223214285714,446.12857142857143,3896.1,673.2223214285714,446.12857142857143,3997,673.2223214285714,446.12857142857143,4097.2,673.2223214285714,446.12857142857143,4198,673.2223214285714,446.12857142857143,4303.1,673.2223214285714,446.12857142857143,4405.9,673.2223214285714,446.12857142857143,4510.5,673.2223214285714,446.12857142857143,4615.4,673.2223214285714,446.12857142857143,4725.8,673.2223214285714,446.12857142857143,4826.7,673.2223214285714,446.12857142857143,4930.8]","[1815.6,1815.6,1000,0,815.6,""smooth"",""right"",""right"",""good_move"",5242.5,3425,2857.1,1817.5,567.9,""smooth"",""down"",""down"",""good_move"",12456.4,7212.9,2717.4,9344.7,394.3,""smooth"",""down"",""down"",""good_move"",19256.3,6799,3017,15700.4,539,""smooth"",""right"",""right"",""good_move"",25057.4,5799.5,2238.4,22379.9,439.1,""oops"",""down"",""right"",""good_move"",27920.5,2862.1,2336.6,25058.4,525.5,""smooth"",""down"",""down"",""good_move""]","","",""
"3021","","<div style=""width:500px;"">
  <p>What determined the result of this run?</p>
  </div>","92","html-slider-response","58","986319","0.0-10.0-1.2","144","1","2025-07-09 09:09:16","7701e855f2ef39aa3fd6c71abdc6918a","41.13.188.129","Mozilla/5.0 (Windows NT 10.0; Win64; x64) AppleWebKit/537.36 (KHTML, like Gecko) Chrome/138.0.0.0 Safari/537.36","WebKit","Chrome","138.0.0.0","Windows","10.0","https://app.prolific.com/","en-GB,en-US;q=0.9,en;q=0.8","66a1a7d0d0d19196eb010216","686d226cabeef709c732f8e1","686e3130544e64150cd0d526","66a1a7d0d0d19196eb010216","2025-07-09T09:25:50.955Z","","","","","","AttribQ","","","","","","","","","","","","","","","","","","","","","","","","","","","","","","","","","","","","","","50",""
"2712","","<div style=""width:500px;"">
  <p>How much control did you have over the ball?</p>
  </div>","83","html-slider-response","59","989034","0.0-10.0-2.2","144","1","2025-07-09 09:09:16","7701e855f2ef39aa3fd6c71abdc6918a","41.13.188.129","Mozilla/5.0 (Windows NT 10.0; Win64; x64) AppleWebKit/537.36 (KHTML, like Gecko) Chrome/138.0.0.0 Safari/537.36","WebKit","Chrome","138.0.0.0","Windows","10.0","https://app.prolific.com/","en-GB,en-US;q=0.9,en;q=0.8","66a1a7d0d0d19196eb010216","686d226cabeef709c732f8e1","686e3130544e64150cd0d526","66a1a7d0d0d19196eb010216","2025-07-09T09:25:53.669Z","","","","","","ControlQ","","","","","","","","","","","","","","","","","","","","","","","","","","","","","","","","","","","","","","50",""
"2927","","<div style=""width:500px;"">
  <p>How would you describe your current emotional state?</p>
  </div>","13","html-slider-response","60","991964","0.0-10.0-3.2","144","1","2025-07-09 09:09:16","7701e855f2ef39aa3fd6c71abdc6918a","41.13.188.129","Mozilla/5.0 (Windows NT 10.0; Win64; x64) AppleWebKit/537.36 (KHTML, like Gecko) Chrome/138.0.0.0 Safari/537.36","WebKit","Chrome","138.0.0.0","Windows","10.0","https://app.prolific.com/","en-GB,en-US;q=0.9,en;q=0.8","66a1a7d0d0d19196eb010216","686d226cabeef709c732f8e1","686e3130544e64150cd0d526","66a1a7d0d0d19196eb010216","2025-07-09T09:25:56.599Z","","","","","","StressQ","","","","","","","","","","","","","","","","","","","","","","","","","","","","","","","","","","","","","","50",""
"5332","","<div style=""width:500px;"">
  <p>What best describes how you currently feel?</p>
  </div>","96","html-slider-response","61","997300","0.0-10.0-4.2","144","1","2025-07-09 09:09:16","7701e855f2ef39aa3fd6c71abdc6918a","41.13.188.129","Mozilla/5.0 (Windows NT 10.0; Win64; x64) AppleWebKit/537.36 (KHTML, like Gecko) Chrome/138.0.0.0 Safari/537.36","WebKit","Chrome","138.0.0.0","Windows","10.0","https://app.prolific.com/","en-GB,en-US;q=0.9,en;q=0.8","66a1a7d0d0d19196eb010216","686d226cabeef709c732f8e1","686e3130544e64150cd0d526","66a1a7d0d0d19196eb010216","2025-07-09T09:26:01.936Z","","","","","","MotivationQ","","","","","","","","","","","","","","","","","","","","","","","","","","","","","","","","","","","","","","50",""
"","","","","ctl-task-cpt","62","1039415","0.0-10.0-0.3","144","1","2025-07-09 09:09:16","7701e855f2ef39aa3fd6c71abdc6918a","41.13.188.129","Mozilla/5.0 (Windows NT 10.0; Win64; x64) AppleWebKit/537.36 (KHTML, like Gecko) Chrome/138.0.0.0 Safari/537.36","WebKit","Chrome","138.0.0.0","Windows","10.0","https://app.prolific.com/","en-GB,en-US;q=0.9,en;q=0.8","66a1a7d0d0d19196eb010216","686d226cabeef709c732f8e1","686e3130544e64150cd0d526","66a1a7d0d0d19196eb010216","2025-07-09T09:26:44.050Z","","","","","","","","","","","","","","","","win-only","2","g1:SE,g2:NW","0.7","4","0","1007271.9","2332.6","7333.9","39090.8","1","4","4","6","2","4","4","23","19","0.17424242424242425","1524.5","3000","270","[""left"",""up""]","{""num_key_presses"":10,""num_perfect"":7,""num_errors"":0,""num_randdir"":3,""num_randdir_good_moves"":1,""num_whilered"":0,""num_whileblue"":0,""num_blue"":1,""num_good_moves"":8}","[291.22232142857143,292.12857142857143,0.2,291.22232142857143,292.12857142857143,102.6,291.22232142857143,292.12857142857143,205.9,291.22232142857143,292.12857142857143,307.3,291.22232142857143,292.12857142857143,418,291.22232142857143,292.12857142857143,524.6,191.22232142857143,206.12857142857143,630.9,162.22232142857143,184.12857142857143,734,162.22232142857143,184.12857142857143,848.8,162.22232142857143,184.12857142857143,957,111.22232142857143,121.12857142857143,1062.2,81.22232142857143,89.12857142857143,1167.2,71.22232142857143,83.12857142857143,1271.8,71.22232142857143,83.12857142857143,1376.2,71.22232142857143,83.12857142857143,1478.3,71.22232142857143,83.12857142857143,1579.3,71.22232142857143,83.12857142857143,1692.7,71.22232142857143,83.12857142857143,1794.9,71.22232142857143,83.12857142857143,1896,71.22232142857143,83.12857142857143,2005.3,71.22232142857143,83.12857142857143,2119.6,71.22232142857143,83.12857142857143,2231.3,71.22232142857143,83.12857142857143,2335.9,71.22232142857143,83.12857142857143,2436.1,71.22232142857143,83.12857142857143,2540.4,71.22232142857143,83.12857142857143,2648.5,71.22232142857143,83.12857142857143,2749.9,71.22232142857143,83.12857142857143,2855.3,71.22232142857143,83.12857142857143,2963.6,71.22232142857143,83.12857142857143,3063.8,71.22232142857143,83.12857142857143,3165.7,71.22232142857143,83.12857142857143,3266.7,71.22232142857143,83.12857142857143,3374.6,71.22232142857143,83.12857142857143,3476,71.22232142857143,83.12857142857143,3579.9,71.22232142857143,83.12857142857143,3686.3,71.22232142857143,83.12857142857143,3797.3,71.22232142857143,83.12857142857143,3902.7,71.22232142857143,83.12857142857143,4006.5,71.22232142857143,83.12857142857143,4110.6,71.22232142857143,83.12857142857143,4214.3,71.22232142857143,83.12857142857143,4318.8,71.22232142857143,83.12857142857143,4422.9,71.22232142857143,83.12857142857143,4527.6,71.22232142857143,83.12857142857143,4628.7,71.22232142857143,83.12857142857143,4734.3,71.22232142857143,83.12857142857143,4848.2,71.22232142857143,83.12857142857143,4963.3]","[1430.6,1430.6,1000,0,430.6,""smooth"",""up"",""up"",""good_move"",3794.2,2362.7,2038.4,1431.5,324.3,""smooth"",""left"",""left"",""good_move"",10227.1,6431.8,2613.2,7256.3,357.7,""smooth"",""up"",""up"",""good_move"",14083,3855.3,3077.5,10227.8,777.7,""smooth"",""up"",""up"",""good_move"",16853.5,2769.6,2392.8,14084,376.8,""smooth"",""left"",""left"",""good_move"",19886.4,3032,2584.7,16854.5,447.2,""oops"",""left"",""right"",""bad_move"",23120.2,3231.6,2856.9,19888.6,374.7,""oops"",""left"",""right"",""bad_move"",26582.4,3460.9,3079.9,23121.5,381,""smooth"",""left"",""left"",""good_move"",29413.3,2830.2,2451.4,26583.1,378.8,""smooth"",""left"",""left"",""good_move"",31614.3,2199,1827.1,29415.3,371.9,""oops"",""left"",""left"",""good_move""]","","",""
"4159","","<div style=""width:500px;"">
  <p>What determined the result of this run?</p>
  </div>","100","html-slider-response","63","1043577","0.0-10.0-1.3","144","1","2025-07-09 09:09:16","7701e855f2ef39aa3fd6c71abdc6918a","41.13.188.129","Mozilla/5.0 (Windows NT 10.0; Win64; x64) AppleWebKit/537.36 (KHTML, like Gecko) Chrome/138.0.0.0 Safari/537.36","WebKit","Chrome","138.0.0.0","Windows","10.0","https://app.prolific.com/","en-GB,en-US;q=0.9,en;q=0.8","66a1a7d0d0d19196eb010216","686d226cabeef709c732f8e1","686e3130544e64150cd0d526","66a1a7d0d0d19196eb010216","2025-07-09T09:26:48.212Z","","","","","","AttribQ","","","","","","","","","","","","","","","","","","","","","","","","","","","","","","","","","","","","","","50",""
"3415","","<div style=""width:500px;"">
  <p>How much control did you have over the ball?</p>
  </div>","74","html-slider-response","64","1046994","0.0-10.0-2.3","144","1","2025-07-09 09:09:16","7701e855f2ef39aa3fd6c71abdc6918a","41.13.188.129","Mozilla/5.0 (Windows NT 10.0; Win64; x64) AppleWebKit/537.36 (KHTML, like Gecko) Chrome/138.0.0.0 Safari/537.36","WebKit","Chrome","138.0.0.0","Windows","10.0","https://app.prolific.com/","en-GB,en-US;q=0.9,en;q=0.8","66a1a7d0d0d19196eb010216","686d226cabeef709c732f8e1","686e3130544e64150cd0d526","66a1a7d0d0d19196eb010216","2025-07-09T09:26:51.630Z","","","","","","ControlQ","","","","","","","","","","","","","","","","","","","","","","","","","","","","","","","","","","","","","","50",""
"3711","","<div style=""width:500px;"">
  <p>How would you describe your current emotional state?</p>
  </div>","10","html-slider-response","65","1050709","0.0-10.0-3.3","144","1","2025-07-09 09:09:16","7701e855f2ef39aa3fd6c71abdc6918a","41.13.188.129","Mozilla/5.0 (Windows NT 10.0; Win64; x64) AppleWebKit/537.36 (KHTML, like Gecko) Chrome/138.0.0.0 Safari/537.36","WebKit","Chrome","138.0.0.0","Windows","10.0","https://app.prolific.com/","en-GB,en-US;q=0.9,en;q=0.8","66a1a7d0d0d19196eb010216","686d226cabeef709c732f8e1","686e3130544e64150cd0d526","66a1a7d0d0d19196eb010216","2025-07-09T09:26:55.344Z","","","","","","StressQ","","","","","","","","","","","","","","","","","","","","","","","","","","","","","","","","","","","","","","50",""
"3834","","<div style=""width:500px;"">
  <p>What best describes how you currently feel?</p>
  </div>","77","html-slider-response","66","1054545","0.0-10.0-4.3","144","1","2025-07-09 09:09:16","7701e855f2ef39aa3fd6c71abdc6918a","41.13.188.129","Mozilla/5.0 (Windows NT 10.0; Win64; x64) AppleWebKit/537.36 (KHTML, like Gecko) Chrome/138.0.0.0 Safari/537.36","WebKit","Chrome","138.0.0.0","Windows","10.0","https://app.prolific.com/","en-GB,en-US;q=0.9,en;q=0.8","66a1a7d0d0d19196eb010216","686d226cabeef709c732f8e1","686e3130544e64150cd0d526","66a1a7d0d0d19196eb010216","2025-07-09T09:26:59.180Z","","","","","","MotivationQ","","","","","","","","","","","","","","","","","","","","","","","","","","","","","","","","","","","","","","50",""
"","","","","ctl-task-cpt","67","1094965","0.0-10.0-0.4","144","1","2025-07-09 09:09:16","7701e855f2ef39aa3fd6c71abdc6918a","41.13.188.129","Mozilla/5.0 (Windows NT 10.0; Win64; x64) AppleWebKit/537.36 (KHTML, like Gecko) Chrome/138.0.0.0 Safari/537.36","WebKit","Chrome","138.0.0.0","Windows","10.0","https://app.prolific.com/","en-GB,en-US;q=0.9,en;q=0.8","66a1a7d0d0d19196eb010216","686d226cabeef709c732f8e1","686e3130544e64150cd0d526","66a1a7d0d0d19196eb010216","2025-07-09T09:27:39.600Z","","","","","","","","","","","","","","","","win-only","3","g1:SW,g2:NE","0.6","5","0","1064515.6","2291.4","7293.8","37398.4","1","4","8","6","2","8","7","30","23","0.22727272727272727","1094.6","3000","475","[""up"",""right""]","{""num_key_presses"":10,""num_perfect"":5,""num_errors"":1,""num_randdir"":4,""num_randdir_good_moves"":2,""num_whilered"":0,""num_whileblue"":1,""num_blue"":2,""num_good_moves"":8}","[295.22232142857143,290.12857142857143,0.5,295.22232142857143,290.12857142857143,106.7,295.22232142857143,290.12857142857143,207.7,295.22232142857143,290.12857142857143,313,295.22232142857143,290.12857142857143,421.4,300.22232142857143,284.12857142857143,533.1,462.22232142857143,113.12857142857143,633.8,520.2223214285714,59.128571428571426,750.1,522.2223214285714,57.128571428571426,854.8,522.2223214285714,57.128571428571426,970.3,522.2223214285714,57.128571428571426,1071.4,522.2223214285714,57.128571428571426,1176.4,522.2223214285714,57.128571428571426,1281.8,522.2223214285714,57.128571428571426,1381.9,522.2223214285714,57.128571428571426,1497.1,522.2223214285714,57.128571428571426,1600.4,522.2223214285714,57.128571428571426,1711.3,522.2223214285714,57.128571428571426,1811.9,522.2223214285714,57.128571428571426,1918.7,522.2223214285714,57.128571428571426,2019.2,522.2223214285714,57.128571428571426,2123.8,522.2223214285714,57.128571428571426,2227.4,522.2223214285714,57.128571428571426,2336.8,522.2223214285714,57.128571428571426,2438.3,522.2223214285714,57.128571428571426,2541,522.2223214285714,57.128571428571426,2646.4,522.2223214285714,57.128571428571426,2756.8,522.2223214285714,57.128571428571426,2859.6,522.2223214285714,57.128571428571426,2959.6,522.2223214285714,57.128571428571426,3079.1,522.2223214285714,57.128571428571426,3179.7,522.2223214285714,57.128571428571426,3287,522.2223214285714,57.128571428571426,3390.2,522.2223214285714,57.128571428571426,3499.6,522.2223214285714,57.128571428571426,3612.5,522.2223214285714,57.128571428571426,3712.9,522.2223214285714,57.128571428571426,3817.4,522.2223214285714,57.128571428571426,3920.4,522.2223214285714,57.128571428571426,4029.2,522.2223214285714,57.128571428571426,4133.3,522.2223214285714,57.128571428571426,4254.9,522.2223214285714,57.128571428571426,4361,522.2223214285714,57.128571428571426,4479.5,522.2223214285714,57.128571428571426,4586.6,522.2223214285714,57.128571428571426,4686.9,522.2223214285714,57.128571428571426,4787.6,522.2223214285714,57.128571428571426,4890.8]","[1452.7,1452.7,1000,0,452.8,""oops"",""right"",""right"",""good_move"",3891.2,2437.3,2043,1453.9,394.4,""smooth"",""up"",""up"",""good_move"",6595.3,2702.8,2358.3,3892.5,344.5,""while_blue"",""right"",""up"",""good_move"",9444.8,2848.4,2123,6596.4,725.4,""smooth"",""right"",""right"",""good_move"",12024.3,2578.7,2178.1,9445.7,400.5,""smooth"",""up"",""up"",""good_move"",14827.8,2802.4,2209.9,12025.5,592.4,""oops"",""right"",""down"",""bad_move"",18168.3,3339.2,3011.4,14829.1,327.8,""smooth"",""right"",""right"",""good_move"",20865.1,2695.7,2281.2,18169.4,414.6,""oops"",""up"",""down"",""bad_move"",27244.5,6376.5,2462.4,24403.1,379,""smooth"",""up"",""up"",""good_move"",29939.8,2694.5,2275.3,27245.4,419.2,""oops"",""left"",""up"",""good_move""]","","",""
"5062","","<div style=""width:500px;"">
  <p>What determined the result of this run?</p>
  </div>","85","html-slider-response","68","1100030","0.0-10.0-1.4","144","1","2025-07-09 09:09:16","7701e855f2ef39aa3fd6c71abdc6918a","41.13.188.129","Mozilla/5.0 (Windows NT 10.0; Win64; x64) AppleWebKit/537.36 (KHTML, like Gecko) Chrome/138.0.0.0 Safari/537.36","WebKit","Chrome","138.0.0.0","Windows","10.0","https://app.prolific.com/","en-GB,en-US;q=0.9,en;q=0.8","66a1a7d0d0d19196eb010216","686d226cabeef709c732f8e1","686e3130544e64150cd0d526","66a1a7d0d0d19196eb010216","2025-07-09T09:27:44.665Z","","","","","","AttribQ","","","","","","","","","","","","","","","","","","","","","","","","","","","","","","","","","","","","","","50",""
"2774","","<div style=""width:500px;"">
  <p>How much control did you have over the ball?</p>
  </div>","76","html-slider-response","69","1102806","0.0-10.0-2.4","144","1","2025-07-09 09:09:16","7701e855f2ef39aa3fd6c71abdc6918a","41.13.188.129","Mozilla/5.0 (Windows NT 10.0; Win64; x64) AppleWebKit/537.36 (KHTML, like Gecko) Chrome/138.0.0.0 Safari/537.36","WebKit","Chrome","138.0.0.0","Windows","10.0","https://app.prolific.com/","en-GB,en-US;q=0.9,en;q=0.8","66a1a7d0d0d19196eb010216","686d226cabeef709c732f8e1","686e3130544e64150cd0d526","66a1a7d0d0d19196eb010216","2025-07-09T09:27:47.442Z","","","","","","ControlQ","","","","","","","","","","","","","","","","","","","","","","","","","","","","","","","","","","","","","","50",""
"2570","","<div style=""width:500px;"">
  <p>How would you describe your current emotional state?</p>
  </div>","18","html-slider-response","70","1105382","0.0-10.0-3.4","144","1","2025-07-09 09:09:16","7701e855f2ef39aa3fd6c71abdc6918a","41.13.188.129","Mozilla/5.0 (Windows NT 10.0; Win64; x64) AppleWebKit/537.36 (KHTML, like Gecko) Chrome/138.0.0.0 Safari/537.36","WebKit","Chrome","138.0.0.0","Windows","10.0","https://app.prolific.com/","en-GB,en-US;q=0.9,en;q=0.8","66a1a7d0d0d19196eb010216","686d226cabeef709c732f8e1","686e3130544e64150cd0d526","66a1a7d0d0d19196eb010216","2025-07-09T09:27:50.017Z","","","","","","StressQ","","","","","","","","","","","","","","","","","","","","","","","","","","","","","","","","","","","","","","50",""
"3106","","<div style=""width:500px;"">
  <p>What best describes how you currently feel?</p>
  </div>","83","html-slider-response","71","1108490","0.0-10.0-4.4","144","1","2025-07-09 09:09:16","7701e855f2ef39aa3fd6c71abdc6918a","41.13.188.129","Mozilla/5.0 (Windows NT 10.0; Win64; x64) AppleWebKit/537.36 (KHTML, like Gecko) Chrome/138.0.0.0 Safari/537.36","WebKit","Chrome","138.0.0.0","Windows","10.0","https://app.prolific.com/","en-GB,en-US;q=0.9,en;q=0.8","66a1a7d0d0d19196eb010216","686d226cabeef709c732f8e1","686e3130544e64150cd0d526","66a1a7d0d0d19196eb010216","2025-07-09T09:27:53.125Z","","","","","","MotivationQ","","","","","","","","","","","","","","","","","","","","","","","","","","","","","","","","","","","","","","50",""
"","","","","ctl-task-cpt","72","1154731","0.0-10.0-0.5","144","1","2025-07-09 09:09:16","7701e855f2ef39aa3fd6c71abdc6918a","41.13.188.129","Mozilla/5.0 (Windows NT 10.0; Win64; x64) AppleWebKit/537.36 (KHTML, like Gecko) Chrome/138.0.0.0 Safari/537.36","WebKit","Chrome","138.0.0.0","Windows","10.0","https://app.prolific.com/","en-GB,en-US;q=0.9,en;q=0.8","66a1a7d0d0d19196eb010216","686d226cabeef709c732f8e1","686e3130544e64150cd0d526","66a1a7d0d0d19196eb010216","2025-07-09T09:28:39.367Z","","","","","","","","","","","","","","","","win-only","3","g1:SW,g2:NE","0.5","6","0","1118462.1","1313.9","6327.6","43207.1","1","4","4","6","2","-4","-5","25","30","0.1893939393939394","1579.7","3000","-1760","[""up"",""right""]","{""num_key_presses"":11,""num_perfect"":5,""num_errors"":1,""num_randdir"":5,""num_randdir_good_moves"":2,""num_whilered"":0,""num_whileblue"":1,""num_blue"":2,""num_good_moves"":7}","[294.22232142857143,294.12857142857143,1.5,294.22232142857143,294.12857142857143,106.4,294.22232142857143,294.12857142857143,213,294.22232142857143,294.12857142857143,324,294.22232142857143,294.12857142857143,429.6,294.22232142857143,294.12857142857143,538.4,294.22232142857143,294.12857142857143,648.1,456.22232142857143,98.12857142857143,753.4,537.2223214285714,11.128571428571426,857.7,563.2223214285714,-0.8714285714285737,959.3,563.2223214285714,-0.8714285714285737,1060.5,563.2223214285714,-0.8714285714285737,1161.5,522.2223214285714,38.128571428571426,1272.8,519.2223214285714,42.128571428571426,1385.5,519.2223214285714,42.128571428571426,1488,519.2223214285714,42.128571428571426,1593.9,519.2223214285714,42.128571428571426,1696.7,519.2223214285714,42.128571428571426,1801.1,519.2223214285714,42.128571428571426,1904.5,519.2223214285714,42.128571428571426,2011.4,519.2223214285714,42.128571428571426,2122,519.2223214285714,42.128571428571426,2223.4,519.2223214285714,42.128571428571426,2327.8,519.2223214285714,42.128571428571426,2428.6,519.2223214285714,42.128571428571426,2530.5,519.2223214285714,42.128571428571426,2632.1,519.2223214285714,42.128571428571426,2748.3,519.2223214285714,42.128571428571426,2854.6,519.2223214285714,42.128571428571426,2954.6,519.2223214285714,42.128571428571426,3070,519.2223214285714,42.128571428571426,3177,519.2223214285714,42.128571428571426,3277.4,519.2223214285714,42.128571428571426,3378.5,519.2223214285714,42.128571428571426,3489,519.2223214285714,42.128571428571426,3592.9,519.2223214285714,42.128571428571426,3695.4,519.2223214285714,42.128571428571426,3795.6,519.2223214285714,42.128571428571426,3900.9,519.2223214285714,42.128571428571426,4003.4,519.2223214285714,42.128571428571426,4108.2,519.2223214285714,42.128571428571426,4208.3,519.2223214285714,42.128571428571426,4321.9,519.2223214285714,42.128571428571426,4430.5,519.2223214285714,42.128571428571426,4534.8,519.2223214285714,42.128571428571426,4645.8,519.2223214285714,42.128571428571426,4747,519.2223214285714,42.128571428571426,4852.1,519.2223214285714,42.128571428571426,4965.2]","[5062.2,5062.2,2663.2,2006.2,392.8,""smooth"",""up"",""up"",""good_move"",8534.4,3470.9,2952.1,5063.5,518.8,""smooth"",""right"",""right"",""good_move"",11360.7,2824.8,2422.3,8535.9,402.5,""oops"",""up"",""down"",""bad_move"",13979.6,2617.5,2203.4,11362.1,414.1,""smooth"",""right"",""right"",""good_move"",16968.2,2987.6,2409.1,13980.6,578.5,""oops"",""right"",""left"",""bad_move"",19713.3,2743.3,2317.7,16970.1,425.5,""while_blue"",""up"",""right"",""good_move"",22599.3,2884.8,2388.6,19714.5,496.2,""oops"",""up"",""up"",""good_move"",26040.3,3440,2857.5,22600.4,582.4,""oops"",""up"",""right"",""good_move"",28890.8,2849.7,2209.1,26041.1,640.6,""smooth"",""down"",""down"",""bad_move"",31512.1,2618.9,2279.9,28893.2,339,""oops"",""up"",""down"",""bad_move"",34087.3,2574,2068.6,31513.4,505.3,""smooth"",""up"",""up"",""good_move""]","","",""
"4036","","<div style=""width:500px;"">
  <p>What determined the result of this run?</p>
  </div>","73","html-slider-response","73","1158770","0.0-10.0-1.5","144","1","2025-07-09 09:09:16","7701e855f2ef39aa3fd6c71abdc6918a","41.13.188.129","Mozilla/5.0 (Windows NT 10.0; Win64; x64) AppleWebKit/537.36 (KHTML, like Gecko) Chrome/138.0.0.0 Safari/537.36","WebKit","Chrome","138.0.0.0","Windows","10.0","https://app.prolific.com/","en-GB,en-US;q=0.9,en;q=0.8","66a1a7d0d0d19196eb010216","686d226cabeef709c732f8e1","686e3130544e64150cd0d526","66a1a7d0d0d19196eb010216","2025-07-09T09:28:43.405Z","","","","","","AttribQ","","","","","","","","","","","","","","","","","","","","","","","","","","","","","","","","","","","","","","50",""
"3050","","<div style=""width:500px;"">
  <p>How much control did you have over the ball?</p>
  </div>","15","html-slider-response","74","1161823","0.0-10.0-2.5","144","1","2025-07-09 09:09:16","7701e855f2ef39aa3fd6c71abdc6918a","41.13.188.129","Mozilla/5.0 (Windows NT 10.0; Win64; x64) AppleWebKit/537.36 (KHTML, like Gecko) Chrome/138.0.0.0 Safari/537.36","WebKit","Chrome","138.0.0.0","Windows","10.0","https://app.prolific.com/","en-GB,en-US;q=0.9,en;q=0.8","66a1a7d0d0d19196eb010216","686d226cabeef709c732f8e1","686e3130544e64150cd0d526","66a1a7d0d0d19196eb010216","2025-07-09T09:28:46.458Z","","","","","","ControlQ","","","","","","","","","","","","","","","","","","","","","","","","","","","","","","","","","","","","","","50",""
"2721","","<div style=""width:500px;"">
  <p>How would you describe your current emotional state?</p>
  </div>","26","html-slider-response","75","1164546","0.0-10.0-3.5","144","1","2025-07-09 09:09:16","7701e855f2ef39aa3fd6c71abdc6918a","41.13.188.129","Mozilla/5.0 (Windows NT 10.0; Win64; x64) AppleWebKit/537.36 (KHTML, like Gecko) Chrome/138.0.0.0 Safari/537.36","WebKit","Chrome","138.0.0.0","Windows","10.0","https://app.prolific.com/","en-GB,en-US;q=0.9,en;q=0.8","66a1a7d0d0d19196eb010216","686d226cabeef709c732f8e1","686e3130544e64150cd0d526","66a1a7d0d0d19196eb010216","2025-07-09T09:28:49.181Z","","","","","","StressQ","","","","","","","","","","","","","","","","","","","","","","","","","","","","","","","","","","","","","","50",""
"3011","","<div style=""width:500px;"">
  <p>What best describes how you currently feel?</p>
  </div>","78","html-slider-response","76","1167559","0.0-10.0-4.5","144","1","2025-07-09 09:09:16","7701e855f2ef39aa3fd6c71abdc6918a","41.13.188.129","Mozilla/5.0 (Windows NT 10.0; Win64; x64) AppleWebKit/537.36 (KHTML, like Gecko) Chrome/138.0.0.0 Safari/537.36","WebKit","Chrome","138.0.0.0","Windows","10.0","https://app.prolific.com/","en-GB,en-US;q=0.9,en;q=0.8","66a1a7d0d0d19196eb010216","686d226cabeef709c732f8e1","686e3130544e64150cd0d526","66a1a7d0d0d19196eb010216","2025-07-09T09:28:52.195Z","","","","","","MotivationQ","","","","","","","","","","","","","","","","","","","","","","","","","","","","","","","","","","","","","","50",""
"","","","","ctl-task-cpt","77","1202934","0.0-10.0-0.6","144","1","2025-07-09 09:09:16","7701e855f2ef39aa3fd6c71abdc6918a","41.13.188.129","Mozilla/5.0 (Windows NT 10.0; Win64; x64) AppleWebKit/537.36 (KHTML, like Gecko) Chrome/138.0.0.0 Safari/537.36","WebKit","Chrome","138.0.0.0","Windows","10.0","https://app.prolific.com/","en-GB,en-US;q=0.9,en;q=0.8","66a1a7d0d0d19196eb010216","686d226cabeef709c732f8e1","686e3130544e64150cd0d526","66a1a7d0d0d19196eb010216","2025-07-09T09:29:27.570Z","","","","","","","","","","","","","","","","win-only","0","g1:NW,g2:SE","0.4","7","0","1177530.4","1964.7","6981.3","32341.5","1","4","4","6","1","1","1","26","25","0.19696969696969696","1493.6","3000","1410","[""left"",""up""]","{""num_key_presses"":6,""num_perfect"":3,""num_errors"":0,""num_randdir"":3,""num_randdir_good_moves"":2,""num_whilered"":0,""num_whileblue"":0,""num_blue"":2,""num_good_moves"":5}","[292.22232142857143,298.12857142857143,2,292.22232142857143,298.12857142857143,112.7,292.22232142857143,298.12857142857143,218.9,292.22232142857143,298.12857142857143,323,292.22232142857143,298.12857142857143,424.5,292.22232142857143,298.12857142857143,526.8,227.22232142857143,225.12857142857143,631.2,120.22232142857143,90.12857142857143,733.9,105.22232142857143,72.12857142857143,837.9,102.22232142857143,70.12857142857143,953,86.22232142857143,70.12857142857143,1054.6,71.22232142857143,70.12857142857143,1160.7,71.22232142857143,70.12857142857143,1264.1,71.22232142857143,70.12857142857143,1373.3,71.22232142857143,70.12857142857143,1478,71.22232142857143,70.12857142857143,1588.7,71.22232142857143,70.12857142857143,1690.4,71.22232142857143,70.12857142857143,1801,71.22232142857143,70.12857142857143,1911.1,71.22232142857143,70.12857142857143,2016.9,71.22232142857143,70.12857142857143,2125.4,71.22232142857143,70.12857142857143,2232.6,71.22232142857143,70.12857142857143,2341.9,71.22232142857143,70.12857142857143,2445.9,71.22232142857143,70.12857142857143,2558.8,71.22232142857143,70.12857142857143,2659.1,71.22232142857143,70.12857142857143,2767.3,71.22232142857143,70.12857142857143,2868.5,71.22232142857143,70.12857142857143,2974.1,71.22232142857143,70.12857142857143,3076.2,71.22232142857143,70.12857142857143,3180.5,71.22232142857143,70.12857142857143,3286.1,71.22232142857143,70.12857142857143,3389.6,71.22232142857143,70.12857142857143,3492.6,71.22232142857143,70.12857142857143,3603.9,71.22232142857143,70.12857142857143,3704.1,71.22232142857143,70.12857142857143,3813.9,71.22232142857143,70.12857142857143,3926.7,71.22232142857143,70.12857142857143,4027.7,71.22232142857143,70.12857142857143,4142.9,71.22232142857143,70.12857142857143,4244.3,71.22232142857143,70.12857142857143,4349.2,71.22232142857143,70.12857142857143,4459.4,71.22232142857143,70.12857142857143,4575.2,71.22232142857143,70.12857142857143,4688.6,71.22232142857143,70.12857142857143,4798.4,71.22232142857143,70.12857142857143,4909.5]","[1362.4,1362.4,1000,0,362.4,""smooth"",""left"",""left"",""good_move"",4828.5,3465.2,2218.6,1363.3,1246.6,""smooth"",""up"",""up"",""good_move"",15775.7,10904.4,2806,12297.9,671.8,""oops"",""left"",""right"",""bad_move"",18642.8,2865.8,2290,15777,575.8,""smooth"",""up"",""up"",""good_move"",22291.8,3648.1,3042.9,18643.7,605.2,""oops"",""left"",""left"",""good_move"",25189.5,2896.5,2256.6,22293,640,""oops"",""left"",""left"",""good_move""]","","",""
"3593","","<div style=""width:500px;"">
  <p>What determined the result of this run?</p>
  </div>","88","html-slider-response","78","1206532","0.0-10.0-1.6","144","1","2025-07-09 09:09:16","7701e855f2ef39aa3fd6c71abdc6918a","41.13.188.129","Mozilla/5.0 (Windows NT 10.0; Win64; x64) AppleWebKit/537.36 (KHTML, like Gecko) Chrome/138.0.0.0 Safari/537.36","WebKit","Chrome","138.0.0.0","Windows","10.0","https://app.prolific.com/","en-GB,en-US;q=0.9,en;q=0.8","66a1a7d0d0d19196eb010216","686d226cabeef709c732f8e1","686e3130544e64150cd0d526","66a1a7d0d0d19196eb010216","2025-07-09T09:29:31.167Z","","","","","","AttribQ","","","","","","","","","","","","","","","","","","","","","","","","","","","","","","","","","","","","","","50",""
"3594","","<div style=""width:500px;"">
  <p>How much control did you have over the ball?</p>
  </div>","87","html-slider-response","79","1210131","0.0-10.0-2.6","144","1","2025-07-09 09:09:16","7701e855f2ef39aa3fd6c71abdc6918a","41.13.188.129","Mozilla/5.0 (Windows NT 10.0; Win64; x64) AppleWebKit/537.36 (KHTML, like Gecko) Chrome/138.0.0.0 Safari/537.36","WebKit","Chrome","138.0.0.0","Windows","10.0","https://app.prolific.com/","en-GB,en-US;q=0.9,en;q=0.8","66a1a7d0d0d19196eb010216","686d226cabeef709c732f8e1","686e3130544e64150cd0d526","66a1a7d0d0d19196eb010216","2025-07-09T09:29:34.766Z","","","","","","ControlQ","","","","","","","","","","","","","","","","","","","","","","","","","","","","","","","","","","","","","","50",""
"3250","","<div style=""width:500px;"">
  <p>How would you describe your current emotional state?</p>
  </div>","26","html-slider-response","80","1213383","0.0-10.0-3.6","144","1","2025-07-09 09:09:16","7701e855f2ef39aa3fd6c71abdc6918a","41.13.188.129","Mozilla/5.0 (Windows NT 10.0; Win64; x64) AppleWebKit/537.36 (KHTML, like Gecko) Chrome/138.0.0.0 Safari/537.36","WebKit","Chrome","138.0.0.0","Windows","10.0","https://app.prolific.com/","en-GB,en-US;q=0.9,en;q=0.8","66a1a7d0d0d19196eb010216","686d226cabeef709c732f8e1","686e3130544e64150cd0d526","66a1a7d0d0d19196eb010216","2025-07-09T09:29:38.018Z","","","","","","StressQ","","","","","","","","","","","","","","","","","","","","","","","","","","","","","","","","","","","","","","50",""
"3239","","<div style=""width:500px;"">
  <p>What best describes how you currently feel?</p>
  </div>","87","html-slider-response","81","1216627","0.0-10.0-4.6","144","1","2025-07-09 09:09:16","7701e855f2ef39aa3fd6c71abdc6918a","41.13.188.129","Mozilla/5.0 (Windows NT 10.0; Win64; x64) AppleWebKit/537.36 (KHTML, like Gecko) Chrome/138.0.0.0 Safari/537.36","WebKit","Chrome","138.0.0.0","Windows","10.0","https://app.prolific.com/","en-GB,en-US;q=0.9,en;q=0.8","66a1a7d0d0d19196eb010216","686d226cabeef709c732f8e1","686e3130544e64150cd0d526","66a1a7d0d0d19196eb010216","2025-07-09T09:29:41.262Z","","","","","","MotivationQ","","","","","","","","","","","","","","","","","","","","","","","","","","","","","","","","","","","","","","50",""
"","","","","ctl-task-cpt","82","1279110","0.0-10.0-0.7","144","1","2025-07-09 09:09:16","7701e855f2ef39aa3fd6c71abdc6918a","41.13.188.129","Mozilla/5.0 (Windows NT 10.0; Win64; x64) AppleWebKit/537.36 (KHTML, like Gecko) Chrome/138.0.0.0 Safari/537.36","WebKit","Chrome","138.0.0.0","Windows","10.0","https://app.prolific.com/","en-GB,en-US;q=0.9,en;q=0.8","66a1a7d0d0d19196eb010216","686d226cabeef709c732f8e1","686e3130544e64150cd0d526","66a1a7d0d0d19196eb010216","2025-07-09T09:30:43.745Z","","","","","","","","","","","","","","","","win-only","0","g1:NW,g2:SE","0.3","8","0","1226598.8","1672.2","6678.1","59459.4","1","4","8","6","2","-8","-9","17","26","0.12878787878787878","1593.9","3000","-1550","[""down"",""right""]","{""num_key_presses"":14,""num_perfect"":5,""num_errors"":1,""num_randdir"":8,""num_randdir_good_moves"":4,""num_whilered"":0,""num_whileblue"":0,""num_blue"":3,""num_good_moves"":8}","[293.22232142857143,295.12857142857143,0.9,293.22232142857143,295.12857142857143,104.1,293.22232142857143,295.12857142857143,213.2,293.22232142857143,295.12857142857143,316.4,293.22232142857143,295.12857142857143,420.2,293.22232142857143,295.12857142857143,520.2,322.22232142857143,340.12857142857143,623.3,410.22232142857143,461.12857142857143,730.1,447.22232142857143,509.12857142857143,837.2,464.22232142857143,530.1285714285714,948.5,469.22232142857143,530.1285714285714,1052.5,496.22232142857143,533.1285714285714,1157.1,523.2223214285714,541.1285714285714,1262.6,523.2223214285714,541.1285714285714,1365.2,523.2223214285714,541.1285714285714,1468.6,523.2223214285714,541.1285714285714,1570.6,523.2223214285714,541.1285714285714,1680.1,523.2223214285714,541.1285714285714,1781.1,523.2223214285714,541.1285714285714,1881.9,523.2223214285714,541.1285714285714,1984.5,523.2223214285714,541.1285714285714,2093.4,523.2223214285714,541.1285714285714,2193.7,523.2223214285714,541.1285714285714,2293.9,523.2223214285714,541.1285714285714,2395.1,523.2223214285714,541.1285714285714,2499.6,523.2223214285714,541.1285714285714,2600,523.2223214285714,541.1285714285714,2715,523.2223214285714,541.1285714285714,2817.8,523.2223214285714,541.1285714285714,2921.4,523.2223214285714,541.1285714285714,3032.3,523.2223214285714,541.1285714285714,3132.5,523.2223214285714,541.1285714285714,3235.1,523.2223214285714,541.1285714285714,3336.7,523.2223214285714,541.1285714285714,3443.8,523.2223214285714,541.1285714285714,3560.2,523.2223214285714,541.1285714285714,3677.4,523.2223214285714,541.1285714285714,3797.3,523.2223214285714,541.1285714285714,3906.5,523.2223214285714,541.1285714285714,4014.2,523.2223214285714,541.1285714285714,4115.5,523.2223214285714,541.1285714285714,4218.3,523.2223214285714,541.1285714285714,4321.9,523.2223214285714,541.1285714285714,4427.1,523.2223214285714,541.1285714285714,4530.6,523.2223214285714,541.1285714285714,4640.2,523.2223214285714,541.1285714285714,4742.7,523.2223214285714,541.1285714285714,4862.8,523.2223214285714,541.1285714285714,4966]","[1383.6,1383.7,1000,0,383.7,""smooth"",""right"",""right"",""good_move"",3779.8,2394.7,2116.8,1385.1,277.9,""oops"",""right"",""down"",""good_move"",6866.7,3085.4,2745.9,3781.3,339.5,""oops"",""right"",""left"",""bad_move"",9749.8,2881.8,2510.6,6868,371.2,""oops"",""left"",""right"",""good_move"",12951.8,3200.6,2695.8,9751.2,504.8,""oops"",""down"",""right"",""good_move"",15814.7,2862,2416.1,12952.8,445.9,""smooth"",""down"",""down"",""good_move"",19304,3482.1,3046.8,15822.1,435.2,""oops"",""up"",""left"",""bad_move"",21837,2530.9,2107.1,19306.2,423.8,""oops"",""down"",""up"",""bad_move"",24528.2,2690,2343.1,21838.2,346.9,""smooth"",""right"",""right"",""good_move"",27331.3,2802,2211.7,24529.4,590.3,""oops"",""right"",""right"",""good_move"",37328.6,9995.3,1980.8,34719.5,628.3,""smooth"",""up"",""up"",""bad_move"",39453.4,2123.9,1738.6,37329.5,385.3,""smooth"",""down"",""down"",""good_move"",43102.9,3648.3,3033.9,39454.6,614.4,""oops"",""down"",""left"",""bad_move"",45639.4,2535.1,2733.7,43104.3,-198.6,""error"",""-"",""-"",""no_move""]","","",""
"3305","","<div style=""width:500px;"">
  <p>What determined the result of this run?</p>
  </div>","67","html-slider-response","83","1282418","0.0-10.0-1.7","144","1","2025-07-09 09:09:16","7701e855f2ef39aa3fd6c71abdc6918a","41.13.188.129","Mozilla/5.0 (Windows NT 10.0; Win64; x64) AppleWebKit/537.36 (KHTML, like Gecko) Chrome/138.0.0.0 Safari/537.36","WebKit","Chrome","138.0.0.0","Windows","10.0","https://app.prolific.com/","en-GB,en-US;q=0.9,en;q=0.8","66a1a7d0d0d19196eb010216","686d226cabeef709c732f8e1","686e3130544e64150cd0d526","66a1a7d0d0d19196eb010216","2025-07-09T09:30:47.054Z","","","","","","AttribQ","","","","","","","","","","","","","","","","","","","","","","","","","","","","","","","","","","","","","","50",""
"3969","","<div style=""width:500px;"">
  <p>How much control did you have over the ball?</p>
  </div>","77","html-slider-response","84","1286390","0.0-10.0-2.7","144","1","2025-07-09 09:09:16","7701e855f2ef39aa3fd6c71abdc6918a","41.13.188.129","Mozilla/5.0 (Windows NT 10.0; Win64; x64) AppleWebKit/537.36 (KHTML, like Gecko) Chrome/138.0.0.0 Safari/537.36","WebKit","Chrome","138.0.0.0","Windows","10.0","https://app.prolific.com/","en-GB,en-US;q=0.9,en;q=0.8","66a1a7d0d0d19196eb010216","686d226cabeef709c732f8e1","686e3130544e64150cd0d526","66a1a7d0d0d19196eb010216","2025-07-09T09:30:51.025Z","","","","","","ControlQ","","","","","","","","","","","","","","","","","","","","","","","","","","","","","","","","","","","","","","50",""
"5230","","<div style=""width:500px;"">
  <p>How would you describe your current emotional state?</p>
  </div>","47","html-slider-response","85","1291625","0.0-10.0-3.7","144","1","2025-07-09 09:09:16","7701e855f2ef39aa3fd6c71abdc6918a","41.13.188.129","Mozilla/5.0 (Windows NT 10.0; Win64; x64) AppleWebKit/537.36 (KHTML, like Gecko) Chrome/138.0.0.0 Safari/537.36","WebKit","Chrome","138.0.0.0","Windows","10.0","https://app.prolific.com/","en-GB,en-US;q=0.9,en;q=0.8","66a1a7d0d0d19196eb010216","686d226cabeef709c732f8e1","686e3130544e64150cd0d526","66a1a7d0d0d19196eb010216","2025-07-09T09:30:56.260Z","","","","","","StressQ","","","","","","","","","","","","","","","","","","","","","","","","","","","","","","","","","","","","","","50",""
"2771","","<div style=""width:500px;"">
  <p>What best describes how you currently feel?</p>
  </div>","78","html-slider-response","86","1294399","0.0-10.0-4.7","144","1","2025-07-09 09:09:16","7701e855f2ef39aa3fd6c71abdc6918a","41.13.188.129","Mozilla/5.0 (Windows NT 10.0; Win64; x64) AppleWebKit/537.36 (KHTML, like Gecko) Chrome/138.0.0.0 Safari/537.36","WebKit","Chrome","138.0.0.0","Windows","10.0","https://app.prolific.com/","en-GB,en-US;q=0.9,en;q=0.8","66a1a7d0d0d19196eb010216","686d226cabeef709c732f8e1","686e3130544e64150cd0d526","66a1a7d0d0d19196eb010216","2025-07-09T09:30:59.034Z","","","","","","MotivationQ","","","","","","","","","","","","","","","","","","","","","","","","","","","","","","","","","","","","","","50",""
