"rt","response_timestamp","stimulus","response","trial_type","trial_index","time_elapsed","internal_node_id","run_id","condition","recorded_at","source_code_version","ip","user_agent","device","browser","browser_version","platform","platform_version","referer","accept_language","PROLIFIC_PID","STUDY_ID","SESSION_ID","prolific_id","realtime","view_history","question_order","consent","success","question_id","eventType","responses","item_order","radio_event_ids","radio_event_times","key_event_times","mouse_event_times","straightlining","zigzagging","honeypot","which_type","canvas_config","goals_layout","control_level","trial_number","tutorial_trial_number","trial_start_time","phase1_start_time","phase2_start_time","phase3_start_time","goal_1_value","goal_1_distance","goal_2_value","goal_2_distance","goal_selected","outcome","outcome_total","participant_final_score","participant_initial_score","participant_final_score_prop","goal_choice_rt","allocated_time","allocated_time_remaining","goal_direction","counts","mouse_movements","key_presses","correct","slider_start"
"6869","1752052152576","<p style='font-size:40px;line-height:1.25'><strong>Welcome to the experiment!</strong></p><p style='font-size:1.1em;line-height:1.25'>Thank you for your interest in our experiment! Before you begin, it is important that we obtain your informed consent to participate in the study.</p><p style='font-size:1.1em;line-height:1.25'>On the next screen will be an <strong>information sheet</strong> for you to read. To participate in the study we need you to read this information sheet and the following consent form carefully. If you agree with all the statements, please click the <strong>I agree</strong> button.</p><p style='font-size:1.1em;line-height:1.25'>Press <strong>Next</strong> to read the information sheet.</p>","0","custom-html-button-response","0","6876","0.0-0.0","156","1","2025-07-09 09:10:20","7701e855f2ef39aa3fd6c71abdc6918a","41.123.66.187","Mozilla/5.0 (Windows NT 10.0; Win64; x64) AppleWebKit/537.36 (KHTML, like Gecko) Chrome/138.0.0.0 Safari/537.36","WebKit","Chrome","138.0.0.0","Windows","10.0","https://app.prolific.com/","en-GB,en-US;q=0.9,en;q=0.8","67e074f58a5ea7d9897f3223","686d226cabeef709c732f8e1","686e314429c080798df9d92d","67e074f58a5ea7d9897f3223","2025-07-09T09:09:12.582Z","","","","","","","","","","","","","","","","","","","","","","","","","","","","","","","","","","","","","","","","","","","",""
"276592","","","","instructions","1","283476","0.0-1.0","156","1","2025-07-09 09:10:20","7701e855f2ef39aa3fd6c71abdc6918a","41.123.66.187","Mozilla/5.0 (Windows NT 10.0; Win64; x64) AppleWebKit/537.36 (KHTML, like Gecko) Chrome/138.0.0.0 Safari/537.36","WebKit","Chrome","138.0.0.0","Windows","10.0","https://app.prolific.com/","en-GB,en-US;q=0.9,en;q=0.8","67e074f58a5ea7d9897f3223","686d226cabeef709c732f8e1","686e314429c080798df9d92d","67e074f58a5ea7d9897f3223","","[{""page_index"":0,""viewing_time"":217560},{""page_index"":1,""viewing_time"":59031}]","","","","","","","","","","","","","","","","","","","","","","","","","","","","","","","","","","","","","","","","","","",""
"19955","","","{""Q0"":"""",""Q1"":"""",""Q2"":"""",""Q3"":"""",""Q4"":"""",""Q5"":"""",""Q6"":""I agree""}","survey-multi-choice","2","303441","0.0-2.0","156","1","2025-07-09 09:10:20","7701e855f2ef39aa3fd6c71abdc6918a","41.123.66.187","Mozilla/5.0 (Windows NT 10.0; Win64; x64) AppleWebKit/537.36 (KHTML, like Gecko) Chrome/138.0.0.0 Safari/537.36","WebKit","Chrome","138.0.0.0","Windows","10.0","https://app.prolific.com/","en-GB,en-US;q=0.9,en;q=0.8","67e074f58a5ea7d9897f3223","686d226cabeef709c732f8e1","686e314429c080798df9d92d","67e074f58a5ea7d9897f3223","","","[0,1,2,3,4,5,6]","true","","","","","","","","","","","","","","","","","","","","","","","","","","","","","","","","","","","","","","","","",""
"67306","","","","fullscreen","3","371761","0.0-4.0","156","1","2025-07-09 09:10:20","7701e855f2ef39aa3fd6c71abdc6918a","41.123.66.187","Mozilla/5.0 (Windows NT 10.0; Win64; x64) AppleWebKit/537.36 (KHTML, like Gecko) Chrome/138.0.0.0 Safari/537.36","WebKit","Chrome","138.0.0.0","Windows","10.0","https://app.prolific.com/","en-GB,en-US;q=0.9,en;q=0.8","67e074f58a5ea7d9897f3223","686d226cabeef709c732f8e1","686e314429c080798df9d92d","67e074f58a5ea7d9897f3223","","","","","true","","","","","","","","","","","","","","","","","","","","","","","","","","","","","","","","","","","","","","","",""
"15850","1752052533320"," <p style='font-size:1.1em;line-height:1.25'>Thank you for completing the consent form and closing all other tabs.</p><p style='font-size:1.1em;line-height:1.25'>We will now invite you to fill in some demographic information and questionnaires, before starting the game.<br>This will take about 5 minutes.<br></p><p style='font-size:1.1em;line-height:1.25'>Press the <strong>Next</strong> button to continue.</p>","0","custom-html-button-response","4","387618","0.0-5.0","156","1","2025-07-09 09:10:20","7701e855f2ef39aa3fd6c71abdc6918a","41.123.66.187","Mozilla/5.0 (Windows NT 10.0; Win64; x64) AppleWebKit/537.36 (KHTML, like Gecko) Chrome/138.0.0.0 Safari/537.36","WebKit","Chrome","138.0.0.0","Windows","10.0","https://app.prolific.com/","en-GB,en-US;q=0.9,en;q=0.8","67e074f58a5ea7d9897f3223","686d226cabeef709c732f8e1","686e314429c080798df9d92d","67e074f58a5ea7d9897f3223","2025-07-09T09:15:33.322Z","","","","","","","","","","","","","","","","","","","","","","","","","","","","","","","","","","","","","","","","","","","",""
"8432","","","{""age"":""31""}","survey-text","5","396076","0.0-6.0-0.0","156","1","2025-07-09 09:10:20","7701e855f2ef39aa3fd6c71abdc6918a","41.123.66.187","Mozilla/5.0 (Windows NT 10.0; Win64; x64) AppleWebKit/537.36 (KHTML, like Gecko) Chrome/138.0.0.0 Safari/537.36","WebKit","Chrome","138.0.0.0","Windows","10.0","https://app.prolific.com/","en-GB,en-US;q=0.9,en;q=0.8","67e074f58a5ea7d9897f3223","686d226cabeef709c732f8e1","686e314429c080798df9d92d","67e074f58a5ea7d9897f3223","","","","","","0","demographics","","","","","","","","","","","","","","","","","","","","","","","","","","","","","","","","","","","","","",""
"5091","","","{""gender_identity"":""female/woman""}","survey-multi-choice","6","401172","0.0-6.0-1.0","156","1","2025-07-09 09:10:20","7701e855f2ef39aa3fd6c71abdc6918a","41.123.66.187","Mozilla/5.0 (Windows NT 10.0; Win64; x64) AppleWebKit/537.36 (KHTML, like Gecko) Chrome/138.0.0.0 Safari/537.36","WebKit","Chrome","138.0.0.0","Windows","10.0","https://app.prolific.com/","en-GB,en-US;q=0.9,en;q=0.8","67e074f58a5ea7d9897f3223","686d226cabeef709c732f8e1","686e314429c080798df9d92d","67e074f58a5ea7d9897f3223","","","[0]","","","1","demographics","","","","","","","","","","","","","","","","","","","","","","","","","","","","","","","","","","","","","",""
"6837","","","{""assigned_sex"":""female""}","survey-multi-choice","7","408013","0.0-6.0-2.0","156","1","2025-07-09 09:10:20","7701e855f2ef39aa3fd6c71abdc6918a","41.123.66.187","Mozilla/5.0 (Windows NT 10.0; Win64; x64) AppleWebKit/537.36 (KHTML, like Gecko) Chrome/138.0.0.0 Safari/537.36","WebKit","Chrome","138.0.0.0","Windows","10.0","https://app.prolific.com/","en-GB,en-US;q=0.9,en;q=0.8","67e074f58a5ea7d9897f3223","686d226cabeef709c732f8e1","686e314429c080798df9d92d","67e074f58a5ea7d9897f3223","","","[0]","","","2","demographics","","","","","","","","","","","","","","","","","","","","","","","","","","","","","","","","","","","","","",""
"9818","","","{""menstrual_cycle"":""Yes""}","survey-multi-choice","8","417836","0.0-6.0-3.0","156","1","2025-07-09 09:10:20","7701e855f2ef39aa3fd6c71abdc6918a","41.123.66.187","Mozilla/5.0 (Windows NT 10.0; Win64; x64) AppleWebKit/537.36 (KHTML, like Gecko) Chrome/138.0.0.0 Safari/537.36","WebKit","Chrome","138.0.0.0","Windows","10.0","https://app.prolific.com/","en-GB,en-US;q=0.9,en;q=0.8","67e074f58a5ea7d9897f3223","686d226cabeef709c732f8e1","686e314429c080798df9d92d","67e074f58a5ea7d9897f3223","","","[0]","","","4","demographics","","","","","","","","","","","","","","","","","","","","","","","","","","","","","","","","","","","","","",""
"20825","","","{""education"":""Master's Degree (e.g., MSc)""}","survey-multi-choice","9","438665","0.0-6.0-4.0","156","1","2025-07-09 09:10:20","7701e855f2ef39aa3fd6c71abdc6918a","41.123.66.187","Mozilla/5.0 (Windows NT 10.0; Win64; x64) AppleWebKit/537.36 (KHTML, like Gecko) Chrome/138.0.0.0 Safari/537.36","WebKit","Chrome","138.0.0.0","Windows","10.0","https://app.prolific.com/","en-GB,en-US;q=0.9,en;q=0.8","67e074f58a5ea7d9897f3223","686d226cabeef709c732f8e1","686e314429c080798df9d92d","67e074f58a5ea7d9897f3223","","","[0]","","","5","demographics","","","","","","","","","","","","","","","","","","","","","","","","","","","","","","","","","","","","","",""
"9956","","","{""education"":""Master's Degree (e.g., MSc)""}","survey-multi-choice","10","448628","0.0-6.0-5.0","156","1","2025-07-09 09:10:20","7701e855f2ef39aa3fd6c71abdc6918a","41.123.66.187","Mozilla/5.0 (Windows NT 10.0; Win64; x64) AppleWebKit/537.36 (KHTML, like Gecko) Chrome/138.0.0.0 Safari/537.36","WebKit","Chrome","138.0.0.0","Windows","10.0","https://app.prolific.com/","en-GB,en-US;q=0.9,en;q=0.8","67e074f58a5ea7d9897f3223","686d226cabeef709c732f8e1","686e314429c080798df9d92d","67e074f58a5ea7d9897f3223","2025-07-09T09:16:34.332Z","","[0]","","","6","demographics","","","","","","","","","","","","","","","","","","","","","","","","","","","","","","","","","","","","","",""
"118427","","","{""mental_health_condition"":""anxiety"",""mental_health_treatment"":""no"",""psychiatric_medication"":""none""}","survey-text","11","567064","0.0-7.0-0.0","156","1","2025-07-09 09:10:20","7701e855f2ef39aa3fd6c71abdc6918a","41.123.66.187","Mozilla/5.0 (Windows NT 10.0; Win64; x64) AppleWebKit/537.36 (KHTML, like Gecko) Chrome/138.0.0.0 Safari/537.36","WebKit","Chrome","138.0.0.0","Windows","10.0","https://app.prolific.com/","en-GB,en-US;q=0.9,en;q=0.8","67e074f58a5ea7d9897f3223","686d226cabeef709c732f8e1","686e314429c080798df9d92d","67e074f58a5ea7d9897f3223","2025-07-09T09:18:32.769Z","","","","","1","mental_health","","","","","","","","","","","","","","","","","","","","","","","","","","","","","","","","","","","","","",""
"19408","","","{""depression_history"":[""Yes""]}","survey-multi-select","12","586483","0.0-7.0-1.0","156","1","2025-07-09 09:10:20","7701e855f2ef39aa3fd6c71abdc6918a","41.123.66.187","Mozilla/5.0 (Windows NT 10.0; Win64; x64) AppleWebKit/537.36 (KHTML, like Gecko) Chrome/138.0.0.0 Safari/537.36","WebKit","Chrome","138.0.0.0","Windows","10.0","https://app.prolific.com/","en-GB,en-US;q=0.9,en;q=0.8","67e074f58a5ea7d9897f3223","686d226cabeef709c732f8e1","686e314429c080798df9d92d","67e074f58a5ea7d9897f3223","","","[0]","","","","mental_health","","","","","","","","","","","","","","","","","","","","","","","","","","","","","","","","","","","","","",""
"24188","","","{""depression_episodes"":""1-2"",""depression_recent"":""More than 1 year ago""}","survey-multi-choice","13","610675","0.0-7.0-2.0-0.0","156","1","2025-07-09 09:10:20","7701e855f2ef39aa3fd6c71abdc6918a","41.123.66.187","Mozilla/5.0 (Windows NT 10.0; Win64; x64) AppleWebKit/537.36 (KHTML, like Gecko) Chrome/138.0.0.0 Safari/537.36","WebKit","Chrome","138.0.0.0","Windows","10.0","https://app.prolific.com/","en-GB,en-US;q=0.9,en;q=0.8","67e074f58a5ea7d9897f3223","686d226cabeef709c732f8e1","686e314429c080798df9d92d","67e074f58a5ea7d9897f3223","2025-07-09T09:19:16.380Z","","[0,1]","","","3","mental_health","","","","","","","","","","","","","","","","","","","","","","","","","","","","","","","","","","","","","",""
"131028.09999999963","","","","survey-template","14","741714","0.0-7.0-3.0","156","1","2025-07-09 09:10:20","7701e855f2ef39aa3fd6c71abdc6918a","41.123.66.187","Mozilla/5.0 (Windows NT 10.0; Win64; x64) AppleWebKit/537.36 (KHTML, like Gecko) Chrome/138.0.0.0 Safari/537.36","WebKit","Chrome","138.0.0.0","Windows","10.0","https://app.prolific.com/","en-GB,en-US;q=0.9,en;q=0.8","67e074f58a5ea7d9897f3223","686d226cabeef709c732f8e1","686e314429c080798df9d92d","67e074f58a5ea7d9897f3223","2025-07-09T09:21:27.418Z","","","","","","ius","{""Q01"":""1"",""Q02"":""2"",""Q03"":""0"",""Q04"":""3"",""Q05"":""2"",""Q06"":""1"",""Q07"":""2"",""Q08"":""0"",""Q09"":""3"",""Q10"":""4"",""Q11"":""1"",""Q12"":""3"",""Q13"":""2""}","[0,1,2,3,4,5,6,7,8,9,10,11,12]","[""Q01"",""Q02"",""Q03"",""Q04"",""Q05"",""Q06"",""Q07"",""Q08"",""Q09"",""Q09"",""Q10"",""Q11"",""Q12"",""Q13""]","[14550.099999999627,21983.900000000373,39878.5,48916.29999999888,58126.29999999888,66851.40000000037,76241.19999999925,88937.09999999963,103153.59999999963,106211.19999999925,111306.09999999963,117349.09999999963,123143,129480.69999999925]","[]","[14550.099999999627,21983.900000000373,39878.5,48916.29999999888,58126.29999999888,66851.40000000037,76241.19999999925,87141.5,88937.09999999963,103153.59999999963,106211.19999999925,111306.09999999963,117349.09999999963,123143,129480.69999999925,131017.69999999925]","0.3076923076923077","0.5","0","","","","","","","","","","","","","","","","","","","","","","","","","","","","",""
"7683","1752052895105","<p style='font-size:1.1em;line-height:1.25'>In the following, we will ask you a few questions relating to your experiences over the past month.<br></p><p style='font-size:1.1em;line-height:1.25'>Press the <strong>Next</strong> button to continue.</p>","0","custom-html-button-response","15","749402","0.0-7.0-4.0","156","1","2025-07-09 09:10:20","7701e855f2ef39aa3fd6c71abdc6918a","41.123.66.187","Mozilla/5.0 (Windows NT 10.0; Win64; x64) AppleWebKit/537.36 (KHTML, like Gecko) Chrome/138.0.0.0 Safari/537.36","WebKit","Chrome","138.0.0.0","Windows","10.0","https://app.prolific.com/","en-GB,en-US;q=0.9,en;q=0.8","67e074f58a5ea7d9897f3223","686d226cabeef709c732f8e1","686e314429c080798df9d92d","67e074f58a5ea7d9897f3223","2025-07-09T09:21:35.106Z","","","","","","","","","","","","","","","","","","","","","","","","","","","","","","","","","","","","","","","","","","","",""
"126784.90000000037","","","","survey-template","16","876194","0.0-7.0-5.0","156","1","2025-07-09 09:10:20","7701e855f2ef39aa3fd6c71abdc6918a","41.123.66.187","Mozilla/5.0 (Windows NT 10.0; Win64; x64) AppleWebKit/537.36 (KHTML, like Gecko) Chrome/138.0.0.0 Safari/537.36","WebKit","Chrome","138.0.0.0","Windows","10.0","https://app.prolific.com/","en-GB,en-US;q=0.9,en;q=0.8","67e074f58a5ea7d9897f3223","686d226cabeef709c732f8e1","686e314429c080798df9d92d","67e074f58a5ea7d9897f3223","2025-07-09T09:23:41.898Z","","","","","","pss","{""Q01"":""3"",""Q02"":""2"",""Q03"":""3"",""Q04"":""1"",""Q05"":""1"",""Q06"":""1"",""Q07"":""2"",""Q08"":""2"",""Q09"":""1"",""Q10"":""1""}","[0,1,2,3,4,5,6,7,8,9]","[""Q01"",""Q02"",""Q03"",""Q02"",""Q04"",""Q05"",""Q06"",""Q07"",""Q08"",""Q09"",""Q10""]","[24867.400000000373,39466.09999999963,46097.29999999888,48536.90000000037,60368.09999999963,68277.40000000037,81650.90000000037,88604.79999999888,99789.09999999963,109974.5,124630.69999999925]","[]","[35.59999999962747,24867.400000000373,39466.09999999963,46097.29999999888,48536.90000000037,60368.09999999963,68277.40000000037,80007.69999999925,81650.90000000037,88604.79999999888,98050.59999999963,99789.09999999963,109974.5,124630.69999999925,126775.09999999963]","0.4","0.4444444444444444","0","","","","","","","","","","","","","","","","","","","","","","","","","","","","",""
"6542","1752053028443","<p style='font-size:1.1em;line-height:1.25'>Thank you for your answers! Now we will ask you a few more questions relating to your feelings in the last 24 hours.<br></p><p style='font-size:1.1em;line-height:1.25'>Press the <strong>Next</strong> button to continue.</p>","0","custom-html-button-response","17","882740","0.0-7.0-6.0","156","1","2025-07-09 09:10:20","7701e855f2ef39aa3fd6c71abdc6918a","41.123.66.187","Mozilla/5.0 (Windows NT 10.0; Win64; x64) AppleWebKit/537.36 (KHTML, like Gecko) Chrome/138.0.0.0 Safari/537.36","WebKit","Chrome","138.0.0.0","Windows","10.0","https://app.prolific.com/","en-GB,en-US;q=0.9,en;q=0.8","67e074f58a5ea7d9897f3223","686d226cabeef709c732f8e1","686e314429c080798df9d92d","67e074f58a5ea7d9897f3223","2025-07-09T09:23:48.445Z","","","","","","","","","","","","","","","","","","","","","","","","","","","","","","","","","","","","","","","","","","","",""
"138786.09999999963","","","","survey-template","18","1021538","0.0-7.0-7.0","156","1","2025-07-09 09:10:20","7701e855f2ef39aa3fd6c71abdc6918a","41.123.66.187","Mozilla/5.0 (Windows NT 10.0; Win64; x64) AppleWebKit/537.36 (KHTML, like Gecko) Chrome/138.0.0.0 Safari/537.36","WebKit","Chrome","138.0.0.0","Windows","10.0","https://app.prolific.com/","en-GB,en-US;q=0.9,en;q=0.8","67e074f58a5ea7d9897f3223","686d226cabeef709c732f8e1","686e314429c080798df9d92d","67e074f58a5ea7d9897f3223","2025-07-09T09:26:07.242Z","","","","","","drsp","{""Q01"":""0"",""Q02"":""0"",""Q03"":""0"",""Q04"":""1"",""Q05"":""1"",""Q06"":""0"",""Q07"":""0"",""Q08"":""0"",""Q09"":""1"",""Q10"":""0"",""Q11"":""2"",""Q12"":""3"",""Q13"":""3"",""Q14"":""3"",""Q15"":""0"",""Q16"":""1"",""Q17"":""0"",""Q18"":""0"",""Q19"":""3"",""Q20"":""1"",""Q21"":""0""}","[0,1,2,3,4,5,6,7,8,9,10,11,12,13,14,15,16,17,18,19,20]","[""Q01"",""Q02"",""Q03"",""Q04"",""Q05"",""Q06"",""Q07"",""Q08"",""Q09"",""Q10"",""Q10"",""Q11"",""Q12"",""Q13"",""Q14"",""Q14"",""Q15"",""Q16"",""Q17"",""Q18"",""Q19"",""Q20"",""Q21""]","[10069.900000000373,14843.599999999627,17919.300000000745,23741.900000000373,29219.599999999627,34381.5,37609.5,43380.09999999963,47897.59999999963,53725.59999999963,57303.300000000745,61769.800000000745,68094.90000000037,72695.40000000037,79289.19999999925,81894.69999999925,91096.5,94657.59999999963,98511.19999999925,106271.90000000037,118288.69999999925,128833.90000000037,137180.59999999963]","[]","[48.09999999962747,10069.900000000373,14843.599999999627,17919.300000000745,23741.900000000373,27367.800000000745,29219.599999999627,34381.5,37609.5,43380.09999999963,47897.59999999963,53725.59999999963,57303.300000000745,61769.800000000745,68094.90000000037,72695.40000000037,77750.19999999925,79289.19999999925,81894.69999999925,87663.59999999963,89616.59999999963,91096.5,94657.59999999963,98511.19999999925,105390.09999999963,106271.90000000037,117407.90000000037,118288.69999999925,128833.90000000037,137180.59999999963,138769.5]","0.5238095238095238","0.4","0","","","","","","","","","","","","","","","","","","","","","","","","","","","","",""
"24462.099999999627","","","","survey-template","19","1046007","0.0-7.0-8.0","156","1","2025-07-09 09:10:20","7701e855f2ef39aa3fd6c71abdc6918a","41.123.66.187","Mozilla/5.0 (Windows NT 10.0; Win64; x64) AppleWebKit/537.36 (KHTML, like Gecko) Chrome/138.0.0.0 Safari/537.36","WebKit","Chrome","138.0.0.0","Windows","10.0","https://app.prolific.com/","en-GB,en-US;q=0.9,en;q=0.8","67e074f58a5ea7d9897f3223","686d226cabeef709c732f8e1","686e314429c080798df9d92d","67e074f58a5ea7d9897f3223","2025-07-09T09:26:31.711Z","","","","","","stress","{""Q01"":""1"",""Q02"":""2"",""Q03"":""0""}","[0,1,2]","[""Q01"",""Q02"",""Q03""]","[9252.800000000745,15195.099999999627,21828.400000000373]","[]","[9252.800000000745,15195.099999999627,21828.400000000373,24457.300000000745]","0.3333333333333333","0","0","","","","","","","","","","","","","","","","","","","","","","","","","","","","",""
"298759","","","","instructions","20","1344769","0.0-8.0-0.0","156","1","2025-07-09 09:10:20","7701e855f2ef39aa3fd6c71abdc6918a","41.123.66.187","Mozilla/5.0 (Windows NT 10.0; Win64; x64) AppleWebKit/537.36 (KHTML, like Gecko) Chrome/138.0.0.0 Safari/537.36","WebKit","Chrome","138.0.0.0","Windows","10.0","https://app.prolific.com/","en-GB,en-US;q=0.9,en;q=0.8","67e074f58a5ea7d9897f3223","686d226cabeef709c732f8e1","686e314429c080798df9d92d","67e074f58a5ea7d9897f3223","","[{""page_index"":0,""viewing_time"":165301},{""page_index"":1,""viewing_time"":60320},{""page_index"":2,""viewing_time"":39479},{""page_index"":3,""viewing_time"":33658}]","","","","","","","","","","","","","","","","","","","","","","","","","","","","","","","","","","","","","","","","","","",""
"","","","","ctl-task-cpt","21","1385382","0.0-8.0-1.0","156","1","2025-07-09 09:10:20","7701e855f2ef39aa3fd6c71abdc6918a","41.123.66.187","Mozilla/5.0 (Windows NT 10.0; Win64; x64) AppleWebKit/537.36 (KHTML, like Gecko) Chrome/138.0.0.0 Safari/537.36","WebKit","Chrome","138.0.0.0","Windows","10.0","https://app.prolific.com/","en-GB,en-US;q=0.9,en;q=0.8","67e074f58a5ea7d9897f3223","686d226cabeef709c732f8e1","686e314429c080798df9d92d","67e074f58a5ea7d9897f3223","","","","","","","","","","","","","","","","","win-only","3","g1:SW,g2:NE","1","0","1","1360087.6","6685.1","10696.9","37591.2","2","4","4","6","1","-2","-4","0","0","0","4011.6","4000","-2200","[""down"",""left""]","{""num_key_presses"":7,""num_perfect"":4,""num_errors"":2,""num_randdir"":0,""num_randdir_good_moves"":0,""num_whilered"":1,""num_whileblue"":0,""num_blue"":2,""num_good_moves"":3}","[410.3214133126395,409.07142761775424,2.6,410.3214133126395,409.07142761775424,100.7,410.3214133126395,409.07142761775424,207.9,410.3214133126395,409.07142761775424,307.9,441.5714133126395,397.82142761775424,414.7,445.3214133126395,396.57142761775424,521.3,445.3214133126395,396.57142761775424,627.7,445.3214133126395,396.57142761775424,732.1,445.3214133126395,396.57142761775424,833.4,445.3214133126395,396.57142761775424,945.2,445.3214133126395,396.57142761775424,1059,445.3214133126395,396.57142761775424,1161.7,445.3214133126395,396.57142761775424,1263.1,445.3214133126395,396.57142761775424,1368.9,445.3214133126395,396.57142761775424,1478.3,445.3214133126395,396.57142761775424,1587.7,445.3214133126395,396.57142761775424,1692.5,445.3214133126395,396.57142761775424,1795.2,445.3214133126395,396.57142761775424,1910,445.3214133126395,396.57142761775424,2017.2,445.3214133126395,396.57142761775424,2119.4,445.3214133126395,396.57142761775424,2224.6,445.3214133126395,396.57142761775424,2326,445.3214133126395,396.57142761775424,2432.9,445.3214133126395,396.57142761775424,2541.7,445.3214133126395,396.57142761775424,2655.3,445.3214133126395,396.57142761775424,2757.5,445.3214133126395,396.57142761775424,2874.1,445.3214133126395,396.57142761775424,2975.2,445.3214133126395,396.57142761775424,3075.7,445.3214133126395,396.57142761775424,3178.7,445.3214133126395,396.57142761775424,3283.2,445.3214133126395,396.57142761775424,3398,445.3214133126395,396.57142761775424,3498.1,445.3214133126395,396.57142761775424,3598.9,445.3214133126395,396.57142761775424,3699.6,445.3214133126395,396.57142761775424,3802.4,445.3214133126395,396.57142761775424,3905.4]","[4039.9,4039.9,1000,0,3039.9,""smooth"",""up"",""up"",""bad_move"",4529.4,488.2,2985,4041.3,-2496.8,""error"",""-"",""-"",""no_move"",5230.2,698.4,2985,4041.3,-1796,""while_red"",""-"",""-"",""no_move"",7971.9,3440.1,1827.7,5538.7,605.6,""smooth"",""down"",""down"",""good_move"",8479.8,501.9,2304.2,7977.9,-1802.3,""error"",""-"",""-"",""no_move"",20433.2,11943.1,2656.8,17228.1,548.4,""smooth"",""down"",""down"",""good_move"",23278.7,2843.7,1989.4,20435.2,854.2,""smooth"",""left"",""left"",""good_move""]","",""
"27190","","","","instructions","22","1412574","0.0-8.0-2.0","156","1","2025-07-09 09:10:20","7701e855f2ef39aa3fd6c71abdc6918a","41.123.66.187","Mozilla/5.0 (Windows NT 10.0; Win64; x64) AppleWebKit/537.36 (KHTML, like Gecko) Chrome/138.0.0.0 Safari/537.36","WebKit","Chrome","138.0.0.0","Windows","10.0","https://app.prolific.com/","en-GB,en-US;q=0.9,en;q=0.8","67e074f58a5ea7d9897f3223","686d226cabeef709c732f8e1","686e314429c080798df9d92d","67e074f58a5ea7d9897f3223","","[{""page_index"":0,""viewing_time"":27189}]","","","","","","","","","","","","","","","","","","","","","","","","","","","","","","","","","","","","","","","","","","",""
"","","","","ctl-task-cpt","23","1486445","0.0-8.0-3.0","156","1","2025-07-09 09:10:20","7701e855f2ef39aa3fd6c71abdc6918a","41.123.66.187","Mozilla/5.0 (Windows NT 10.0; Win64; x64) AppleWebKit/537.36 (KHTML, like Gecko) Chrome/138.0.0.0 Safari/537.36","WebKit","Chrome","138.0.0.0","Windows","10.0","https://app.prolific.com/","en-GB,en-US;q=0.9,en;q=0.8","67e074f58a5ea7d9897f3223","686d226cabeef709c732f8e1","686e314429c080798df9d92d","67e074f58a5ea7d9897f3223","","","","","","","","","","","","","","","","","win-only","3","g1:SW,g2:NE","0.35","0","3","1427885.7","5169.4","9172.9","70861.2","2","4","8","6","2","-8","-9","0","0","0","4003.4","4000","-2140","[""up"",""right""]","{""num_key_presses"":15,""num_perfect"":6,""num_errors"":1,""num_randdir"":8,""num_randdir_good_moves"":2,""num_whilered"":0,""num_whileblue"":1,""num_blue"":5,""num_good_moves"":7}","[412.8214133126395,414.07142761775424,2.1,412.8214133126395,414.07142761775424,106.7,412.8214133126395,414.07142761775424,207.4,412.8214133126395,414.07142761775424,315.2,412.8214133126395,414.07142761775424,419.5,412.8214133126395,414.07142761775424,519.6,412.8214133126395,414.07142761775424,624.3,412.8214133126395,414.07142761775424,730.8,412.8214133126395,414.07142761775424,833,412.8214133126395,414.07142761775424,939.6,412.8214133126395,414.07142761775424,1047,412.8214133126395,414.07142761775424,1153.4,412.8214133126395,414.07142761775424,1256.4,412.8214133126395,414.07142761775424,1363.6,412.8214133126395,414.07142761775424,1466.7,412.8214133126395,414.07142761775424,1570,412.8214133126395,414.07142761775424,1676.6,412.8214133126395,414.07142761775424,1776.9,412.8214133126395,414.07142761775424,1877.5,412.8214133126395,414.07142761775424,1986.9,412.8214133126395,414.07142761775424,2089.8,412.8214133126395,414.07142761775424,2194.6,412.8214133126395,414.07142761775424,2299.1,412.8214133126395,414.07142761775424,2404.5,412.8214133126395,414.07142761775424,2506.5,412.8214133126395,414.07142761775424,2606.9,412.8214133126395,414.07142761775424,2719.4,412.8214133126395,414.07142761775424,2819.5,412.8214133126395,414.07142761775424,2921.5,412.8214133126395,414.07142761775424,3030,412.8214133126395,414.07142761775424,3134.9,412.8214133126395,414.07142761775424,3235.3,412.8214133126395,414.07142761775424,3343.7,412.8214133126395,414.07142761775424,3451.8,412.8214133126395,414.07142761775424,3557.3,412.8214133126395,414.07142761775424,3663.3,412.8214133126395,414.07142761775424,3764.4,412.8214133126395,414.07142761775424,3868.4,412.8214133126395,414.07142761775424,3973.7]","[1437.3,1437.3,1000,0,437.3,""smooth"",""left"",""left"",""bad_move"",8055.6,6616.7,2617.6,5012.7,425.4,""oops"",""up"",""left"",""bad_move"",14734.8,6677.7,3122,11283.5,329.3,""smooth"",""right"",""right"",""good_move"",17962.9,3224.8,2827.3,14738.1,397.5,""oops"",""up"",""down"",""bad_move"",20793.7,2827.3,2409.6,17966.4,417.7,""oops"",""right"",""left"",""bad_move"",23908.4,3112.7,2811.2,20795.8,301.4,""smooth"",""up"",""up"",""good_move"",26888.3,2974.4,2585.4,23913.9,389,""oops"",""up"",""down"",""bad_move"",30294.3,3404,3085.4,26890.3,318.6,""smooth"",""down"",""down"",""bad_move"",33714.7,3419.3,3084.3,30295.4,335,""while_blue"",""right"",""right"",""good_move"",36762.2,3045.3,2619.3,33716.9,426,""oops"",""right"",""left"",""bad_move"",39297.9,2533.2,2189.8,36764.7,343.4,""oops"",""left"",""up"",""good_move"",41912.5,2613.2,2248.9,39299.4,364.3,""oops"",""up"",""down"",""bad_move"",48643.4,6729.5,3575.6,44718.5,349.3,""smooth"",""right"",""right"",""good_move"",56583.4,7938.3,3565.8,52651,366.6,""smooth"",""right"",""right"",""good_move"",59165.9,2581.9,2078.3,56584,503.6,""oops"",""right"",""up"",""good_move""]","",""
"112988","","","","instructions","24","1599435","0.0-8.0-4.0","156","1","2025-07-09 09:10:20","7701e855f2ef39aa3fd6c71abdc6918a","41.123.66.187","Mozilla/5.0 (Windows NT 10.0; Win64; x64) AppleWebKit/537.36 (KHTML, like Gecko) Chrome/138.0.0.0 Safari/537.36","WebKit","Chrome","138.0.0.0","Windows","10.0","https://app.prolific.com/","en-GB,en-US;q=0.9,en;q=0.8","67e074f58a5ea7d9897f3223","686d226cabeef709c732f8e1","686e314429c080798df9d92d","67e074f58a5ea7d9897f3223","","[{""page_index"":0,""viewing_time"":35169},{""page_index"":1,""viewing_time"":77819}]","","","","","","","","","","","","","","","","","","","","","","","","","","","","","","","","","","","","","","","","","","",""
"39780","","","{""green_ball"":[""Ball always moves in the direction I press""]}","survey-multi-select","25","1639220","0.0-8.0-5.0-0.0","156","1","2025-07-09 09:10:20","7701e855f2ef39aa3fd6c71abdc6918a","41.123.66.187","Mozilla/5.0 (Windows NT 10.0; Win64; x64) AppleWebKit/537.36 (KHTML, like Gecko) Chrome/138.0.0.0 Safari/537.36","WebKit","Chrome","138.0.0.0","Windows","10.0","https://app.prolific.com/","en-GB,en-US;q=0.9,en;q=0.8","67e074f58a5ea7d9897f3223","686d226cabeef709c732f8e1","686e314429c080798df9d92d","67e074f58a5ea7d9897f3223","","","[0]","","","","quiz","","","","","","","","","","","","","","","","","","","","","","","","","","","","","","","","","","","","","false",""
"13879","","<p align='center'><b>INCORRECT.</b> Usually the green ball moves in the indicated direction, but sometimes it shakes and moves randomly. </p>","0","html-button-response","26","1653102","0.0-8.0-5.0-1.0","156","1","2025-07-09 09:10:20","7701e855f2ef39aa3fd6c71abdc6918a","41.123.66.187","Mozilla/5.0 (Windows NT 10.0; Win64; x64) AppleWebKit/537.36 (KHTML, like Gecko) Chrome/138.0.0.0 Safari/537.36","WebKit","Chrome","138.0.0.0","Windows","10.0","https://app.prolific.com/","en-GB,en-US;q=0.9,en;q=0.8","67e074f58a5ea7d9897f3223","686d226cabeef709c732f8e1","686e314429c080798df9d92d","67e074f58a5ea7d9897f3223","","","","","","","","","","","","","","","","","","","","","","","","","","","","","","","","","","","","","","","","","","","","",""
"25202","","","{""green_ball"":[""Ball always shakes and moves in a random direction"",""Ball sometimes shakes and moves in a random direction""]}","survey-multi-select","27","1678309","0.0-8.0-5.1-0.1","156","1","2025-07-09 09:10:20","7701e855f2ef39aa3fd6c71abdc6918a","41.123.66.187","Mozilla/5.0 (Windows NT 10.0; Win64; x64) AppleWebKit/537.36 (KHTML, like Gecko) Chrome/138.0.0.0 Safari/537.36","WebKit","Chrome","138.0.0.0","Windows","10.0","https://app.prolific.com/","en-GB,en-US;q=0.9,en;q=0.8","67e074f58a5ea7d9897f3223","686d226cabeef709c732f8e1","686e314429c080798df9d92d","67e074f58a5ea7d9897f3223","","","[0]","","","","quiz","","","","","","","","","","","","","","","","","","","","","","","","","","","","","","","","","","","","","false",""
"10531","","<p align='center'><b>INCORRECT.</b> Usually the green ball moves in the indicated direction, but sometimes it shakes and moves randomly. </p>","0","html-button-response","28","1688842","0.0-8.0-5.1-1.1","156","1","2025-07-09 09:10:20","7701e855f2ef39aa3fd6c71abdc6918a","41.123.66.187","Mozilla/5.0 (Windows NT 10.0; Win64; x64) AppleWebKit/537.36 (KHTML, like Gecko) Chrome/138.0.0.0 Safari/537.36","WebKit","Chrome","138.0.0.0","Windows","10.0","https://app.prolific.com/","en-GB,en-US;q=0.9,en;q=0.8","67e074f58a5ea7d9897f3223","686d226cabeef709c732f8e1","686e314429c080798df9d92d","67e074f58a5ea7d9897f3223","","","","","","","","","","","","","","","","","","","","","","","","","","","","","","","","","","","","","","","","","","","","",""
"35060","","","{""green_ball"":[""Ball sometimes shakes and moves in a random direction""]}","survey-multi-select","29","1723907","0.0-8.0-5.2-0.2","156","1","2025-07-09 09:10:20","7701e855f2ef39aa3fd6c71abdc6918a","41.123.66.187","Mozilla/5.0 (Windows NT 10.0; Win64; x64) AppleWebKit/537.36 (KHTML, like Gecko) Chrome/138.0.0.0 Safari/537.36","WebKit","Chrome","138.0.0.0","Windows","10.0","https://app.prolific.com/","en-GB,en-US;q=0.9,en;q=0.8","67e074f58a5ea7d9897f3223","686d226cabeef709c732f8e1","686e314429c080798df9d92d","67e074f58a5ea7d9897f3223","","","[0]","","","","quiz","","","","","","","","","","","","","","","","","","","","","","","","","","","","","","","","","","","","","true",""
"8963","","<p align='center'><b>CORRECT!</b> Indeed, the green ball may sometimes shake and move in a random direction.</p>","0","html-button-response","30","1732872","0.0-8.0-5.2-1.2","156","1","2025-07-09 09:10:20","7701e855f2ef39aa3fd6c71abdc6918a","41.123.66.187","Mozilla/5.0 (Windows NT 10.0; Win64; x64) AppleWebKit/537.36 (KHTML, like Gecko) Chrome/138.0.0.0 Safari/537.36","WebKit","Chrome","138.0.0.0","Windows","10.0","https://app.prolific.com/","en-GB,en-US;q=0.9,en;q=0.8","67e074f58a5ea7d9897f3223","686d226cabeef709c732f8e1","686e314429c080798df9d92d","67e074f58a5ea7d9897f3223","","","","","","","","","","","","","","","","","","","","","","","","","","","","","","","","","","","","","","","","","","","","",""
"10796","","","{""yellow_ball"":[""Ball doesn‘t move and I get -1 penalty point""]}","survey-multi-select","31","1743672","0.0-8.0-6.0-0.0","156","1","2025-07-09 09:10:20","7701e855f2ef39aa3fd6c71abdc6918a","41.123.66.187","Mozilla/5.0 (Windows NT 10.0; Win64; x64) AppleWebKit/537.36 (KHTML, like Gecko) Chrome/138.0.0.0 Safari/537.36","WebKit","Chrome","138.0.0.0","Windows","10.0","https://app.prolific.com/","en-GB,en-US;q=0.9,en;q=0.8","67e074f58a5ea7d9897f3223","686d226cabeef709c732f8e1","686e314429c080798df9d92d","67e074f58a5ea7d9897f3223","","","[0]","","","","quiz","","","","","","","","","","","","","","","","","","","","","","","","","","","","","","","","","","","","","true",""
"3753","","<p align='center'><b>CORRECT!</b> Indeed, the yellow ball never moves and you receive a penalty.</p>","0","html-button-response","32","1747429","0.0-8.0-6.0-1.0","156","1","2025-07-09 09:10:20","7701e855f2ef39aa3fd6c71abdc6918a","41.123.66.187","Mozilla/5.0 (Windows NT 10.0; Win64; x64) AppleWebKit/537.36 (KHTML, like Gecko) Chrome/138.0.0.0 Safari/537.36","WebKit","Chrome","138.0.0.0","Windows","10.0","https://app.prolific.com/","en-GB,en-US;q=0.9,en;q=0.8","67e074f58a5ea7d9897f3223","686d226cabeef709c732f8e1","686e314429c080798df9d92d","67e074f58a5ea7d9897f3223","","","","","","","","","","","","","","","","","","","","","","","","","","","","","","","","","","","","","","","","","","","","",""
"5987","","","{""blue_ball"":[""Ball doesn‘t move and I get -1 penalty point""]}","survey-multi-select","33","1753420","0.0-8.0-7.0-0.0","156","1","2025-07-09 09:10:20","7701e855f2ef39aa3fd6c71abdc6918a","41.123.66.187","Mozilla/5.0 (Windows NT 10.0; Win64; x64) AppleWebKit/537.36 (KHTML, like Gecko) Chrome/138.0.0.0 Safari/537.36","WebKit","Chrome","138.0.0.0","Windows","10.0","https://app.prolific.com/","en-GB,en-US;q=0.9,en;q=0.8","67e074f58a5ea7d9897f3223","686d226cabeef709c732f8e1","686e314429c080798df9d92d","67e074f58a5ea7d9897f3223","","","[0]","","","","quiz","","","","","","","","","","","","","","","","","","","","","","","","","","","","","","","","","","","","","false",""
"6448","","<p align='center'><b>INCORRECT.</b> The blue ball always shakes and moves randomly.</p>","0","html-button-response","34","1759871","0.0-8.0-7.0-1.0","156","1","2025-07-09 09:10:20","7701e855f2ef39aa3fd6c71abdc6918a","41.123.66.187","Mozilla/5.0 (Windows NT 10.0; Win64; x64) AppleWebKit/537.36 (KHTML, like Gecko) Chrome/138.0.0.0 Safari/537.36","WebKit","Chrome","138.0.0.0","Windows","10.0","https://app.prolific.com/","en-GB,en-US;q=0.9,en;q=0.8","67e074f58a5ea7d9897f3223","686d226cabeef709c732f8e1","686e314429c080798df9d92d","67e074f58a5ea7d9897f3223","","","","","","","","","","","","","","","","","","","","","","","","","","","","","","","","","","","","","","","","","","","","",""
"7870","","","{""blue_ball"":[""Ball always shakes and moves in a random direction""]}","survey-multi-select","35","1767750","0.0-8.0-7.1-0.1","156","1","2025-07-09 09:10:20","7701e855f2ef39aa3fd6c71abdc6918a","41.123.66.187","Mozilla/5.0 (Windows NT 10.0; Win64; x64) AppleWebKit/537.36 (KHTML, like Gecko) Chrome/138.0.0.0 Safari/537.36","WebKit","Chrome","138.0.0.0","Windows","10.0","https://app.prolific.com/","en-GB,en-US;q=0.9,en;q=0.8","67e074f58a5ea7d9897f3223","686d226cabeef709c732f8e1","686e314429c080798df9d92d","67e074f58a5ea7d9897f3223","","","[0]","","","","quiz","","","","","","","","","","","","","","","","","","","","","","","","","","","","","","","","","","","","","true",""
"5535","","<p align='center'><b>CORRECT!</b> Indeed, the blue ball always shakes and moves in a random direction. Also there is a penalty of -1 point.</p>","0","html-button-response","36","1773293","0.0-8.0-7.1-1.1","156","1","2025-07-09 09:10:20","7701e855f2ef39aa3fd6c71abdc6918a","41.123.66.187","Mozilla/5.0 (Windows NT 10.0; Win64; x64) AppleWebKit/537.36 (KHTML, like Gecko) Chrome/138.0.0.0 Safari/537.36","WebKit","Chrome","138.0.0.0","Windows","10.0","https://app.prolific.com/","en-GB,en-US;q=0.9,en;q=0.8","67e074f58a5ea7d9897f3223","686d226cabeef709c732f8e1","686e314429c080798df9d92d","67e074f58a5ea7d9897f3223","","","","","","","","","","","","","","","","","","","","","","","","","","","","","","","","","","","","","","","","","","","","",""
"10751","","","{""bonus"":[""When I reach 50% of points""]}","survey-multi-select","37","1784055","0.0-8.0-8.0-0.0","156","1","2025-07-09 09:10:20","7701e855f2ef39aa3fd6c71abdc6918a","41.123.66.187","Mozilla/5.0 (Windows NT 10.0; Win64; x64) AppleWebKit/537.36 (KHTML, like Gecko) Chrome/138.0.0.0 Safari/537.36","WebKit","Chrome","138.0.0.0","Windows","10.0","https://app.prolific.com/","en-GB,en-US;q=0.9,en;q=0.8","67e074f58a5ea7d9897f3223","686d226cabeef709c732f8e1","686e314429c080798df9d92d","67e074f58a5ea7d9897f3223","","","[0]","","","","quiz","","","","","","","","","","","","","","","","","","","","","","","","","","","","","","","","","","","","","true",""
"6560","","<p align='center'><b>CORRECT!</b> Indeed, you receive 2 pounds extra when you reach 50% of points.</p>","0","html-button-response","38","1790621","0.0-8.0-8.0-1.0","156","1","2025-07-09 09:10:20","7701e855f2ef39aa3fd6c71abdc6918a","41.123.66.187","Mozilla/5.0 (Windows NT 10.0; Win64; x64) AppleWebKit/537.36 (KHTML, like Gecko) Chrome/138.0.0.0 Safari/537.36","WebKit","Chrome","138.0.0.0","Windows","10.0","https://app.prolific.com/","en-GB,en-US;q=0.9,en;q=0.8","67e074f58a5ea7d9897f3223","686d226cabeef709c732f8e1","686e314429c080798df9d92d","67e074f58a5ea7d9897f3223","","","","","","","","","","","","","","","","","","","","","","","","","","","","","","","","","","","","","","","","","","","","",""
"10630","","","","instructions","39","1801252","0.0-8.0-9.0","156","1","2025-07-09 09:10:20","7701e855f2ef39aa3fd6c71abdc6918a","41.123.66.187","Mozilla/5.0 (Windows NT 10.0; Win64; x64) AppleWebKit/537.36 (KHTML, like Gecko) Chrome/138.0.0.0 Safari/537.36","WebKit","Chrome","138.0.0.0","Windows","10.0","https://app.prolific.com/","en-GB,en-US;q=0.9,en;q=0.8","67e074f58a5ea7d9897f3223","686d226cabeef709c732f8e1","686e314429c080798df9d92d","67e074f58a5ea7d9897f3223","","[{""page_index"":0,""viewing_time"":10630}]","","","","","","","","","","","","","","","","","","","","","","","","","","","","","","","","","","","","","","","","","","",""
"26035","","<p>Before you start with this game please answer the following three questions yourself. </p>
  <p>Through this game, we measure several aspects of your cognitive performance, such as reaction times, multi-tasking capabilities </p>
  <p>and the ability to assess the situation you are in.</p>
  <p></p>
  <p><b>How good do you usually are in such tasks?</b></p>","76","html-slider-response","40","1827290","0.0-9.0-0.0","156","1","2025-07-09 09:10:20","7701e855f2ef39aa3fd6c71abdc6918a","41.123.66.187","Mozilla/5.0 (Windows NT 10.0; Win64; x64) AppleWebKit/537.36 (KHTML, like Gecko) Chrome/138.0.0.0 Safari/537.36","WebKit","Chrome","138.0.0.0","Windows","10.0","https://app.prolific.com/","en-GB,en-US;q=0.9,en;q=0.8","67e074f58a5ea7d9897f3223","686d226cabeef709c732f8e1","686e314429c080798df9d92d","67e074f58a5ea7d9897f3223","2025-07-09T09:39:32.994Z","","","","","","PreSkillQ","","","","","","","","","","","","","","","","","","","","","","","","","","","","","","","","","","","","","","50"
"16107","","<div style=""width:500px;"">
  <p>How well do you think you will perform in this task compared to other participants?</p>
  </div>","76","html-slider-response","41","1843400","0.0-9.0-1.0","156","1","2025-07-09 09:10:20","7701e855f2ef39aa3fd6c71abdc6918a","41.123.66.187","Mozilla/5.0 (Windows NT 10.0; Win64; x64) AppleWebKit/537.36 (KHTML, like Gecko) Chrome/138.0.0.0 Safari/537.36","WebKit","Chrome","138.0.0.0","Windows","10.0","https://app.prolific.com/","en-GB,en-US;q=0.9,en;q=0.8","67e074f58a5ea7d9897f3223","686d226cabeef709c732f8e1","686e314429c080798df9d92d","67e074f58a5ea7d9897f3223","2025-07-09T09:39:49.104Z","","","","","","PrePerfQ","","","","","","","","","","","","","","","","","","","","","","","","","","","","","","","","","","","","","","50"
"7854","","<div style=""width:500px;"">
  <p>What best describes how you currently feel?</p>
  </div>","86","html-slider-response","42","1851257","0.0-9.0-2.0","156","1","2025-07-09 09:10:20","7701e855f2ef39aa3fd6c71abdc6918a","41.123.66.187","Mozilla/5.0 (Windows NT 10.0; Win64; x64) AppleWebKit/537.36 (KHTML, like Gecko) Chrome/138.0.0.0 Safari/537.36","WebKit","Chrome","138.0.0.0","Windows","10.0","https://app.prolific.com/","en-GB,en-US;q=0.9,en;q=0.8","67e074f58a5ea7d9897f3223","686d226cabeef709c732f8e1","686e314429c080798df9d92d","67e074f58a5ea7d9897f3223","2025-07-09T09:39:56.961Z","","","","","","PreMotivationQ","","","","","","","","","","","","","","","","","","","","","","","","","","","","","","","","","","","","","","50"
"","","","","ctl-task-cpt","43","1882004","0.0-10.0-0.0","156","1","2025-07-09 09:10:20","7701e855f2ef39aa3fd6c71abdc6918a","41.123.66.187","Mozilla/5.0 (Windows NT 10.0; Win64; x64) AppleWebKit/537.36 (KHTML, like Gecko) Chrome/138.0.0.0 Safari/537.36","WebKit","Chrome","138.0.0.0","Windows","10.0","https://app.prolific.com/","en-GB,en-US;q=0.9,en;q=0.8","67e074f58a5ea7d9897f3223","686d226cabeef709c732f8e1","686e314429c080798df9d92d","67e074f58a5ea7d9897f3223","2025-07-09T09:40:27.708Z","","","","","","","","","","","","","","","","win-only","0","g1:NW,g2:SE","1","1","0","1866569.2","7294.2","12301.6","27728.9","1","4","4","6","1","1","1","1","0","0.007575757575757576","5007.4","3000","1285","[""left"",""up""]","{""num_key_presses"":6,""num_perfect"":6,""num_errors"":0,""num_randdir"":0,""num_randdir_good_moves"":0,""num_whilered"":0,""num_whileblue"":0,""num_blue"":0,""num_good_moves"":5}","[412.8214133126395,420.32142761775424,1.1,412.8214133126395,420.32142761775424,107.3,412.8214133126395,420.32142761775424,214.7,412.8214133126395,420.32142761775424,319.2,412.8214133126395,420.32142761775424,423.2,412.8214133126395,420.32142761775424,531.2,412.8214133126395,420.32142761775424,634.7,412.8214133126395,420.32142761775424,736.7,412.8214133126395,420.32142761775424,839.5,412.8214133126395,420.32142761775424,943.6,412.8214133126395,420.32142761775424,1045.9,412.8214133126395,420.32142761775424,1153.3,412.8214133126395,420.32142761775424,1262.7,412.8214133126395,420.32142761775424,1378.3,412.8214133126395,420.32142761775424,1478.8,412.8214133126395,420.32142761775424,1585.8,412.8214133126395,420.32142761775424,1688.3,412.8214133126395,420.32142761775424,1792.5,412.8214133126395,420.32142761775424,1894.3,412.8214133126395,420.32142761775424,2000.1,412.8214133126395,420.32142761775424,2104.9,412.8214133126395,420.32142761775424,2207.6,412.8214133126395,420.32142761775424,2312.3,412.8214133126395,420.32142761775424,2413.1,412.8214133126395,420.32142761775424,2516.3,412.8214133126395,420.32142761775424,2620.9,412.8214133126395,420.32142761775424,2729.4,412.8214133126395,420.32142761775424,2830.8,412.8214133126395,420.32142761775424,2932.2,412.8214133126395,420.32142761775424,3034.9,412.8214133126395,420.32142761775424,3138.2,412.8214133126395,420.32142761775424,3241.8,412.8214133126395,420.32142761775424,3342,412.8214133126395,420.32142761775424,3444.4,412.8214133126395,420.32142761775424,3547.7,412.8214133126395,420.32142761775424,3654.1,412.8214133126395,420.32142761775424,3762,412.8214133126395,420.32142761775424,3864.1,412.8214133126395,420.32142761775424,3965.6,412.8214133126395,420.32142761775424,4068.8,412.8214133126395,420.32142761775424,4174.2,412.8214133126395,420.32142761775424,4276.6,412.8214133126395,420.32142761775424,4379.8,412.8214133126395,420.32142761775424,4485.9,412.8214133126395,420.32142761775424,4592.2,412.8214133126395,420.32142761775424,4693,412.8214133126395,420.32142761775424,4793.3,412.8214133126395,420.32142761775424,4903.4]","[1787.3,1787.3,1000,0,787.3,""smooth"",""right"",""right"",""bad_move"",4638.6,2849.8,2470.3,1788.8,379.5,""smooth"",""left"",""left"",""good_move"",7061.9,2418.5,2010.2,4643.4,408.3,""smooth"",""left"",""left"",""good_move"",9561.2,2497.4,2167.1,7063.9,330.2,""smooth"",""left"",""left"",""good_move"",12314.8,2752.1,2479.9,9562.7,272.2,""smooth"",""up"",""up"",""good_move"",15297.2,2978.5,2595.4,12318.7,383.1,""smooth"",""up"",""up"",""good_move""]","",""
"6642","","<div style=""width:500px;"">
  <p>What determined the result of this run?</p>
  </div>","100","html-slider-response","44","1888654","0.0-10.0-1.0","156","1","2025-07-09 09:10:20","7701e855f2ef39aa3fd6c71abdc6918a","41.123.66.187","Mozilla/5.0 (Windows NT 10.0; Win64; x64) AppleWebKit/537.36 (KHTML, like Gecko) Chrome/138.0.0.0 Safari/537.36","WebKit","Chrome","138.0.0.0","Windows","10.0","https://app.prolific.com/","en-GB,en-US;q=0.9,en;q=0.8","67e074f58a5ea7d9897f3223","686d226cabeef709c732f8e1","686e314429c080798df9d92d","67e074f58a5ea7d9897f3223","2025-07-09T09:40:34.358Z","","","","","","AttribQ","","","","","","","","","","","","","","","","","","","","","","","","","","","","","","","","","","","","","","50"
"6715","","<div style=""width:500px;"">
  <p>How much control did you have over the ball?</p>
  </div>","100","html-slider-response","45","1895371","0.0-10.0-2.0","156","1","2025-07-09 09:10:20","7701e855f2ef39aa3fd6c71abdc6918a","41.123.66.187","Mozilla/5.0 (Windows NT 10.0; Win64; x64) AppleWebKit/537.36 (KHTML, like Gecko) Chrome/138.0.0.0 Safari/537.36","WebKit","Chrome","138.0.0.0","Windows","10.0","https://app.prolific.com/","en-GB,en-US;q=0.9,en;q=0.8","67e074f58a5ea7d9897f3223","686d226cabeef709c732f8e1","686e314429c080798df9d92d","67e074f58a5ea7d9897f3223","2025-07-09T09:40:41.075Z","","","","","","ControlQ","","","","","","","","","","","","","","","","","","","","","","","","","","","","","","","","","","","","","","50"
"13822","","<div style=""width:500px;"">
  <p>How would you describe your current emotional state?</p>
  </div>","0","html-slider-response","46","1909201","0.0-10.0-3.0","156","1","2025-07-09 09:10:20","7701e855f2ef39aa3fd6c71abdc6918a","41.123.66.187","Mozilla/5.0 (Windows NT 10.0; Win64; x64) AppleWebKit/537.36 (KHTML, like Gecko) Chrome/138.0.0.0 Safari/537.36","WebKit","Chrome","138.0.0.0","Windows","10.0","https://app.prolific.com/","en-GB,en-US;q=0.9,en;q=0.8","67e074f58a5ea7d9897f3223","686d226cabeef709c732f8e1","686e314429c080798df9d92d","67e074f58a5ea7d9897f3223","2025-07-09T09:40:54.905Z","","","","","","StressQ","","","","","","","","","","","","","","","","","","","","","","","","","","","","","","","","","","","","","","50"
"12537","","<div style=""width:500px;"">
  <p>What best describes how you currently feel?</p>
  </div>","100","html-slider-response","47","1921744","0.0-10.0-4.0","156","1","2025-07-09 09:10:20","7701e855f2ef39aa3fd6c71abdc6918a","41.123.66.187","Mozilla/5.0 (Windows NT 10.0; Win64; x64) AppleWebKit/537.36 (KHTML, like Gecko) Chrome/138.0.0.0 Safari/537.36","WebKit","Chrome","138.0.0.0","Windows","10.0","https://app.prolific.com/","en-GB,en-US;q=0.9,en;q=0.8","67e074f58a5ea7d9897f3223","686d226cabeef709c732f8e1","686e314429c080798df9d92d","67e074f58a5ea7d9897f3223","2025-07-09T09:41:07.449Z","","","","","","MotivationQ","","","","","","","","","","","","","","","","","","","","","","","","","","","","","","","","","","","","","","50"
"","","","","ctl-task-cpt","48","1949006","0.0-10.0-0.1","156","1","2025-07-09 09:10:20","7701e855f2ef39aa3fd6c71abdc6918a","41.123.66.187","Mozilla/5.0 (Windows NT 10.0; Win64; x64) AppleWebKit/537.36 (KHTML, like Gecko) Chrome/138.0.0.0 Safari/537.36","WebKit","Chrome","138.0.0.0","Windows","10.0","https://app.prolific.com/","en-GB,en-US;q=0.9,en;q=0.8","67e074f58a5ea7d9897f3223","686d226cabeef709c732f8e1","686e314429c080798df9d92d","67e074f58a5ea7d9897f3223","2025-07-09T09:41:34.710Z","","","","","","","","","","","","","","","","win-only","3","g1:SW,g2:NE","0.9","2","0","1937060.9","3971.9","8974.2","24243.7","1","4","8","6","1","1","0","1","1","0.007575757575757576","5002.3","3000","1975","[""down"",""left""]","{""num_key_presses"":4,""num_perfect"":3,""num_errors"":1,""num_randdir"":0,""num_randdir_good_moves"":0,""num_whilered"":0,""num_whileblue"":1,""num_blue"":2,""num_good_moves"":4}","[420.3214133126395,416.57142761775424,3.3,420.3214133126395,416.57142761775424,101.1,420.3214133126395,416.57142761775424,210.9,420.3214133126395,416.57142761775424,312.9,430.3214133126395,412.82142761775424,417.9,506.5714133126395,387.82142761775424,529.8,582.8214133126395,356.57142761775424,636.6,586.5714133126395,355.32142761775424,744.7,586.5714133126395,355.32142761775424,852.2,586.5714133126395,355.32142761775424,956.5,586.5714133126395,355.32142761775424,1069.7,586.5714133126395,355.32142761775424,1170.2,586.5714133126395,355.32142761775424,1271,586.5714133126395,355.32142761775424,1372.5,586.5714133126395,355.32142761775424,1479.8,586.5714133126395,355.32142761775424,1582.5,586.5714133126395,355.32142761775424,1685.2,586.5714133126395,355.32142761775424,1796.6,586.5714133126395,354.07142761775424,1901.4,566.5714133126395,354.07142761775424,2005.2,576.5714133126395,345.32142761775424,2115,586.5714133126395,341.57142761775424,2222.2,586.5714133126395,345.32142761775424,2327.6,587.8214133126395,345.32142761775424,2440.8,590.3214133126395,345.32142761775424,2549,590.3214133126395,345.32142761775424,2650.6,590.3214133126395,345.32142761775424,2762.1,591.5714133126395,345.32142761775424,2866.1,591.5714133126395,346.57142761775424,2967.2,591.5714133126395,346.57142761775424,3076.3,591.5714133126395,346.57142761775424,3180.2,591.5714133126395,346.57142761775424,3281.8,595.3214133126395,346.57142761775424,3392.1,595.3214133126395,346.57142761775424,3492.9,595.3214133126395,346.57142761775424,3594.9,594.0714133126395,350.32142761775424,3697.6,594.0714133126395,350.32142761775424,3797.6,594.0714133126395,351.57142761775424,3899,592.8214133126395,355.32142761775424,4002.5,591.5714133126395,356.57142761775424,4111.8,591.5714133126395,356.57142761775424,4216.1,591.5714133126395,356.57142761775424,4316.7,591.5714133126395,356.57142761775424,4425.7,591.5714133126395,357.82142761775424,4533.1,591.5714133126395,357.82142761775424,4644.2,591.5714133126395,357.82142761775424,4744.4,591.5714133126395,357.82142761775424,4844.5,591.5714133126395,359.07142761775424,4949]","[1630.2,1630.2,1000,0,630.2,""smooth"",""left"",""left"",""good_move"",5062.6,3430.2,2777.6,1632.4,652.6,""smooth"",""left"",""left"",""good_move"",8064.6,2999,2645.8,5065.6,353.2,""smooth"",""down"",""down"",""good_move"",15142.2,7070.9,2904.9,11853.8,383.5,""while_blue"",""down"",""down"",""good_move""]","",""
"8704","","<div style=""width:500px;"">
  <p>What determined the result of this run?</p>
  </div>","56","html-slider-response","49","1957712","0.0-10.0-1.1","156","1","2025-07-09 09:10:20","7701e855f2ef39aa3fd6c71abdc6918a","41.123.66.187","Mozilla/5.0 (Windows NT 10.0; Win64; x64) AppleWebKit/537.36 (KHTML, like Gecko) Chrome/138.0.0.0 Safari/537.36","WebKit","Chrome","138.0.0.0","Windows","10.0","https://app.prolific.com/","en-GB,en-US;q=0.9,en;q=0.8","67e074f58a5ea7d9897f3223","686d226cabeef709c732f8e1","686e314429c080798df9d92d","67e074f58a5ea7d9897f3223","2025-07-09T09:41:43.417Z","","","","","","AttribQ","","","","","","","","","","","","","","","","","","","","","","","","","","","","","","","","","","","","","","50"
"5941","","<div style=""width:500px;"">
  <p>How much control did you have over the ball?</p>
  </div>","53","html-slider-response","50","1963656","0.0-10.0-2.1","156","1","2025-07-09 09:10:20","7701e855f2ef39aa3fd6c71abdc6918a","41.123.66.187","Mozilla/5.0 (Windows NT 10.0; Win64; x64) AppleWebKit/537.36 (KHTML, like Gecko) Chrome/138.0.0.0 Safari/537.36","WebKit","Chrome","138.0.0.0","Windows","10.0","https://app.prolific.com/","en-GB,en-US;q=0.9,en;q=0.8","67e074f58a5ea7d9897f3223","686d226cabeef709c732f8e1","686e314429c080798df9d92d","67e074f58a5ea7d9897f3223","2025-07-09T09:41:49.361Z","","","","","","ControlQ","","","","","","","","","","","","","","","","","","","","","","","","","","","","","","","","","","","","","","50"
"6968","","<div style=""width:500px;"">
  <p>How would you describe your current emotional state?</p>
  </div>","54","html-slider-response","51","1970628","0.0-10.0-3.1","156","1","2025-07-09 09:10:20","7701e855f2ef39aa3fd6c71abdc6918a","41.123.66.187","Mozilla/5.0 (Windows NT 10.0; Win64; x64) AppleWebKit/537.36 (KHTML, like Gecko) Chrome/138.0.0.0 Safari/537.36","WebKit","Chrome","138.0.0.0","Windows","10.0","https://app.prolific.com/","en-GB,en-US;q=0.9,en;q=0.8","67e074f58a5ea7d9897f3223","686d226cabeef709c732f8e1","686e314429c080798df9d92d","67e074f58a5ea7d9897f3223","2025-07-09T09:41:56.333Z","","","","","","StressQ","","","","","","","","","","","","","","","","","","","","","","","","","","","","","","","","","","","","","","50"
"6278","","<div style=""width:500px;"">
  <p>What best describes how you currently feel?</p>
  </div>","55","html-slider-response","52","1976909","0.0-10.0-4.1","156","1","2025-07-09 09:10:20","7701e855f2ef39aa3fd6c71abdc6918a","41.123.66.187","Mozilla/5.0 (Windows NT 10.0; Win64; x64) AppleWebKit/537.36 (KHTML, like Gecko) Chrome/138.0.0.0 Safari/537.36","WebKit","Chrome","138.0.0.0","Windows","10.0","https://app.prolific.com/","en-GB,en-US;q=0.9,en;q=0.8","67e074f58a5ea7d9897f3223","686d226cabeef709c732f8e1","686e314429c080798df9d92d","67e074f58a5ea7d9897f3223","2025-07-09T09:42:02.613Z","","","","","","MotivationQ","","","","","","","","","","","","","","","","","","","","","","","","","","","","","","","","","","","","","","50"
"","","","","ctl-task-cpt","53","2011012","0.0-10.0-0.2","156","1","2025-07-09 09:10:20","7701e855f2ef39aa3fd6c71abdc6918a","41.123.66.187","Mozilla/5.0 (Windows NT 10.0; Win64; x64) AppleWebKit/537.36 (KHTML, like Gecko) Chrome/138.0.0.0 Safari/537.36","WebKit","Chrome","138.0.0.0","Windows","10.0","https://app.prolific.com/","en-GB,en-US;q=0.9,en;q=0.8","67e074f58a5ea7d9897f3223","686d226cabeef709c732f8e1","686e314429c080798df9d92d","67e074f58a5ea7d9897f3223","2025-07-09T09:42:36.716Z","","","","","","","","","","","","","","","","win-only","0","g1:NW,g2:SE","0.8","3","0","1992219.8","2263.2","7265.4","31082.3","1","4","8","6","2","8","8","9","1","0.06818181818181818","5002.2","3000","675","[""down"",""right""]","{""num_key_presses"":8,""num_perfect"":6,""num_errors"":0,""num_randdir"":2,""num_randdir_good_moves"":1,""num_whilered"":0,""num_whileblue"":0,""num_blue"":1,""num_good_moves"":7}","[416.5714133126395,416.57142761775424,1.6,416.5714133126395,416.57142761775424,106.3,416.5714133126395,416.57142761775424,211.1,416.5714133126395,416.57142761775424,315.1,416.5714133126395,416.57142761775424,419.2,416.5714133126395,416.57142761775424,525.8,420.3214133126395,415.32142761775424,629.6,486.5714133126395,401.57142761775424,734.9,621.5714133126395,392.82142761775424,839.5,629.0714133126395,415.32142761775424,942.5,631.5714133126395,430.32142761775424,1045.2,631.5714133126395,430.32142761775424,1151.9,631.5714133126395,430.32142761775424,1252,631.5714133126395,430.32142761775424,1358.2,631.5714133126395,430.32142761775424,1462.7,631.5714133126395,430.32142761775424,1568.8,631.5714133126395,430.32142761775424,1670.6,631.5714133126395,430.32142761775424,1774.3,631.5714133126395,430.32142761775424,1878.3,631.5714133126395,430.32142761775424,1987.5,631.5714133126395,430.32142761775424,2087.7,631.5714133126395,430.32142761775424,2194.9,631.5714133126395,430.32142761775424,2310.6,632.8214133126395,426.57142761775424,2413.5,641.5714133126395,419.07142761775424,2520.5,649.0714133126395,406.57142761775424,2622.7,650.3214133126395,386.57142761775424,2722.7,650.3214133126395,384.07142761775424,2824.2,644.0714133126395,395.32142761775424,2933.5,600.3214133126395,450.32142761775424,3034.4,576.5714133126395,472.82142761775424,3139,576.5714133126395,472.82142761775424,3240.6,576.5714133126395,472.82142761775424,3353.4,576.5714133126395,472.82142761775424,3456.4,576.5714133126395,472.82142761775424,3559,576.5714133126395,472.82142761775424,3660.1,576.5714133126395,472.82142761775424,3772.3,576.5714133126395,472.82142761775424,3880.1,576.5714133126395,472.82142761775424,3992.3,576.5714133126395,472.82142761775424,4095.9,576.5714133126395,472.82142761775424,4198.9,576.5714133126395,472.82142761775424,4299.6,576.5714133126395,472.82142761775424,4399.9,576.5714133126395,472.82142761775424,4503.8,576.5714133126395,472.82142761775424,4604.3,576.5714133126395,472.82142761775424,4707.1,576.5714133126395,472.82142761775424,4809.3,576.5714133126395,472.82142761775424,4910.5]","[4847.1,4847.1,2411.3,2015.9,419.9,""smooth"",""down"",""down"",""good_move"",7797.5,2940.1,2390.4,4857.4,549.7,""smooth"",""down"",""down"",""good_move"",10775.4,2975.6,2488.1,7799.8,487.5,""smooth"",""down"",""down"",""good_move"",13855.1,3078.6,2697.5,10776.5,381.1,""oops"",""right"",""left"",""bad_move"",16613.5,2754.3,1909.2,13859.2,845.2,""smooth"",""right"",""right"",""good_move"",18844,2227.5,1718.9,16616.5,508.6,""smooth"",""right"",""right"",""good_move"",20949.4,2102.5,1661.1,18846.9,441.4,""smooth"",""right"",""right"",""good_move"",23673.3,2722.3,2094.4,20951,628,""oops"",""right"",""right"",""good_move""]","",""
"5699","","<div style=""width:500px;"">
  <p>What determined the result of this run?</p>
  </div>","100","html-slider-response","54","2016713","0.0-10.0-1.2","156","1","2025-07-09 09:10:20","7701e855f2ef39aa3fd6c71abdc6918a","41.123.66.187","Mozilla/5.0 (Windows NT 10.0; Win64; x64) AppleWebKit/537.36 (KHTML, like Gecko) Chrome/138.0.0.0 Safari/537.36","WebKit","Chrome","138.0.0.0","Windows","10.0","https://app.prolific.com/","en-GB,en-US;q=0.9,en;q=0.8","67e074f58a5ea7d9897f3223","686d226cabeef709c732f8e1","686e314429c080798df9d92d","67e074f58a5ea7d9897f3223","2025-07-09T09:42:42.417Z","","","","","","AttribQ","","","","","","","","","","","","","","","","","","","","","","","","","","","","","","","","","","","","","","50"
"4664","","<div style=""width:500px;"">
  <p>How much control did you have over the ball?</p>
  </div>","100","html-slider-response","55","2021380","0.0-10.0-2.2","156","1","2025-07-09 09:10:20","7701e855f2ef39aa3fd6c71abdc6918a","41.123.66.187","Mozilla/5.0 (Windows NT 10.0; Win64; x64) AppleWebKit/537.36 (KHTML, like Gecko) Chrome/138.0.0.0 Safari/537.36","WebKit","Chrome","138.0.0.0","Windows","10.0","https://app.prolific.com/","en-GB,en-US;q=0.9,en;q=0.8","67e074f58a5ea7d9897f3223","686d226cabeef709c732f8e1","686e314429c080798df9d92d","67e074f58a5ea7d9897f3223","2025-07-09T09:42:47.084Z","","","","","","ControlQ","","","","","","","","","","","","","","","","","","","","","","","","","","","","","","","","","","","","","","50"
"6241","","<div style=""width:500px;"">
  <p>How would you describe your current emotional state?</p>
  </div>","0","html-slider-response","56","2027625","0.0-10.0-3.2","156","1","2025-07-09 09:10:20","7701e855f2ef39aa3fd6c71abdc6918a","41.123.66.187","Mozilla/5.0 (Windows NT 10.0; Win64; x64) AppleWebKit/537.36 (KHTML, like Gecko) Chrome/138.0.0.0 Safari/537.36","WebKit","Chrome","138.0.0.0","Windows","10.0","https://app.prolific.com/","en-GB,en-US;q=0.9,en;q=0.8","67e074f58a5ea7d9897f3223","686d226cabeef709c732f8e1","686e314429c080798df9d92d","67e074f58a5ea7d9897f3223","2025-07-09T09:42:53.329Z","","","","","","StressQ","","","","","","","","","","","","","","","","","","","","","","","","","","","","","","","","","","","","","","50"
"4283","","<div style=""width:500px;"">
  <p>What best describes how you currently feel?</p>
  </div>","100","html-slider-response","57","2031915","0.0-10.0-4.2","156","1","2025-07-09 09:10:20","7701e855f2ef39aa3fd6c71abdc6918a","41.123.66.187","Mozilla/5.0 (Windows NT 10.0; Win64; x64) AppleWebKit/537.36 (KHTML, like Gecko) Chrome/138.0.0.0 Safari/537.36","WebKit","Chrome","138.0.0.0","Windows","10.0","https://app.prolific.com/","en-GB,en-US;q=0.9,en;q=0.8","67e074f58a5ea7d9897f3223","686d226cabeef709c732f8e1","686e314429c080798df9d92d","67e074f58a5ea7d9897f3223","2025-07-09T09:42:57.619Z","","","","","","MotivationQ","","","","","","","","","","","","","","","","","","","","","","","","","","","","","","","","","","","","","","50"
"","","","","ctl-task-cpt","58","2088257","0.0-10.0-0.3","156","1","2025-07-09 09:10:20","7701e855f2ef39aa3fd6c71abdc6918a","41.123.66.187","Mozilla/5.0 (Windows NT 10.0; Win64; x64) AppleWebKit/537.36 (KHTML, like Gecko) Chrome/138.0.0.0 Safari/537.36","WebKit","Chrome","138.0.0.0","Windows","10.0","https://app.prolific.com/","en-GB,en-US;q=0.9,en;q=0.8","67e074f58a5ea7d9897f3223","686d226cabeef709c732f8e1","686e314429c080798df9d92d","67e074f58a5ea7d9897f3223","2025-07-09T09:43:53.961Z","","","","","","","","","","","","","","","","win-only","3","g1:SW,g2:NE","0.7","4","0","2047228.6","2291","7299.4","53304.3","1","4","4","6","1","-1","-1","8","9","0.06060606060606061","5008.4","3000","-1885","[""down"",""left""]","{""num_key_presses"":11,""num_perfect"":7,""num_errors"":0,""num_randdir"":4,""num_randdir_good_moves"":1,""num_whilered"":0,""num_whileblue"":0,""num_blue"":3,""num_good_moves"":7}","[419.0714133126395,412.82142761775424,0.5,419.0714133126395,412.82142761775424,100.4,419.0714133126395,412.82142761775424,212.7,419.0714133126395,412.82142761775424,321.1,419.0714133126395,412.82142761775424,424.8,419.0714133126395,412.82142761775424,530.4,419.0714133126395,412.82142761775424,635,412.8214133126395,414.07142761775424,738.1,420.3214133126395,442.82142761775424,840.6,444.0714133126395,435.32142761775424,942.2,464.0714133126395,426.57142761775424,1044.6,466.5714133126395,426.57142761775424,1149,476.5714133126395,421.57142761775424,1253.4,479.0714133126395,421.57142761775424,1355.7,479.0714133126395,421.57142761775424,1461.6,479.0714133126395,421.57142761775424,1575.1,479.0714133126395,421.57142761775424,1678.3,479.0714133126395,421.57142761775424,1783.5,479.0714133126395,421.57142761775424,1887,479.0714133126395,421.57142761775424,1990.8,479.0714133126395,421.57142761775424,2113.5,479.0714133126395,421.57142761775424,2213.9,479.0714133126395,421.57142761775424,2318.2,479.0714133126395,421.57142761775424,2418.4,479.0714133126395,421.57142761775424,2521.5,479.0714133126395,421.57142761775424,2635.1,479.0714133126395,421.57142761775424,2735.4,479.0714133126395,421.57142761775424,2838.9,479.0714133126395,421.57142761775424,2939.8,479.0714133126395,421.57142761775424,3048.1,479.0714133126395,421.57142761775424,3163.3,479.0714133126395,421.57142761775424,3265.3,479.0714133126395,421.57142761775424,3370.9,479.0714133126395,421.57142761775424,3473.7,479.0714133126395,421.57142761775424,3576.9,479.0714133126395,421.57142761775424,3677,479.0714133126395,421.57142761775424,3784.5,479.0714133126395,421.57142761775424,3889.5,479.0714133126395,421.57142761775424,3993.3,479.0714133126395,421.57142761775424,4110.4,479.0714133126395,421.57142761775424,4225.5,479.0714133126395,421.57142761775424,4329.6,479.0714133126395,421.57142761775424,4438.9,479.0714133126395,421.57142761775424,4550.3,479.0714133126395,421.57142761775424,4652.1,479.0714133126395,421.57142761775424,4761.8,479.0714133126395,421.57142761775424,4870.6,479.0714133126395,421.57142761775424,4972.9]","[1660.1,1660.1,1000,0,660.1,""oops"",""down"",""up"",""bad_move"",4281.3,2619.2,2080.3,1662.1,538.9,""smooth"",""left"",""left"",""good_move"",7527.7,3244.5,2840.2,4283.2,404.3,""smooth"",""left"",""left"",""good_move"",10700.6,3172.1,2689.8,7528.5,482.3,""smooth"",""down"",""down"",""good_move"",13950.4,3246.7,2876.5,10703.8,370.1,""oops"",""down"",""up"",""bad_move"",18181.9,4230.3,3827.8,13951.6,402.5,""oops"",""down"",""up"",""bad_move"",20876.8,2692,2207.1,18184.9,484.9,""smooth"",""up"",""up"",""bad_move"",23721.3,2843.1,2457.4,20878.2,385.7,""smooth"",""down"",""down"",""good_move"",34063.6,10341.3,2800.7,30842.9,420,""smooth"",""down"",""down"",""good_move"",36861.7,2797.3,2344.5,34064.4,452.8,""smooth"",""down"",""down"",""good_move"",43349.3,6486.5,2381.8,40584.4,383.1,""oops"",""down"",""down"",""good_move""]","",""
"5125","","<div style=""width:500px;"">
  <p>What determined the result of this run?</p>
  </div>","74","html-slider-response","59","2093387","0.0-10.0-1.3","156","1","2025-07-09 09:10:20","7701e855f2ef39aa3fd6c71abdc6918a","41.123.66.187","Mozilla/5.0 (Windows NT 10.0; Win64; x64) AppleWebKit/537.36 (KHTML, like Gecko) Chrome/138.0.0.0 Safari/537.36","WebKit","Chrome","138.0.0.0","Windows","10.0","https://app.prolific.com/","en-GB,en-US;q=0.9,en;q=0.8","67e074f58a5ea7d9897f3223","686d226cabeef709c732f8e1","686e314429c080798df9d92d","67e074f58a5ea7d9897f3223","2025-07-09T09:43:59.093Z","","","","","","AttribQ","","","","","","","","","","","","","","","","","","","","","","","","","","","","","","","","","","","","","","50"
"9159","","<div style=""width:500px;"">
  <p>How much control did you have over the ball?</p>
  </div>","48","html-slider-response","60","2102550","0.0-10.0-2.3","156","1","2025-07-09 09:10:20","7701e855f2ef39aa3fd6c71abdc6918a","41.123.66.187","Mozilla/5.0 (Windows NT 10.0; Win64; x64) AppleWebKit/537.36 (KHTML, like Gecko) Chrome/138.0.0.0 Safari/537.36","WebKit","Chrome","138.0.0.0","Windows","10.0","https://app.prolific.com/","en-GB,en-US;q=0.9,en;q=0.8","67e074f58a5ea7d9897f3223","686d226cabeef709c732f8e1","686e314429c080798df9d92d","67e074f58a5ea7d9897f3223","2025-07-09T09:44:08.254Z","","","","","","ControlQ","","","","","","","","","","","","","","","","","","","","","","","","","","","","","","","","","","","","","","50"
"6151","","<div style=""width:500px;"">
  <p>How would you describe your current emotional state?</p>
  </div>","62","html-slider-response","61","2108704","0.0-10.0-3.3","156","1","2025-07-09 09:10:20","7701e855f2ef39aa3fd6c71abdc6918a","41.123.66.187","Mozilla/5.0 (Windows NT 10.0; Win64; x64) AppleWebKit/537.36 (KHTML, like Gecko) Chrome/138.0.0.0 Safari/537.36","WebKit","Chrome","138.0.0.0","Windows","10.0","https://app.prolific.com/","en-GB,en-US;q=0.9,en;q=0.8","67e074f58a5ea7d9897f3223","686d226cabeef709c732f8e1","686e314429c080798df9d92d","67e074f58a5ea7d9897f3223","2025-07-09T09:44:14.408Z","","","","","","StressQ","","","","","","","","","","","","","","","","","","","","","","","","","","","","","","","","","","","","","","50"
"8027","","<div style=""width:500px;"">
  <p>What best describes how you currently feel?</p>
  </div>","71","html-slider-response","62","2116733","0.0-10.0-4.3","156","1","2025-07-09 09:10:20","7701e855f2ef39aa3fd6c71abdc6918a","41.123.66.187","Mozilla/5.0 (Windows NT 10.0; Win64; x64) AppleWebKit/537.36 (KHTML, like Gecko) Chrome/138.0.0.0 Safari/537.36","WebKit","Chrome","138.0.0.0","Windows","10.0","https://app.prolific.com/","en-GB,en-US;q=0.9,en;q=0.8","67e074f58a5ea7d9897f3223","686d226cabeef709c732f8e1","686e314429c080798df9d92d","67e074f58a5ea7d9897f3223","2025-07-09T09:44:22.438Z","","","","","","MotivationQ","","","","","","","","","","","","","","","","","","","","","","","","","","","","","","","","","","","","","","50"
"","","","","ctl-task-cpt","63","2182130","0.0-10.0-0.4","156","1","2025-07-09 09:10:20","7701e855f2ef39aa3fd6c71abdc6918a","41.123.66.187","Mozilla/5.0 (Windows NT 10.0; Win64; x64) AppleWebKit/537.36 (KHTML, like Gecko) Chrome/138.0.0.0 Safari/537.36","WebKit","Chrome","138.0.0.0","Windows","10.0","https://app.prolific.com/","en-GB,en-US;q=0.9,en;q=0.8","67e074f58a5ea7d9897f3223","686d226cabeef709c732f8e1","686e314429c080798df9d92d","67e074f58a5ea7d9897f3223","2025-07-09T09:45:27.835Z","","","","","","","","","","","","","","","","win-only","1","g1:NE,g2:SW","0.6","5","0","2132045.4","2129.7","7134.4","62373.9","1","4","4","6","2","-4","-5","3","8","0.022727272727272728","5004.5","3000","-1470","[""down"",""left""]","{""num_key_presses"":15,""num_perfect"":9,""num_errors"":1,""num_randdir"":5,""num_randdir_good_moves"":1,""num_whilered"":0,""num_whileblue"":1,""num_blue"":3,""num_good_moves"":10}","[411.5714133126395,415.32142761775424,0.9,411.5714133126395,415.32142761775424,109.6,411.5714133126395,415.32142761775424,211.8,411.5714133126395,415.32142761775424,316.4,411.5714133126395,415.32142761775424,418.5,422.8214133126395,407.82142761775424,526.1,422.8214133126395,407.82142761775424,631.1,437.8214133126395,434.07142761775424,733,437.8214133126395,434.07142761775424,841.9,437.8214133126395,434.07142761775424,943.9,439.0714133126395,441.57142761775424,1050.6,439.0714133126395,441.57142761775424,1153.2,439.0714133126395,441.57142761775424,1259.2,439.0714133126395,441.57142761775424,1359.8,439.0714133126395,441.57142761775424,1466.3,439.0714133126395,441.57142761775424,1569.8,439.0714133126395,441.57142761775424,1678.4,439.0714133126395,441.57142761775424,1791.8,439.0714133126395,441.57142761775424,1893.9,439.0714133126395,441.57142761775424,1997.6,439.0714133126395,441.57142761775424,2102.2,439.0714133126395,441.57142761775424,2202.2,439.0714133126395,441.57142761775424,2305.7,439.0714133126395,441.57142761775424,2418.1,439.0714133126395,441.57142761775424,2524.8,439.0714133126395,441.57142761775424,2625.8,439.0714133126395,441.57142761775424,2727.3,439.0714133126395,441.57142761775424,2830.4,439.0714133126395,441.57142761775424,2941,439.0714133126395,441.57142761775424,3041.5,439.0714133126395,441.57142761775424,3142.8,439.0714133126395,441.57142761775424,3247.1,439.0714133126395,441.57142761775424,3351.7,439.0714133126395,441.57142761775424,3453.7,439.0714133126395,441.57142761775424,3557.3,439.0714133126395,441.57142761775424,3665,439.0714133126395,441.57142761775424,3777.2,439.0714133126395,441.57142761775424,3885.2,439.0714133126395,441.57142761775424,3989.8,439.0714133126395,441.57142761775424,4096.9,439.0714133126395,441.57142761775424,4203.9,439.0714133126395,441.57142761775424,4304.5,439.0714133126395,441.57142761775424,4407.3,439.0714133126395,441.57142761775424,4508.1,439.0714133126395,441.57142761775424,4617.9,439.0714133126395,441.57142761775424,4732.1,439.0714133126395,441.57142761775424,4835.6,439.0714133126395,441.57142761775424,4944.4]","[1415.5,1415.5,1000,0,415.5,""smooth"",""down"",""down"",""good_move"",4911.1,3494.6,3131.9,1416.6,362.7,""smooth"",""left"",""left"",""good_move"",12146.2,7232.1,3693.1,8017.5,435.7,""oops"",""left"",""up"",""bad_move"",15826.6,3678.6,3200.7,12148,477.9,""oops"",""down"",""up"",""bad_move"",22377,6549.1,3099.5,18910.5,367,""oops"",""left"",""up"",""bad_move"",25603.6,3225.9,2807.2,22377.7,418.7,""oops"",""left"",""left"",""good_move"",28652.8,3048,2593.2,25604.8,454.8,""smooth"",""left"",""left"",""good_move"",31406.9,2751.1,2404.4,28655.8,346.7,""smooth"",""down"",""down"",""good_move"",34312.4,2903.4,2501.6,31409,401.8,""smooth"",""down"",""down"",""good_move"",36991.1,2677.6,2208.7,34313.5,468.9,""smooth"",""down"",""down"",""good_move"",40745.4,3751.6,3367.9,36993.9,383.6,""oops"",""down"",""up"",""bad_move"",43894.6,3145,2035.9,40749.8,1109,""smooth"",""down"",""down"",""good_move"",46901.5,3003.9,2650.5,43898.2,353.3,""smooth"",""down"",""down"",""good_move"",49234.4,2329.1,1935.2,46905.4,393.8,""while_blue"",""down"",""right"",""bad_move"",51797.8,2560.4,2474.9,49237.4,85.5,""smooth"",""left"",""left"",""good_move""]","",""
"14106","","<div style=""width:500px;"">
  <p>What determined the result of this run?</p>
  </div>","46","html-slider-response","64","2196241","0.0-10.0-1.4","156","1","2025-07-09 09:10:20","7701e855f2ef39aa3fd6c71abdc6918a","41.123.66.187","Mozilla/5.0 (Windows NT 10.0; Win64; x64) AppleWebKit/537.36 (KHTML, like Gecko) Chrome/138.0.0.0 Safari/537.36","WebKit","Chrome","138.0.0.0","Windows","10.0","https://app.prolific.com/","en-GB,en-US;q=0.9,en;q=0.8","67e074f58a5ea7d9897f3223","686d226cabeef709c732f8e1","686e314429c080798df9d92d","67e074f58a5ea7d9897f3223","2025-07-09T09:45:41.946Z","","","","","","AttribQ","","","","","","","","","","","","","","","","","","","","","","","","","","","","","","","","","","","","","","50"
"7567","","<div style=""width:500px;"">
  <p>How much control did you have over the ball?</p>
  </div>","0","html-slider-response","65","2203817","0.0-10.0-2.4","156","1","2025-07-09 09:10:20","7701e855f2ef39aa3fd6c71abdc6918a","41.123.66.187","Mozilla/5.0 (Windows NT 10.0; Win64; x64) AppleWebKit/537.36 (KHTML, like Gecko) Chrome/138.0.0.0 Safari/537.36","WebKit","Chrome","138.0.0.0","Windows","10.0","https://app.prolific.com/","en-GB,en-US;q=0.9,en;q=0.8","67e074f58a5ea7d9897f3223","686d226cabeef709c732f8e1","686e314429c080798df9d92d","67e074f58a5ea7d9897f3223","2025-07-09T09:45:49.521Z","","","","","","ControlQ","","","","","","","","","","","","","","","","","","","","","","","","","","","","","","","","","","","","","","50"
"6872","","<div style=""width:500px;"">
  <p>How would you describe your current emotional state?</p>
  </div>","96","html-slider-response","66","2210691","0.0-10.0-3.4","156","1","2025-07-09 09:10:20","7701e855f2ef39aa3fd6c71abdc6918a","41.123.66.187","Mozilla/5.0 (Windows NT 10.0; Win64; x64) AppleWebKit/537.36 (KHTML, like Gecko) Chrome/138.0.0.0 Safari/537.36","WebKit","Chrome","138.0.0.0","Windows","10.0","https://app.prolific.com/","en-GB,en-US;q=0.9,en;q=0.8","67e074f58a5ea7d9897f3223","686d226cabeef709c732f8e1","686e314429c080798df9d92d","67e074f58a5ea7d9897f3223","2025-07-09T09:45:56.395Z","","","","","","StressQ","","","","","","","","","","","","","","","","","","","","","","","","","","","","","","","","","","","","","","50"
"10787","","<div style=""width:500px;"">
  <p>What best describes how you currently feel?</p>
  </div>","49","html-slider-response","67","2221481","0.0-10.0-4.4","156","1","2025-07-09 09:10:20","7701e855f2ef39aa3fd6c71abdc6918a","41.123.66.187","Mozilla/5.0 (Windows NT 10.0; Win64; x64) AppleWebKit/537.36 (KHTML, like Gecko) Chrome/138.0.0.0 Safari/537.36","WebKit","Chrome","138.0.0.0","Windows","10.0","https://app.prolific.com/","en-GB,en-US;q=0.9,en;q=0.8","67e074f58a5ea7d9897f3223","686d226cabeef709c732f8e1","686e314429c080798df9d92d","67e074f58a5ea7d9897f3223","2025-07-09T09:46:07.185Z","","","","","","MotivationQ","","","","","","","","","","","","","","","","","","","","","","","","","","","","","","","","","","","","","","50"
"","","","","ctl-task-cpt","68","2297118","0.0-10.0-0.5","156","1","2025-07-09 09:10:20","7701e855f2ef39aa3fd6c71abdc6918a","41.123.66.187","Mozilla/5.0 (Windows NT 10.0; Win64; x64) AppleWebKit/537.36 (KHTML, like Gecko) Chrome/138.0.0.0 Safari/537.36","WebKit","Chrome","138.0.0.0","Windows","10.0","https://app.prolific.com/","en-GB,en-US;q=0.9,en;q=0.8","67e074f58a5ea7d9897f3223","686d226cabeef709c732f8e1","686e314429c080798df9d92d","67e074f58a5ea7d9897f3223","2025-07-09T09:47:22.823Z","","","","","","","","","","","","","","","","win-only","0","g1:NW,g2:SE","0.5","6","0","2236792.7","1455","6462.8","72613.2","1","4","8","6","2","8","8","11","3","0.08333333333333333","5007.8","3000","85","[""down"",""right""]","{""num_key_presses"":16,""num_perfect"":8,""num_errors"":0,""num_randdir"":8,""num_randdir_good_moves"":3,""num_whilered"":0,""num_whileblue"":0,""num_blue"":5,""num_good_moves"":11}","[414.0714133126395,409.07142761775424,1.9,414.0714133126395,409.07142761775424,100.1,414.0714133126395,409.07142761775424,205,414.0714133126395,409.07142761775424,310.3,414.0714133126395,409.07142761775424,414.7,414.0714133126395,409.07142761775424,525.4,416.5714133126395,407.82142761775424,638.9,422.8214133126395,405.32142761775424,741.9,427.8214133126395,401.57142761775424,842.6,427.8214133126395,401.57142761775424,947.6,429.0714133126395,399.07142761775424,1054.9,446.5714133126395,391.57142761775424,1160.1,451.5714133126395,405.32142761775424,1267.4,451.5714133126395,405.32142761775424,1372.8,451.5714133126395,405.32142761775424,1477.2,451.5714133126395,405.32142761775424,1588.6,451.5714133126395,405.32142761775424,1694.4,451.5714133126395,405.32142761775424,1795.3,451.5714133126395,405.32142761775424,1897.4,451.5714133126395,405.32142761775424,2004,451.5714133126395,405.32142761775424,2110.7,451.5714133126395,405.32142761775424,2213.3,451.5714133126395,405.32142761775424,2319.3,451.5714133126395,405.32142761775424,2422.4,451.5714133126395,405.32142761775424,2524.4,451.5714133126395,405.32142761775424,2629.3,451.5714133126395,405.32142761775424,2733.3,451.5714133126395,405.32142761775424,2837.5,451.5714133126395,405.32142761775424,2944.4,451.5714133126395,405.32142761775424,3046,451.5714133126395,405.32142761775424,3153,451.5714133126395,405.32142761775424,3258.9,451.5714133126395,405.32142761775424,3369.3,451.5714133126395,405.32142761775424,3478.9,451.5714133126395,405.32142761775424,3584.8,451.5714133126395,405.32142761775424,3685.2,451.5714133126395,405.32142761775424,3794.7,451.5714133126395,405.32142761775424,3897.7,451.5714133126395,405.32142761775424,4008.7,451.5714133126395,405.32142761775424,4118.5,451.5714133126395,405.32142761775424,4227.6,451.5714133126395,405.32142761775424,4330.7,451.5714133126395,405.32142761775424,4439.4,451.5714133126395,405.32142761775424,4547.4,451.5714133126395,405.32142761775424,4655.7,451.5714133126395,405.32142761775424,4764.8,451.5714133126395,405.32142761775424,4871.9,451.5714133126395,405.32142761775424,4978.7]","[12834.5,12834.5,3141,9211.9,481.6,""smooth"",""down"",""down"",""good_move"",15965.8,3129.9,2558.3,12835.9,571.6,""smooth"",""right"",""right"",""good_move"",19375.6,3408.3,2903.8,15967.3,504.5,""oops"",""right"",""down"",""good_move"",22789.5,3412.2,2949.6,19377.3,462.6,""oops"",""right"",""up"",""bad_move"",25969.4,3177.9,2513.7,22791.6,664.2,""oops"",""right"",""down"",""good_move"",34977.4,9006.5,1632.5,32857.7,487.2,""smooth"",""right"",""right"",""good_move"",38049.2,3070.2,2507.7,34979.1,562.5,""oops"",""right"",""up"",""bad_move"",41343.9,3293.4,2688.8,38050.6,604.6,""oops"",""up"",""left"",""bad_move"",44538.8,3190.2,2764.1,41348.6,426.1,""smooth"",""down"",""down"",""good_move"",47249.9,2710,2262.9,44539.9,447.1,""smooth"",""down"",""down"",""good_move"",50939.2,3688.2,3225.8,47251.1,462.3,""smooth"",""right"",""right"",""good_move"",53762.7,2820.7,2349.1,50942,471.6,""oops"",""right"",""left"",""bad_move"",56760.9,2996.8,2200.2,53764.1,796.6,""oops"",""right"",""right"",""good_move"",60168.6,3406.1,3014.1,56762.7,391.8,""oops"",""right"",""up"",""bad_move"",62615.4,2441.8,1874.9,60173.6,566.9,""smooth"",""right"",""right"",""good_move"",65899.5,3281.3,2927.7,62618.2,353.6,""smooth"",""down"",""down"",""good_move""]","",""
"8046","","<div style=""width:500px;"">
  <p>What determined the result of this run?</p>
  </div>","100","html-slider-response","69","2305167","0.0-10.0-1.5","156","1","2025-07-09 09:10:20","7701e855f2ef39aa3fd6c71abdc6918a","41.123.66.187","Mozilla/5.0 (Windows NT 10.0; Win64; x64) AppleWebKit/537.36 (KHTML, like Gecko) Chrome/138.0.0.0 Safari/537.36","WebKit","Chrome","138.0.0.0","Windows","10.0","https://app.prolific.com/","en-GB,en-US;q=0.9,en;q=0.8","67e074f58a5ea7d9897f3223","686d226cabeef709c732f8e1","686e314429c080798df9d92d","67e074f58a5ea7d9897f3223","2025-07-09T09:47:30.872Z","","","","","","AttribQ","","","","","","","","","","","","","","","","","","","","","","","","","","","","","","","","","","","","","","50"
"6501","","<div style=""width:500px;"">
  <p>How much control did you have over the ball?</p>
  </div>","81","html-slider-response","70","2311673","0.0-10.0-2.5","156","1","2025-07-09 09:10:20","7701e855f2ef39aa3fd6c71abdc6918a","41.123.66.187","Mozilla/5.0 (Windows NT 10.0; Win64; x64) AppleWebKit/537.36 (KHTML, like Gecko) Chrome/138.0.0.0 Safari/537.36","WebKit","Chrome","138.0.0.0","Windows","10.0","https://app.prolific.com/","en-GB,en-US;q=0.9,en;q=0.8","67e074f58a5ea7d9897f3223","686d226cabeef709c732f8e1","686e314429c080798df9d92d","67e074f58a5ea7d9897f3223","2025-07-09T09:47:37.377Z","","","","","","ControlQ","","","","","","","","","","","","","","","","","","","","","","","","","","","","","","","","","","","","","","50"
"5256","","<div style=""width:500px;"">
  <p>How would you describe your current emotional state?</p>
  </div>","0","html-slider-response","71","2316931","0.0-10.0-3.5","156","1","2025-07-09 09:10:20","7701e855f2ef39aa3fd6c71abdc6918a","41.123.66.187","Mozilla/5.0 (Windows NT 10.0; Win64; x64) AppleWebKit/537.36 (KHTML, like Gecko) Chrome/138.0.0.0 Safari/537.36","WebKit","Chrome","138.0.0.0","Windows","10.0","https://app.prolific.com/","en-GB,en-US;q=0.9,en;q=0.8","67e074f58a5ea7d9897f3223","686d226cabeef709c732f8e1","686e314429c080798df9d92d","67e074f58a5ea7d9897f3223","2025-07-09T09:47:42.636Z","","","","","","StressQ","","","","","","","","","","","","","","","","","","","","","","","","","","","","","","","","","","","","","","50"
"7729","","<div style=""width:500px;"">
  <p>What best describes how you currently feel?</p>
  </div>","98","html-slider-response","72","2324666","0.0-10.0-4.5","156","1","2025-07-09 09:10:20","7701e855f2ef39aa3fd6c71abdc6918a","41.123.66.187","Mozilla/5.0 (Windows NT 10.0; Win64; x64) AppleWebKit/537.36 (KHTML, like Gecko) Chrome/138.0.0.0 Safari/537.36","WebKit","Chrome","138.0.0.0","Windows","10.0","https://app.prolific.com/","en-GB,en-US;q=0.9,en;q=0.8","67e074f58a5ea7d9897f3223","686d226cabeef709c732f8e1","686e314429c080798df9d92d","67e074f58a5ea7d9897f3223","2025-07-09T09:47:50.370Z","","","","","","MotivationQ","","","","","","","","","","","","","","","","","","","","","","","","","","","","","","","","","","","","","","50"
"","","","","ctl-task-cpt","73","2400078","0.0-10.0-0.6","156","1","2025-07-09 09:10:20","7701e855f2ef39aa3fd6c71abdc6918a","41.123.66.187","Mozilla/5.0 (Windows NT 10.0; Win64; x64) AppleWebKit/537.36 (KHTML, like Gecko) Chrome/138.0.0.0 Safari/537.36","WebKit","Chrome","138.0.0.0","Windows","10.0","https://app.prolific.com/","en-GB,en-US;q=0.9,en;q=0.8","67e074f58a5ea7d9897f3223","686d226cabeef709c732f8e1","686e314429c080798df9d92d","67e074f58a5ea7d9897f3223","2025-07-09T09:49:05.782Z","","","","","","","","","","","","","","","","win-only","3","g1:SW,g2:NE","0.4","7","0","2340000.9","2185.6","7194.4","72344.2","1","4","8","6","1","1","1","12","11","0.09090909090909091","5008.8","3000","1370","[""down"",""left""]","{""num_key_presses"":12,""num_perfect"":6,""num_errors"":0,""num_randdir"":6,""num_randdir_good_moves"":3,""num_whilered"":0,""num_whileblue"":0,""num_blue"":6,""num_good_moves"":8}","[420.3214133126395,416.57142761775424,0.9,420.3214133126395,416.57142761775424,120.6,420.3214133126395,416.57142761775424,225.1,420.3214133126395,416.57142761775424,327.5,431.5714133126395,411.57142761775424,493.7,447.8214133126395,404.07142761775424,640.6,449.0714133126395,404.07142761775424,782.1,449.0714133126395,404.07142761775424,898.7,449.0714133126395,404.07142761775424,1061.7,449.0714133126395,404.07142761775424,1164.9,449.0714133126395,404.07142761775424,1268.9,449.0714133126395,404.07142761775424,1407.1,449.0714133126395,404.07142761775424,1542.8,449.0714133126395,404.07142761775424,1660.8,449.0714133126395,404.07142761775424,1767.4,449.0714133126395,404.07142761775424,1891.7,449.0714133126395,404.07142761775424,2033.7,449.0714133126395,404.07142761775424,2198,449.0714133126395,404.07142761775424,2325.6,449.0714133126395,404.07142761775424,2442,449.0714133126395,404.07142761775424,2557.5,449.0714133126395,404.07142761775424,2666.8,449.0714133126395,404.07142761775424,2792.1,449.0714133126395,404.07142761775424,2899.9,449.0714133126395,404.07142761775424,3029.7,449.0714133126395,404.07142761775424,3180.2,449.0714133126395,404.07142761775424,3307.2,449.0714133126395,404.07142761775424,3416.4,449.0714133126395,404.07142761775424,3545.9,449.0714133126395,404.07142761775424,3668.5,450.3214133126395,401.57142761775424,3799.4,450.3214133126395,401.57142761775424,3899.8,451.5714133126395,399.07142761775424,4011.1,451.5714133126395,399.07142761775424,4119.3,451.5714133126395,401.57142761775424,4223.7,450.3214133126395,402.82142761775424,4341.4,447.8214133126395,404.07142761775424,4468.6,445.3214133126395,406.57142761775424,4580.8,444.0714133126395,407.82142761775424,4694.7,444.0714133126395,407.82142761775424,4865.1]","[1497.1,1497.2,1000,0,497.2,""smooth"",""left"",""left"",""good_move"",7772.6,6274.4,2715.6,1498.2,3558.8,""oops"",""left"",""down"",""good_move"",10622.4,2842.9,2209.8,7779.6,633.1,""smooth"",""left"",""left"",""good_move"",19707,9067.1,2432,16864.7,410.3,""oops"",""down"",""up"",""bad_move"",26089,6378.8,2697.3,19710.2,3681.5,""oops"",""right"",""down"",""good_move"",28853.4,2763.4,2214.1,26090,549.3,""smooth"",""right"",""right"",""bad_move"",31617.1,2752.7,2151.1,28864.4,601.6,""oops"",""left"",""down"",""good_move"",33869.7,2250.4,1735.5,31619.3,514.9,""oops"",""left"",""up"",""bad_move"",40433.8,6557.4,1842,37911.3,680.5,""oops"",""left"",""up"",""bad_move"",51638.4,11200.6,2104.6,49160.1,373.7,""smooth"",""left"",""left"",""good_move"",59074.2,7433.9,3098.1,55519.6,456.5,""smooth"",""down"",""down"",""good_move"",64949.9,5874.3,2077.6,62458,414.4,""smooth"",""down"",""down"",""good_move""]","",""
"8179","","<div style=""width:500px;"">
  <p>What determined the result of this run?</p>
  </div>","76","html-slider-response","74","2408264","0.0-10.0-1.6","156","1","2025-07-09 09:10:20","7701e855f2ef39aa3fd6c71abdc6918a","41.123.66.187","Mozilla/5.0 (Windows NT 10.0; Win64; x64) AppleWebKit/537.36 (KHTML, like Gecko) Chrome/138.0.0.0 Safari/537.36","WebKit","Chrome","138.0.0.0","Windows","10.0","https://app.prolific.com/","en-GB,en-US;q=0.9,en;q=0.8","67e074f58a5ea7d9897f3223","686d226cabeef709c732f8e1","686e314429c080798df9d92d","67e074f58a5ea7d9897f3223","2025-07-09T09:49:13.968Z","","","","","","AttribQ","","","","","","","","","","","","","","","","","","","","","","","","","","","","","","","","","","","","","","50"
"9079","","<div style=""width:500px;"">
  <p>How much control did you have over the ball?</p>
  </div>","55","html-slider-response","75","2417348","0.0-10.0-2.6","156","1","2025-07-09 09:10:20","7701e855f2ef39aa3fd6c71abdc6918a","41.123.66.187","Mozilla/5.0 (Windows NT 10.0; Win64; x64) AppleWebKit/537.36 (KHTML, like Gecko) Chrome/138.0.0.0 Safari/537.36","WebKit","Chrome","138.0.0.0","Windows","10.0","https://app.prolific.com/","en-GB,en-US;q=0.9,en;q=0.8","67e074f58a5ea7d9897f3223","686d226cabeef709c732f8e1","686e314429c080798df9d92d","67e074f58a5ea7d9897f3223","2025-07-09T09:49:23.052Z","","","","","","ControlQ","","","","","","","","","","","","","","","","","","","","","","","","","","","","","","","","","","","","","","50"
"5001","","<div style=""width:500px;"">
  <p>How would you describe your current emotional state?</p>
  </div>","0","html-slider-response","76","2422352","0.0-10.0-3.6","156","1","2025-07-09 09:10:20","7701e855f2ef39aa3fd6c71abdc6918a","41.123.66.187","Mozilla/5.0 (Windows NT 10.0; Win64; x64) AppleWebKit/537.36 (KHTML, like Gecko) Chrome/138.0.0.0 Safari/537.36","WebKit","Chrome","138.0.0.0","Windows","10.0","https://app.prolific.com/","en-GB,en-US;q=0.9,en;q=0.8","67e074f58a5ea7d9897f3223","686d226cabeef709c732f8e1","686e314429c080798df9d92d","67e074f58a5ea7d9897f3223","2025-07-09T09:49:28.056Z","","","","","","StressQ","","","","","","","","","","","","","","","","","","","","","","","","","","","","","","","","","","","","","","50"
"4420","","<div style=""width:500px;"">
  <p>What best describes how you currently feel?</p>
  </div>","100","html-slider-response","77","2426775","0.0-10.0-4.6","156","1","2025-07-09 09:10:20","7701e855f2ef39aa3fd6c71abdc6918a","41.123.66.187","Mozilla/5.0 (Windows NT 10.0; Win64; x64) AppleWebKit/537.36 (KHTML, like Gecko) Chrome/138.0.0.0 Safari/537.36","WebKit","Chrome","138.0.0.0","Windows","10.0","https://app.prolific.com/","en-GB,en-US;q=0.9,en;q=0.8","67e074f58a5ea7d9897f3223","686d226cabeef709c732f8e1","686e314429c080798df9d92d","67e074f58a5ea7d9897f3223","2025-07-09T09:49:32.479Z","","","","","","MotivationQ","","","","","","","","","","","","","","","","","","","","","","","","","","","","","","","","","","","","","","50"
"","","","","ctl-task-cpt","78","2507617","0.0-10.0-0.7","156","1","2025-07-09 09:10:20","7701e855f2ef39aa3fd6c71abdc6918a","41.123.66.187","Mozilla/5.0 (Windows NT 10.0; Win64; x64) AppleWebKit/537.36 (KHTML, like Gecko) Chrome/138.0.0.0 Safari/537.36","WebKit","Chrome","138.0.0.0","Windows","10.0","https://app.prolific.com/","en-GB,en-US;q=0.9,en;q=0.8","67e074f58a5ea7d9897f3223","686d226cabeef709c732f8e1","686e314429c080798df9d92d","67e074f58a5ea7d9897f3223","2025-07-09T09:50:53.321Z","","","","","","","","","","","","","","","","win-only","3","g1:SW,g2:NE","0.3","8","0","2442088.8","2036.6","7052.1","77803.8","1","4","4","6","2","4","4","16","12","0.12121212121212122","5015.5","3000","1060","[""up"",""right""]","{""num_key_presses"":16,""num_perfect"":6,""num_errors"":0,""num_randdir"":10,""num_randdir_good_moves"":5,""num_whilered"":0,""num_whileblue"":0,""num_blue"":4,""num_good_moves"":11}","[409.0714133126395,406.57142761775424,0.8,407.8214133126395,406.57142761775424,122.5,407.8214133126395,406.57142761775424,235.1,407.8214133126395,406.57142761775424,342.5,411.5714133126395,405.32142761775424,456.6,435.3214133126395,396.57142761775424,573.5,440.3214133126395,395.32142761775424,696.1,440.3214133126395,395.32142761775424,806,440.3214133126395,395.32142761775424,915.9,440.3214133126395,395.32142761775424,1078.9,440.3214133126395,395.32142761775424,1196.5,440.3214133126395,395.32142761775424,1309.6,440.3214133126395,395.32142761775424,1413.6,440.3214133126395,395.32142761775424,1524.9,440.3214133126395,395.32142761775424,1635.9,440.3214133126395,395.32142761775424,1750.1,440.3214133126395,395.32142761775424,1864.9,440.3214133126395,395.32142761775424,1971,440.3214133126395,395.32142761775424,2092.1,440.3214133126395,395.32142761775424,2202.9,440.3214133126395,395.32142761775424,2327.3,434.0714133126395,401.57142761775424,2452.5,434.0714133126395,401.57142761775424,2558.5,434.0714133126395,401.57142761775424,2664.9,434.0714133126395,401.57142761775424,2780.1,434.0714133126395,401.57142761775424,2888.6,434.0714133126395,401.57142761775424,2999.8,434.0714133126395,401.57142761775424,3113.2,434.0714133126395,401.57142761775424,3226.2,434.0714133126395,401.57142761775424,3330.3,434.0714133126395,401.57142761775424,3447.3,434.0714133126395,401.57142761775424,3556,434.0714133126395,401.57142761775424,3667.7,434.0714133126395,401.57142761775424,3818.2,434.0714133126395,401.57142761775424,3930.2,434.0714133126395,401.57142761775424,4052.6,434.0714133126395,401.57142761775424,4174.8,434.0714133126395,401.57142761775424,4291,434.0714133126395,401.57142761775424,4401.3,434.0714133126395,401.57142761775424,4514.4,434.0714133126395,401.57142761775424,4629.2,434.0714133126395,401.57142761775424,4745.2,434.0714133126395,401.57142761775424,4864.9,434.0714133126395,401.57142761775424,4990]","[1953.2,1953.2,1000,0,953.2,""smooth"",""up"",""up"",""good_move"",9953.7,7999.3,2916.5,6612.9,424.3,""oops"",""up"",""up"",""good_move"",15650.3,5695.3,2262.1,9955,3433.2,""oops"",""up"",""left"",""bad_move"",19194.3,3542.6,2942,15651.8,600.5,""oops"",""right"",""down"",""bad_move"",22410.4,3214.4,2819.5,19196,394.9,""oops"",""up"",""left"",""bad_move"",26749.5,4337.8,2268.4,22411.7,2069.4,""smooth"",""right"",""right"",""good_move"",30245.8,3492.1,3029.8,26753.7,462.3,""oops"",""up"",""left"",""bad_move"",33572.9,3323.7,2530.7,30249.2,793,""smooth"",""right"",""right"",""good_move"",36101.7,2527,1998,33574.7,529,""oops"",""right"",""right"",""good_move"",42115.9,6012.3,2408.7,39314,393.2,""oops"",""right"",""up"",""good_move"",53275,11157.8,2359.2,50490.7,425.1,""smooth"",""right"",""right"",""good_move"",56370.1,3093.9,2585.7,53276.2,508.2,""smooth"",""right"",""right"",""good_move"",59494.5,3122.6,2685.4,56372,437.1,""oops"",""right"",""down"",""bad_move"",62667.6,3169.1,2756.9,59498.6,412.1,""oops"",""up"",""right"",""good_move"",66214.7,3521.2,3156.3,62693.6,364.9,""oops"",""up"",""up"",""good_move"",70374.2,4157.3,2255.1,66216.9,1902.2,""smooth"",""up"",""up"",""good_move""]","",""
"7555","","<div style=""width:500px;"">
  <p>What determined the result of this run?</p>
  </div>","100","html-slider-response","79","2515174","0.0-10.0-1.7","156","1","2025-07-09 09:10:20","7701e855f2ef39aa3fd6c71abdc6918a","41.123.66.187","Mozilla/5.0 (Windows NT 10.0; Win64; x64) AppleWebKit/537.36 (KHTML, like Gecko) Chrome/138.0.0.0 Safari/537.36","WebKit","Chrome","138.0.0.0","Windows","10.0","https://app.prolific.com/","en-GB,en-US;q=0.9,en;q=0.8","67e074f58a5ea7d9897f3223","686d226cabeef709c732f8e1","686e314429c080798df9d92d","67e074f58a5ea7d9897f3223","2025-07-09T09:51:00.879Z","","","","","","AttribQ","","","","","","","","","","","","","","","","","","","","","","","","","","","","","","","","","","","","","","50"
"4402","","<div style=""width:500px;"">
  <p>How much control did you have over the ball?</p>
  </div>","73","html-slider-response","80","2519579","0.0-10.0-2.7","156","1","2025-07-09 09:10:20","7701e855f2ef39aa3fd6c71abdc6918a","41.123.66.187","Mozilla/5.0 (Windows NT 10.0; Win64; x64) AppleWebKit/537.36 (KHTML, like Gecko) Chrome/138.0.0.0 Safari/537.36","WebKit","Chrome","138.0.0.0","Windows","10.0","https://app.prolific.com/","en-GB,en-US;q=0.9,en;q=0.8","67e074f58a5ea7d9897f3223","686d226cabeef709c732f8e1","686e314429c080798df9d92d","67e074f58a5ea7d9897f3223","2025-07-09T09:51:05.284Z","","","","","","ControlQ","","","","","","","","","","","","","","","","","","","","","","","","","","","","","","","","","","","","","","50"
"4655","","<div style=""width:500px;"">
  <p>How would you describe your current emotional state?</p>
  </div>","0","html-slider-response","81","2524239","0.0-10.0-3.7","156","1","2025-07-09 09:10:20","7701e855f2ef39aa3fd6c71abdc6918a","41.123.66.187","Mozilla/5.0 (Windows NT 10.0; Win64; x64) AppleWebKit/537.36 (KHTML, like Gecko) Chrome/138.0.0.0 Safari/537.36","WebKit","Chrome","138.0.0.0","Windows","10.0","https://app.prolific.com/","en-GB,en-US;q=0.9,en;q=0.8","67e074f58a5ea7d9897f3223","686d226cabeef709c732f8e1","686e314429c080798df9d92d","67e074f58a5ea7d9897f3223","2025-07-09T09:51:09.943Z","","","","","","StressQ","","","","","","","","","","","","","","","","","","","","","","","","","","","","","","","","","","","","","","50"
"4951","","<div style=""width:500px;"">
  <p>What best describes how you currently feel?</p>
  </div>","100","html-slider-response","82","2529195","0.0-10.0-4.7","156","1","2025-07-09 09:10:20","7701e855f2ef39aa3fd6c71abdc6918a","41.123.66.187","Mozilla/5.0 (Windows NT 10.0; Win64; x64) AppleWebKit/537.36 (KHTML, like Gecko) Chrome/138.0.0.0 Safari/537.36","WebKit","Chrome","138.0.0.0","Windows","10.0","https://app.prolific.com/","en-GB,en-US;q=0.9,en;q=0.8","67e074f58a5ea7d9897f3223","686d226cabeef709c732f8e1","686e314429c080798df9d92d","67e074f58a5ea7d9897f3223","2025-07-09T09:51:14.899Z","","","","","","MotivationQ","","","","","","","","","","","","","","","","","","","","","","","","","","","","","","","","","","","","","","50"
