"rt","response_timestamp","stimulus","response","trial_type","trial_index","time_elapsed","internal_node_id","run_id","condition","recorded_at","source_code_version","ip","user_agent","device","browser","browser_version","platform","platform_version","referer","accept_language","PROLIFIC_PID","STUDY_ID","SESSION_ID","prolific_id","realtime","view_history","question_order","consent","success","question_id","eventType","responses","item_order","radio_event_ids","radio_event_times","key_event_times","mouse_event_times","straightlining","zigzagging","honeypot","which_type","canvas_config","goals_layout","control_level","trial_number","tutorial_trial_number","trial_start_time","phase1_start_time","phase2_start_time","phase3_start_time","goal_1_value","goal_1_distance","goal_2_value","goal_2_distance","goal_selected","outcome","outcome_total","participant_final_score","participant_initial_score","participant_final_score_prop","goal_choice_rt","allocated_time","allocated_time_remaining","goal_direction","counts","mouse_movements","key_presses","correct","slider_start","sub_question"
"11559","1752061645090","<p style='font-size:40px;line-height:1.25'><strong>Welcome to the experiment!</strong></p><p style='font-size:1.1em;line-height:1.25'>Thank you for your interest in our experiment! Before you begin, it is important that we obtain your informed consent to participate in the study.</p><p style='font-size:1.1em;line-height:1.25'>On the next screen will be an <strong>information sheet</strong> for you to read. To participate in the study we need you to read this information sheet and the following consent form carefully. If you agree with all the statements, please click the <strong>I agree</strong> button.</p><p style='font-size:1.1em;line-height:1.25'>Press <strong>Next</strong> to read the information sheet.</p>","0","custom-html-button-response","0","11564","0.0-0.0","287","1","2025-07-09 11:47:08","7701e855f2ef39aa3fd6c71abdc6918a","41.13.188.129","Mozilla/5.0 (Windows NT 10.0; Win64; x64) AppleWebKit/537.36 (KHTML, like Gecko) Chrome/138.0.0.0 Safari/537.36","WebKit","Chrome","138.0.0.0","Windows","10.0","https://app.prolific.com/","en-US,en;q=0.9","660eafee7515c432e850362d","686d226cabeef709c732f8e1","686e565b50186bb4474bd680","660eafee7515c432e850362d","2025-07-09T11:47:25.092Z","","","","","","","","","","","","","","","","","","","","","","","","","","","","","","","","","","","","","","","","","","","","",""
"13153","","","","instructions","1","24719","0.0-1.0","287","1","2025-07-09 11:47:08","7701e855f2ef39aa3fd6c71abdc6918a","41.13.188.129","Mozilla/5.0 (Windows NT 10.0; Win64; x64) AppleWebKit/537.36 (KHTML, like Gecko) Chrome/138.0.0.0 Safari/537.36","WebKit","Chrome","138.0.0.0","Windows","10.0","https://app.prolific.com/","en-US,en;q=0.9","660eafee7515c432e850362d","686d226cabeef709c732f8e1","686e565b50186bb4474bd680","660eafee7515c432e850362d","","[{""page_index"":0,""viewing_time"":12191},{""page_index"":1,""viewing_time"":961}]","","","","","","","","","","","","","","","","","","","","","","","","","","","","","","","","","","","","","","","","","","","",""
"25163","","","{""Q0"":"""",""Q1"":"""",""Q2"":"""",""Q3"":"""",""Q4"":"""",""Q5"":"""",""Q6"":""I agree""}","survey-multi-choice","2","49888","0.0-2.0","287","1","2025-07-09 11:47:08","7701e855f2ef39aa3fd6c71abdc6918a","41.13.188.129","Mozilla/5.0 (Windows NT 10.0; Win64; x64) AppleWebKit/537.36 (KHTML, like Gecko) Chrome/138.0.0.0 Safari/537.36","WebKit","Chrome","138.0.0.0","Windows","10.0","https://app.prolific.com/","en-US,en;q=0.9","660eafee7515c432e850362d","686d226cabeef709c732f8e1","686e565b50186bb4474bd680","660eafee7515c432e850362d","","","[0,1,2,3,4,5,6]","true","","","","","","","","","","","","","","","","","","","","","","","","","","","","","","","","","","","","","","","","","",""
"8455","","","","fullscreen","3","59364","0.0-4.0","287","1","2025-07-09 11:47:08","7701e855f2ef39aa3fd6c71abdc6918a","41.13.188.129","Mozilla/5.0 (Windows NT 10.0; Win64; x64) AppleWebKit/537.36 (KHTML, like Gecko) Chrome/138.0.0.0 Safari/537.36","WebKit","Chrome","138.0.0.0","Windows","10.0","https://app.prolific.com/","en-US,en;q=0.9","660eafee7515c432e850362d","686d226cabeef709c732f8e1","686e565b50186bb4474bd680","660eafee7515c432e850362d","","","","","true","","","","","","","","","","","","","","","","","","","","","","","","","","","","","","","","","","","","","","","","",""
"16501","1752061709394"," <p style='font-size:1.1em;line-height:1.25'>Thank you for completing the consent form and closing all other tabs.</p><p style='font-size:1.1em;line-height:1.25'>We will now invite you to fill in some demographic information and questionnaires, before starting the game.<br>This will take about 5 minutes.<br></p><p style='font-size:1.1em;line-height:1.25'>Press the <strong>Next</strong> button to continue.</p>","0","custom-html-button-response","4","75868","0.0-5.0","287","1","2025-07-09 11:47:08","7701e855f2ef39aa3fd6c71abdc6918a","41.13.188.129","Mozilla/5.0 (Windows NT 10.0; Win64; x64) AppleWebKit/537.36 (KHTML, like Gecko) Chrome/138.0.0.0 Safari/537.36","WebKit","Chrome","138.0.0.0","Windows","10.0","https://app.prolific.com/","en-US,en;q=0.9","660eafee7515c432e850362d","686d226cabeef709c732f8e1","686e565b50186bb4474bd680","660eafee7515c432e850362d","2025-07-09T11:48:29.396Z","","","","","","","","","","","","","","","","","","","","","","","","","","","","","","","","","","","","","","","","","","","","",""
"9391","","","{""age"":""31""}","survey-text","5","85272","0.0-6.0-0.0","287","1","2025-07-09 11:47:08","7701e855f2ef39aa3fd6c71abdc6918a","41.13.188.129","Mozilla/5.0 (Windows NT 10.0; Win64; x64) AppleWebKit/537.36 (KHTML, like Gecko) Chrome/138.0.0.0 Safari/537.36","WebKit","Chrome","138.0.0.0","Windows","10.0","https://app.prolific.com/","en-US,en;q=0.9","660eafee7515c432e850362d","686d226cabeef709c732f8e1","686e565b50186bb4474bd680","660eafee7515c432e850362d","","","","","","0","demographics","","","","","","","","","","","","","","","","","","","","","","","","","","","","","","","","","","","","","","",""
"3384","","","{""gender_identity"":""female/woman""}","survey-multi-choice","6","88659","0.0-6.0-1.0","287","1","2025-07-09 11:47:08","7701e855f2ef39aa3fd6c71abdc6918a","41.13.188.129","Mozilla/5.0 (Windows NT 10.0; Win64; x64) AppleWebKit/537.36 (KHTML, like Gecko) Chrome/138.0.0.0 Safari/537.36","WebKit","Chrome","138.0.0.0","Windows","10.0","https://app.prolific.com/","en-US,en;q=0.9","660eafee7515c432e850362d","686d226cabeef709c732f8e1","686e565b50186bb4474bd680","660eafee7515c432e850362d","","","[0]","","","1","demographics","","","","","","","","","","","","","","","","","","","","","","","","","","","","","","","","","","","","","","",""
"7285","","","{""assigned_sex"":""female""}","survey-multi-choice","7","95947","0.0-6.0-2.0","287","1","2025-07-09 11:47:08","7701e855f2ef39aa3fd6c71abdc6918a","41.13.188.129","Mozilla/5.0 (Windows NT 10.0; Win64; x64) AppleWebKit/537.36 (KHTML, like Gecko) Chrome/138.0.0.0 Safari/537.36","WebKit","Chrome","138.0.0.0","Windows","10.0","https://app.prolific.com/","en-US,en;q=0.9","660eafee7515c432e850362d","686d226cabeef709c732f8e1","686e565b50186bb4474bd680","660eafee7515c432e850362d","","","[0]","","","2","demographics","","","","","","","","","","","","","","","","","","","","","","","","","","","","","","","","","","","","","","",""
"7041","","","{""menstrual_cycle"":""No""}","survey-multi-choice","8","102992","0.0-6.0-3.0","287","1","2025-07-09 11:47:08","7701e855f2ef39aa3fd6c71abdc6918a","41.13.188.129","Mozilla/5.0 (Windows NT 10.0; Win64; x64) AppleWebKit/537.36 (KHTML, like Gecko) Chrome/138.0.0.0 Safari/537.36","WebKit","Chrome","138.0.0.0","Windows","10.0","https://app.prolific.com/","en-US,en;q=0.9","660eafee7515c432e850362d","686d226cabeef709c732f8e1","686e565b50186bb4474bd680","660eafee7515c432e850362d","","","[0]","","","4","demographics","","","","","","","","","","","","","","","","","","","","","","","","","","","","","","","","","","","","","","",""
"5821","","","{""education"":""Bachelor's Degree (e.g., BA)""}","survey-multi-choice","9","108815","0.0-6.0-4.0","287","1","2025-07-09 11:47:08","7701e855f2ef39aa3fd6c71abdc6918a","41.13.188.129","Mozilla/5.0 (Windows NT 10.0; Win64; x64) AppleWebKit/537.36 (KHTML, like Gecko) Chrome/138.0.0.0 Safari/537.36","WebKit","Chrome","138.0.0.0","Windows","10.0","https://app.prolific.com/","en-US,en;q=0.9","660eafee7515c432e850362d","686d226cabeef709c732f8e1","686e565b50186bb4474bd680","660eafee7515c432e850362d","","","[0]","","","5","demographics","","","","","","","","","","","","","","","","","","","","","","","","","","","","","","","","","","","","","","",""
"5134","","","{""education"":""Master's Degree (e.g., MSc)""}","survey-multi-choice","10","113952","0.0-6.0-5.0","287","1","2025-07-09 11:47:08","7701e855f2ef39aa3fd6c71abdc6918a","41.13.188.129","Mozilla/5.0 (Windows NT 10.0; Win64; x64) AppleWebKit/537.36 (KHTML, like Gecko) Chrome/138.0.0.0 Safari/537.36","WebKit","Chrome","138.0.0.0","Windows","10.0","https://app.prolific.com/","en-US,en;q=0.9","660eafee7515c432e850362d","686d226cabeef709c732f8e1","686e565b50186bb4474bd680","660eafee7515c432e850362d","2025-07-09T11:49:07.479Z","","[0]","","","6","demographics","","","","","","","","","","","","","","","","","","","","","","","","","","","","","","","","","","","","","","",""
"11347","","","{""mental_health_condition"":""no"",""mental_health_treatment"":""no"",""psychiatric_medication"":""no""}","survey-text","11","125304","0.0-7.0-0.0","287","1","2025-07-09 11:47:08","7701e855f2ef39aa3fd6c71abdc6918a","41.13.188.129","Mozilla/5.0 (Windows NT 10.0; Win64; x64) AppleWebKit/537.36 (KHTML, like Gecko) Chrome/138.0.0.0 Safari/537.36","WebKit","Chrome","138.0.0.0","Windows","10.0","https://app.prolific.com/","en-US,en;q=0.9","660eafee7515c432e850362d","686d226cabeef709c732f8e1","686e565b50186bb4474bd680","660eafee7515c432e850362d","2025-07-09T11:49:18.831Z","","","","","1","mental_health","","","","","","","","","","","","","","","","","","","","","","","","","","","","","","","","","","","","","","",""
"11919","","","{""depression_history"":[""Yes""]}","survey-multi-select","12","137229","0.0-7.0-1.0","287","1","2025-07-09 11:47:08","7701e855f2ef39aa3fd6c71abdc6918a","41.13.188.129","Mozilla/5.0 (Windows NT 10.0; Win64; x64) AppleWebKit/537.36 (KHTML, like Gecko) Chrome/138.0.0.0 Safari/537.36","WebKit","Chrome","138.0.0.0","Windows","10.0","https://app.prolific.com/","en-US,en;q=0.9","660eafee7515c432e850362d","686d226cabeef709c732f8e1","686e565b50186bb4474bd680","660eafee7515c432e850362d","","","[0]","","","","mental_health","","","","","","","","","","","","","","","","","","","","","","","","","","","","","","","","","","","","","","",""
"9917","","","{""depression_episodes"":""1-2"",""depression_recent"":""More than 1 year ago""}","survey-multi-choice","13","147149","0.0-7.0-2.0-0.0","287","1","2025-07-09 11:47:08","7701e855f2ef39aa3fd6c71abdc6918a","41.13.188.129","Mozilla/5.0 (Windows NT 10.0; Win64; x64) AppleWebKit/537.36 (KHTML, like Gecko) Chrome/138.0.0.0 Safari/537.36","WebKit","Chrome","138.0.0.0","Windows","10.0","https://app.prolific.com/","en-US,en;q=0.9","660eafee7515c432e850362d","686d226cabeef709c732f8e1","686e565b50186bb4474bd680","660eafee7515c432e850362d","2025-07-09T11:49:40.676Z","","[0,1]","","","3","mental_health","","","","","","","","","","","","","","","","","","","","","","","","","","","","","","","","","","","","","","",""
"46172.5","","","","survey-template","14","193333","0.0-7.0-3.0","287","1","2025-07-09 11:47:08","7701e855f2ef39aa3fd6c71abdc6918a","41.13.188.129","Mozilla/5.0 (Windows NT 10.0; Win64; x64) AppleWebKit/537.36 (KHTML, like Gecko) Chrome/138.0.0.0 Safari/537.36","WebKit","Chrome","138.0.0.0","Windows","10.0","https://app.prolific.com/","en-US,en;q=0.9","660eafee7515c432e850362d","686d226cabeef709c732f8e1","686e565b50186bb4474bd680","660eafee7515c432e850362d","2025-07-09T11:50:26.861Z","","","","","","ius","{""Q01"":""1"",""Q02"":""1"",""Q03"":""1"",""Q04"":""3"",""Q05"":""1"",""Q06"":""1"",""Q07"":""1"",""Q08"":""0"",""Q09"":""2"",""Q10"":""1"",""Q11"":""1"",""Q12"":""3"",""Q13"":""1""}","[0,1,2,3,4,5,6,7,8,9,10,11,12]","[""Q01"",""Q02"",""Q03"",""Q04"",""Q04"",""Q05"",""Q06"",""Q07"",""Q08"",""Q09"",""Q10"",""Q11"",""Q12"",""Q13""]","[3129.10000000149,4804.9000000059605,6345.30000000447,7685.80000000447,9469.70000000298,15121.70000000298,16392.10000000149,19556.20000000298,23405.90000000596,31436.20000000298,32831.80000000447,34315.80000000447,39851.20000000298,44594.30000000447]","[]","[3129.10000000149,4804.9000000059605,6345.30000000447,7685.80000000447,9469.70000000298,10487,15121.70000000298,16392.10000000149,19556.20000000298,23405.90000000596,26562.80000000447,31436.20000000298,32831.80000000447,34315.80000000447,39851.20000000298,40821.60000000149,44594.30000000447,46166]","0.6923076923076923","0.16666666666666666","0","","","","","","","","","","","","","","","","","","","","","","","","","","","","","",""
"2860","1752061829726","<p style='font-size:1.1em;line-height:1.25'>In the following, we will ask you a few questions relating to your experiences over the past month.<br></p><p style='font-size:1.1em;line-height:1.25'>Press the <strong>Next</strong> button to continue.</p>","0","custom-html-button-response","15","196200","0.0-7.0-4.0","287","1","2025-07-09 11:47:08","7701e855f2ef39aa3fd6c71abdc6918a","41.13.188.129","Mozilla/5.0 (Windows NT 10.0; Win64; x64) AppleWebKit/537.36 (KHTML, like Gecko) Chrome/138.0.0.0 Safari/537.36","WebKit","Chrome","138.0.0.0","Windows","10.0","https://app.prolific.com/","en-US,en;q=0.9","660eafee7515c432e850362d","686d226cabeef709c732f8e1","686e565b50186bb4474bd680","660eafee7515c432e850362d","2025-07-09T11:50:29.727Z","","","","","","","","","","","","","","","","","","","","","","","","","","","","","","","","","","","","","","","","","","","","",""
"46692","","","","survey-template","16","242897","0.0-7.0-5.0","287","1","2025-07-09 11:47:08","7701e855f2ef39aa3fd6c71abdc6918a","41.13.188.129","Mozilla/5.0 (Windows NT 10.0; Win64; x64) AppleWebKit/537.36 (KHTML, like Gecko) Chrome/138.0.0.0 Safari/537.36","WebKit","Chrome","138.0.0.0","Windows","10.0","https://app.prolific.com/","en-US,en;q=0.9","660eafee7515c432e850362d","686d226cabeef709c732f8e1","686e565b50186bb4474bd680","660eafee7515c432e850362d","2025-07-09T11:51:16.424Z","","","","","","pss","{""Q01"":""2"",""Q02"":""2"",""Q03"":""2"",""Q04"":""1"",""Q05"":""1"",""Q06"":""2"",""Q07"":""1"",""Q08"":""1"",""Q09"":""2"",""Q10"":""2""}","[0,1,2,3,4,5,6,7,8,9]","[""Q01"",""Q02"",""Q03"",""Q04"",""Q05"",""Q06"",""Q07"",""Q08"",""Q09"",""Q10""]","[7634.70000000298,12516,13670.39999999851,17912.29999999702,29014.70000000298,30307.5,34511.39999999851,37961.20000000298,41597.70000000298,45076.20000000298]","[]","[0.10000000149011612,7634.70000000298,9159.29999999702,12516,13670.39999999851,17912.29999999702,19360,20384.60000000149,25367.20000000298,27967.29999999702,29014.70000000298,30307.5,34511.39999999851,37961.20000000298,41597.70000000298,45076.20000000298,46687.20000000298]","0.6","0.4444444444444444","0","","","","","","","","","","","","","","","","","","","","","","","","","","","","","",""
"3213","1752061879640","<p style='font-size:1.1em;line-height:1.25'>Thank you for your answers! Now we will ask you a few more questions relating to your feelings in the last 24 hours.<br></p><p style='font-size:1.1em;line-height:1.25'>Press the <strong>Next</strong> button to continue.</p>","0","custom-html-button-response","17","246114","0.0-7.0-6.0","287","1","2025-07-09 11:47:08","7701e855f2ef39aa3fd6c71abdc6918a","41.13.188.129","Mozilla/5.0 (Windows NT 10.0; Win64; x64) AppleWebKit/537.36 (KHTML, like Gecko) Chrome/138.0.0.0 Safari/537.36","WebKit","Chrome","138.0.0.0","Windows","10.0","https://app.prolific.com/","en-US,en;q=0.9","660eafee7515c432e850362d","686d226cabeef709c732f8e1","686e565b50186bb4474bd680","660eafee7515c432e850362d","2025-07-09T11:51:19.641Z","","","","","","","","","","","","","","","","","","","","","","","","","","","","","","","","","","","","","","","","","","","","",""
"64359.19999999553","","","","survey-template","18","310480","0.0-7.0-7.0","287","1","2025-07-09 11:47:08","7701e855f2ef39aa3fd6c71abdc6918a","41.13.188.129","Mozilla/5.0 (Windows NT 10.0; Win64; x64) AppleWebKit/537.36 (KHTML, like Gecko) Chrome/138.0.0.0 Safari/537.36","WebKit","Chrome","138.0.0.0","Windows","10.0","https://app.prolific.com/","en-US,en;q=0.9","660eafee7515c432e850362d","686d226cabeef709c732f8e1","686e565b50186bb4474bd680","660eafee7515c432e850362d","2025-07-09T11:52:24.007Z","","","","","","drsp","{""Q01"":""2"",""Q02"":""2"",""Q03"":""2"",""Q04"":""1"",""Q05"":""2"",""Q06"":""2"",""Q07"":""2"",""Q08"":""2"",""Q09"":""2"",""Q10"":""1"",""Q11"":""2"",""Q12"":""3"",""Q13"":""3"",""Q14"":""1"",""Q15"":""1"",""Q16"":""2"",""Q17"":""1"",""Q18"":""1"",""Q19"":""1"",""Q20"":""1"",""Q21"":""1""}","[0,1,2,3,4,5,6,7,8,9,10,11,12,13,14,15,16,17,18,19,20]","[""Q01"",""Q02"",""Q03"",""Q04"",""Q05"",""Q06"",""Q07"",""Q08"",""Q09"",""Q10"",""Q11"",""Q12"",""Q13"",""Q14"",""Q15"",""Q16"",""Q17"",""Q18"",""Q19"",""Q20"",""Q21""]","[5055.69999999553,6208.60000000149,7363.79999999702,10105.5,12491.19999999553,16558.5,17711.69999999553,19667.5,28198.10000000149,30523.60000000149,32378.5,34634.5,37005.19999999553,39362.19999999553,40700.89999999851,43719.69999999553,44974.10000000149,54390.19999999553,57393,60889,63082.69999999553]","[]","[0,5055.69999999553,6208.60000000149,7363.79999999702,8874.39999999851,10105.5,12491.19999999553,16558.5,17711.69999999553,19667.5,21646.19999999553,27160.60000000149,28198.10000000149,29483.69999999553,30523.60000000149,32378.5,34634.5,37005.19999999553,39362.19999999553,40700.89999999851,42804,43719.69999999553,44974.10000000149,45924.10000000149,54390.19999999553,57393,60889,63082.69999999553,64354]","0.47619047619047616","0.35","0","","","","","","","","","","","","","","","","","","","","","","","","","","","","","",""
"9930.09999999404","","","","survey-template","19","320413","0.0-7.0-8.0","287","1","2025-07-09 11:47:08","7701e855f2ef39aa3fd6c71abdc6918a","41.13.188.129","Mozilla/5.0 (Windows NT 10.0; Win64; x64) AppleWebKit/537.36 (KHTML, like Gecko) Chrome/138.0.0.0 Safari/537.36","WebKit","Chrome","138.0.0.0","Windows","10.0","https://app.prolific.com/","en-US,en;q=0.9","660eafee7515c432e850362d","686d226cabeef709c732f8e1","686e565b50186bb4474bd680","660eafee7515c432e850362d","2025-07-09T11:52:33.941Z","","","","","","stress","{""Q01"":""2"",""Q02"":""2"",""Q03"":""3""}","[0,1,2]","[""Q01"",""Q02"",""Q03""]","[4424.39999999851,7519.19999999553,8920.19999999553]","[]","[4424.39999999851,7519.19999999553,8920.19999999553,9929.09999999404]","0.6666666666666666","0.5","0","","","","","","","","","","","","","","","","","","","","","","","","","","","","","",""
"8075","","","","instructions","20","328491","0.0-8.0-0.0","287","1","2025-07-09 11:47:08","7701e855f2ef39aa3fd6c71abdc6918a","41.13.188.129","Mozilla/5.0 (Windows NT 10.0; Win64; x64) AppleWebKit/537.36 (KHTML, like Gecko) Chrome/138.0.0.0 Safari/537.36","WebKit","Chrome","138.0.0.0","Windows","10.0","https://app.prolific.com/","en-US,en;q=0.9","660eafee7515c432e850362d","686d226cabeef709c732f8e1","686e565b50186bb4474bd680","660eafee7515c432e850362d","","[{""page_index"":0,""viewing_time"":3140},{""page_index"":1,""viewing_time"":1247},{""page_index"":2,""viewing_time"":1509},{""page_index"":3,""viewing_time"":2178}]","","","","","","","","","","","","","","","","","","","","","","","","","","","","","","","","","","","","","","","","","","","",""
"","","","","ctl-task-cpt","21","357712","0.0-8.0-1.0","287","1","2025-07-09 11:47:08","7701e855f2ef39aa3fd6c71abdc6918a","41.13.188.129","Mozilla/5.0 (Windows NT 10.0; Win64; x64) AppleWebKit/537.36 (KHTML, like Gecko) Chrome/138.0.0.0 Safari/537.36","WebKit","Chrome","138.0.0.0","Windows","10.0","https://app.prolific.com/","en-US,en;q=0.9","660eafee7515c432e850362d","686d226cabeef709c732f8e1","686e565b50186bb4474bd680","660eafee7515c432e850362d","","","","","","","","","","","","","","","","","win-only","3","g1:SW,g2:NE","1","0","1","336934.3","2288.8","6290.9","26200.4","2","4","4","6","2","4","3","3","0","0.022727272727272728","1583","4000","1845","[""up"",""right""]","{""num_key_presses"":7,""num_perfect"":6,""num_errors"":1,""num_randdir"":0,""num_randdir_good_moves"":0,""num_whilered"":0,""num_whileblue"":0,""num_blue"":0,""num_good_moves"":6}","[299.22232142857143,296.12857142857143,1.7,299.22232142857143,296.12857142857143,102,299.22232142857143,296.12857142857143,202.3,299.22232142857143,296.12857142857143,303.1,299.22232142857143,296.12857142857143,408.9,299.22232142857143,296.12857142857143,517.3,299.22232142857143,296.12857142857143,622.2,299.22232142857143,296.12857142857143,722.3,299.22232142857143,296.12857142857143,822.6,395.22232142857143,186.12857142857143,926.8,504.22232142857143,92.12857142857143,1030.7,523.2223214285714,79.12857142857143,1133.3,532.2223214285714,75.12857142857143,1237.3,534.2223214285714,74.12857142857143,1338.7,534.2223214285714,74.12857142857143,1438.8,534.2223214285714,74.12857142857143,1543.3,534.2223214285714,74.12857142857143,1649.9,534.2223214285714,74.12857142857143,1749.9,534.2223214285714,74.12857142857143,1850.1,534.2223214285714,74.12857142857143,1951.8,534.2223214285714,74.12857142857143,2052,534.2223214285714,74.12857142857143,2152.2,534.2223214285714,74.12857142857143,2252.7,534.2223214285714,74.12857142857143,2357.5,534.2223214285714,74.12857142857143,2457.5,534.2223214285714,74.12857142857143,2567.4,534.2223214285714,74.12857142857143,2667.4,534.2223214285714,74.12857142857143,2772.4,534.2223214285714,74.12857142857143,2872.4,534.2223214285714,74.12857142857143,2983.1,534.2223214285714,74.12857142857143,3083.4,534.2223214285714,74.12857142857143,3183.9,534.2223214285714,74.12857142857143,3285.1,534.2223214285714,74.12857142857143,3387.4,534.2223214285714,74.12857142857143,3491.8,534.2223214285714,74.12857142857143,3592.2,534.2223214285714,74.12857142857143,3692.4,534.2223214285714,74.12857142857143,3792.7,534.2223214285714,74.12857142857143,3900.6]","[531.9,531.9,1000,0,-468.1,""error"",""-"",""-"",""no_move"",4118.4,3585.7,2024.5,1535.2,558.7,""smooth"",""right"",""right"",""good_move"",6732.3,2612.7,2231.5,4119.6,381.2,""smooth"",""right"",""right"",""good_move"",9631.6,2898.4,2524.2,6733.3,374.1,""smooth"",""up"",""up"",""good_move"",12886.8,3254.1,2829.1,9632.8,424.9,""smooth"",""right"",""right"",""good_move"",16198.8,3311.1,2951.1,12887.7,360,""smooth"",""up"",""up"",""good_move"",19800.7,3599.6,3250.1,16201.1,349.5,""smooth"",""up"",""up"",""good_move""]","","",""
"1473","","","","instructions","22","359186","0.0-8.0-2.0","287","1","2025-07-09 11:47:08","7701e855f2ef39aa3fd6c71abdc6918a","41.13.188.129","Mozilla/5.0 (Windows NT 10.0; Win64; x64) AppleWebKit/537.36 (KHTML, like Gecko) Chrome/138.0.0.0 Safari/537.36","WebKit","Chrome","138.0.0.0","Windows","10.0","https://app.prolific.com/","en-US,en;q=0.9","660eafee7515c432e850362d","686d226cabeef709c732f8e1","686e565b50186bb4474bd680","660eafee7515c432e850362d","","[{""page_index"":0,""viewing_time"":1473}]","","","","","","","","","","","","","","","","","","","","","","","","","","","","","","","","","","","","","","","","","","","",""
"","","","","ctl-task-cpt","23","389464","0.0-8.0-3.0","287","1","2025-07-09 11:47:08","7701e855f2ef39aa3fd6c71abdc6918a","41.13.188.129","Mozilla/5.0 (Windows NT 10.0; Win64; x64) AppleWebKit/537.36 (KHTML, like Gecko) Chrome/138.0.0.0 Safari/537.36","WebKit","Chrome","138.0.0.0","Windows","10.0","https://app.prolific.com/","en-US,en;q=0.9","660eafee7515c432e850362d","686d226cabeef709c732f8e1","686e565b50186bb4474bd680","660eafee7515c432e850362d","","","","","","","","","","","","","","","","","win-only","3","g1:SW,g2:NE","0.35","0","3","367617.6","2055.2","6059","27251.9","2","4","8","6","2","8","6","6","0","0.045454545454545456","1792","4000","2055","[""up"",""right""]","{""num_key_presses"":9,""num_perfect"":4,""num_errors"":2,""num_randdir"":3,""num_randdir_good_moves"":3,""num_whilered"":0,""num_whileblue"":1,""num_blue"":1,""num_good_moves"":7}","[291.22232142857143,296.12857142857143,1.2,291.22232142857143,296.12857142857143,100.8,291.22232142857143,296.12857142857143,201.4,291.22232142857143,296.12857142857143,306.3,291.22232142857143,296.12857142857143,418.5,291.22232142857143,296.12857142857143,518.6,347.22232142857143,237.12857142857143,621.3,499.22232142857143,65.12857142857143,726.9,621.2223214285714,-11.871428571428574,835,621.2223214285714,-11.871428571428574,936,621.2223214285714,-11.871428571428574,1036.4,621.2223214285714,-11.871428571428574,1142.3,612.2223214285714,1.1285714285714263,1253.7,593.2223214285714,21.128571428571426,1356.2,578.2223214285714,33.128571428571426,1456.3,578.2223214285714,33.128571428571426,1556.8,578.2223214285714,33.128571428571426,1669.3,578.2223214285714,33.128571428571426,1769.5,578.2223214285714,33.128571428571426,1871,578.2223214285714,33.128571428571426,1971.1,578.2223214285714,33.128571428571426,2075.4,578.2223214285714,33.128571428571426,2176.3,578.2223214285714,33.128571428571426,2286,578.2223214285714,33.128571428571426,2390.7,578.2223214285714,33.128571428571426,2490.9,578.2223214285714,33.128571428571426,2596.1,578.2223214285714,33.128571428571426,2700.9,578.2223214285714,33.128571428571426,2801.9,578.2223214285714,33.128571428571426,2906,578.2223214285714,33.128571428571426,3006.2,578.2223214285714,33.128571428571426,3106.3,578.2223214285714,33.128571428571426,3210.7,578.2223214285714,33.128571428571426,3320.3,578.2223214285714,33.128571428571426,3420.9,578.2223214285714,33.128571428571426,3526,578.2223214285714,33.128571428571426,3635.3,578.2223214285714,33.128571428571426,3735.5,578.2223214285714,33.128571428571426,3835.6,578.2223214285714,33.128571428571426,3940.7]","[1399.9,1399.9,1000,0.1,399.8,""smooth"",""up"",""up"",""good_move"",4148.3,2747.5,2418.1,1400.8,329.4,""smooth"",""right"",""right"",""good_move"",7250.1,3100.9,2767.1,4149.2,333.8,""oops"",""up"",""right"",""good_move"",9999.7,2748.6,2396.8,7251.1,351.8,""oops"",""up"",""right"",""good_move"",12623.7,2622,2287.4,10001.7,334.6,""smooth"",""up"",""up"",""good_move"",15050.6,2425.3,2096.6,12625.3,328.7,""while_blue"",""up"",""left"",""bad_move"",15314,262.1,2788.3,15051.9,-2526.2,""error"",""-"",""-"",""no_move"",18396.9,3082.8,1714.3,16316.6,366,""smooth"",""up"",""up"",""good_move"",21085.6,2687.7,2335.9,18398,351.7,""oops"",""right"",""right"",""good_move""]","","",""
"4645","","","","instructions","24","394110","0.0-8.0-4.0","287","1","2025-07-09 11:47:08","7701e855f2ef39aa3fd6c71abdc6918a","41.13.188.129","Mozilla/5.0 (Windows NT 10.0; Win64; x64) AppleWebKit/537.36 (KHTML, like Gecko) Chrome/138.0.0.0 Safari/537.36","WebKit","Chrome","138.0.0.0","Windows","10.0","https://app.prolific.com/","en-US,en;q=0.9","660eafee7515c432e850362d","686d226cabeef709c732f8e1","686e565b50186bb4474bd680","660eafee7515c432e850362d","","[{""page_index"":0,""viewing_time"":1811},{""page_index"":1,""viewing_time"":2833}]","","","","","","","","","","","","","","","","","","","","","","","","","","","","","","","","","","","","","","","","","","","",""
"5648","","","{""green_ball"":[""Ball always shakes and moves in a random direction""]}","survey-multi-select","25","399764","0.0-8.0-5.0-0.0","287","1","2025-07-09 11:47:08","7701e855f2ef39aa3fd6c71abdc6918a","41.13.188.129","Mozilla/5.0 (Windows NT 10.0; Win64; x64) AppleWebKit/537.36 (KHTML, like Gecko) Chrome/138.0.0.0 Safari/537.36","WebKit","Chrome","138.0.0.0","Windows","10.0","https://app.prolific.com/","en-US,en;q=0.9","660eafee7515c432e850362d","686d226cabeef709c732f8e1","686e565b50186bb4474bd680","660eafee7515c432e850362d","","","[0]","","","","quiz","","","","","","","","","","","","","","","","","","","","","","","","","","","","","","","","","","","","","false","",""
"5055","","<p align='center'><b>INCORRECT.</b> Usually the green ball moves in the indicated direction, but sometimes it shakes and moves randomly. </p>","0","html-button-response","26","404822","0.0-8.0-5.0-1.0","287","1","2025-07-09 11:47:08","7701e855f2ef39aa3fd6c71abdc6918a","41.13.188.129","Mozilla/5.0 (Windows NT 10.0; Win64; x64) AppleWebKit/537.36 (KHTML, like Gecko) Chrome/138.0.0.0 Safari/537.36","WebKit","Chrome","138.0.0.0","Windows","10.0","https://app.prolific.com/","en-US,en;q=0.9","660eafee7515c432e850362d","686d226cabeef709c732f8e1","686e565b50186bb4474bd680","660eafee7515c432e850362d","","","","","","","","","","","","","","","","","","","","","","","","","","","","","","","","","","","","","","","","","","","","","",""
"11601","","","{""green_ball"":[""Ball sometimes shakes and moves in a random direction""]}","survey-multi-select","27","416427","0.0-8.0-5.1-0.1","287","1","2025-07-09 11:47:08","7701e855f2ef39aa3fd6c71abdc6918a","41.13.188.129","Mozilla/5.0 (Windows NT 10.0; Win64; x64) AppleWebKit/537.36 (KHTML, like Gecko) Chrome/138.0.0.0 Safari/537.36","WebKit","Chrome","138.0.0.0","Windows","10.0","https://app.prolific.com/","en-US,en;q=0.9","660eafee7515c432e850362d","686d226cabeef709c732f8e1","686e565b50186bb4474bd680","660eafee7515c432e850362d","","","[0]","","","","quiz","","","","","","","","","","","","","","","","","","","","","","","","","","","","","","","","","","","","","true","",""
"1661","","<p align='center'><b>CORRECT!</b> Indeed, the green ball may sometimes shake and move in a random direction.</p>","0","html-button-response","28","418090","0.0-8.0-5.1-1.1","287","1","2025-07-09 11:47:08","7701e855f2ef39aa3fd6c71abdc6918a","41.13.188.129","Mozilla/5.0 (Windows NT 10.0; Win64; x64) AppleWebKit/537.36 (KHTML, like Gecko) Chrome/138.0.0.0 Safari/537.36","WebKit","Chrome","138.0.0.0","Windows","10.0","https://app.prolific.com/","en-US,en;q=0.9","660eafee7515c432e850362d","686d226cabeef709c732f8e1","686e565b50186bb4474bd680","660eafee7515c432e850362d","","","","","","","","","","","","","","","","","","","","","","","","","","","","","","","","","","","","","","","","","","","","","",""
"4617","","","{""yellow_ball"":[""Ball doesn‘t move and I get -1 penalty point""]}","survey-multi-select","29","422711","0.0-8.0-6.0-0.0","287","1","2025-07-09 11:47:08","7701e855f2ef39aa3fd6c71abdc6918a","41.13.188.129","Mozilla/5.0 (Windows NT 10.0; Win64; x64) AppleWebKit/537.36 (KHTML, like Gecko) Chrome/138.0.0.0 Safari/537.36","WebKit","Chrome","138.0.0.0","Windows","10.0","https://app.prolific.com/","en-US,en;q=0.9","660eafee7515c432e850362d","686d226cabeef709c732f8e1","686e565b50186bb4474bd680","660eafee7515c432e850362d","","","[0]","","","","quiz","","","","","","","","","","","","","","","","","","","","","","","","","","","","","","","","","","","","","true","",""
"1398","","<p align='center'><b>CORRECT!</b> Indeed, the yellow ball never moves and you receive a penalty.</p>","0","html-button-response","30","424116","0.0-8.0-6.0-1.0","287","1","2025-07-09 11:47:08","7701e855f2ef39aa3fd6c71abdc6918a","41.13.188.129","Mozilla/5.0 (Windows NT 10.0; Win64; x64) AppleWebKit/537.36 (KHTML, like Gecko) Chrome/138.0.0.0 Safari/537.36","WebKit","Chrome","138.0.0.0","Windows","10.0","https://app.prolific.com/","en-US,en;q=0.9","660eafee7515c432e850362d","686d226cabeef709c732f8e1","686e565b50186bb4474bd680","660eafee7515c432e850362d","","","","","","","","","","","","","","","","","","","","","","","","","","","","","","","","","","","","","","","","","","","","","",""
"4170","","","{""blue_ball"":[""Ball sometimes shakes and moves in a random direction""]}","survey-multi-select","31","428291","0.0-8.0-7.0-0.0","287","1","2025-07-09 11:47:08","7701e855f2ef39aa3fd6c71abdc6918a","41.13.188.129","Mozilla/5.0 (Windows NT 10.0; Win64; x64) AppleWebKit/537.36 (KHTML, like Gecko) Chrome/138.0.0.0 Safari/537.36","WebKit","Chrome","138.0.0.0","Windows","10.0","https://app.prolific.com/","en-US,en;q=0.9","660eafee7515c432e850362d","686d226cabeef709c732f8e1","686e565b50186bb4474bd680","660eafee7515c432e850362d","","","[0]","","","","quiz","","","","","","","","","","","","","","","","","","","","","","","","","","","","","","","","","","","","","false","",""
"2302","","<p align='center'><b>INCORRECT.</b> The blue ball always shakes and moves randomly.</p>","0","html-button-response","32","430597","0.0-8.0-7.0-1.0","287","1","2025-07-09 11:47:08","7701e855f2ef39aa3fd6c71abdc6918a","41.13.188.129","Mozilla/5.0 (Windows NT 10.0; Win64; x64) AppleWebKit/537.36 (KHTML, like Gecko) Chrome/138.0.0.0 Safari/537.36","WebKit","Chrome","138.0.0.0","Windows","10.0","https://app.prolific.com/","en-US,en;q=0.9","660eafee7515c432e850362d","686d226cabeef709c732f8e1","686e565b50186bb4474bd680","660eafee7515c432e850362d","","","","","","","","","","","","","","","","","","","","","","","","","","","","","","","","","","","","","","","","","","","","","",""
"6799","","","{""blue_ball"":[""Ball always shakes and moves in a random direction""]}","survey-multi-select","33","437401","0.0-8.0-7.1-0.1","287","1","2025-07-09 11:47:08","7701e855f2ef39aa3fd6c71abdc6918a","41.13.188.129","Mozilla/5.0 (Windows NT 10.0; Win64; x64) AppleWebKit/537.36 (KHTML, like Gecko) Chrome/138.0.0.0 Safari/537.36","WebKit","Chrome","138.0.0.0","Windows","10.0","https://app.prolific.com/","en-US,en;q=0.9","660eafee7515c432e850362d","686d226cabeef709c732f8e1","686e565b50186bb4474bd680","660eafee7515c432e850362d","","","[0]","","","","quiz","","","","","","","","","","","","","","","","","","","","","","","","","","","","","","","","","","","","","true","",""
"1483","","<p align='center'><b>CORRECT!</b> Indeed, the blue ball always shakes and moves in a random direction. Also there is a penalty of -1 point.</p>","0","html-button-response","34","438886","0.0-8.0-7.1-1.1","287","1","2025-07-09 11:47:08","7701e855f2ef39aa3fd6c71abdc6918a","41.13.188.129","Mozilla/5.0 (Windows NT 10.0; Win64; x64) AppleWebKit/537.36 (KHTML, like Gecko) Chrome/138.0.0.0 Safari/537.36","WebKit","Chrome","138.0.0.0","Windows","10.0","https://app.prolific.com/","en-US,en;q=0.9","660eafee7515c432e850362d","686d226cabeef709c732f8e1","686e565b50186bb4474bd680","660eafee7515c432e850362d","","","","","","","","","","","","","","","","","","","","","","","","","","","","","","","","","","","","","","","","","","","","","",""
"5844","","","{""bonus"":[""When I reach 80% of points""]}","survey-multi-select","35","444734","0.0-8.0-8.0-0.0","287","1","2025-07-09 11:47:08","7701e855f2ef39aa3fd6c71abdc6918a","41.13.188.129","Mozilla/5.0 (Windows NT 10.0; Win64; x64) AppleWebKit/537.36 (KHTML, like Gecko) Chrome/138.0.0.0 Safari/537.36","WebKit","Chrome","138.0.0.0","Windows","10.0","https://app.prolific.com/","en-US,en;q=0.9","660eafee7515c432e850362d","686d226cabeef709c732f8e1","686e565b50186bb4474bd680","660eafee7515c432e850362d","","","[0]","","","","quiz","","","","","","","","","","","","","","","","","","","","","","","","","","","","","","","","","","","","","false","",""
"1742","","<p align='center'><b>INCORRECT.</b> You receive 2 pounds extra when you reach 50% of points </p>","0","html-button-response","36","446480","0.0-8.0-8.0-1.0","287","1","2025-07-09 11:47:08","7701e855f2ef39aa3fd6c71abdc6918a","41.13.188.129","Mozilla/5.0 (Windows NT 10.0; Win64; x64) AppleWebKit/537.36 (KHTML, like Gecko) Chrome/138.0.0.0 Safari/537.36","WebKit","Chrome","138.0.0.0","Windows","10.0","https://app.prolific.com/","en-US,en;q=0.9","660eafee7515c432e850362d","686d226cabeef709c732f8e1","686e565b50186bb4474bd680","660eafee7515c432e850362d","","","","","","","","","","","","","","","","","","","","","","","","","","","","","","","","","","","","","","","","","","","","","",""
"2393","","","{""bonus"":[""When I reach 50% of points""]}","survey-multi-select","37","448876","0.0-8.0-8.1-0.1","287","1","2025-07-09 11:47:08","7701e855f2ef39aa3fd6c71abdc6918a","41.13.188.129","Mozilla/5.0 (Windows NT 10.0; Win64; x64) AppleWebKit/537.36 (KHTML, like Gecko) Chrome/138.0.0.0 Safari/537.36","WebKit","Chrome","138.0.0.0","Windows","10.0","https://app.prolific.com/","en-US,en;q=0.9","660eafee7515c432e850362d","686d226cabeef709c732f8e1","686e565b50186bb4474bd680","660eafee7515c432e850362d","","","[0]","","","","quiz","","","","","","","","","","","","","","","","","","","","","","","","","","","","","","","","","","","","","true","",""
"7059","","<p align='center'><b>CORRECT!</b> Indeed, you receive 2 pounds extra when you reach 50% of points.</p>","0","html-button-response","38","455938","0.0-8.0-8.1-1.1","287","1","2025-07-09 11:47:08","7701e855f2ef39aa3fd6c71abdc6918a","41.13.188.129","Mozilla/5.0 (Windows NT 10.0; Win64; x64) AppleWebKit/537.36 (KHTML, like Gecko) Chrome/138.0.0.0 Safari/537.36","WebKit","Chrome","138.0.0.0","Windows","10.0","https://app.prolific.com/","en-US,en;q=0.9","660eafee7515c432e850362d","686d226cabeef709c732f8e1","686e565b50186bb4474bd680","660eafee7515c432e850362d","","","","","","","","","","","","","","","","","","","","","","","","","","","","","","","","","","","","","","","","","","","","","",""
"3675","","","","instructions","39","459615","0.0-8.0-9.0","287","1","2025-07-09 11:47:08","7701e855f2ef39aa3fd6c71abdc6918a","41.13.188.129","Mozilla/5.0 (Windows NT 10.0; Win64; x64) AppleWebKit/537.36 (KHTML, like Gecko) Chrome/138.0.0.0 Safari/537.36","WebKit","Chrome","138.0.0.0","Windows","10.0","https://app.prolific.com/","en-US,en;q=0.9","660eafee7515c432e850362d","686d226cabeef709c732f8e1","686e565b50186bb4474bd680","660eafee7515c432e850362d","","[{""page_index"":0,""viewing_time"":3674}]","","","","","","","","","","","","","","","","","","","","","","","","","","","","","","","","","","","","","","","","","","","",""
"7480","","<p>Before you start with this game please answer the following three questions yourself. </p>
  <p>Through this game, we measure several aspects of your cognitive performance, such as reaction times, multi-tasking capabilities </p>
  <p>and the ability to assess the situation you are in.</p>
  <p></p>
  <p><b>How good do you usually are in such tasks?</b></p>","80","html-slider-response","40","467112","0.0-9.0-0.0","287","1","2025-07-09 11:47:08","7701e855f2ef39aa3fd6c71abdc6918a","41.13.188.129","Mozilla/5.0 (Windows NT 10.0; Win64; x64) AppleWebKit/537.36 (KHTML, like Gecko) Chrome/138.0.0.0 Safari/537.36","WebKit","Chrome","138.0.0.0","Windows","10.0","https://app.prolific.com/","en-US,en;q=0.9","660eafee7515c432e850362d","686d226cabeef709c732f8e1","686e565b50186bb4474bd680","660eafee7515c432e850362d","2025-07-09T11:55:00.639Z","","","","","","PreSkillQ","","","","","","","","","","","","","","","","","","","","","","","","","","","","","","","","","","","","","","50",""
"3513","","<div style=""width:500px;"">
  <p>How well do you think you will perform in this task compared to other participants?</p>
  </div>","86","html-slider-response","41","470627","0.0-9.0-1.0","287","1","2025-07-09 11:47:08","7701e855f2ef39aa3fd6c71abdc6918a","41.13.188.129","Mozilla/5.0 (Windows NT 10.0; Win64; x64) AppleWebKit/537.36 (KHTML, like Gecko) Chrome/138.0.0.0 Safari/537.36","WebKit","Chrome","138.0.0.0","Windows","10.0","https://app.prolific.com/","en-US,en;q=0.9","660eafee7515c432e850362d","686d226cabeef709c732f8e1","686e565b50186bb4474bd680","660eafee7515c432e850362d","2025-07-09T11:55:04.154Z","","","","","","PrePerfQ","","","","","","","","","","","","","","","","","","","","","","","","","","","","","","","","","","","","","","50",""
"4641","","<div style=""width:500px;"">
  <p>What best describes how you currently feel?</p>
  </div>","86","html-slider-response","42","475270","0.0-9.0-2.0","287","1","2025-07-09 11:47:08","7701e855f2ef39aa3fd6c71abdc6918a","41.13.188.129","Mozilla/5.0 (Windows NT 10.0; Win64; x64) AppleWebKit/537.36 (KHTML, like Gecko) Chrome/138.0.0.0 Safari/537.36","WebKit","Chrome","138.0.0.0","Windows","10.0","https://app.prolific.com/","en-US,en;q=0.9","660eafee7515c432e850362d","686d226cabeef709c732f8e1","686e565b50186bb4474bd680","660eafee7515c432e850362d","2025-07-09T11:55:08.797Z","","","","","","PreMotivationQ","","","","","","","","","","","","","","","","","","","","","","","","","","","","","","","","","","","","","","50",""
"","","","","ctl-task-cpt","43","510749","0.0-10.0-0.0","287","1","2025-07-09 11:47:08","7701e855f2ef39aa3fd6c71abdc6918a","41.13.188.129","Mozilla/5.0 (Windows NT 10.0; Win64; x64) AppleWebKit/537.36 (KHTML, like Gecko) Chrome/138.0.0.0 Safari/537.36","WebKit","Chrome","138.0.0.0","Windows","10.0","https://app.prolific.com/","en-US,en;q=0.9","660eafee7515c432e850362d","686d226cabeef709c732f8e1","686e565b50186bb4474bd680","660eafee7515c432e850362d","2025-07-09T11:55:44.276Z","","","","","","","","","","","","","","","","win-only","0","g1:NW,g2:SE","1","1","0","483705.6","1537.4","6542.1","32456.7","1","4","4","6","2","4","3","3","0","0.022727272727272728","1468.2","3000","825","[""down"",""right""]","{""num_key_presses"":8,""num_perfect"":7,""num_errors"":1,""num_randdir"":0,""num_randdir_good_moves"":0,""num_whilered"":0,""num_whileblue"":1,""num_blue"":2,""num_good_moves"":7}","[297.22232142857143,296.12857142857143,1,297.22232142857143,296.12857142857143,103.7,297.22232142857143,296.12857142857143,204.6,297.22232142857143,296.12857142857143,318.6,297.22232142857143,296.12857142857143,419.7,297.22232142857143,296.12857142857143,523.3,297.22232142857143,296.12857142857143,623.3,355.22232142857143,361.12857142857143,724.1,440.22232142857143,463.12857142857143,824.5,483.22232142857143,499.12857142857143,924.5,524.2223214285714,518.1285714285714,1033.9,532.2223214285714,527.1285714285714,1134.2,533.2223214285714,527.1285714285714,1238.2,533.2223214285714,527.1285714285714,1340,533.2223214285714,527.1285714285714,1443.4,533.2223214285714,527.1285714285714,1552.8,533.2223214285714,527.1285714285714,1653.2,533.2223214285714,527.1285714285714,1753.7,533.2223214285714,527.1285714285714,1867.9,533.2223214285714,527.1285714285714,1968.8,533.2223214285714,527.1285714285714,2069.1,533.2223214285714,527.1285714285714,2173.1,533.2223214285714,527.1285714285714,2273.2,533.2223214285714,527.1285714285714,2373.5,533.2223214285714,527.1285714285714,2474.1,533.2223214285714,527.1285714285714,2585.5,533.2223214285714,527.1285714285714,2689.7,533.2223214285714,527.1285714285714,2793.1,533.2223214285714,527.1285714285714,2894.2,533.2223214285714,527.1285714285714,3002.4,533.2223214285714,527.1285714285714,3103.7,533.2223214285714,527.1285714285714,3203.7,533.2223214285714,527.1285714285714,3318.4,533.2223214285714,527.1285714285714,3419,533.2223214285714,527.1285714285714,3534,533.2223214285714,527.1285714285714,3635.9,533.2223214285714,527.1285714285714,3738,533.2223214285714,527.1285714285714,3838.1,533.2223214285714,527.1285714285714,3938.9,533.2223214285714,527.1285714285714,4041.5,533.2223214285714,527.1285714285714,4143.4,533.2223214285714,527.1285714285714,4244.9,533.2223214285714,527.1285714285714,4352.4,533.2223214285714,527.1285714285714,4452.4,533.2223214285714,527.1285714285714,4553.3,533.2223214285714,527.1285714285714,4653.5,533.2223214285714,527.1285714285714,4759.1,533.2223214285714,527.1285714285714,4859.6,533.2223214285714,527.1285714285714,4968.8]","[4544.6,4544.6,2111.1,2004.5,429,""smooth"",""down"",""down"",""good_move"",7545.3,2999.3,2614,4546,385.3,""smooth"",""right"",""right"",""good_move"",10496.2,2949.7,2599.9,7546.5,349.8,""smooth"",""right"",""right"",""good_move"",13395.8,2898.7,2518.4,10497.1,380.3,""smooth"",""down"",""down"",""good_move"",17015.8,3618.9,3163.5,13396.9,455.4,""smooth"",""right"",""right"",""good_move"",19960.8,2944.1,2597,17016.7,347.1,""while_blue"",""down"",""up"",""bad_move"",22661.9,2700,2182.5,19961.9,517.5,""smooth"",""down"",""down"",""good_move"",25800.7,3138.1,2739.6,22662.6,398.5,""smooth"",""down"",""down"",""good_move""]","","",""
"3173","","<div style=""width:500px;"">
  <p>What determined the result of this run?</p>
  </div>","80","html-slider-response","44","513925","0.0-10.0-1.0","287","1","2025-07-09 11:47:08","7701e855f2ef39aa3fd6c71abdc6918a","41.13.188.129","Mozilla/5.0 (Windows NT 10.0; Win64; x64) AppleWebKit/537.36 (KHTML, like Gecko) Chrome/138.0.0.0 Safari/537.36","WebKit","Chrome","138.0.0.0","Windows","10.0","https://app.prolific.com/","en-US,en;q=0.9","660eafee7515c432e850362d","686d226cabeef709c732f8e1","686e565b50186bb4474bd680","660eafee7515c432e850362d","2025-07-09T11:55:47.452Z","","","","","","AttribQ","","","","","","","","","","","","","","","","","","","","","","","","","","","","","","","","","","","","","","50",""
"2929","","<div style=""width:500px;"">
  <p>How much control did you have over the ball?</p>
  </div>","83","html-slider-response","45","516857","0.0-10.0-2.0","287","1","2025-07-09 11:47:08","7701e855f2ef39aa3fd6c71abdc6918a","41.13.188.129","Mozilla/5.0 (Windows NT 10.0; Win64; x64) AppleWebKit/537.36 (KHTML, like Gecko) Chrome/138.0.0.0 Safari/537.36","WebKit","Chrome","138.0.0.0","Windows","10.0","https://app.prolific.com/","en-US,en;q=0.9","660eafee7515c432e850362d","686d226cabeef709c732f8e1","686e565b50186bb4474bd680","660eafee7515c432e850362d","2025-07-09T11:55:50.384Z","","","","","","ControlQ","","","","","","","","","","","","","","","","","","","","","","","","","","","","","","","","","","","","","","50",""
"2999","","<div style=""width:500px;"">
  <p>How would you describe your current emotional state?</p>
  </div>","19","html-slider-response","46","519858","0.0-10.0-3.0","287","1","2025-07-09 11:47:08","7701e855f2ef39aa3fd6c71abdc6918a","41.13.188.129","Mozilla/5.0 (Windows NT 10.0; Win64; x64) AppleWebKit/537.36 (KHTML, like Gecko) Chrome/138.0.0.0 Safari/537.36","WebKit","Chrome","138.0.0.0","Windows","10.0","https://app.prolific.com/","en-US,en;q=0.9","660eafee7515c432e850362d","686d226cabeef709c732f8e1","686e565b50186bb4474bd680","660eafee7515c432e850362d","2025-07-09T11:55:53.386Z","","","","","","StressQ","","","","","","","","","","","","","","","","","","","","","","","","","","","","","","","","","","","","","","50",""
"2754","","<div style=""width:500px;"">
  <p>What best describes how you currently feel?</p>
  </div>","86","html-slider-response","47","522615","0.0-10.0-4.0","287","1","2025-07-09 11:47:08","7701e855f2ef39aa3fd6c71abdc6918a","41.13.188.129","Mozilla/5.0 (Windows NT 10.0; Win64; x64) AppleWebKit/537.36 (KHTML, like Gecko) Chrome/138.0.0.0 Safari/537.36","WebKit","Chrome","138.0.0.0","Windows","10.0","https://app.prolific.com/","en-US,en;q=0.9","660eafee7515c432e850362d","686d226cabeef709c732f8e1","686e565b50186bb4474bd680","660eafee7515c432e850362d","2025-07-09T11:55:56.142Z","","","","","","MotivationQ","","","","","","","","","","","","","","","","","","","","","","","","","","","","","","","","","","","","","","50",""
"","","","","ctl-task-cpt","48","555901","0.0-10.0-0.1","287","1","2025-07-09 11:47:08","7701e855f2ef39aa3fd6c71abdc6918a","41.13.188.129","Mozilla/5.0 (Windows NT 10.0; Win64; x64) AppleWebKit/537.36 (KHTML, like Gecko) Chrome/138.0.0.0 Safari/537.36","WebKit","Chrome","138.0.0.0","Windows","10.0","https://app.prolific.com/","en-US,en;q=0.9","660eafee7515c432e850362d","686d226cabeef709c732f8e1","686e565b50186bb4474bd680","660eafee7515c432e850362d","2025-07-09T11:56:29.428Z","","","","","","","","","","","","","","","","win-only","3","g1:SW,g2:NE","0.9","2","0","531048.2","1391.1","6394.1","30276.7","1","4","8","6","2","8","8","11","3","0.08333333333333333","1140.1","3000","960","[""up"",""right""]","{""num_key_presses"":6,""num_perfect"":5,""num_errors"":0,""num_randdir"":1,""num_randdir_good_moves"":1,""num_whilered"":0,""num_whileblue"":0,""num_blue"":2,""num_good_moves"":6}","[296.22232142857143,294.12857142857143,0.8,296.22232142857143,294.12857142857143,105.7,296.22232142857143,294.12857142857143,215.1,296.22232142857143,294.12857142857143,316.5,296.22232142857143,294.12857142857143,421.6,306.22232142857143,285.12857142857143,522.9,465.22232142857143,136.12857142857143,623.9,533.2223214285714,94.12857142857143,725.1,543.2223214285714,80.12857142857143,825.8,543.2223214285714,80.12857142857143,952.7,543.2223214285714,80.12857142857143,1054.8,543.2223214285714,80.12857142857143,1157.2,543.2223214285714,80.12857142857143,1260.4,543.2223214285714,80.12857142857143,1366.5,543.2223214285714,80.12857142857143,1469.2,543.2223214285714,80.12857142857143,1571.6,543.2223214285714,80.12857142857143,1677.4,543.2223214285714,80.12857142857143,1779.9,543.2223214285714,80.12857142857143,1880.7,543.2223214285714,80.12857142857143,1985.9,543.2223214285714,80.12857142857143,2089.3,543.2223214285714,80.12857142857143,2190.2,543.2223214285714,80.12857142857143,2308.4,543.2223214285714,80.12857142857143,2409.5,543.2223214285714,80.12857142857143,2510.6,543.2223214285714,80.12857142857143,2631.1,543.2223214285714,80.12857142857143,2735.7,543.2223214285714,80.12857142857143,2841.5,543.2223214285714,80.12857142857143,2941.7,543.2223214285714,80.12857142857143,3045.3,543.2223214285714,80.12857142857143,3151.5,543.2223214285714,80.12857142857143,3252.1,543.2223214285714,80.12857142857143,3355,543.2223214285714,80.12857142857143,3455.5,543.2223214285714,80.12857142857143,3558.6,543.2223214285714,80.12857142857143,3659.5,543.2223214285714,80.12857142857143,3760.4,543.2223214285714,80.12857142857143,3866,543.2223214285714,80.12857142857143,3970.1,543.2223214285714,80.12857142857143,4075.1,543.2223214285714,80.12857142857143,4191,543.2223214285714,80.12857142857143,4302.4,543.2223214285714,80.12857142857143,4404.7,543.2223214285714,80.12857142857143,4505.6,543.2223214285714,80.12857142857143,4609.9,543.2223214285714,80.12857142857143,4710.4,543.2223214285714,80.12857142857143,4824.2,543.2223214285714,80.12857142857143,4924.8]","[1374,1374,1000,0,374,""smooth"",""right"",""right"",""good_move"",12895.2,11519.7,3016.9,9312.3,566,""smooth"",""up"",""up"",""good_move"",15842.3,2943.1,2240.3,12899.3,702.8,""smooth"",""up"",""up"",""good_move"",18232.9,2388.2,2009.9,15844.7,378.3,""oops"",""up"",""right"",""good_move"",21236.5,3002.5,2566.9,18234,435.6,""smooth"",""up"",""up"",""good_move"",23764.5,2527,2178,21237.5,349,""smooth"",""right"",""right"",""good_move""]","","",""
"3275","","<div style=""width:500px;"">
  <p>What determined the result of this run?</p>
  </div>","86","html-slider-response","49","559178","0.0-10.0-1.1","287","1","2025-07-09 11:47:08","7701e855f2ef39aa3fd6c71abdc6918a","41.13.188.129","Mozilla/5.0 (Windows NT 10.0; Win64; x64) AppleWebKit/537.36 (KHTML, like Gecko) Chrome/138.0.0.0 Safari/537.36","WebKit","Chrome","138.0.0.0","Windows","10.0","https://app.prolific.com/","en-US,en;q=0.9","660eafee7515c432e850362d","686d226cabeef709c732f8e1","686e565b50186bb4474bd680","660eafee7515c432e850362d","2025-07-09T11:56:32.705Z","","","","","","AttribQ","","","","","","","","","","","","","","","","","","","","","","","","","","","","","","","","","","","","","","50",""
"3246","","<div style=""width:500px;"">
  <p>How much control did you have over the ball?</p>
  </div>","83","html-slider-response","50","562426","0.0-10.0-2.1","287","1","2025-07-09 11:47:08","7701e855f2ef39aa3fd6c71abdc6918a","41.13.188.129","Mozilla/5.0 (Windows NT 10.0; Win64; x64) AppleWebKit/537.36 (KHTML, like Gecko) Chrome/138.0.0.0 Safari/537.36","WebKit","Chrome","138.0.0.0","Windows","10.0","https://app.prolific.com/","en-US,en;q=0.9","660eafee7515c432e850362d","686d226cabeef709c732f8e1","686e565b50186bb4474bd680","660eafee7515c432e850362d","2025-07-09T11:56:35.954Z","","","","","","ControlQ","","","","","","","","","","","","","","","","","","","","","","","","","","","","","","","","","","","","","","50",""
"3202","","<div style=""width:500px;"">
  <p>How would you describe your current emotional state?</p>
  </div>","19","html-slider-response","51","565631","0.0-10.0-3.1","287","1","2025-07-09 11:47:08","7701e855f2ef39aa3fd6c71abdc6918a","41.13.188.129","Mozilla/5.0 (Windows NT 10.0; Win64; x64) AppleWebKit/537.36 (KHTML, like Gecko) Chrome/138.0.0.0 Safari/537.36","WebKit","Chrome","138.0.0.0","Windows","10.0","https://app.prolific.com/","en-US,en;q=0.9","660eafee7515c432e850362d","686d226cabeef709c732f8e1","686e565b50186bb4474bd680","660eafee7515c432e850362d","2025-07-09T11:56:39.158Z","","","","","","StressQ","","","","","","","","","","","","","","","","","","","","","","","","","","","","","","","","","","","","","","50",""
"2954","","<div style=""width:500px;"">
  <p>What best describes how you currently feel?</p>
  </div>","86","html-slider-response","52","568588","0.0-10.0-4.1","287","1","2025-07-09 11:47:08","7701e855f2ef39aa3fd6c71abdc6918a","41.13.188.129","Mozilla/5.0 (Windows NT 10.0; Win64; x64) AppleWebKit/537.36 (KHTML, like Gecko) Chrome/138.0.0.0 Safari/537.36","WebKit","Chrome","138.0.0.0","Windows","10.0","https://app.prolific.com/","en-US,en;q=0.9","660eafee7515c432e850362d","686d226cabeef709c732f8e1","686e565b50186bb4474bd680","660eafee7515c432e850362d","2025-07-09T11:56:42.115Z","","","","","","MotivationQ","","","","","","","","","","","","","","","","","","","","","","","","","","","","","","","","","","","","","","50",""
"","","","","ctl-task-cpt","53","598139","0.0-10.0-0.2","287","1","2025-07-09 11:47:08","7701e855f2ef39aa3fd6c71abdc6918a","41.13.188.129","Mozilla/5.0 (Windows NT 10.0; Win64; x64) AppleWebKit/537.36 (KHTML, like Gecko) Chrome/138.0.0.0 Safari/537.36","WebKit","Chrome","138.0.0.0","Windows","10.0","https://app.prolific.com/","en-US,en;q=0.9","660eafee7515c432e850362d","686d226cabeef709c732f8e1","686e565b50186bb4474bd680","660eafee7515c432e850362d","2025-07-09T11:57:11.666Z","","","","","","","","","","","","","","","","win-only","0","g1:NW,g2:SE","0.8","3","0","577021.5","1596.2","6612.6","26538.5","1","4","8","6","2","8","8","19","11","0.14393939393939395","1902.7","3000","955","[""down"",""right""]","{""num_key_presses"":6,""num_perfect"":5,""num_errors"":0,""num_randdir"":1,""num_randdir_good_moves"":1,""num_whilered"":0,""num_whileblue"":0,""num_blue"":1,""num_good_moves"":6}","[294.22232142857143,293.12857142857143,1.5,294.22232142857143,293.12857142857143,100,294.22232142857143,293.12857142857143,206.6,294.22232142857143,293.12857142857143,308.8,294.22232142857143,293.12857142857143,409.2,294.22232142857143,293.12857142857143,509.3,294.22232142857143,293.12857142857143,616,294.22232142857143,293.12857142857143,719.6,294.22232142857143,293.12857142857143,832.7,493.22232142857143,504.12857142857143,941.9,549.2223214285714,575.1285714285714,1047.6,549.2223214285714,575.1285714285714,1148,549.2223214285714,575.1285714285714,1250,549.2223214285714,575.1285714285714,1355.2,550.2223214285714,575.1285714285714,1457,550.2223214285714,574.1285714285714,1561.3,549.2223214285714,568.1285714285714,1676,549.2223214285714,568.1285714285714,1779.9,549.2223214285714,568.1285714285714,1901.2,549.2223214285714,568.1285714285714,2013.7,549.2223214285714,568.1285714285714,2113.9,549.2223214285714,568.1285714285714,2215,549.2223214285714,568.1285714285714,2315.2,549.2223214285714,568.1285714285714,2415.8,549.2223214285714,568.1285714285714,2531.6,549.2223214285714,568.1285714285714,2637.8,549.2223214285714,568.1285714285714,2739.6,549.2223214285714,568.1285714285714,2840.7,549.2223214285714,568.1285714285714,2944.3,549.2223214285714,568.1285714285714,3047.2,549.2223214285714,568.1285714285714,3150,549.2223214285714,568.1285714285714,3266.4,549.2223214285714,568.1285714285714,3366.7,549.2223214285714,568.1285714285714,3482.2,549.2223214285714,568.1285714285714,3585.1,549.2223214285714,568.1285714285714,3688.4,549.2223214285714,568.1285714285714,3790.4,549.2223214285714,568.1285714285714,3897.1,549.2223214285714,568.1285714285714,3997.2,549.2223214285714,568.1285714285714,4099.5,549.2223214285714,568.1285714285714,4199.7,549.2223214285714,568.1285714285714,4305.9,549.2223214285714,568.1285714285714,4410.4,549.2223214285714,568.1285714285714,4514.1,549.2223214285714,568.1285714285714,4615.2,549.2223214285714,568.1285714285714,4715.4,549.2223214285714,568.1285714285714,4815.8,549.2223214285714,568.1285714285714,4921.1]","[5533.4,5533.4,3082.5,2010.6,440.3,""smooth"",""right"",""right"",""good_move"",8933.9,3398.7,2449.1,5535.2,949.6,""smooth"",""down"",""down"",""good_move"",11381.7,2444.4,2103.4,8937.4,341,""smooth"",""down"",""down"",""good_move"",14512.2,3125.2,2762.8,11387,362.4,""smooth"",""right"",""right"",""good_move"",17377.6,2864.5,2390.9,14513.2,473.5,""smooth"",""down"",""down"",""good_move"",19812.4,2433.7,2057.9,17378.7,375.8,""oops"",""right"",""right"",""good_move""]","","",""
"3155","","<div style=""width:500px;"">
  <p>What determined the result of this run?</p>
  </div>","71","html-slider-response","54","601299","0.0-10.0-1.2","287","1","2025-07-09 11:47:08","7701e855f2ef39aa3fd6c71abdc6918a","41.13.188.129","Mozilla/5.0 (Windows NT 10.0; Win64; x64) AppleWebKit/537.36 (KHTML, like Gecko) Chrome/138.0.0.0 Safari/537.36","WebKit","Chrome","138.0.0.0","Windows","10.0","https://app.prolific.com/","en-US,en;q=0.9","660eafee7515c432e850362d","686d226cabeef709c732f8e1","686e565b50186bb4474bd680","660eafee7515c432e850362d","2025-07-09T11:57:14.826Z","","","","","","AttribQ","","","","","","","","","","","","","","","","","","","","","","","","","","","","","","","","","","","","","","50",""
"3740","","<div style=""width:500px;"">
  <p>How much control did you have over the ball?</p>
  </div>","79","html-slider-response","55","605042","0.0-10.0-2.2","287","1","2025-07-09 11:47:08","7701e855f2ef39aa3fd6c71abdc6918a","41.13.188.129","Mozilla/5.0 (Windows NT 10.0; Win64; x64) AppleWebKit/537.36 (KHTML, like Gecko) Chrome/138.0.0.0 Safari/537.36","WebKit","Chrome","138.0.0.0","Windows","10.0","https://app.prolific.com/","en-US,en;q=0.9","660eafee7515c432e850362d","686d226cabeef709c732f8e1","686e565b50186bb4474bd680","660eafee7515c432e850362d","2025-07-09T11:57:18.570Z","","","","","","ControlQ","","","","","","","","","","","","","","","","","","","","","","","","","","","","","","","","","","","","","","50",""
"2818","","<div style=""width:500px;"">
  <p>How would you describe your current emotional state?</p>
  </div>","21","html-slider-response","56","607864","0.0-10.0-3.2","287","1","2025-07-09 11:47:08","7701e855f2ef39aa3fd6c71abdc6918a","41.13.188.129","Mozilla/5.0 (Windows NT 10.0; Win64; x64) AppleWebKit/537.36 (KHTML, like Gecko) Chrome/138.0.0.0 Safari/537.36","WebKit","Chrome","138.0.0.0","Windows","10.0","https://app.prolific.com/","en-US,en;q=0.9","660eafee7515c432e850362d","686d226cabeef709c732f8e1","686e565b50186bb4474bd680","660eafee7515c432e850362d","2025-07-09T11:57:21.392Z","","","","","","StressQ","","","","","","","","","","","","","","","","","","","","","","","","","","","","","","","","","","","","","","50",""
"2459","","<div style=""width:500px;"">
  <p>What best describes how you currently feel?</p>
  </div>","86","html-slider-response","57","610327","0.0-10.0-4.2","287","1","2025-07-09 11:47:08","7701e855f2ef39aa3fd6c71abdc6918a","41.13.188.129","Mozilla/5.0 (Windows NT 10.0; Win64; x64) AppleWebKit/537.36 (KHTML, like Gecko) Chrome/138.0.0.0 Safari/537.36","WebKit","Chrome","138.0.0.0","Windows","10.0","https://app.prolific.com/","en-US,en;q=0.9","660eafee7515c432e850362d","686d226cabeef709c732f8e1","686e565b50186bb4474bd680","660eafee7515c432e850362d","2025-07-09T11:57:23.854Z","","","","","","MotivationQ","","","","","","","","","","","","","","","","","","","","","","","","","","","","","","","","","","","","","","50",""
"","","","","ctl-task-cpt","58","634886","0.0-10.0-0.3","287","1","2025-07-09 11:47:08","7701e855f2ef39aa3fd6c71abdc6918a","41.13.188.129","Mozilla/5.0 (Windows NT 10.0; Win64; x64) AppleWebKit/537.36 (KHTML, like Gecko) Chrome/138.0.0.0 Safari/537.36","WebKit","Chrome","138.0.0.0","Windows","10.0","https://app.prolific.com/","en-US,en;q=0.9","660eafee7515c432e850362d","686d226cabeef709c732f8e1","686e565b50186bb4474bd680","660eafee7515c432e850362d","2025-07-09T11:57:48.413Z","","","","","","","","","","","","","","","","win-only","2","g1:SE,g2:NW","0.7","4","0","618761.8","1194","6201.6","21537.6","1","4","4","6","2","4","4","23","19","0.17424242424242425","1793.2","3000","1350","[""left"",""up""]","{""num_key_presses"":6,""num_perfect"":5,""num_errors"":0,""num_randdir"":1,""num_randdir_good_moves"":1,""num_whilered"":0,""num_whileblue"":0,""num_blue"":0,""num_good_moves"":6}","[297.22232142857143,292.12857142857143,0.5,297.22232142857143,292.12857142857143,105.9,297.22232142857143,292.12857142857143,207.8,297.22232142857143,292.12857142857143,308.3,297.22232142857143,292.12857142857143,415,297.22232142857143,292.12857142857143,528.6,297.22232142857143,292.12857142857143,631,205.22232142857143,251.12857142857143,734.1,123.22232142857143,209.12857142857143,835.6,123.22232142857143,209.12857142857143,941.1,123.22232142857143,209.12857142857143,1043.7,122.22232142857143,207.12857142857143,1146.5,92.22232142857143,140.12857142857143,1246.9,65.22232142857143,71.12857142857143,1348.8,63.222321428571426,65.12857142857143,1453.2,63.222321428571426,65.12857142857143,1555.6,63.222321428571426,65.12857142857143,1655.7,63.222321428571426,65.12857142857143,1757.9,63.222321428571426,65.12857142857143,1871,63.222321428571426,65.12857142857143,1980.2,63.222321428571426,65.12857142857143,2088.8,63.222321428571426,65.12857142857143,2194.7,63.222321428571426,65.12857142857143,2311.9,63.222321428571426,65.12857142857143,2414.6,63.222321428571426,65.12857142857143,2527.5,63.222321428571426,65.12857142857143,2632.6,63.222321428571426,65.12857142857143,2744.4,63.222321428571426,65.12857142857143,2846.6,63.222321428571426,65.12857142857143,2961.2,63.222321428571426,65.12857142857143,3061.7,63.222321428571426,65.12857142857143,3161.9,63.222321428571426,65.12857142857143,3267.8,63.222321428571426,65.12857142857143,3377.3,63.222321428571426,65.12857142857143,3481.8,63.222321428571426,65.12857142857143,3582.6,63.222321428571426,65.12857142857143,3682.8,63.222321428571426,65.12857142857143,3783.7,63.222321428571426,65.12857142857143,3885.3,63.222321428571426,65.12857142857143,3986.9,63.222321428571426,65.12857142857143,4089.6,63.222321428571426,65.12857142857143,4192.8,63.222321428571426,65.12857142857143,4298,63.222321428571426,65.12857142857143,4399.8,63.222321428571426,65.12857142857143,4500.5,63.222321428571426,65.12857142857143,4605.7,63.222321428571426,65.12857142857143,4709.5,63.222321428571426,65.12857142857143,4832.6,63.222321428571426,65.12857142857143,4950.7]","[1402.2,1402.2,1000,0,402.2,""smooth"",""up"",""up"",""good_move"",4198.8,2795.6,2426.1,1403.2,369.5,""smooth"",""left"",""left"",""good_move"",6863.5,2663.4,2012.4,4200.2,650.9,""smooth"",""up"",""up"",""good_move"",9742.6,2877.9,2543.7,6864.8,334.1,""oops"",""left"",""up"",""good_move"",12545,2799.9,2370.3,9745.1,429.6,""smooth"",""left"",""left"",""good_move"",15212.5,2666.4,2108.1,12546.1,558.3,""smooth"",""left"",""left"",""good_move""]","","",""
"3095","","<div style=""width:500px;"">
  <p>What determined the result of this run?</p>
  </div>","84","html-slider-response","59","637984","0.0-10.0-1.3","287","1","2025-07-09 11:47:08","7701e855f2ef39aa3fd6c71abdc6918a","41.13.188.129","Mozilla/5.0 (Windows NT 10.0; Win64; x64) AppleWebKit/537.36 (KHTML, like Gecko) Chrome/138.0.0.0 Safari/537.36","WebKit","Chrome","138.0.0.0","Windows","10.0","https://app.prolific.com/","en-US,en;q=0.9","660eafee7515c432e850362d","686d226cabeef709c732f8e1","686e565b50186bb4474bd680","660eafee7515c432e850362d","2025-07-09T11:57:51.512Z","","","","","","AttribQ","","","","","","","","","","","","","","","","","","","","","","","","","","","","","","","","","","","","","","50",""
"86680","","<div style=""width:500px;"">
  <p>How much control did you have over the ball?</p>
  </div>","89","html-slider-response","60","724668","0.0-10.0-2.3","287","1","2025-07-09 11:47:08","7701e855f2ef39aa3fd6c71abdc6918a","41.13.188.129","Mozilla/5.0 (Windows NT 10.0; Win64; x64) AppleWebKit/537.36 (KHTML, like Gecko) Chrome/138.0.0.0 Safari/537.36","WebKit","Chrome","138.0.0.0","Windows","10.0","https://app.prolific.com/","en-US,en;q=0.9","660eafee7515c432e850362d","686d226cabeef709c732f8e1","686e565b50186bb4474bd680","660eafee7515c432e850362d","2025-07-09T11:59:18.195Z","","","","","","ControlQ","","","","","","","","","","","","","","","","","","","","","","","","","","","","","","","","","","","","","","50",""
"3894","","<div style=""width:500px;"">
  <p>How would you describe your current emotional state?</p>
  </div>","15","html-slider-response","61","728566","0.0-10.0-3.3","287","1","2025-07-09 11:47:08","7701e855f2ef39aa3fd6c71abdc6918a","41.13.188.129","Mozilla/5.0 (Windows NT 10.0; Win64; x64) AppleWebKit/537.36 (KHTML, like Gecko) Chrome/138.0.0.0 Safari/537.36","WebKit","Chrome","138.0.0.0","Windows","10.0","https://app.prolific.com/","en-US,en;q=0.9","660eafee7515c432e850362d","686d226cabeef709c732f8e1","686e565b50186bb4474bd680","660eafee7515c432e850362d","2025-07-09T11:59:22.093Z","","","","","","StressQ","","","","","","","","","","","","","","","","","","","","","","","","","","","","","","","","","","","","","","50",""
"2960","","<div style=""width:500px;"">
  <p>What best describes how you currently feel?</p>
  </div>","92","html-slider-response","62","731530","0.0-10.0-4.3","287","1","2025-07-09 11:47:08","7701e855f2ef39aa3fd6c71abdc6918a","41.13.188.129","Mozilla/5.0 (Windows NT 10.0; Win64; x64) AppleWebKit/537.36 (KHTML, like Gecko) Chrome/138.0.0.0 Safari/537.36","WebKit","Chrome","138.0.0.0","Windows","10.0","https://app.prolific.com/","en-US,en;q=0.9","660eafee7515c432e850362d","686d226cabeef709c732f8e1","686e565b50186bb4474bd680","660eafee7515c432e850362d","2025-07-09T11:59:25.057Z","","","","","","MotivationQ","","","","","","","","","","","","","","","","","","","","","","","","","","","","","","","","","","","","","","50",""
"","","","","ctl-task-cpt","63","796737","0.0-10.0-0.4","287","1","2025-07-09 11:47:08","7701e855f2ef39aa3fd6c71abdc6918a","41.13.188.129","Mozilla/5.0 (Windows NT 10.0; Win64; x64) AppleWebKit/537.36 (KHTML, like Gecko) Chrome/138.0.0.0 Safari/537.36","WebKit","Chrome","138.0.0.0","Windows","10.0","https://app.prolific.com/","en-US,en;q=0.9","660eafee7515c432e850362d","686d226cabeef709c732f8e1","686e565b50186bb4474bd680","660eafee7515c432e850362d","2025-07-09T12:00:30.264Z","","","","","","","","","","","","","","","","win-only","1","g1:NE,g2:SW","0.6","5","0","739964.1","25630.1","30639.8","62196.7","1","4","8","6","2","-8","-8","15","23","0.11363636363636363","1761.1","3000","-1915","[""down"",""left""]","{""num_key_presses"":4,""num_perfect"":3,""num_errors"":0,""num_randdir"":1,""num_randdir_good_moves"":1,""num_whilered"":0,""num_whileblue"":0,""num_blue"":4,""num_good_moves"":4}","[246.15089285714285,243.55714285714285,1.1,246.15089285714285,243.55714285714285,111.5,246.15089285714285,243.55714285714285,212.6,246.15089285714285,243.55714285714285,315.6,246.15089285714285,243.55714285714285,430.3,262.1508928571429,210.55714285714285,533.3,315.1508928571429,146.55714285714285,643.4,316.1508928571429,145.55714285714285,754.6,209.15089285714285,235.55714285714285,861,70.15089285714285,367.5571428571429,976.5,37.15089285714286,399.5571428571429,1083.8,29.150892857142857,408.5571428571429,1184.5,22.150892857142857,428.5571428571429,1287.5,21.150892857142857,433.5571428571429,1388.9,21.150892857142857,433.5571428571429,1490.6,21.150892857142857,433.5571428571429,1591.1,21.150892857142857,433.5571428571429,1691.6,21.150892857142857,433.5571428571429,1792.5,21.150892857142857,433.5571428571429,1895.9,21.150892857142857,433.5571428571429,1998.4,21.150892857142857,433.5571428571429,2105.3,21.150892857142857,433.5571428571429,2211.3,21.150892857142857,433.5571428571429,2320.5,21.150892857142857,433.5571428571429,2426.9,21.150892857142857,433.5571428571429,2528.2,21.150892857142857,433.5571428571429,2630.6,21.150892857142857,433.5571428571429,2734,21.150892857142857,433.5571428571429,2836.7,21.150892857142857,433.5571428571429,2953,21.150892857142857,433.5571428571429,3056.7,21.150892857142857,433.5571428571429,3161.8,21.150892857142857,433.5571428571429,3279.6,21.150892857142857,433.5571428571429,3383.2,21.150892857142857,433.5571428571429,3485.5,21.150892857142857,433.5571428571429,3585.6,21.150892857142857,433.5571428571429,3686.2,21.150892857142857,433.5571428571429,3808,21.150892857142857,433.5571428571429,3913.1,21.150892857142857,433.5571428571429,4017.2,21.150892857142857,433.5571428571429,4120.5,21.150892857142857,433.5571428571429,4224.7,21.150892857142857,433.5571428571429,4331.4,21.150892857142857,433.5571428571429,4454.8,21.150892857142857,433.5571428571429,4563.2,21.150892857142857,433.5571428571429,4670.5,21.150892857142857,433.5571428571429,4781.3,21.150892857142857,433.5571428571429,4888.5,21.150892857142857,433.5571428571429,4989.1]","[2942.2,2942.2,1000,0,1942.2,""oops"",""left"",""down"",""good_move"",6653,3709.5,3149.7,2943.5,559.8,""smooth"",""left"",""left"",""good_move"",9275.9,2620.1,1970.1,6655.8,650,""smooth"",""down"",""down"",""good_move"",24447,15162.1,3253.9,20677.3,515.8,""smooth"",""left"",""left"",""good_move""]","","",""
"322765","","<div style=""width:500px;"">
  <p>What determined the result of this run?</p>
  </div>","89","html-slider-response","64","1119505","0.0-10.0-1.4","287","1","2025-07-09 11:47:08","7701e855f2ef39aa3fd6c71abdc6918a","41.13.188.129","Mozilla/5.0 (Windows NT 10.0; Win64; x64) AppleWebKit/537.36 (KHTML, like Gecko) Chrome/138.0.0.0 Safari/537.36","WebKit","Chrome","138.0.0.0","Windows","10.0","https://app.prolific.com/","en-US,en;q=0.9","660eafee7515c432e850362d","686d226cabeef709c732f8e1","686e565b50186bb4474bd680","660eafee7515c432e850362d","2025-07-09T12:05:53.033Z","","","","","","AttribQ","","","","","","","","","","","","","","","","","","","","","","","","","","","","","","","","","","","","","","50",""
"4906","","<div style=""width:500px;"">
  <p>How much control did you have over the ball?</p>
  </div>","76","html-slider-response","65","1124417","0.0-10.0-2.4","287","1","2025-07-09 11:47:08","7701e855f2ef39aa3fd6c71abdc6918a","41.13.188.129","Mozilla/5.0 (Windows NT 10.0; Win64; x64) AppleWebKit/537.36 (KHTML, like Gecko) Chrome/138.0.0.0 Safari/537.36","WebKit","Chrome","138.0.0.0","Windows","10.0","https://app.prolific.com/","en-US,en;q=0.9","660eafee7515c432e850362d","686d226cabeef709c732f8e1","686e565b50186bb4474bd680","660eafee7515c432e850362d","2025-07-09T12:05:57.944Z","","","","","","ControlQ","","","","","","","","","","","","","","","","","","","","","","","","","","","","","","","","","","","","","","50",""
"5404","","<div style=""width:500px;"">
  <p>How would you describe your current emotional state?</p>
  </div>","17","html-slider-response","66","1129824","0.0-10.0-3.4","287","1","2025-07-09 11:47:08","7701e855f2ef39aa3fd6c71abdc6918a","41.13.188.129","Mozilla/5.0 (Windows NT 10.0; Win64; x64) AppleWebKit/537.36 (KHTML, like Gecko) Chrome/138.0.0.0 Safari/537.36","WebKit","Chrome","138.0.0.0","Windows","10.0","https://app.prolific.com/","en-US,en;q=0.9","660eafee7515c432e850362d","686d226cabeef709c732f8e1","686e565b50186bb4474bd680","660eafee7515c432e850362d","2025-07-09T12:06:03.351Z","","","","","","StressQ","","","","","","","","","","","","","","","","","","","","","","","","","","","","","","","","","","","","","","50",""
"3156","","<div style=""width:500px;"">
  <p>What best describes how you currently feel?</p>
  </div>","95","html-slider-response","67","1132983","0.0-10.0-4.4","287","1","2025-07-09 11:47:08","7701e855f2ef39aa3fd6c71abdc6918a","41.13.188.129","Mozilla/5.0 (Windows NT 10.0; Win64; x64) AppleWebKit/537.36 (KHTML, like Gecko) Chrome/138.0.0.0 Safari/537.36","WebKit","Chrome","138.0.0.0","Windows","10.0","https://app.prolific.com/","en-US,en;q=0.9","660eafee7515c432e850362d","686d226cabeef709c732f8e1","686e565b50186bb4474bd680","660eafee7515c432e850362d","2025-07-09T12:06:06.510Z","","","","","","MotivationQ","","","","","","","","","","","","","","","","","","","","","","","","","","","","","","","","","","","","","","50",""
"","","","","ctl-task-cpt","68","1165518","0.0-10.0-0.5","287","1","2025-07-09 11:47:08","7701e855f2ef39aa3fd6c71abdc6918a","41.13.188.129","Mozilla/5.0 (Windows NT 10.0; Win64; x64) AppleWebKit/537.36 (KHTML, like Gecko) Chrome/138.0.0.0 Safari/537.36","WebKit","Chrome","138.0.0.0","Windows","10.0","https://app.prolific.com/","en-US,en;q=0.9","660eafee7515c432e850362d","686d226cabeef709c732f8e1","686e565b50186bb4474bd680","660eafee7515c432e850362d","2025-07-09T12:06:39.045Z","","","","","","","","","","","","","","","","win-only","1","g1:NE,g2:SW","0.5","6","0","1141417","2067.8","7073.8","29513.8","1","4","4","6","2","4","4","19","15","0.14393939393939395","1707.8","3000","1100","[""down"",""left""]","{""num_key_presses"":8,""num_perfect"":4,""num_errors"":0,""num_randdir"":4,""num_randdir_good_moves"":3,""num_whilered"":0,""num_whileblue"":0,""num_blue"":0,""num_good_moves"":7}","[241.15089285714285,246.55714285714285,0.5,241.15089285714285,246.55714285714285,109,241.15089285714285,246.55714285714285,221.2,241.15089285714285,246.55714285714285,326,241.15089285714285,246.55714285714285,426.1,241.15089285714285,246.55714285714285,529.2,241.15089285714285,246.55714285714285,631.8,227.15089285714285,257.5571428571429,741.9,133.15089285714285,394.5571428571429,861,110.15089285714285,433.5571428571429,962.7,100.15089285714285,444.5571428571429,1064,75.15089285714285,456.5571428571429,1165.8,55.15089285714286,455.5571428571429,1274,43.15089285714286,451.5571428571429,1380.8,43.15089285714286,451.5571428571429,1484.2,43.15089285714286,451.5571428571429,1586,43.15089285714286,451.5571428571429,1690.7,43.15089285714286,451.5571428571429,1798.7,43.15089285714286,451.5571428571429,1901.8,43.15089285714286,451.5571428571429,2009.5,43.15089285714286,451.5571428571429,2120.6,43.15089285714286,451.5571428571429,2228.6,43.15089285714286,451.5571428571429,2330,43.15089285714286,451.5571428571429,2440.8,43.15089285714286,451.5571428571429,2553.9,43.15089285714286,451.5571428571429,2655.4,43.15089285714286,451.5571428571429,2758.4,43.15089285714286,451.5571428571429,2861.1,43.15089285714286,451.5571428571429,2962.5,43.15089285714286,451.5571428571429,3062.7,43.15089285714286,451.5571428571429,3162.7,43.15089285714286,451.5571428571429,3263.4,43.15089285714286,451.5571428571429,3365,43.15089285714286,451.5571428571429,3468.8,43.15089285714286,451.5571428571429,3571.4,43.15089285714286,451.5571428571429,3673.6,43.15089285714286,451.5571428571429,3778.4,43.15089285714286,451.5571428571429,3889.8,43.15089285714286,451.5571428571429,3990.7,43.15089285714286,451.5571428571429,4103.9,43.15089285714286,451.5571428571429,4214.2,43.15089285714286,451.5571428571429,4318.1,43.15089285714286,451.5571428571429,4429.5,43.15089285714286,451.5571428571429,4531.2,43.15089285714286,451.5571428571429,4632.9,43.15089285714286,451.5571428571429,4733.2,43.15089285714286,451.5571428571429,4837.2,43.15089285714286,451.5571428571429,4940.5]","[1391.2,1391.2,1000,0,391.2,""oops"",""down"",""down"",""good_move"",4133.1,2740.8,2367.6,1392.3,373.2,""smooth"",""down"",""down"",""good_move"",7262.2,3126.1,2618.5,4136.1,507.6,""oops"",""left"",""left"",""good_move"",10705.3,3441.2,2997.2,7264.2,444,""oops"",""left"",""up"",""bad_move"",13329.9,2623.2,2317.4,10706.8,305.8,""smooth"",""down"",""down"",""good_move"",15574.4,2242.4,1907.7,13332,334.7,""smooth"",""down"",""down"",""good_move"",19217.7,3642.2,3220.7,15575.5,421.5,""oops"",""left"",""left"",""good_move"",22292.9,3071.9,2576.5,19221,495.4,""smooth"",""left"",""left"",""good_move""]","","",""
"59856","","<div style=""width:500px;"">
  <p>What determined the result of this run?</p>
  </div>","94","html-slider-response","69","1225377","0.0-10.0-1.5","287","1","2025-07-09 11:47:08","7701e855f2ef39aa3fd6c71abdc6918a","41.13.188.129","Mozilla/5.0 (Windows NT 10.0; Win64; x64) AppleWebKit/537.36 (KHTML, like Gecko) Chrome/138.0.0.0 Safari/537.36","WebKit","Chrome","138.0.0.0","Windows","10.0","https://app.prolific.com/","en-US,en;q=0.9","660eafee7515c432e850362d","686d226cabeef709c732f8e1","686e565b50186bb4474bd680","660eafee7515c432e850362d","2025-07-09T12:07:38.905Z","","","","","","AttribQ","","","","","","","","","","","","","","","","","","","","","","","","","","","","","","","","","","","","","","50",""
"3153","","<div style=""width:500px;"">
  <p>How much control did you have over the ball?</p>
  </div>","90","html-slider-response","70","1228534","0.0-10.0-2.5","287","1","2025-07-09 11:47:08","7701e855f2ef39aa3fd6c71abdc6918a","41.13.188.129","Mozilla/5.0 (Windows NT 10.0; Win64; x64) AppleWebKit/537.36 (KHTML, like Gecko) Chrome/138.0.0.0 Safari/537.36","WebKit","Chrome","138.0.0.0","Windows","10.0","https://app.prolific.com/","en-US,en;q=0.9","660eafee7515c432e850362d","686d226cabeef709c732f8e1","686e565b50186bb4474bd680","660eafee7515c432e850362d","2025-07-09T12:07:42.061Z","","","","","","ControlQ","","","","","","","","","","","","","","","","","","","","","","","","","","","","","","","","","","","","","","50",""
"3308","","<div style=""width:500px;"">
  <p>How would you describe your current emotional state?</p>
  </div>","13","html-slider-response","71","1231845","0.0-10.0-3.5","287","1","2025-07-09 11:47:08","7701e855f2ef39aa3fd6c71abdc6918a","41.13.188.129","Mozilla/5.0 (Windows NT 10.0; Win64; x64) AppleWebKit/537.36 (KHTML, like Gecko) Chrome/138.0.0.0 Safari/537.36","WebKit","Chrome","138.0.0.0","Windows","10.0","https://app.prolific.com/","en-US,en;q=0.9","660eafee7515c432e850362d","686d226cabeef709c732f8e1","686e565b50186bb4474bd680","660eafee7515c432e850362d","2025-07-09T12:07:45.372Z","","","","","","StressQ","","","","","","","","","","","","","","","","","","","","","","","","","","","","","","","","","","","","","","50",""
"3071","","<div style=""width:500px;"">
  <p>What best describes how you currently feel?</p>
  </div>","83","html-slider-response","72","1234918","0.0-10.0-4.5","287","1","2025-07-09 11:47:08","7701e855f2ef39aa3fd6c71abdc6918a","41.13.188.129","Mozilla/5.0 (Windows NT 10.0; Win64; x64) AppleWebKit/537.36 (KHTML, like Gecko) Chrome/138.0.0.0 Safari/537.36","WebKit","Chrome","138.0.0.0","Windows","10.0","https://app.prolific.com/","en-US,en;q=0.9","660eafee7515c432e850362d","686d226cabeef709c732f8e1","686e565b50186bb4474bd680","660eafee7515c432e850362d","2025-07-09T12:07:48.445Z","","","","","","MotivationQ","","","","","","","","","","","","","","","","","","","","","","","","","","","","","","","","","","","","","","50",""
"","","","","ctl-task-cpt","73","1296666","0.0-10.0-0.6","287","1","2025-07-09 11:47:08","7701e855f2ef39aa3fd6c71abdc6918a","41.13.188.129","Mozilla/5.0 (Windows NT 10.0; Win64; x64) AppleWebKit/537.36 (KHTML, like Gecko) Chrome/138.0.0.0 Safari/537.36","WebKit","Chrome","138.0.0.0","Windows","10.0","https://app.prolific.com/","en-US,en;q=0.9","660eafee7515c432e850362d","686d226cabeef709c732f8e1","686e565b50186bb4474bd680","660eafee7515c432e850362d","2025-07-09T12:08:50.193Z","","","","","","","","","","","","","","","","win-only","3","g1:SW,g2:NE","0.4","7","0","1243357","1638.2","6651.4","58700.2","1","4","4","6","2","-4","-5","14","19","0.10606060606060606","1494.7","3000","-855","[""up"",""right""]","{""num_key_presses"":14,""num_perfect"":5,""num_errors"":1,""num_randdir"":8,""num_randdir_good_moves"":3,""num_whilered"":0,""num_whileblue"":1,""num_blue"":4,""num_good_moves"":8}","[240.15089285714285,243.55714285714285,0.8,240.15089285714285,243.55714285714285,105,240.15089285714285,243.55714285714285,208.8,240.15089285714285,243.55714285714285,312.3,240.15089285714285,243.55714285714285,413.2,240.15089285714285,243.55714285714285,522.2,240.15089285714285,243.55714285714285,625,265.1508928571429,213.55714285714285,734,368.1508928571429,80.55714285714285,839.8,401.1508928571429,42.55714285714286,947.5,415.1508928571429,40.55714285714286,1048.6,436.1508928571429,45.55714285714286,1152.3,443.1508928571429,47.55714285714286,1258.1,443.1508928571429,47.55714285714286,1364.8,443.1508928571429,47.55714285714286,1470.2,443.1508928571429,47.55714285714286,1576.6,443.1508928571429,47.55714285714286,1677.4,443.1508928571429,47.55714285714286,1790.2,443.1508928571429,47.55714285714286,1895.5,443.1508928571429,47.55714285714286,2016.8,443.1508928571429,47.55714285714286,2123.2,443.1508928571429,47.55714285714286,2224.2,443.1508928571429,47.55714285714286,2330,443.1508928571429,47.55714285714286,2433.9,443.1508928571429,47.55714285714286,2539.8,443.1508928571429,47.55714285714286,2640.9,443.1508928571429,47.55714285714286,2741.5,443.1508928571429,47.55714285714286,2847.9,443.1508928571429,47.55714285714286,2954.4,443.1508928571429,47.55714285714286,3057.1,443.1508928571429,47.55714285714286,3161.8,443.1508928571429,47.55714285714286,3262.9,443.1508928571429,47.55714285714286,3372.4,443.1508928571429,47.55714285714286,3472.4,443.1508928571429,47.55714285714286,3587.5,443.1508928571429,47.55714285714286,3692.6,443.1508928571429,47.55714285714286,3806.8,443.1508928571429,47.55714285714286,3911.6,443.1508928571429,47.55714285714286,4028.7,443.1508928571429,47.55714285714286,4139.1,443.1508928571429,47.55714285714286,4239.5,443.1508928571429,47.55714285714286,4342.1,443.1508928571429,47.55714285714286,4451.6,443.1508928571429,47.55714285714286,4558.7,443.1508928571429,47.55714285714286,4670.3,443.1508928571429,47.55714285714286,4787.4,443.1508928571429,47.55714285714286,4903.3]","[1533.5,1533.5,1000,0,533.5,""oops"",""right"",""right"",""good_move"",7254.2,5719.5,2162,4697.6,394.6,""oops"",""up"",""down"",""bad_move"",10530.8,3275.7,2858.4,7255.1,417.4,""oops"",""up"",""up"",""good_move"",16457,5922.4,2573.4,13308.1,575.5,""smooth"",""up"",""up"",""good_move"",18921.9,2463.9,1698.4,16458,765.5,""smooth"",""right"",""right"",""good_move"",21867.7,2942.8,2564.7,18924.9,378.1,""oops"",""right"",""right"",""good_move"",28042.7,6173.6,2815.7,24870.1,356.9,""smooth"",""up"",""up"",""good_move"",30795.7,2751.3,2411.9,28044.4,339.4,""while_blue"",""up"",""down"",""bad_move"",33727.5,2929.4,2449.9,30798.2,479.5,""oops"",""up"",""down"",""bad_move"",36854.3,3125.9,2681.7,33728.4,444.2,""oops"",""up"",""left"",""bad_move"",39877.7,3022.1,2642,36855.6,380.1,""smooth"",""right"",""right"",""good_move"",43036.6,3157.1,2731.4,39879.6,425.6,""smooth"",""up"",""up"",""good_move"",46252.2,3214.3,2765.5,43037.9,448.8,""oops"",""up"",""down"",""bad_move"",49066.2,2812.7,2060.5,46253.5,752.2,""oops"",""up"",""down"",""bad_move""]","","",""
"7542","","<div style=""width:500px;"">
  <p>What determined the result of this run?</p>
  </div>","50","html-slider-response","74","1304212","0.0-10.0-1.6","287","1","2025-07-09 11:47:08","7701e855f2ef39aa3fd6c71abdc6918a","41.13.188.129","Mozilla/5.0 (Windows NT 10.0; Win64; x64) AppleWebKit/537.36 (KHTML, like Gecko) Chrome/138.0.0.0 Safari/537.36","WebKit","Chrome","138.0.0.0","Windows","10.0","https://app.prolific.com/","en-US,en;q=0.9","660eafee7515c432e850362d","686d226cabeef709c732f8e1","686e565b50186bb4474bd680","660eafee7515c432e850362d","2025-07-09T12:08:57.739Z","","","","","","AttribQ","","","","","","","","","","","","","","","","","","","","","","","","","","","","","","","","","","","","","","50",""
"5917","","<div style=""width:500px;"">
  <p>How much control did you have over the ball?</p>
  </div>","14","html-slider-response","75","1310132","0.0-10.0-2.6","287","1","2025-07-09 11:47:08","7701e855f2ef39aa3fd6c71abdc6918a","41.13.188.129","Mozilla/5.0 (Windows NT 10.0; Win64; x64) AppleWebKit/537.36 (KHTML, like Gecko) Chrome/138.0.0.0 Safari/537.36","WebKit","Chrome","138.0.0.0","Windows","10.0","https://app.prolific.com/","en-US,en;q=0.9","660eafee7515c432e850362d","686d226cabeef709c732f8e1","686e565b50186bb4474bd680","660eafee7515c432e850362d","2025-07-09T12:09:03.659Z","","","","","","ControlQ","","","","","","","","","","","","","","","","","","","","","","","","","","","","","","","","","","","","","","50",""
"490382","","<div style=""width:500px;"">
  <p>How would you describe your current emotional state?</p>
  </div>","29","html-slider-response","76","1800518","0.0-10.0-3.6","287","1","2025-07-09 11:47:08","7701e855f2ef39aa3fd6c71abdc6918a","41.13.188.129","Mozilla/5.0 (Windows NT 10.0; Win64; x64) AppleWebKit/537.36 (KHTML, like Gecko) Chrome/138.0.0.0 Safari/537.36","WebKit","Chrome","138.0.0.0","Windows","10.0","https://app.prolific.com/","en-US,en;q=0.9","660eafee7515c432e850362d","686d226cabeef709c732f8e1","686e565b50186bb4474bd680","660eafee7515c432e850362d","2025-07-09T12:17:14.045Z","","","","","","StressQ","","","","","","","","","","","","","","","","","","","","","","","","","","","","","","","","","","","","","","50",""
"3145","","<div style=""width:500px;"">
  <p>What best describes how you currently feel?</p>
  </div>","87","html-slider-response","77","1803669","0.0-10.0-4.6","287","1","2025-07-09 11:47:08","7701e855f2ef39aa3fd6c71abdc6918a","41.13.188.129","Mozilla/5.0 (Windows NT 10.0; Win64; x64) AppleWebKit/537.36 (KHTML, like Gecko) Chrome/138.0.0.0 Safari/537.36","WebKit","Chrome","138.0.0.0","Windows","10.0","https://app.prolific.com/","en-US,en;q=0.9","660eafee7515c432e850362d","686d226cabeef709c732f8e1","686e565b50186bb4474bd680","660eafee7515c432e850362d","2025-07-09T12:17:17.196Z","","","","","","MotivationQ","","","","","","","","","","","","","","","","","","","","","","","","","","","","","","","","","","","","","","50",""
"","","","","ctl-task-cpt","78","1916968","0.0-10.0-0.7","287","1","2025-07-09 11:47:08","7701e855f2ef39aa3fd6c71abdc6918a","41.13.188.129","Mozilla/5.0 (Windows NT 10.0; Win64; x64) AppleWebKit/537.36 (KHTML, like Gecko) Chrome/138.0.0.0 Safari/537.36","WebKit","Chrome","138.0.0.0","Windows","10.0","https://app.prolific.com/","en-US,en;q=0.9","660eafee7515c432e850362d","686d226cabeef709c732f8e1","686e565b50186bb4474bd680","660eafee7515c432e850362d","2025-07-09T12:19:10.495Z","","","","","","","","","","","","","","","","win-only","2","g1:SE,g2:NW","0.3","8","0","1812106.7","37470.6","42482.7","110261.2","1","4","8","6","2","-8","-8","6","14","0.045454545454545456","1491.5","3000","-545","[""left"",""up""]","{""num_key_presses"":8,""num_perfect"":3,""num_errors"":0,""num_randdir"":5,""num_randdir_good_moves"":3,""num_whilered"":0,""num_whileblue"":0,""num_blue"":2,""num_good_moves"":6}","[245.15089285714285,241.55714285714285,1,245.15089285714285,241.55714285714285,110.5,245.15089285714285,241.55714285714285,214.1,245.15089285714285,241.55714285714285,316,245.15089285714285,241.55714285714285,417.8,245.15089285714285,241.55714285714285,522,93.15089285714285,97.55714285714285,644.3,81.15089285714285,79.55714285714285,760.2,81.15089285714285,79.55714285714285,872.2,81.15089285714285,79.55714285714285,977,69.15089285714285,73.55714285714285,1093.3,52.15089285714286,67.55714285714285,1205.5,51.15089285714286,67.55714285714285,1312.2,51.15089285714286,67.55714285714285,1432,51.15089285714286,67.55714285714285,1563.2,51.15089285714286,67.55714285714285,1690.7,51.15089285714286,67.55714285714285,1798.7,51.15089285714286,67.55714285714285,1906,51.15089285714286,67.55714285714285,2010.2,51.15089285714286,67.55714285714285,2113.8,51.15089285714286,67.55714285714285,2218.6,51.15089285714286,67.55714285714285,2318.8,51.15089285714286,67.55714285714285,2465,51.15089285714286,67.55714285714285,2569.2,51.15089285714286,67.55714285714285,2679,51.15089285714286,67.55714285714285,2831,51.15089285714286,67.55714285714285,2934.4,51.15089285714286,67.55714285714285,3050.5,51.15089285714286,67.55714285714285,3160.9,51.15089285714286,67.55714285714285,3263.1,51.15089285714286,67.55714285714285,3412.8,51.15089285714286,67.55714285714285,3513.2,51.15089285714286,67.55714285714285,3614.3,51.15089285714286,67.55714285714285,3714.5,51.15089285714286,67.55714285714285,3814.9,51.15089285714286,67.55714285714285,3914.9,51.15089285714286,67.55714285714285,4081.2,51.15089285714286,67.55714285714285,4196,51.15089285714286,67.55714285714285,4301.2,51.15089285714286,67.55714285714285,4415.4,51.15089285714286,67.55714285714285,4522.8,51.15089285714286,67.55714285714285,4631.5,51.15089285714286,67.55714285714285,4738.4,51.15089285714286,67.55714285714285,4849.6]","[1525.3,1525.3,1000,0,525.3,""smooth"",""up"",""up"",""good_move"",11593.6,10067.2,2801.6,1526.5,7265.5,""oops"",""left"",""down"",""bad_move"",16026.3,4431.8,1790.8,11594.5,2641,""smooth"",""up"",""up"",""good_move"",26094.9,10067.4,2211.9,16032.4,7850.6,""oops"",""up"",""left"",""good_move"",36358.8,10263,2549.2,26095.9,7713.8,""oops"",""up"",""left"",""good_move"",43789.6,7430.3,3141.6,36359.3,4288.7,""oops"",""up"",""right"",""bad_move"",52613.4,8822.6,1911.3,43790.8,6911.3,""oops"",""up"",""left"",""good_move"",56472,3857.9,1596.1,52614.1,2261.8,""smooth"",""up"",""up"",""good_move""]","","",""
"25153","","<div style=""width:500px;"">
  <p>What determined the result of this run?</p>
  </div>","76","html-slider-response","79","1942125","0.0-10.0-1.7","287","1","2025-07-09 11:47:08","7701e855f2ef39aa3fd6c71abdc6918a","41.13.188.129","Mozilla/5.0 (Windows NT 10.0; Win64; x64) AppleWebKit/537.36 (KHTML, like Gecko) Chrome/138.0.0.0 Safari/537.36","WebKit","Chrome","138.0.0.0","Windows","10.0","https://app.prolific.com/","en-US,en;q=0.9","660eafee7515c432e850362d","686d226cabeef709c732f8e1","686e565b50186bb4474bd680","660eafee7515c432e850362d","2025-07-09T12:19:35.652Z","","","","","","AttribQ","","","","","","","","","","","","","","","","","","","","","","","","","","","","","","","","","","","","","","50",""
"3866","","<div style=""width:500px;"">
  <p>How much control did you have over the ball?</p>
  </div>","24","html-slider-response","80","1945998","0.0-10.0-2.7","287","1","2025-07-09 11:47:08","7701e855f2ef39aa3fd6c71abdc6918a","41.13.188.129","Mozilla/5.0 (Windows NT 10.0; Win64; x64) AppleWebKit/537.36 (KHTML, like Gecko) Chrome/138.0.0.0 Safari/537.36","WebKit","Chrome","138.0.0.0","Windows","10.0","https://app.prolific.com/","en-US,en;q=0.9","660eafee7515c432e850362d","686d226cabeef709c732f8e1","686e565b50186bb4474bd680","660eafee7515c432e850362d","2025-07-09T12:19:39.525Z","","","","","","ControlQ","","","","","","","","","","","","","","","","","","","","","","","","","","","","","","","","","","","","","","50",""
"6698","","<div style=""width:500px;"">
  <p>How would you describe your current emotional state?</p>
  </div>","26","html-slider-response","81","1952699","0.0-10.0-3.7","287","1","2025-07-09 11:47:08","7701e855f2ef39aa3fd6c71abdc6918a","41.13.188.129","Mozilla/5.0 (Windows NT 10.0; Win64; x64) AppleWebKit/537.36 (KHTML, like Gecko) Chrome/138.0.0.0 Safari/537.36","WebKit","Chrome","138.0.0.0","Windows","10.0","https://app.prolific.com/","en-US,en;q=0.9","660eafee7515c432e850362d","686d226cabeef709c732f8e1","686e565b50186bb4474bd680","660eafee7515c432e850362d","2025-07-09T12:19:46.227Z","","","","","","StressQ","","","","","","","","","","","","","","","","","","","","","","","","","","","","","","","","","","","","","","50",""
"3009","","<div style=""width:500px;"">
  <p>What best describes how you currently feel?</p>
  </div>","84","html-slider-response","82","1955713","0.0-10.0-4.7","287","1","2025-07-09 11:47:08","7701e855f2ef39aa3fd6c71abdc6918a","41.13.188.129","Mozilla/5.0 (Windows NT 10.0; Win64; x64) AppleWebKit/537.36 (KHTML, like Gecko) Chrome/138.0.0.0 Safari/537.36","WebKit","Chrome","138.0.0.0","Windows","10.0","https://app.prolific.com/","en-US,en;q=0.9","660eafee7515c432e850362d","686d226cabeef709c732f8e1","686e565b50186bb4474bd680","660eafee7515c432e850362d","2025-07-09T12:19:49.240Z","","","","","","MotivationQ","","","","","","","","","","","","","","","","","","","","","","","","","","","","","","","","","","","","","","50",""
"","","","","ctl-task-cpt","83","2094515","0.0-10.0-0.8","287","1","2025-07-09 11:47:08","7701e855f2ef39aa3fd6c71abdc6918a","41.13.188.129","Mozilla/5.0 (Windows NT 10.0; Win64; x64) AppleWebKit/537.36 (KHTML, like Gecko) Chrome/138.0.0.0 Safari/537.36","WebKit","Chrome","138.0.0.0","Windows","10.0","https://app.prolific.com/","en-US,en;q=0.9","660eafee7515c432e850362d","686d226cabeef709c732f8e1","686e565b50186bb4474bd680","660eafee7515c432e850362d","2025-07-09T12:22:08.042Z","","","","","","","","","","","","","","","","win-only","3","g1:SW,g2:NE","0.2","9","0","1964160.6","11795","16823.8","135765.9","1","4","4","6","2","-4","-5","1","6","0.007575757575757576","1450.4","3000","-1565","[""up"",""right""]","{""num_key_presses"":20,""num_perfect"":4,""num_errors"":1,""num_randdir"":15,""num_randdir_good_moves"":6,""num_whilered"":0,""num_whileblue"":1,""num_blue"":5,""num_good_moves"":11}","[248.15089285714285,247.55714285714285,2,248.15089285714285,247.55714285714285,102,248.15089285714285,247.55714285714285,207.8,248.15089285714285,247.55714285714285,321.4,248.15089285714285,247.55714285714285,431.2,248.15089285714285,247.55714285714285,539.1,364.1508928571429,161.55714285714285,640.6,466.1508928571429,90.55714285714285,740.6,480.1508928571429,80.55714285714285,844.5,486.1508928571429,72.55714285714285,947.9,479.1508928571429,60.55714285714286,1057,468.1508928571429,58.55714285714286,1163,468.1508928571429,58.55714285714286,1265.9,468.1508928571429,58.55714285714286,1366.6,468.1508928571429,58.55714285714286,1472.3,468.1508928571429,58.55714285714286,1588.7,468.1508928571429,58.55714285714286,1698.4,468.1508928571429,58.55714285714286,1814.2,468.1508928571429,58.55714285714286,1914.5,468.1508928571429,58.55714285714286,2030.9,468.1508928571429,58.55714285714286,2132.3,468.1508928571429,58.55714285714286,2259.2,468.1508928571429,58.55714285714286,2361.6,468.1508928571429,58.55714285714286,2478.9,468.1508928571429,58.55714285714286,2585.3,468.1508928571429,58.55714285714286,2685.5,468.1508928571429,58.55714285714286,2787.6,468.1508928571429,58.55714285714286,2887.7,468.1508928571429,58.55714285714286,2989,468.1508928571429,58.55714285714286,3090.4,468.1508928571429,58.55714285714286,3197.6,468.1508928571429,58.55714285714286,3301.9,468.1508928571429,58.55714285714286,3405.1,468.1508928571429,58.55714285714286,3517,468.1508928571429,58.55714285714286,3623.5,468.1508928571429,58.55714285714286,3724.4,468.1508928571429,58.55714285714286,3834.1,468.1508928571429,58.55714285714286,3943.7,468.1508928571429,58.55714285714286,4045.7,468.1508928571429,58.55714285714286,4154.6,468.1508928571429,58.55714285714286,4257.9,468.1508928571429,58.55714285714286,4369.7,468.1508928571429,58.55714285714286,4481.6,468.1508928571429,58.55714285714286,4584.4,468.1508928571429,58.55714285714286,4686.2,468.1508928571429,58.55714285714286,4793.9,468.1508928571429,58.55714285714286,4914.6]","[2436.8,2436.8,1000,0,1436.8,""smooth"",""up"",""up"",""good_move"",9252.8,6814.8,2245.7,6389.2,617.9,""oops"",""right"",""left"",""bad_move"",11702.6,2448.4,2002.9,9254.2,445.5,""smooth"",""up"",""up"",""good_move"",17747.2,6043.5,2307.8,15012,427.4,""oops"",""right"",""up"",""good_move"",21681.5,3933.2,1992.1,17748.3,1941.1,""oops"",""right"",""left"",""bad_move"",27216.3,5533.7,2789.6,21682.6,2744.1,""oops"",""right"",""down"",""bad_move"",30167,2949.8,2400,27217.3,549.8,""oops"",""right"",""down"",""bad_move"",33212.4,3044.3,2693.8,30168.1,350.5,""oops"",""up"",""up"",""good_move"",43426.8,10213.3,2844,40055.5,527.4,""oops"",""up"",""right"",""good_move"",47091.9,3664.2,1511.9,43427.7,2152.3,""oops"",""right"",""down"",""bad_move"",50671.3,3578.3,2521.5,47093.1,1056.7,""smooth"",""up"",""up"",""good_move"",60314.6,9642.2,3070.7,50672.4,6571.5,""oops"",""up"",""up"",""good_move"",74092.4,13777.1,2007.8,70593.5,1491.1,""oops"",""right"",""left"",""bad_move"",85001.6,10908.3,3014.4,74093.3,7893.9,""oops"",""right"",""down"",""bad_move"",88530.1,3527.9,2017.2,85002.3,1510.6,""smooth"",""up"",""up"",""good_move"",99937.8,11406.8,2431.9,88531.1,8974.9,""oops"",""right"",""down"",""bad_move"",104550.6,4612.2,2927.3,99938.5,1684.9,""oops"",""up"",""up"",""good_move"",110602.4,6050.5,2697.3,104551.9,3353.2,""oops"",""right"",""right"",""good_move"",113498.2,2895,2582.7,110603.3,312.3,""oops"",""right"",""left"",""bad_move"",116552.1,3050.3,2698.2,113501.8,352.1,""while_blue"",""right"",""right"",""good_move""]","","",""
"5290","","<div style=""width:500px;"">
  <p>What determined the result of this run?</p>
  </div>","83","html-slider-response","84","2099808","0.0-10.0-1.8","287","1","2025-07-09 11:47:08","7701e855f2ef39aa3fd6c71abdc6918a","41.13.188.129","Mozilla/5.0 (Windows NT 10.0; Win64; x64) AppleWebKit/537.36 (KHTML, like Gecko) Chrome/138.0.0.0 Safari/537.36","WebKit","Chrome","138.0.0.0","Windows","10.0","https://app.prolific.com/","en-US,en;q=0.9","660eafee7515c432e850362d","686d226cabeef709c732f8e1","686e565b50186bb4474bd680","660eafee7515c432e850362d","2025-07-09T12:22:13.335Z","","","","","","AttribQ","","","","","","","","","","","","","","","","","","","","","","","","","","","","","","","","","","","","","","50",""
"3526","","<div style=""width:500px;"">
  <p>How much control did you have over the ball?</p>
  </div>","75","html-slider-response","85","2103337","0.0-10.0-2.8","287","1","2025-07-09 11:47:08","7701e855f2ef39aa3fd6c71abdc6918a","41.13.188.129","Mozilla/5.0 (Windows NT 10.0; Win64; x64) AppleWebKit/537.36 (KHTML, like Gecko) Chrome/138.0.0.0 Safari/537.36","WebKit","Chrome","138.0.0.0","Windows","10.0","https://app.prolific.com/","en-US,en;q=0.9","660eafee7515c432e850362d","686d226cabeef709c732f8e1","686e565b50186bb4474bd680","660eafee7515c432e850362d","2025-07-09T12:22:16.864Z","","","","","","ControlQ","","","","","","","","","","","","","","","","","","","","","","","","","","","","","","","","","","","","","","50",""
"3441","","<div style=""width:500px;"">
  <p>How would you describe your current emotional state?</p>
  </div>","28","html-slider-response","86","2106781","0.0-10.0-3.8","287","1","2025-07-09 11:47:08","7701e855f2ef39aa3fd6c71abdc6918a","41.13.188.129","Mozilla/5.0 (Windows NT 10.0; Win64; x64) AppleWebKit/537.36 (KHTML, like Gecko) Chrome/138.0.0.0 Safari/537.36","WebKit","Chrome","138.0.0.0","Windows","10.0","https://app.prolific.com/","en-US,en;q=0.9","660eafee7515c432e850362d","686d226cabeef709c732f8e1","686e565b50186bb4474bd680","660eafee7515c432e850362d","2025-07-09T12:22:20.308Z","","","","","","StressQ","","","","","","","","","","","","","","","","","","","","","","","","","","","","","","","","","","","","","","50",""
"3454","","<div style=""width:500px;"">
  <p>What best describes how you currently feel?</p>
  </div>","90","html-slider-response","87","2110240","0.0-10.0-4.8","287","1","2025-07-09 11:47:08","7701e855f2ef39aa3fd6c71abdc6918a","41.13.188.129","Mozilla/5.0 (Windows NT 10.0; Win64; x64) AppleWebKit/537.36 (KHTML, like Gecko) Chrome/138.0.0.0 Safari/537.36","WebKit","Chrome","138.0.0.0","Windows","10.0","https://app.prolific.com/","en-US,en;q=0.9","660eafee7515c432e850362d","686d226cabeef709c732f8e1","686e565b50186bb4474bd680","660eafee7515c432e850362d","2025-07-09T12:22:23.768Z","","","","","","MotivationQ","","","","","","","","","","","","","","","","","","","","","","","","","","","","","","","","","","","","","","50",""
