"rt","response_timestamp","stimulus","response","trial_type","trial_index","time_elapsed","internal_node_id","run_id","condition","recorded_at","source_code_version","ip","user_agent","device","browser","browser_version","platform","platform_version","referer","accept_language","PROLIFIC_PID","STUDY_ID","SESSION_ID","prolific_id","realtime","view_history","question_order","consent","success","question_id","eventType","responses","item_order","radio_event_ids","radio_event_times","key_event_times","mouse_event_times","straightlining","zigzagging","honeypot","which_type","canvas_config","goals_layout","control_level","trial_number","tutorial_trial_number","trial_start_time","phase1_start_time","phase2_start_time","phase3_start_time","goal_1_value","goal_1_distance","goal_2_value","goal_2_distance","goal_selected","outcome","outcome_total","participant_final_score","participant_initial_score","participant_final_score_prop","goal_choice_rt","allocated_time","allocated_time_remaining","goal_direction","counts","mouse_movements","key_presses","correct","slider_start","sub_question"
"1843","1752052036959","<p style='font-size:40px;line-height:1.25'><strong>Welcome to the experiment!</strong></p><p style='font-size:1.1em;line-height:1.25'>Thank you for your interest in our experiment! Before you begin, it is important that we obtain your informed consent to participate in the study.</p><p style='font-size:1.1em;line-height:1.25'>On the next screen will be an <strong>information sheet</strong> for you to read. To participate in the study we need you to read this information sheet and the following consent form carefully. If you agree with all the statements, please click the <strong>I agree</strong> button.</p><p style='font-size:1.1em;line-height:1.25'>Press <strong>Next</strong> to read the information sheet.</p>","0","custom-html-button-response","0","1845","0.0-0.0","48","1","2025-07-09 09:07:14","7701e855f2ef39aa3fd6c71abdc6918a","85.159.132.64","Mozilla/5.0 (Windows NT 10.0; Win64; x64) AppleWebKit/537.36 (KHTML, like Gecko) Chrome/138.0.0.0 Safari/537.36 Edg/138.0.0.0","WebKit","Edge","138.0.0.0","Windows","10.0","https://app.prolific.com/","en-GB,en;q=0.9,en-US;q=0.8","655621646782dec335983823","686d226cabeef709c732f8e1","686e31307d6394be2a7024a5","655621646782dec335983823","2025-07-09T09:07:16.960Z","","","","","","","","","","","","","","","","","","","","","","","","","","","","","","","","","","","","","","","","","","","","",""
"9626","","","","instructions","1","11476","0.0-1.0","48","1","2025-07-09 09:07:14","7701e855f2ef39aa3fd6c71abdc6918a","85.159.132.64","Mozilla/5.0 (Windows NT 10.0; Win64; x64) AppleWebKit/537.36 (KHTML, like Gecko) Chrome/138.0.0.0 Safari/537.36 Edg/138.0.0.0","WebKit","Edge","138.0.0.0","Windows","10.0","https://app.prolific.com/","en-GB,en;q=0.9,en-US;q=0.8","655621646782dec335983823","686d226cabeef709c732f8e1","686e31307d6394be2a7024a5","655621646782dec335983823","","[{""page_index"":0,""viewing_time"":6946},{""page_index"":1,""viewing_time"":2680}]","","","","","","","","","","","","","","","","","","","","","","","","","","","","","","","","","","","","","","","","","","","",""
"4175","","","{""Q0"":"""",""Q1"":"""",""Q2"":"""",""Q3"":"""",""Q4"":"""",""Q5"":"""",""Q6"":""I agree""}","survey-multi-choice","2","15653","0.0-2.0","48","1","2025-07-09 09:07:14","7701e855f2ef39aa3fd6c71abdc6918a","85.159.132.64","Mozilla/5.0 (Windows NT 10.0; Win64; x64) AppleWebKit/537.36 (KHTML, like Gecko) Chrome/138.0.0.0 Safari/537.36 Edg/138.0.0.0","WebKit","Edge","138.0.0.0","Windows","10.0","https://app.prolific.com/","en-GB,en;q=0.9,en-US;q=0.8","655621646782dec335983823","686d226cabeef709c732f8e1","686e31307d6394be2a7024a5","655621646782dec335983823","","","[0,1,2,3,4,5,6]","true","","","","","","","","","","","","","","","","","","","","","","","","","","","","","","","","","","","","","","","","","",""
"4262","","","","fullscreen","3","20923","0.0-4.0","48","1","2025-07-09 09:07:14","7701e855f2ef39aa3fd6c71abdc6918a","85.159.132.64","Mozilla/5.0 (Windows NT 10.0; Win64; x64) AppleWebKit/537.36 (KHTML, like Gecko) Chrome/138.0.0.0 Safari/537.36 Edg/138.0.0.0","WebKit","Edge","138.0.0.0","Windows","10.0","https://app.prolific.com/","en-GB,en;q=0.9,en-US;q=0.8","655621646782dec335983823","686d226cabeef709c732f8e1","686e31307d6394be2a7024a5","655621646782dec335983823","","","","","true","","","","","","","","","","","","","","","","","","","","","","","","","","","","","","","","","","","","","","","","",""
"1865","1752052057903"," <p style='font-size:1.1em;line-height:1.25'>Thank you for completing the consent form and closing all other tabs.</p><p style='font-size:1.1em;line-height:1.25'>We will now invite you to fill in some demographic information and questionnaires, before starting the game.<br>This will take about 5 minutes.<br></p><p style='font-size:1.1em;line-height:1.25'>Press the <strong>Next</strong> button to continue.</p>","0","custom-html-button-response","4","22788","0.0-5.0","48","1","2025-07-09 09:07:14","7701e855f2ef39aa3fd6c71abdc6918a","85.159.132.64","Mozilla/5.0 (Windows NT 10.0; Win64; x64) AppleWebKit/537.36 (KHTML, like Gecko) Chrome/138.0.0.0 Safari/537.36 Edg/138.0.0.0","WebKit","Edge","138.0.0.0","Windows","10.0","https://app.prolific.com/","en-GB,en;q=0.9,en-US;q=0.8","655621646782dec335983823","686d226cabeef709c732f8e1","686e31307d6394be2a7024a5","655621646782dec335983823","2025-07-09T09:07:37.903Z","","","","","","","","","","","","","","","","","","","","","","","","","","","","","","","","","","","","","","","","","","","","",""
"1990","","","{""age"":""28""}","survey-text","5","24780","0.0-6.0-0.0","48","1","2025-07-09 09:07:14","7701e855f2ef39aa3fd6c71abdc6918a","85.159.132.64","Mozilla/5.0 (Windows NT 10.0; Win64; x64) AppleWebKit/537.36 (KHTML, like Gecko) Chrome/138.0.0.0 Safari/537.36 Edg/138.0.0.0","WebKit","Edge","138.0.0.0","Windows","10.0","https://app.prolific.com/","en-GB,en;q=0.9,en-US;q=0.8","655621646782dec335983823","686d226cabeef709c732f8e1","686e31307d6394be2a7024a5","655621646782dec335983823","","","","","","0","demographics","","","","","","","","","","","","","","","","","","","","","","","","","","","","","","","","","","","","","","",""
"1880","","","{""gender_identity"":""female/woman""}","survey-multi-choice","6","26661","0.0-6.0-1.0","48","1","2025-07-09 09:07:14","7701e855f2ef39aa3fd6c71abdc6918a","85.159.132.64","Mozilla/5.0 (Windows NT 10.0; Win64; x64) AppleWebKit/537.36 (KHTML, like Gecko) Chrome/138.0.0.0 Safari/537.36 Edg/138.0.0.0","WebKit","Edge","138.0.0.0","Windows","10.0","https://app.prolific.com/","en-GB,en;q=0.9,en-US;q=0.8","655621646782dec335983823","686d226cabeef709c732f8e1","686e31307d6394be2a7024a5","655621646782dec335983823","","","[0]","","","1","demographics","","","","","","","","","","","","","","","","","","","","","","","","","","","","","","","","","","","","","","",""
"1391","","","{""assigned_sex"":""female""}","survey-multi-choice","7","28052","0.0-6.0-2.0","48","1","2025-07-09 09:07:14","7701e855f2ef39aa3fd6c71abdc6918a","85.159.132.64","Mozilla/5.0 (Windows NT 10.0; Win64; x64) AppleWebKit/537.36 (KHTML, like Gecko) Chrome/138.0.0.0 Safari/537.36 Edg/138.0.0.0","WebKit","Edge","138.0.0.0","Windows","10.0","https://app.prolific.com/","en-GB,en;q=0.9,en-US;q=0.8","655621646782dec335983823","686d226cabeef709c732f8e1","686e31307d6394be2a7024a5","655621646782dec335983823","","","[0]","","","2","demographics","","","","","","","","","","","","","","","","","","","","","","","","","","","","","","","","","","","","","","",""
"5159","","","{""menstrual_cycle"":""Yes""}","survey-multi-choice","8","33213","0.0-6.0-3.0","48","1","2025-07-09 09:07:14","7701e855f2ef39aa3fd6c71abdc6918a","85.159.132.64","Mozilla/5.0 (Windows NT 10.0; Win64; x64) AppleWebKit/537.36 (KHTML, like Gecko) Chrome/138.0.0.0 Safari/537.36 Edg/138.0.0.0","WebKit","Edge","138.0.0.0","Windows","10.0","https://app.prolific.com/","en-GB,en;q=0.9,en-US;q=0.8","655621646782dec335983823","686d226cabeef709c732f8e1","686e31307d6394be2a7024a5","655621646782dec335983823","","","[0]","","","4","demographics","","","","","","","","","","","","","","","","","","","","","","","","","","","","","","","","","","","","","","",""
"2791","","","{""education"":""Master's Degree (e.g., MSc)""}","survey-multi-choice","9","36005","0.0-6.0-4.0","48","1","2025-07-09 09:07:14","7701e855f2ef39aa3fd6c71abdc6918a","85.159.132.64","Mozilla/5.0 (Windows NT 10.0; Win64; x64) AppleWebKit/537.36 (KHTML, like Gecko) Chrome/138.0.0.0 Safari/537.36 Edg/138.0.0.0","WebKit","Edge","138.0.0.0","Windows","10.0","https://app.prolific.com/","en-GB,en;q=0.9,en-US;q=0.8","655621646782dec335983823","686d226cabeef709c732f8e1","686e31307d6394be2a7024a5","655621646782dec335983823","","","[0]","","","5","demographics","","","","","","","","","","","","","","","","","","","","","","","","","","","","","","","","","","","","","","",""
"4047","","","{""education"":""Master's Degree (e.g., MSc)""}","survey-multi-choice","10","40053","0.0-6.0-5.0","48","1","2025-07-09 09:07:14","7701e855f2ef39aa3fd6c71abdc6918a","85.159.132.64","Mozilla/5.0 (Windows NT 10.0; Win64; x64) AppleWebKit/537.36 (KHTML, like Gecko) Chrome/138.0.0.0 Safari/537.36 Edg/138.0.0.0","WebKit","Edge","138.0.0.0","Windows","10.0","https://app.prolific.com/","en-GB,en;q=0.9,en-US;q=0.8","655621646782dec335983823","686d226cabeef709c732f8e1","686e31307d6394be2a7024a5","655621646782dec335983823","2025-07-09T09:07:55.168Z","","[0]","","","6","demographics","","","","","","","","","","","","","","","","","","","","","","","","","","","","","","","","","","","","","","",""
"24477","","","{""mental_health_condition"":""Anxiety"",""mental_health_treatment"":""Yes medication"",""psychiatric_medication"":""Sertraline 50mg once a day""}","survey-text","11","64532","0.0-7.0-0.0","48","1","2025-07-09 09:07:14","7701e855f2ef39aa3fd6c71abdc6918a","85.159.132.64","Mozilla/5.0 (Windows NT 10.0; Win64; x64) AppleWebKit/537.36 (KHTML, like Gecko) Chrome/138.0.0.0 Safari/537.36 Edg/138.0.0.0","WebKit","Edge","138.0.0.0","Windows","10.0","https://app.prolific.com/","en-GB,en;q=0.9,en-US;q=0.8","655621646782dec335983823","686d226cabeef709c732f8e1","686e31307d6394be2a7024a5","655621646782dec335983823","2025-07-09T09:08:19.647Z","","","","","1","mental_health","","","","","","","","","","","","","","","","","","","","","","","","","","","","","","","","","","","","","","",""
"6039","","","{""depression_history"":[""Yes""]}","survey-multi-select","12","70573","0.0-7.0-1.0","48","1","2025-07-09 09:07:14","7701e855f2ef39aa3fd6c71abdc6918a","85.159.132.64","Mozilla/5.0 (Windows NT 10.0; Win64; x64) AppleWebKit/537.36 (KHTML, like Gecko) Chrome/138.0.0.0 Safari/537.36 Edg/138.0.0.0","WebKit","Edge","138.0.0.0","Windows","10.0","https://app.prolific.com/","en-GB,en;q=0.9,en-US;q=0.8","655621646782dec335983823","686d226cabeef709c732f8e1","686e31307d6394be2a7024a5","655621646782dec335983823","","","[0]","","","","mental_health","","","","","","","","","","","","","","","","","","","","","","","","","","","","","","","","","","","","","","",""
"3975","","","{""depression_episodes"":""1-2"",""depression_recent"":""Within the past year""}","survey-multi-choice","13","74549","0.0-7.0-2.0-0.0","48","1","2025-07-09 09:07:14","7701e855f2ef39aa3fd6c71abdc6918a","85.159.132.64","Mozilla/5.0 (Windows NT 10.0; Win64; x64) AppleWebKit/537.36 (KHTML, like Gecko) Chrome/138.0.0.0 Safari/537.36 Edg/138.0.0.0","WebKit","Edge","138.0.0.0","Windows","10.0","https://app.prolific.com/","en-GB,en;q=0.9,en-US;q=0.8","655621646782dec335983823","686d226cabeef709c732f8e1","686e31307d6394be2a7024a5","655621646782dec335983823","2025-07-09T09:08:29.664Z","","[0,1]","","","3","mental_health","","","","","","","","","","","","","","","","","","","","","","","","","","","","","","","","","","","","","","",""
"31926.099999904633","","","","survey-template","14","106478","0.0-7.0-3.0","48","1","2025-07-09 09:07:14","7701e855f2ef39aa3fd6c71abdc6918a","85.159.132.64","Mozilla/5.0 (Windows NT 10.0; Win64; x64) AppleWebKit/537.36 (KHTML, like Gecko) Chrome/138.0.0.0 Safari/537.36 Edg/138.0.0.0","WebKit","Edge","138.0.0.0","Windows","10.0","https://app.prolific.com/","en-GB,en;q=0.9,en-US;q=0.8","655621646782dec335983823","686d226cabeef709c732f8e1","686e31307d6394be2a7024a5","655621646782dec335983823","2025-07-09T09:09:01.594Z","","","","","","ius","{""Q01"":""1"",""Q02"":""2"",""Q03"":""1"",""Q04"":""1"",""Q05"":""2"",""Q06"":""1"",""Q07"":""2"",""Q08"":""0"",""Q09"":""2"",""Q10"":""2"",""Q11"":""3"",""Q12"":""3"",""Q13"":""1""}","[0,1,2,3,4,5,6,7,8,9,10,11,12]","[""Q01"",""Q02"",""Q03"",""Q04"",""Q05"",""Q06"",""Q07"",""Q08"",""Q09"",""Q10"",""Q11"",""Q12"",""Q13""]","[3948.5,8996.299999952316,12492.299999952316,15116.399999856949,16597.5,18972.599999904633,20332.299999952316,21604.39999985695,23332.199999809265,25500.599999904633,27796.599999904633,30452.39999985695,31364.599999904633]","[]","[3948.5,8996.299999952316,12492.299999952316,15116.399999856949,15916.5,16597.5,18972.599999904633,20332.299999952316,21604.39999985695,23332.199999809265,24820.299999952316,25500.599999904633,27796.599999904633,28620.599999904633,30452.39999985695,31364.599999904633,31924.39999985695]","0.38461538461538464","0.5","0","","","","","","","","","","","","","","","","","","","","","","","","","","","","","",""
"2148","1752052143743","<p style='font-size:1.1em;line-height:1.25'>In the following, we will ask you a few questions relating to your experiences over the past month.<br></p><p style='font-size:1.1em;line-height:1.25'>Press the <strong>Next</strong> button to continue.</p>","0","custom-html-button-response","15","108628","0.0-7.0-4.0","48","1","2025-07-09 09:07:14","7701e855f2ef39aa3fd6c71abdc6918a","85.159.132.64","Mozilla/5.0 (Windows NT 10.0; Win64; x64) AppleWebKit/537.36 (KHTML, like Gecko) Chrome/138.0.0.0 Safari/537.36 Edg/138.0.0.0","WebKit","Edge","138.0.0.0","Windows","10.0","https://app.prolific.com/","en-GB,en;q=0.9,en-US;q=0.8","655621646782dec335983823","686d226cabeef709c732f8e1","686e31307d6394be2a7024a5","655621646782dec335983823","2025-07-09T09:09:03.743Z","","","","","","","","","","","","","","","","","","","","","","","","","","","","","","","","","","","","","","","","","","","","",""
"36488.700000047684","","","","survey-template","16","145118","0.0-7.0-5.0","48","1","2025-07-09 09:07:14","7701e855f2ef39aa3fd6c71abdc6918a","85.159.132.64","Mozilla/5.0 (Windows NT 10.0; Win64; x64) AppleWebKit/537.36 (KHTML, like Gecko) Chrome/138.0.0.0 Safari/537.36 Edg/138.0.0.0","WebKit","Edge","138.0.0.0","Windows","10.0","https://app.prolific.com/","en-GB,en;q=0.9,en-US;q=0.8","655621646782dec335983823","686d226cabeef709c732f8e1","686e31307d6394be2a7024a5","655621646782dec335983823","2025-07-09T09:09:40.233Z","","","","","","pss","{""Q01"":""2"",""Q02"":""2"",""Q03"":""3"",""Q04"":""2"",""Q05"":""2"",""Q06"":""2"",""Q07"":""2"",""Q08"":""2"",""Q09"":""2"",""Q10"":""2""}","[0,1,2,3,4,5,6,7,8,9]","[""Q01"",""Q02"",""Q03"",""Q04"",""Q05"",""Q06"",""Q07"",""Q08"",""Q09"",""Q10""]","[7774.399999856949,10478.599999904633,12670.399999856949,15238.700000047684,23302.799999952316,25454.799999952316,29270.39999985695,31174.599999904633,34134.59999990463,35926.59999990463]","[]","[0,7774.399999856949,10478.599999904633,12670.399999856949,14510.700000047684,15238.700000047684,23302.799999952316,23990.5,25454.799999952316,29270.39999985695,31174.599999904633,34134.59999990463,35926.59999990463,36487.39999985695]","0.9","0.2222222222222222","0","","","","","","","","","","","","","","","","","","","","","","","","","","","","","",""
"1245","1752052181479","<p style='font-size:1.1em;line-height:1.25'>Thank you for your answers! Now we will ask you a few more questions relating to your feelings in the last 24 hours.<br></p><p style='font-size:1.1em;line-height:1.25'>Press the <strong>Next</strong> button to continue.</p>","0","custom-html-button-response","17","146364","0.0-7.0-6.0","48","1","2025-07-09 09:07:14","7701e855f2ef39aa3fd6c71abdc6918a","85.159.132.64","Mozilla/5.0 (Windows NT 10.0; Win64; x64) AppleWebKit/537.36 (KHTML, like Gecko) Chrome/138.0.0.0 Safari/537.36 Edg/138.0.0.0","WebKit","Edge","138.0.0.0","Windows","10.0","https://app.prolific.com/","en-GB,en;q=0.9,en-US;q=0.8","655621646782dec335983823","686d226cabeef709c732f8e1","686e31307d6394be2a7024a5","655621646782dec335983823","2025-07-09T09:09:41.479Z","","","","","","","","","","","","","","","","","","","","","","","","","","","","","","","","","","","","","","","","","","","","",""
"34561.299999952316","","","","survey-template","18","180928","0.0-7.0-7.0","48","1","2025-07-09 09:07:14","7701e855f2ef39aa3fd6c71abdc6918a","85.159.132.64","Mozilla/5.0 (Windows NT 10.0; Win64; x64) AppleWebKit/537.36 (KHTML, like Gecko) Chrome/138.0.0.0 Safari/537.36 Edg/138.0.0.0","WebKit","Edge","138.0.0.0","Windows","10.0","https://app.prolific.com/","en-GB,en;q=0.9,en-US;q=0.8","655621646782dec335983823","686d226cabeef709c732f8e1","686e31307d6394be2a7024a5","655621646782dec335983823","2025-07-09T09:10:16.043Z","","","","","","drsp","{""Q01"":""0"",""Q02"":""0"",""Q03"":""0"",""Q04"":""2"",""Q05"":""0"",""Q06"":""1"",""Q07"":""1"",""Q08"":""0"",""Q09"":""0"",""Q10"":""1"",""Q11"":""2"",""Q12"":""2"",""Q13"":""3"",""Q14"":""1"",""Q15"":""2"",""Q16"":""3"",""Q17"":""1"",""Q18"":""1"",""Q19"":""2"",""Q20"":""1"",""Q21"":""1""}","[0,1,2,3,4,5,6,7,8,9,10,11,12,13,14,15,16,17,18,19,20]","[""Q01"",""Q02"",""Q03"",""Q04"",""Q05"",""Q06"",""Q07"",""Q08"",""Q09"",""Q10"",""Q11"",""Q12"",""Q13"",""Q14"",""Q15"",""Q16"",""Q17"",""Q18"",""Q19"",""Q20"",""Q20"",""Q21"",""Q21""]","[2814.100000143051,3262.2999999523163,3909.9000000953674,5349.799999952316,6990,9285.900000095367,10374.100000143051,10902.100000143051,13510.100000143051,14478.299999952316,15886.200000047684,18006.200000047684,18926.200000047684,20510,21318,24046,25902.10000014305,26750.10000014305,29582,30518,31174.10000014305,32910.10000014305,34046.200000047684]","[]","[0.10000014305114746,2814.100000143051,3262.2999999523163,3909.9000000953674,5349.799999952316,6990,7862.299999952316,8710.200000047684,9285.900000095367,9766.100000143051,10374.100000143051,10902.100000143051,13510.100000143051,14478.299999952316,15886.200000047684,18006.200000047684,18926.200000047684,20510,21318,24046,24790.299999952316,25902.10000014305,26750.10000014305,29582,30518,31174.10000014305,32910.10000014305,33414,34046.200000047684,34558.200000047684]","0.38095238095238093","0.45","0","","","","","","","","","","","","","","","","","","","","","","","","","","","","","",""
"9067.700000047684","","","","survey-template","19","189997","0.0-7.0-8.0","48","1","2025-07-09 09:07:14","7701e855f2ef39aa3fd6c71abdc6918a","85.159.132.64","Mozilla/5.0 (Windows NT 10.0; Win64; x64) AppleWebKit/537.36 (KHTML, like Gecko) Chrome/138.0.0.0 Safari/537.36 Edg/138.0.0.0","WebKit","Edge","138.0.0.0","Windows","10.0","https://app.prolific.com/","en-GB,en;q=0.9,en-US;q=0.8","655621646782dec335983823","686d226cabeef709c732f8e1","686e31307d6394be2a7024a5","655621646782dec335983823","2025-07-09T09:10:25.112Z","","","","","","stress","{""Q01"":""3"",""Q02"":""2"",""Q03"":""2""}","[0,1,2]","[""Q01"",""Q02"",""Q03""]","[5810.700000047684,7010.900000095367,8578.900000095367]","[]","[5810.700000047684,7010.900000095367,8578.900000095367,9067]","0.6666666666666666","0.5","0","","","","","","","","","","","","","","","","","","","","","","","","","","","","","",""
"50574","","","","instructions","20","240572","0.0-8.0-0.0","48","1","2025-07-09 09:07:14","7701e855f2ef39aa3fd6c71abdc6918a","85.159.132.64","Mozilla/5.0 (Windows NT 10.0; Win64; x64) AppleWebKit/537.36 (KHTML, like Gecko) Chrome/138.0.0.0 Safari/537.36 Edg/138.0.0.0","WebKit","Edge","138.0.0.0","Windows","10.0","https://app.prolific.com/","en-GB,en;q=0.9,en-US;q=0.8","655621646782dec335983823","686d226cabeef709c732f8e1","686e31307d6394be2a7024a5","655621646782dec335983823","","[{""page_index"":0,""viewing_time"":7806},{""page_index"":1,""viewing_time"":12056},{""page_index"":2,""viewing_time"":22480},{""page_index"":3,""viewing_time"":8232}]","","","","","","","","","","","","","","","","","","","","","","","","","","","","","","","","","","","","","","","","","","","",""
"","","","","ctl-task-cpt","21","270767","0.0-8.0-1.0","48","1","2025-07-09 09:07:14","7701e855f2ef39aa3fd6c71abdc6918a","85.159.132.64","Mozilla/5.0 (Windows NT 10.0; Win64; x64) AppleWebKit/537.36 (KHTML, like Gecko) Chrome/138.0.0.0 Safari/537.36 Edg/138.0.0.0","WebKit","Edge","138.0.0.0","Windows","10.0","https://app.prolific.com/","en-GB,en;q=0.9,en-US;q=0.8","655621646782dec335983823","686d226cabeef709c732f8e1","686e31307d6394be2a7024a5","655621646782dec335983823","","","","","","","","","","","","","","","","","win-only","3","g1:SW,g2:NE","1","0","1","241978.3","2670.2","6671.2","27167.1","2","4","4","6","1","-2","-6","0","0","0","1961.2","4000","-2975","[""down"",""left""]","{""num_key_presses"":8,""num_perfect"":3,""num_errors"":4,""num_randdir"":0,""num_randdir_good_moves"":0,""num_whilered"":1,""num_whileblue"":0,""num_blue"":0,""num_good_moves"":3}","[413.57142857142856,411.6808016640799,0.3,413.57142857142856,411.6808016640799,101.4,413.57142857142856,411.6808016640799,205.3,413.57142857142856,411.6808016640799,312.6,413.57142857142856,411.6808016640799,415.1,413.57142857142856,411.6808016640799,515.2,524.5714285714286,411.6808016640799,616.6,524.5714285714286,411.6808016640799,721,455.57142857142856,434.1808016640799,828.8,419.57142857142856,458.1808016640799,929,398.57142857142856,467.1808016640799,1030.9,385.07142857142856,479.1808016640799,1131.2,368.57142857142856,486.6808016640799,1236.8,367.07142857142856,488.1808016640799,1344.8,365.57142857142856,488.1808016640799,1444.9,365.57142857142856,488.1808016640799,1545.3,212.57142857142856,599.1808016640799,1650.9,77.57142857142857,722.1808016640799,1751.3,80.57142857142857,732.6808016640799,1851.6,86.57142857142857,749.1808016640799,1962.8,86.57142857142857,749.1808016640799,2066.9,86.57142857142857,749.1808016640799,2171.4,242.57142857142856,714.6808016640799,2277.9,353.57142857142856,695.1808016640799,2381.1,362.57142857142856,692.1808016640799,2481.9,362.57142857142856,692.1808016640799,2586,362.57142857142856,692.1808016640799,2694,362.57142857142856,692.1808016640799,2796.4,362.57142857142856,692.1808016640799,2900.5,370.07142857142856,689.1808016640799,3000.9,370.07142857142856,689.1808016640799,3110.1,370.07142857142856,689.1808016640799,3210.1,374.57142857142856,684.6808016640799,3310.1,422.57142857142856,659.1808016640799,3410.2,764.5714285714286,551.1808016640799,3515.3,923.5714285714286,470.1808016640799,3615.3,923.5714285714286,470.1808016640799,3726.2,923.5714285714286,470.1808016640799,3831.2,926.5714285714286,470.1808016640799,3931.4]","[4040.7,4040.8,1000,0,3040.8,""smooth"",""down"",""down"",""good_move"",4550.1,509.1,2875,4041,-2365.9,""error"",""-"",""-"",""no_move"",4822.9,272.6,2875,4041,-2093.1,""while_red"",""-"",""-"",""no_move"",6342.8,1792.5,1739.8,5554.3,-951.3,""error"",""-"",""-"",""no_move"",11382.3,5039.4,3486.7,7345.6,550,""smooth"",""down"",""down"",""good_move"",11686.1,303.7,1741.8,11382.4,-1438.1,""error"",""-"",""-"",""no_move"",15982.3,4296,2804.1,12689.9,488.3,""smooth"",""left"",""left"",""good_move"",16262.4,279.8,2646.7,15982.6,-2366.9,""error"",""-"",""-"",""no_move""]","","",""
"6260","","","","instructions","22","277028","0.0-8.0-2.0","48","1","2025-07-09 09:07:14","7701e855f2ef39aa3fd6c71abdc6918a","85.159.132.64","Mozilla/5.0 (Windows NT 10.0; Win64; x64) AppleWebKit/537.36 (KHTML, like Gecko) Chrome/138.0.0.0 Safari/537.36 Edg/138.0.0.0","WebKit","Edge","138.0.0.0","Windows","10.0","https://app.prolific.com/","en-GB,en;q=0.9,en-US;q=0.8","655621646782dec335983823","686d226cabeef709c732f8e1","686e31307d6394be2a7024a5","655621646782dec335983823","","[{""page_index"":0,""viewing_time"":6260}]","","","","","","","","","","","","","","","","","","","","","","","","","","","","","","","","","","","","","","","","","","","",""
"","","","","ctl-task-cpt","23","323131","0.0-8.0-3.0","48","1","2025-07-09 09:07:14","7701e855f2ef39aa3fd6c71abdc6918a","85.159.132.64","Mozilla/5.0 (Windows NT 10.0; Win64; x64) AppleWebKit/537.36 (KHTML, like Gecko) Chrome/138.0.0.0 Safari/537.36 Edg/138.0.0.0","WebKit","Edge","138.0.0.0","Windows","10.0","https://app.prolific.com/","en-GB,en;q=0.9,en-US;q=0.8","655621646782dec335983823","686d226cabeef709c732f8e1","686e31307d6394be2a7024a5","655621646782dec335983823","","","","","","","","","","","","","","","","","win-only","3","g1:SW,g2:NE","0.35","0","3","278433.3","1151.5","5155.8","43091","2","4","8","6","2","-8","-10","0","0","0","1439.2","4000","-2715","[""up"",""right""]","{""num_key_presses"":12,""num_perfect"":4,""num_errors"":2,""num_randdir"":6,""num_randdir_good_moves"":2,""num_whilered"":0,""num_whileblue"":2,""num_blue"":3,""num_good_moves"":7}","[428.57142857142856,410.1808016640799,0.2,428.57142857142856,410.1808016640799,103.9,428.57142857142856,410.1808016640799,215.3,428.57142857142856,410.1808016640799,319.5,428.57142857142856,410.1808016640799,424.9,428.57142857142856,410.1808016640799,531.3,428.57142857142856,410.1808016640799,631.9,428.57142857142856,410.1808016640799,734.3,428.57142857142856,410.1808016640799,839.7,457.07142857142856,398.1808016640799,947.6,707.5714285714286,212.18080166407992,1048.6,770.5714285714286,155.18080166407992,1149.5,773.5714285714286,107.18080166407994,1249.7,767.5714285714286,93.68080166407994,1355.3,767.5714285714286,93.68080166407994,1464.4,767.5714285714286,93.68080166407994,1564.5,767.5714285714286,93.68080166407994,1670,793.0714285714286,143.18080166407992,1773.8,940.0714285714286,251.18080166407992,1874.6,940.0714285714286,251.18080166407992,1974.7,940.0714285714286,251.18080166407992,2080.4,940.0714285714286,251.18080166407992,2180.8,940.0714285714286,251.18080166407992,2283.8,940.0714285714286,251.18080166407992,2383.9,940.0714285714286,251.18080166407992,2484.3,940.0714285714286,251.18080166407992,2588.8,859.0714285714286,230.18080166407992,2689.6,833.5714285714286,222.68080166407992,2789.6,833.5714285714286,222.68080166407992,2896.1,833.5714285714286,222.68080166407992,2996.2,833.5714285714286,222.68080166407992,3099.8,833.5714285714286,222.68080166407992,3200,833.5714285714286,222.68080166407992,3304.1,833.5714285714286,222.68080166407992,3404.1,833.5714285714286,222.68080166407992,3512.2,833.5714285714286,222.68080166407992,3612.2,833.5714285714286,222.68080166407992,3712.3,833.5714285714286,222.68080166407992,3814.5,833.5714285714286,222.68080166407992,3919.6]","[4650.7,4650.7,2141.7,2006.6,502.4,""oops"",""right"",""left"",""bad_move"",7459.4,2808.1,2283,4651.3,525.1,""smooth"",""right"",""right"",""good_move"",10682.5,3223,2689.9,7459.5,533.1,""smooth"",""right"",""right"",""good_move"",13938.8,3256.1,2795,10682.7,461.1,""oops"",""up"",""up"",""good_move"",16562.8,2623.8,2177.7,13939,446.1,""smooth"",""up"",""up"",""good_move"",19391.3,2828.2,2463.1,16563.1,365.1,""oops"",""right"",""down"",""bad_move"",21707,2315.5,1885.9,19391.5,429.6,""smooth"",""right"",""right"",""good_move"",24604.3,2897.2,2496.9,21707.1,400.3,""oops"",""right"",""left"",""bad_move"",26868.6,2264.1,1895.2,24604.5,368.9,""oops"",""right"",""right"",""good_move"",28618.7,1750,1386.5,26868.7,363.5,""while_blue"",""up"",""right"",""good_move"",32047.9,3428.5,3022.4,28619.4,406.1,""oops"",""up"",""left"",""bad_move"",34883.5,2835.4,2422.2,32048.1,413.3,""while_blue"",""up"",""down"",""bad_move""]","","",""
"9145","","","","instructions","24","332276","0.0-8.0-4.0","48","1","2025-07-09 09:07:14","7701e855f2ef39aa3fd6c71abdc6918a","85.159.132.64","Mozilla/5.0 (Windows NT 10.0; Win64; x64) AppleWebKit/537.36 (KHTML, like Gecko) Chrome/138.0.0.0 Safari/537.36 Edg/138.0.0.0","WebKit","Edge","138.0.0.0","Windows","10.0","https://app.prolific.com/","en-GB,en;q=0.9,en-US;q=0.8","655621646782dec335983823","686d226cabeef709c732f8e1","686e31307d6394be2a7024a5","655621646782dec335983823","","[{""page_index"":0,""viewing_time"":6303},{""page_index"":1,""viewing_time"":2842}]","","","","","","","","","","","","","","","","","","","","","","","","","","","","","","","","","","","","","","","","","","","",""
"9112","","","{""green_ball"":[""Ball sometimes shakes and moves in a random direction""]}","survey-multi-select","25","341389","0.0-8.0-5.0-0.0","48","1","2025-07-09 09:07:14","7701e855f2ef39aa3fd6c71abdc6918a","85.159.132.64","Mozilla/5.0 (Windows NT 10.0; Win64; x64) AppleWebKit/537.36 (KHTML, like Gecko) Chrome/138.0.0.0 Safari/537.36 Edg/138.0.0.0","WebKit","Edge","138.0.0.0","Windows","10.0","https://app.prolific.com/","en-GB,en;q=0.9,en-US;q=0.8","655621646782dec335983823","686d226cabeef709c732f8e1","686e31307d6394be2a7024a5","655621646782dec335983823","","","[0]","","","","quiz","","","","","","","","","","","","","","","","","","","","","","","","","","","","","","","","","","","","","true","",""
"1590","","<p align='center'><b>CORRECT!</b> Indeed, the green ball may sometimes shake and move in a random direction.</p>","0","html-button-response","26","342980","0.0-8.0-5.0-1.0","48","1","2025-07-09 09:07:14","7701e855f2ef39aa3fd6c71abdc6918a","85.159.132.64","Mozilla/5.0 (Windows NT 10.0; Win64; x64) AppleWebKit/537.36 (KHTML, like Gecko) Chrome/138.0.0.0 Safari/537.36 Edg/138.0.0.0","WebKit","Edge","138.0.0.0","Windows","10.0","https://app.prolific.com/","en-GB,en;q=0.9,en-US;q=0.8","655621646782dec335983823","686d226cabeef709c732f8e1","686e31307d6394be2a7024a5","655621646782dec335983823","","","","","","","","","","","","","","","","","","","","","","","","","","","","","","","","","","","","","","","","","","","","","",""
"3383","","","{""yellow_ball"":[""Ball doesn‘t move and I get -1 penalty point""]}","survey-multi-select","27","346364","0.0-8.0-6.0-0.0","48","1","2025-07-09 09:07:14","7701e855f2ef39aa3fd6c71abdc6918a","85.159.132.64","Mozilla/5.0 (Windows NT 10.0; Win64; x64) AppleWebKit/537.36 (KHTML, like Gecko) Chrome/138.0.0.0 Safari/537.36 Edg/138.0.0.0","WebKit","Edge","138.0.0.0","Windows","10.0","https://app.prolific.com/","en-GB,en;q=0.9,en-US;q=0.8","655621646782dec335983823","686d226cabeef709c732f8e1","686e31307d6394be2a7024a5","655621646782dec335983823","","","[0]","","","","quiz","","","","","","","","","","","","","","","","","","","","","","","","","","","","","","","","","","","","","true","",""
"815","","<p align='center'><b>CORRECT!</b> Indeed, the yellow ball never moves and you receive a penalty.</p>","0","html-button-response","28","347180","0.0-8.0-6.0-1.0","48","1","2025-07-09 09:07:14","7701e855f2ef39aa3fd6c71abdc6918a","85.159.132.64","Mozilla/5.0 (Windows NT 10.0; Win64; x64) AppleWebKit/537.36 (KHTML, like Gecko) Chrome/138.0.0.0 Safari/537.36 Edg/138.0.0.0","WebKit","Edge","138.0.0.0","Windows","10.0","https://app.prolific.com/","en-GB,en;q=0.9,en-US;q=0.8","655621646782dec335983823","686d226cabeef709c732f8e1","686e31307d6394be2a7024a5","655621646782dec335983823","","","","","","","","","","","","","","","","","","","","","","","","","","","","","","","","","","","","","","","","","","","","","",""
"3743","","","{""blue_ball"":[""Ball doesn‘t move and I get -1 penalty point""]}","survey-multi-select","29","350924","0.0-8.0-7.0-0.0","48","1","2025-07-09 09:07:14","7701e855f2ef39aa3fd6c71abdc6918a","85.159.132.64","Mozilla/5.0 (Windows NT 10.0; Win64; x64) AppleWebKit/537.36 (KHTML, like Gecko) Chrome/138.0.0.0 Safari/537.36 Edg/138.0.0.0","WebKit","Edge","138.0.0.0","Windows","10.0","https://app.prolific.com/","en-GB,en;q=0.9,en-US;q=0.8","655621646782dec335983823","686d226cabeef709c732f8e1","686e31307d6394be2a7024a5","655621646782dec335983823","","","[0]","","","","quiz","","","","","","","","","","","","","","","","","","","","","","","","","","","","","","","","","","","","","false","",""
"1687","","<p align='center'><b>INCORRECT.</b> The blue ball always shakes and moves randomly.</p>","0","html-button-response","30","352612","0.0-8.0-7.0-1.0","48","1","2025-07-09 09:07:14","7701e855f2ef39aa3fd6c71abdc6918a","85.159.132.64","Mozilla/5.0 (Windows NT 10.0; Win64; x64) AppleWebKit/537.36 (KHTML, like Gecko) Chrome/138.0.0.0 Safari/537.36 Edg/138.0.0.0","WebKit","Edge","138.0.0.0","Windows","10.0","https://app.prolific.com/","en-GB,en;q=0.9,en-US;q=0.8","655621646782dec335983823","686d226cabeef709c732f8e1","686e31307d6394be2a7024a5","655621646782dec335983823","","","","","","","","","","","","","","","","","","","","","","","","","","","","","","","","","","","","","","","","","","","","","",""
"3087","","","{""blue_ball"":[""Ball always shakes and moves in a random direction""]}","survey-multi-select","31","355700","0.0-8.0-7.1-0.1","48","1","2025-07-09 09:07:14","7701e855f2ef39aa3fd6c71abdc6918a","85.159.132.64","Mozilla/5.0 (Windows NT 10.0; Win64; x64) AppleWebKit/537.36 (KHTML, like Gecko) Chrome/138.0.0.0 Safari/537.36 Edg/138.0.0.0","WebKit","Edge","138.0.0.0","Windows","10.0","https://app.prolific.com/","en-GB,en;q=0.9,en-US;q=0.8","655621646782dec335983823","686d226cabeef709c732f8e1","686e31307d6394be2a7024a5","655621646782dec335983823","","","[0]","","","","quiz","","","","","","","","","","","","","","","","","","","","","","","","","","","","","","","","","","","","","true","",""
"1071","","<p align='center'><b>CORRECT!</b> Indeed, the blue ball always shakes and moves in a random direction. Also there is a penalty of -1 point.</p>","0","html-button-response","32","356772","0.0-8.0-7.1-1.1","48","1","2025-07-09 09:07:14","7701e855f2ef39aa3fd6c71abdc6918a","85.159.132.64","Mozilla/5.0 (Windows NT 10.0; Win64; x64) AppleWebKit/537.36 (KHTML, like Gecko) Chrome/138.0.0.0 Safari/537.36 Edg/138.0.0.0","WebKit","Edge","138.0.0.0","Windows","10.0","https://app.prolific.com/","en-GB,en;q=0.9,en-US;q=0.8","655621646782dec335983823","686d226cabeef709c732f8e1","686e31307d6394be2a7024a5","655621646782dec335983823","","","","","","","","","","","","","","","","","","","","","","","","","","","","","","","","","","","","","","","","","","","","","",""
"6943","","","{""bonus"":[""When I reach 50% of points""]}","survey-multi-select","33","363716","0.0-8.0-8.0-0.0","48","1","2025-07-09 09:07:14","7701e855f2ef39aa3fd6c71abdc6918a","85.159.132.64","Mozilla/5.0 (Windows NT 10.0; Win64; x64) AppleWebKit/537.36 (KHTML, like Gecko) Chrome/138.0.0.0 Safari/537.36 Edg/138.0.0.0","WebKit","Edge","138.0.0.0","Windows","10.0","https://app.prolific.com/","en-GB,en;q=0.9,en-US;q=0.8","655621646782dec335983823","686d226cabeef709c732f8e1","686e31307d6394be2a7024a5","655621646782dec335983823","","","[0]","","","","quiz","","","","","","","","","","","","","","","","","","","","","","","","","","","","","","","","","","","","","true","",""
"1095","","<p align='center'><b>CORRECT!</b> Indeed, you receive 2 pounds extra when you reach 50% of points.</p>","0","html-button-response","34","364812","0.0-8.0-8.0-1.0","48","1","2025-07-09 09:07:14","7701e855f2ef39aa3fd6c71abdc6918a","85.159.132.64","Mozilla/5.0 (Windows NT 10.0; Win64; x64) AppleWebKit/537.36 (KHTML, like Gecko) Chrome/138.0.0.0 Safari/537.36 Edg/138.0.0.0","WebKit","Edge","138.0.0.0","Windows","10.0","https://app.prolific.com/","en-GB,en;q=0.9,en-US;q=0.8","655621646782dec335983823","686d226cabeef709c732f8e1","686e31307d6394be2a7024a5","655621646782dec335983823","","","","","","","","","","","","","","","","","","","","","","","","","","","","","","","","","","","","","","","","","","","","","",""
"1567","","","","instructions","35","366380","0.0-8.0-9.0","48","1","2025-07-09 09:07:14","7701e855f2ef39aa3fd6c71abdc6918a","85.159.132.64","Mozilla/5.0 (Windows NT 10.0; Win64; x64) AppleWebKit/537.36 (KHTML, like Gecko) Chrome/138.0.0.0 Safari/537.36 Edg/138.0.0.0","WebKit","Edge","138.0.0.0","Windows","10.0","https://app.prolific.com/","en-GB,en;q=0.9,en-US;q=0.8","655621646782dec335983823","686d226cabeef709c732f8e1","686e31307d6394be2a7024a5","655621646782dec335983823","","[{""page_index"":0,""viewing_time"":1567}]","","","","","","","","","","","","","","","","","","","","","","","","","","","","","","","","","","","","","","","","","","","",""
"3391","","<p>Before you start with this game please answer the following three questions yourself. </p>
  <p>Through this game, we measure several aspects of your cognitive performance, such as reaction times, multi-tasking capabilities </p>
  <p>and the ability to assess the situation you are in.</p>
  <p></p>
  <p><b>How good do you usually are in such tasks?</b></p>","71","html-slider-response","36","369772","0.0-9.0-0.0","48","1","2025-07-09 09:07:14","7701e855f2ef39aa3fd6c71abdc6918a","85.159.132.64","Mozilla/5.0 (Windows NT 10.0; Win64; x64) AppleWebKit/537.36 (KHTML, like Gecko) Chrome/138.0.0.0 Safari/537.36 Edg/138.0.0.0","WebKit","Edge","138.0.0.0","Windows","10.0","https://app.prolific.com/","en-GB,en;q=0.9,en-US;q=0.8","655621646782dec335983823","686d226cabeef709c732f8e1","686e31307d6394be2a7024a5","655621646782dec335983823","2025-07-09T09:13:24.887Z","","","","","","PreSkillQ","","","","","","","","","","","","","","","","","","","","","","","","","","","","","","","","","","","","","","50",""
"2471","","<div style=""width:500px;"">
  <p>How well do you think you will perform in this task compared to other participants?</p>
  </div>","63","html-slider-response","37","372244","0.0-9.0-1.0","48","1","2025-07-09 09:07:14","7701e855f2ef39aa3fd6c71abdc6918a","85.159.132.64","Mozilla/5.0 (Windows NT 10.0; Win64; x64) AppleWebKit/537.36 (KHTML, like Gecko) Chrome/138.0.0.0 Safari/537.36 Edg/138.0.0.0","WebKit","Edge","138.0.0.0","Windows","10.0","https://app.prolific.com/","en-GB,en;q=0.9,en-US;q=0.8","655621646782dec335983823","686d226cabeef709c732f8e1","686e31307d6394be2a7024a5","655621646782dec335983823","2025-07-09T09:13:27.359Z","","","","","","PrePerfQ","","","","","","","","","","","","","","","","","","","","","","","","","","","","","","","","","","","","","","50",""
"2487","","<div style=""width:500px;"">
  <p>What best describes how you currently feel?</p>
  </div>","34","html-slider-response","38","374732","0.0-9.0-2.0","48","1","2025-07-09 09:07:14","7701e855f2ef39aa3fd6c71abdc6918a","85.159.132.64","Mozilla/5.0 (Windows NT 10.0; Win64; x64) AppleWebKit/537.36 (KHTML, like Gecko) Chrome/138.0.0.0 Safari/537.36 Edg/138.0.0.0","WebKit","Edge","138.0.0.0","Windows","10.0","https://app.prolific.com/","en-GB,en;q=0.9,en-US;q=0.8","655621646782dec335983823","686d226cabeef709c732f8e1","686e31307d6394be2a7024a5","655621646782dec335983823","2025-07-09T09:13:29.847Z","","","","","","PreMotivationQ","","","","","","","","","","","","","","","","","","","","","","","","","","","","","","","","","","","","","","50",""
"","","","","ctl-task-cpt","39","403248","0.0-10.0-0.0","48","1","2025-07-09 09:07:14","7701e855f2ef39aa3fd6c71abdc6918a","85.159.132.64","Mozilla/5.0 (Windows NT 10.0; Win64; x64) AppleWebKit/537.36 (KHTML, like Gecko) Chrome/138.0.0.0 Safari/537.36 Edg/138.0.0.0","WebKit","Edge","138.0.0.0","Windows","10.0","https://app.prolific.com/","en-GB,en;q=0.9,en-US;q=0.8","655621646782dec335983823","686d226cabeef709c732f8e1","686e31307d6394be2a7024a5","655621646782dec335983823","2025-07-09T09:13:58.363Z","","","","","","","","","","","","","","","","win-only","1","g1:NE,g2:SW","1","1","0","376137.3","935.3","5936.3","25506.8","1","4","4","6","2","4","4","4","0","0.030303030303030304","1287.2","3000","945","[""down"",""left""]","{""num_key_presses"":6,""num_perfect"":6,""num_errors"":0,""num_randdir"":0,""num_randdir_good_moves"":0,""num_whilered"":0,""num_whileblue"":0,""num_blue"":1,""num_good_moves"":6}","[425.57142857142856,411.6808016640799,0.1,425.57142857142856,411.6808016640799,100.4,425.57142857142856,411.6808016640799,206.6,425.57142857142856,411.6808016640799,306.9,425.57142857142856,411.6808016640799,414.4,515.5714285714286,402.6808016640799,515,596.5714285714286,467.1808016640799,615.5,521.5714285714286,447.6808016640799,716.1,518.5714285714286,444.6808016640799,820.8,518.5714285714286,444.6808016640799,925.7,205.07142857142856,677.1808016640799,1027.2,46.07142857142857,779.1808016640799,1132.1,46.07142857142857,779.1808016640799,1235.5,46.07142857142857,779.1808016640799,1335.5,149.57142857142856,729.6808016640799,1440.3,311.57142857142856,653.1808016640799,1541.4,314.57142857142856,648.6808016640799,1648.3,314.57142857142856,648.6808016640799,1749.2,314.57142857142856,648.6808016640799,1850.8,314.57142857142856,648.6808016640799,1951.1,314.57142857142856,648.6808016640799,2051.3,314.57142857142856,648.6808016640799,2156.4,314.57142857142856,648.6808016640799,2256.6,314.57142857142856,648.6808016640799,2362.7,314.57142857142856,648.6808016640799,2462.8,314.57142857142856,648.6808016640799,2562.8,314.57142857142856,648.6808016640799,2665.3,314.57142857142856,648.6808016640799,2765.5,314.57142857142856,648.6808016640799,2866,314.57142857142856,648.6808016640799,2970.7,314.57142857142856,648.6808016640799,3071.4,314.57142857142856,648.6808016640799,3179.7,314.57142857142856,648.6808016640799,3280.2,314.57142857142856,648.6808016640799,3380.2,314.57142857142856,648.6808016640799,3486.7,314.57142857142856,648.6808016640799,3591,314.57142857142856,648.6808016640799,3694.9,314.57142857142856,648.6808016640799,3796.1,314.57142857142856,648.6808016640799,3900.9,314.57142857142856,648.6808016640799,4000.9,314.57142857142856,648.6808016640799,4101.9,314.57142857142856,648.6808016640799,4205.8,314.57142857142856,648.6808016640799,4312,314.57142857142856,648.6808016640799,4413.8,314.57142857142856,648.6808016640799,4515.6,314.57142857142856,648.6808016640799,4616.9,314.57142857142856,648.6808016640799,4721.3,314.57142857142856,648.6808016640799,4828.2,314.57142857142856,648.6808016640799,4928.5]","[1392.3,1392.4,1000,0,392.4,""smooth"",""down"",""down"",""good_move"",4462.2,3069.4,2732.5,1392.8,336.9,""smooth"",""down"",""down"",""good_move"",6687.8,2225.4,1722.8,4462.4,502.6,""smooth"",""down"",""down"",""good_move"",9734.9,3046.9,2671.5,6688,375.4,""smooth"",""left"",""left"",""good_move"",13217.5,3482.3,3084.8,9735.2,397.5,""smooth"",""left"",""left"",""good_move"",19476.8,6259.1,2595.7,16549.7,331.4,""smooth"",""left"",""left"",""good_move""]","","",""
"3275","","<div style=""width:500px;"">
  <p>What determined the result of this run?</p>
  </div>","86","html-slider-response","40","406524","0.0-10.0-1.0","48","1","2025-07-09 09:07:14","7701e855f2ef39aa3fd6c71abdc6918a","85.159.132.64","Mozilla/5.0 (Windows NT 10.0; Win64; x64) AppleWebKit/537.36 (KHTML, like Gecko) Chrome/138.0.0.0 Safari/537.36 Edg/138.0.0.0","WebKit","Edge","138.0.0.0","Windows","10.0","https://app.prolific.com/","en-GB,en;q=0.9,en-US;q=0.8","655621646782dec335983823","686d226cabeef709c732f8e1","686e31307d6394be2a7024a5","655621646782dec335983823","2025-07-09T09:14:01.639Z","","","","","","AttribQ","","","","","","","","","","","","","","","","","","","","","","","","","","","","","","","","","","","","","","50",""
"2391","","<div style=""width:500px;"">
  <p>How much control did you have over the ball?</p>
  </div>","88","html-slider-response","41","408916","0.0-10.0-2.0","48","1","2025-07-09 09:07:14","7701e855f2ef39aa3fd6c71abdc6918a","85.159.132.64","Mozilla/5.0 (Windows NT 10.0; Win64; x64) AppleWebKit/537.36 (KHTML, like Gecko) Chrome/138.0.0.0 Safari/537.36 Edg/138.0.0.0","WebKit","Edge","138.0.0.0","Windows","10.0","https://app.prolific.com/","en-GB,en;q=0.9,en-US;q=0.8","655621646782dec335983823","686d226cabeef709c732f8e1","686e31307d6394be2a7024a5","655621646782dec335983823","2025-07-09T09:14:04.031Z","","","","","","ControlQ","","","","","","","","","","","","","","","","","","","","","","","","","","","","","","","","","","","","","","50",""
"3047","","<div style=""width:500px;"">
  <p>How would you describe your current emotional state?</p>
  </div>","13","html-slider-response","42","411964","0.0-10.0-3.0","48","1","2025-07-09 09:07:14","7701e855f2ef39aa3fd6c71abdc6918a","85.159.132.64","Mozilla/5.0 (Windows NT 10.0; Win64; x64) AppleWebKit/537.36 (KHTML, like Gecko) Chrome/138.0.0.0 Safari/537.36 Edg/138.0.0.0","WebKit","Edge","138.0.0.0","Windows","10.0","https://app.prolific.com/","en-GB,en;q=0.9,en-US;q=0.8","655621646782dec335983823","686d226cabeef709c732f8e1","686e31307d6394be2a7024a5","655621646782dec335983823","2025-07-09T09:14:07.079Z","","","","","","StressQ","","","","","","","","","","","","","","","","","","","","","","","","","","","","","","","","","","","","","","50",""
"3815","","<div style=""width:500px;"">
  <p>What best describes how you currently feel?</p>
  </div>","66","html-slider-response","43","415780","0.0-10.0-4.0","48","1","2025-07-09 09:07:14","7701e855f2ef39aa3fd6c71abdc6918a","85.159.132.64","Mozilla/5.0 (Windows NT 10.0; Win64; x64) AppleWebKit/537.36 (KHTML, like Gecko) Chrome/138.0.0.0 Safari/537.36 Edg/138.0.0.0","WebKit","Edge","138.0.0.0","Windows","10.0","https://app.prolific.com/","en-GB,en;q=0.9,en-US;q=0.8","655621646782dec335983823","686d226cabeef709c732f8e1","686e31307d6394be2a7024a5","655621646782dec335983823","2025-07-09T09:14:10.895Z","","","","","","MotivationQ","","","","","","","","","","","","","","","","","","","","","","","","","","","","","","","","","","","","","","50",""
"","","","","ctl-task-cpt","44","436785","0.0-10.0-0.1","48","1","2025-07-09 09:07:14","7701e855f2ef39aa3fd6c71abdc6918a","85.159.132.64","Mozilla/5.0 (Windows NT 10.0; Win64; x64) AppleWebKit/537.36 (KHTML, like Gecko) Chrome/138.0.0.0 Safari/537.36 Edg/138.0.0.0","WebKit","Edge","138.0.0.0","Windows","10.0","https://app.prolific.com/","en-GB,en;q=0.9,en-US;q=0.8","655621646782dec335983823","686d226cabeef709c732f8e1","686e31307d6394be2a7024a5","655621646782dec335983823","2025-07-09T09:14:31.900Z","","","","","","","","","","","","","","","","win-only","2","g1:SE,g2:NW","0.9","2","0","417185.6","1383.7","6386.5","17988.4","1","4","8","6","1","1","1","5","4","0.03787878787878788","1280.2","3000","1410","[""down"",""right""]","{""num_key_presses"":4,""num_perfect"":4,""num_errors"":0,""num_randdir"":0,""num_randdir_good_moves"":0,""num_whilered"":0,""num_whileblue"":0,""num_blue"":0,""num_good_moves"":4}","[422.57142857142856,417.6808016640799,0.2,422.57142857142856,417.6808016640799,106.1,422.57142857142856,417.6808016640799,206.8,422.57142857142856,417.6808016640799,307.3,422.57142857142856,417.6808016640799,407.5,422.57142857142856,417.6808016640799,513.2,422.57142857142856,417.6808016640799,618.5,482.57142857142856,482.1808016640799,722.4,620.5714285714286,635.1808016640799,827.6,640.0714285714286,669.6808016640799,935,653.5714285714286,695.1808016640799,1036.1,709.0714285714286,740.1808016640799,1138.2,722.5714285714286,758.1808016640799,1241.7,722.5714285714286,758.1808016640799,1345.1,722.5714285714286,758.1808016640799,1449,730.0714285714286,717.6808016640799,1552.5,755.5714285714286,569.1808016640799,1657.3,773.5714285714286,530.1808016640799,1758.7,776.5714285714286,524.1808016640799,1862.5,776.5714285714286,524.1808016640799,1962.7,776.5714285714286,524.1808016640799,2064.9,776.5714285714286,524.1808016640799,2168.4,776.5714285714286,524.1808016640799,2272.2,776.5714285714286,524.1808016640799,2372.8,776.5714285714286,524.1808016640799,2472.9,776.5714285714286,524.1808016640799,2572.9,776.5714285714286,524.1808016640799,2679.5,776.5714285714286,524.1808016640799,2783.8,776.5714285714286,524.1808016640799,2886.7,776.5714285714286,524.1808016640799,2988.4,776.5714285714286,524.1808016640799,3092.8,776.5714285714286,524.1808016640799,3199.8,776.5714285714286,524.1808016640799,3302.3,776.5714285714286,524.1808016640799,3407,776.5714285714286,524.1808016640799,3513.7,776.5714285714286,524.1808016640799,3617.5,776.5714285714286,524.1808016640799,3722.1,776.5714285714286,524.1808016640799,3828.6,776.5714285714286,524.1808016640799,3929.2,776.5714285714286,524.1808016640799,4032.5,776.5714285714286,524.1808016640799,4138.2,776.5714285714286,524.1808016640799,4242.5,776.5714285714286,524.1808016640799,4347.2,776.5714285714286,524.1808016640799,4447.8,776.5714285714286,524.1808016640799,4548.2,776.5714285714286,524.1808016640799,4651.5,776.5714285714286,524.1808016640799,4752.2,776.5714285714286,524.1808016640799,4852.7,776.5714285714286,524.1808016640799,4952.8]","[1426.7,1426.7,1000,0,426.7,""smooth"",""down"",""down"",""good_move"",4363.5,2936.5,2518.7,1427,417.8,""smooth"",""down"",""down"",""good_move"",7652.7,3289,2894.5,4363.7,394.5,""smooth"",""right"",""right"",""good_move"",11501.6,3848.4,3422.9,7653.2,425.5,""smooth"",""right"",""right"",""good_move""]","","",""
"4855","","<div style=""width:500px;"">
  <p>What determined the result of this run?</p>
  </div>","96","html-slider-response","45","441643","0.0-10.0-1.1","48","1","2025-07-09 09:07:14","7701e855f2ef39aa3fd6c71abdc6918a","85.159.132.64","Mozilla/5.0 (Windows NT 10.0; Win64; x64) AppleWebKit/537.36 (KHTML, like Gecko) Chrome/138.0.0.0 Safari/537.36 Edg/138.0.0.0","WebKit","Edge","138.0.0.0","Windows","10.0","https://app.prolific.com/","en-GB,en;q=0.9,en-US;q=0.8","655621646782dec335983823","686d226cabeef709c732f8e1","686e31307d6394be2a7024a5","655621646782dec335983823","2025-07-09T09:14:36.758Z","","","","","","AttribQ","","","","","","","","","","","","","","","","","","","","","","","","","","","","","","","","","","","","","","50",""
"3579","","<div style=""width:500px;"">
  <p>How much control did you have over the ball?</p>
  </div>","98","html-slider-response","46","445227","0.0-10.0-2.1","48","1","2025-07-09 09:07:14","7701e855f2ef39aa3fd6c71abdc6918a","85.159.132.64","Mozilla/5.0 (Windows NT 10.0; Win64; x64) AppleWebKit/537.36 (KHTML, like Gecko) Chrome/138.0.0.0 Safari/537.36 Edg/138.0.0.0","WebKit","Edge","138.0.0.0","Windows","10.0","https://app.prolific.com/","en-GB,en;q=0.9,en-US;q=0.8","655621646782dec335983823","686d226cabeef709c732f8e1","686e31307d6394be2a7024a5","655621646782dec335983823","2025-07-09T09:14:40.343Z","","","","","","ControlQ","","","","","","","","","","","","","","","","","","","","","","","","","","","","","","","","","","","","","","50",""
"2458","","<div style=""width:500px;"">
  <p>How would you describe your current emotional state?</p>
  </div>","27","html-slider-response","47","447692","0.0-10.0-3.1","48","1","2025-07-09 09:07:14","7701e855f2ef39aa3fd6c71abdc6918a","85.159.132.64","Mozilla/5.0 (Windows NT 10.0; Win64; x64) AppleWebKit/537.36 (KHTML, like Gecko) Chrome/138.0.0.0 Safari/537.36 Edg/138.0.0.0","WebKit","Edge","138.0.0.0","Windows","10.0","https://app.prolific.com/","en-GB,en;q=0.9,en-US;q=0.8","655621646782dec335983823","686d226cabeef709c732f8e1","686e31307d6394be2a7024a5","655621646782dec335983823","2025-07-09T09:14:42.807Z","","","","","","StressQ","","","","","","","","","","","","","","","","","","","","","","","","","","","","","","","","","","","","","","50",""
"1399","","<div style=""width:500px;"">
  <p>What best describes how you currently feel?</p>
  </div>","82","html-slider-response","48","449092","0.0-10.0-4.1","48","1","2025-07-09 09:07:14","7701e855f2ef39aa3fd6c71abdc6918a","85.159.132.64","Mozilla/5.0 (Windows NT 10.0; Win64; x64) AppleWebKit/537.36 (KHTML, like Gecko) Chrome/138.0.0.0 Safari/537.36 Edg/138.0.0.0","WebKit","Edge","138.0.0.0","Windows","10.0","https://app.prolific.com/","en-GB,en;q=0.9,en-US;q=0.8","655621646782dec335983823","686d226cabeef709c732f8e1","686e31307d6394be2a7024a5","655621646782dec335983823","2025-07-09T09:14:44.207Z","","","","","","MotivationQ","","","","","","","","","","","","","","","","","","","","","","","","","","","","","","","","","","","","","","50",""
"","","","","ctl-task-cpt","49","481532","0.0-10.0-0.2","48","1","2025-07-09 09:07:14","7701e855f2ef39aa3fd6c71abdc6918a","85.159.132.64","Mozilla/5.0 (Windows NT 10.0; Win64; x64) AppleWebKit/537.36 (KHTML, like Gecko) Chrome/138.0.0.0 Safari/537.36 Edg/138.0.0.0","WebKit","Edge","138.0.0.0","Windows","10.0","https://app.prolific.com/","en-GB,en;q=0.9,en-US;q=0.8","655621646782dec335983823","686d226cabeef709c732f8e1","686e31307d6394be2a7024a5","655621646782dec335983823","2025-07-09T09:15:16.647Z","","","","","","","","","","","","","","","","win-only","2","g1:SE,g2:NW","0.8","3","0","450497.2","781","5781.7","29420.5","1","4","4","6","2","4","4","9","5","0.06818181818181818","868.8","3000","215","[""left"",""up""]","{""num_key_presses"":8,""num_perfect"":6,""num_errors"":0,""num_randdir"":2,""num_randdir_good_moves"":1,""num_whilered"":0,""num_whileblue"":0,""num_blue"":1,""num_good_moves"":7}","[425.57142857142856,416.1808016640799,0.2,425.57142857142856,416.1808016640799,102.3,425.57142857142856,416.1808016640799,204.9,425.57142857142856,416.1808016640799,305.1,389.57142857142856,380.1808016640799,418.9,226.07142857142856,189.68080166407992,519.2,127.07142857142857,122.18080166407994,619.2,112.07142857142857,114.68080166407994,720.5,112.07142857142857,114.68080166407994,820.5,112.07142857142857,114.68080166407994,920.5,112.07142857142857,114.68080166407994,1024.5,146.57142857142856,131.18080166407992,1125.6,608.5714285714286,380.1808016640799,1229.8,698.5714285714286,416.1808016640799,1334.6,710.5714285714286,416.1808016640799,1439.2,710.5714285714286,416.1808016640799,1539.7,710.5714285714286,416.1808016640799,1640.4,710.5714285714286,416.1808016640799,1745.6,710.5714285714286,416.1808016640799,1848.7,710.5714285714286,416.1808016640799,1951,710.5714285714286,416.1808016640799,2051.9,710.5714285714286,416.1808016640799,2154.7,710.5714285714286,416.1808016640799,2254.7,710.5714285714286,416.1808016640799,2360,710.5714285714286,416.1808016640799,2465.9,710.5714285714286,416.1808016640799,2566.5,710.5714285714286,416.1808016640799,2666.8,710.5714285714286,416.1808016640799,2770.4,710.5714285714286,416.1808016640799,2882.9,710.5714285714286,416.1808016640799,2985.1,710.5714285714286,416.1808016640799,3089.2,710.5714285714286,416.1808016640799,3199.2,710.5714285714286,416.1808016640799,3300.8,710.5714285714286,416.1808016640799,3405.1,710.5714285714286,416.1808016640799,3514.1,710.5714285714286,416.1808016640799,3614.4,710.5714285714286,416.1808016640799,3714.6,710.5714285714286,416.1808016640799,3815.6,710.5714285714286,416.1808016640799,3920.4,710.5714285714286,416.1808016640799,4020.7,710.5714285714286,416.1808016640799,4124.4,710.5714285714286,416.1808016640799,4229.8,710.5714285714286,416.1808016640799,4331,710.5714285714286,416.1808016640799,4431.9,710.5714285714286,416.1808016640799,4535.6,710.5714285714286,416.1808016640799,4640.5,710.5714285714286,416.1808016640799,4740.5,710.5714285714286,416.1808016640799,4849.1,710.5714285714286,416.1808016640799,4954.7]","[4876,4876,2509.3,2012.1,354.6,""smooth"",""left"",""left"",""good_move"",8044.2,3167.8,2725.3,4876.4,442.5,""smooth"",""left"",""left"",""good_move"",10640.8,2596.2,2217.7,8044.6,378.5,""oops"",""left"",""left"",""good_move"",12872.7,2231.7,1817.6,10641,414.1,""smooth"",""up"",""up"",""good_move"",15703.1,2830.1,2470.1,12873,360,""oops"",""up"",""down"",""bad_move"",18245.1,2541.7,2211.3,15703.4,330.4,""smooth"",""up"",""up"",""good_move"",20730.7,2484.6,2133.1,18246.1,351.5,""smooth"",""up"",""up"",""good_move"",23552.9,2822,2483.7,20730.9,338.3,""smooth"",""up"",""up"",""good_move""]","","",""
"2279","","<div style=""width:500px;"">
  <p>What determined the result of this run?</p>
  </div>","69","html-slider-response","50","483813","0.0-10.0-1.2","48","1","2025-07-09 09:07:14","7701e855f2ef39aa3fd6c71abdc6918a","85.159.132.64","Mozilla/5.0 (Windows NT 10.0; Win64; x64) AppleWebKit/537.36 (KHTML, like Gecko) Chrome/138.0.0.0 Safari/537.36 Edg/138.0.0.0","WebKit","Edge","138.0.0.0","Windows","10.0","https://app.prolific.com/","en-GB,en;q=0.9,en-US;q=0.8","655621646782dec335983823","686d226cabeef709c732f8e1","686e31307d6394be2a7024a5","655621646782dec335983823","2025-07-09T09:15:18.928Z","","","","","","AttribQ","","","","","","","","","","","","","","","","","","","","","","","","","","","","","","","","","","","","","","50",""
"1794","","<div style=""width:500px;"">
  <p>How much control did you have over the ball?</p>
  </div>","71","html-slider-response","51","485611","0.0-10.0-2.2","48","1","2025-07-09 09:07:14","7701e855f2ef39aa3fd6c71abdc6918a","85.159.132.64","Mozilla/5.0 (Windows NT 10.0; Win64; x64) AppleWebKit/537.36 (KHTML, like Gecko) Chrome/138.0.0.0 Safari/537.36 Edg/138.0.0.0","WebKit","Edge","138.0.0.0","Windows","10.0","https://app.prolific.com/","en-GB,en;q=0.9,en-US;q=0.8","655621646782dec335983823","686d226cabeef709c732f8e1","686e31307d6394be2a7024a5","655621646782dec335983823","2025-07-09T09:15:20.727Z","","","","","","ControlQ","","","","","","","","","","","","","","","","","","","","","","","","","","","","","","","","","","","","","","50",""
"2860","","<div style=""width:500px;"">
  <p>How would you describe your current emotional state?</p>
  </div>","50","html-slider-response","52","488476","0.0-10.0-3.2","48","1","2025-07-09 09:07:14","7701e855f2ef39aa3fd6c71abdc6918a","85.159.132.64","Mozilla/5.0 (Windows NT 10.0; Win64; x64) AppleWebKit/537.36 (KHTML, like Gecko) Chrome/138.0.0.0 Safari/537.36 Edg/138.0.0.0","WebKit","Edge","138.0.0.0","Windows","10.0","https://app.prolific.com/","en-GB,en;q=0.9,en-US;q=0.8","655621646782dec335983823","686d226cabeef709c732f8e1","686e31307d6394be2a7024a5","655621646782dec335983823","2025-07-09T09:15:23.591Z","","","","","","StressQ","","","","","","","","","","","","","","","","","","","","","","","","","","","","","","","","","","","","","","50",""
"1871","","<div style=""width:500px;"">
  <p>What best describes how you currently feel?</p>
  </div>","56","html-slider-response","53","490349","0.0-10.0-4.2","48","1","2025-07-09 09:07:14","7701e855f2ef39aa3fd6c71abdc6918a","85.159.132.64","Mozilla/5.0 (Windows NT 10.0; Win64; x64) AppleWebKit/537.36 (KHTML, like Gecko) Chrome/138.0.0.0 Safari/537.36 Edg/138.0.0.0","WebKit","Edge","138.0.0.0","Windows","10.0","https://app.prolific.com/","en-GB,en;q=0.9,en-US;q=0.8","655621646782dec335983823","686d226cabeef709c732f8e1","686e31307d6394be2a7024a5","655621646782dec335983823","2025-07-09T09:15:25.464Z","","","","","","MotivationQ","","","","","","","","","","","","","","","","","","","","","","","","","","","","","","","","","","","","","","50",""
"","","","","ctl-task-cpt","54","508696","0.0-10.0-0.3","48","1","2025-07-09 09:07:14","7701e855f2ef39aa3fd6c71abdc6918a","85.159.132.64","Mozilla/5.0 (Windows NT 10.0; Win64; x64) AppleWebKit/537.36 (KHTML, like Gecko) Chrome/138.0.0.0 Safari/537.36 Edg/138.0.0.0","WebKit","Edge","138.0.0.0","Windows","10.0","https://app.prolific.com/","en-GB,en;q=0.9,en-US;q=0.8","655621646782dec335983823","686d226cabeef709c732f8e1","686e31307d6394be2a7024a5","655621646782dec335983823","2025-07-09T09:15:43.811Z","","","","","","","","","","","","","","","","win-only","3","g1:SW,g2:NE","0.7","4","0","491760.2","975.6","5982.3","15333","1","4","8","6","1","1","1","10","9","0.07575757575757576","1692.6","3000","1520","[""down"",""left""]","{""num_key_presses"":4,""num_perfect"":3,""num_errors"":0,""num_randdir"":1,""num_randdir_good_moves"":1,""num_whilered"":0,""num_whileblue"":0,""num_blue"":0,""num_good_moves"":4}","[407.57142857142856,426.6808016640799,0.2,407.57142857142856,426.6808016640799,101,407.57142857142856,426.6808016640799,210.6,407.57142857142856,426.6808016640799,311.7,407.57142857142856,426.6808016640799,411.7,407.57142857142856,426.6808016640799,514.9,451.07142857142856,390.6808016640799,615.6,482.57142857142856,366.6808016640799,715.6,136.07142857142856,686.1808016640799,820,115.07142857142857,752.1808016640799,922.6,115.07142857142857,752.1808016640799,1029,115.07142857142857,752.1808016640799,1130.6,115.07142857142857,752.1808016640799,1230.7,113.57142857142857,752.1808016640799,1331,112.07142857142857,752.1808016640799,1443.7,112.07142857142857,752.1808016640799,1546.4,112.07142857142857,752.1808016640799,1649.8,112.07142857142857,752.1808016640799,1759.7,115.07142857142857,740.1808016640799,1860.6,209.57142857142856,615.6808016640799,1965.5,449.57142857142856,557.1808016640799,2071.8,586.0714285714286,524.1808016640799,2178.8,587.5714285714286,524.1808016640799,2279.8,587.5714285714286,524.1808016640799,2380.5,587.5714285714286,524.1808016640799,2480.9,587.5714285714286,524.1808016640799,2580.9,587.5714285714286,524.1808016640799,2684.9,587.5714285714286,524.1808016640799,2786.9,587.5714285714286,524.1808016640799,2890.5,587.5714285714286,524.1808016640799,2992.7,587.5714285714286,524.1808016640799,3094.8,587.5714285714286,524.1808016640799,3195,587.5714285714286,524.1808016640799,3295.1,587.5714285714286,524.1808016640799,3396.1,587.5714285714286,524.1808016640799,3508.1,587.5714285714286,524.1808016640799,3610.9,587.5714285714286,524.1808016640799,3715.1,587.5714285714286,524.1808016640799,3815.2,587.5714285714286,524.1808016640799,3922.7,587.5714285714286,524.1808016640799,4024.4,587.5714285714286,524.1808016640799,4125.5,587.5714285714286,524.1808016640799,4226.1,587.5714285714286,524.1808016640799,4330.4,587.5714285714286,524.1808016640799,4430.4,587.5714285714286,524.1808016640799,4543.7,587.5714285714286,524.1808016640799,4645,587.5714285714286,524.1808016640799,4745.3,583.0714285714286,519.6808016640799,4845.9,583.0714285714286,519.6808016640799,4951]","[1433.1,1433.1,1000,0,433.1,""smooth"",""down"",""down"",""good_move"",4362.3,2928.8,2474.2,1433.5,454.6,""smooth"",""down"",""down"",""good_move"",6255.1,1892.6,1443.8,4362.5,448.8,""smooth"",""left"",""left"",""good_move"",9244.4,2987.8,2601.3,6256.7,386.4,""oops"",""left"",""left"",""good_move""]","","",""
"3657","","<div style=""width:500px;"">
  <p>What determined the result of this run?</p>
  </div>","85","html-slider-response","55","512355","0.0-10.0-1.3","48","1","2025-07-09 09:07:14","7701e855f2ef39aa3fd6c71abdc6918a","85.159.132.64","Mozilla/5.0 (Windows NT 10.0; Win64; x64) AppleWebKit/537.36 (KHTML, like Gecko) Chrome/138.0.0.0 Safari/537.36 Edg/138.0.0.0","WebKit","Edge","138.0.0.0","Windows","10.0","https://app.prolific.com/","en-GB,en;q=0.9,en-US;q=0.8","655621646782dec335983823","686d226cabeef709c732f8e1","686e31307d6394be2a7024a5","655621646782dec335983823","2025-07-09T09:15:47.470Z","","","","","","AttribQ","","","","","","","","","","","","","","","","","","","","","","","","","","","","","","","","","","","","","","50",""
"1627","","<div style=""width:500px;"">
  <p>How much control did you have over the ball?</p>
  </div>","73","html-slider-response","56","513988","0.0-10.0-2.3","48","1","2025-07-09 09:07:14","7701e855f2ef39aa3fd6c71abdc6918a","85.159.132.64","Mozilla/5.0 (Windows NT 10.0; Win64; x64) AppleWebKit/537.36 (KHTML, like Gecko) Chrome/138.0.0.0 Safari/537.36 Edg/138.0.0.0","WebKit","Edge","138.0.0.0","Windows","10.0","https://app.prolific.com/","en-GB,en;q=0.9,en-US;q=0.8","655621646782dec335983823","686d226cabeef709c732f8e1","686e31307d6394be2a7024a5","655621646782dec335983823","2025-07-09T09:15:49.103Z","","","","","","ControlQ","","","","","","","","","","","","","","","","","","","","","","","","","","","","","","","","","","","","","","50",""
"1888","","<div style=""width:500px;"">
  <p>How would you describe your current emotional state?</p>
  </div>","43","html-slider-response","57","515883","0.0-10.0-3.3","48","1","2025-07-09 09:07:14","7701e855f2ef39aa3fd6c71abdc6918a","85.159.132.64","Mozilla/5.0 (Windows NT 10.0; Win64; x64) AppleWebKit/537.36 (KHTML, like Gecko) Chrome/138.0.0.0 Safari/537.36 Edg/138.0.0.0","WebKit","Edge","138.0.0.0","Windows","10.0","https://app.prolific.com/","en-GB,en;q=0.9,en-US;q=0.8","655621646782dec335983823","686d226cabeef709c732f8e1","686e31307d6394be2a7024a5","655621646782dec335983823","2025-07-09T09:15:50.999Z","","","","","","StressQ","","","","","","","","","","","","","","","","","","","","","","","","","","","","","","","","","","","","","","50",""
"4120","","<div style=""width:500px;"">
  <p>What best describes how you currently feel?</p>
  </div>","61","html-slider-response","58","520012","0.0-10.0-4.3","48","1","2025-07-09 09:07:14","7701e855f2ef39aa3fd6c71abdc6918a","85.159.132.64","Mozilla/5.0 (Windows NT 10.0; Win64; x64) AppleWebKit/537.36 (KHTML, like Gecko) Chrome/138.0.0.0 Safari/537.36 Edg/138.0.0.0","WebKit","Edge","138.0.0.0","Windows","10.0","https://app.prolific.com/","en-GB,en;q=0.9,en-US;q=0.8","655621646782dec335983823","686d226cabeef709c732f8e1","686e31307d6394be2a7024a5","655621646782dec335983823","2025-07-09T09:15:55.128Z","","","","","","MotivationQ","","","","","","","","","","","","","","","","","","","","","","","","","","","","","","","","","","","","","","50",""
"","","","","ctl-task-cpt","59","546584","0.0-10.0-0.4","48","1","2025-07-09 09:07:14","7701e855f2ef39aa3fd6c71abdc6918a","85.159.132.64","Mozilla/5.0 (Windows NT 10.0; Win64; x64) AppleWebKit/537.36 (KHTML, like Gecko) Chrome/138.0.0.0 Safari/537.36 Edg/138.0.0.0","WebKit","Edge","138.0.0.0","Windows","10.0","https://app.prolific.com/","en-GB,en;q=0.9,en-US;q=0.8","655621646782dec335983823","686d226cabeef709c732f8e1","686e31307d6394be2a7024a5","655621646782dec335983823","2025-07-09T09:16:21.699Z","","","","","","","","","","","","","","","","win-only","0","g1:NW,g2:SE","0.6","5","0","521426.5","1701.6","6710.8","23550.9","1","4","8","6","1","1","1","11","10","0.08333333333333333","1577.7","3000","1720","[""left"",""up""]","{""num_key_presses"":4,""num_perfect"":2,""num_errors"":0,""num_randdir"":2,""num_randdir_good_moves"":2,""num_whilered"":0,""num_whileblue"":0,""num_blue"":2,""num_good_moves"":4}","[413.57142857142856,425.1808016640799,0.3,413.57142857142856,425.1808016640799,111.7,413.57142857142856,425.1808016640799,212.7,413.57142857142856,425.1808016640799,314.6,413.57142857142856,425.1808016640799,424,413.57142857142856,425.1808016640799,528.7,442.07142857142856,470.1808016640799,628.8,641.5714285714286,636.6808016640799,731.5,662.5714285714286,656.1808016640799,838.9,673.0714285714286,675.6808016640799,948.8,707.5714285714286,735.6808016640799,1048.9,694.0714285714286,716.1808016640799,1150.9,77.57142857142857,245.18080166407992,1255.3,73.07142857142857,212.18080166407992,1360.2,88.07142857142857,140.18080166407992,1464.1,76.07142857142857,90.68080166407994,1564.4,76.07142857142857,90.68080166407994,1664.9,76.07142857142857,90.68080166407994,1776.5,428.57142857142856,254.18080166407992,1879.4,701.5714285714286,335.1808016640799,1979.5,710.5714285714286,339.6808016640799,2080.3,710.5714285714286,339.6808016640799,2193.4,710.5714285714286,339.6808016640799,2294.1,710.5714285714286,339.6808016640799,2394.5,710.5714285714286,339.6808016640799,2509.9,710.5714285714286,339.6808016640799,2614.6,710.5714285714286,339.6808016640799,2714.9,710.5714285714286,339.6808016640799,2820.1,710.5714285714286,339.6808016640799,2926.7,710.5714285714286,339.6808016640799,3027.3,710.5714285714286,339.6808016640799,3129.5,710.5714285714286,339.6808016640799,3229.7,710.5714285714286,339.6808016640799,3334.5,710.5714285714286,339.6808016640799,3435.3,710.5714285714286,339.6808016640799,3536.8,710.5714285714286,339.6808016640799,3639.8,710.5714285714286,339.6808016640799,3744.7,710.5714285714286,339.6808016640799,3845.3,710.5714285714286,339.6808016640799,3960,710.5714285714286,339.6808016640799,4063.8,710.5714285714286,339.6808016640799,4164,710.5714285714286,339.6808016640799,4275,710.5714285714286,339.6808016640799,4379.8,710.5714285714286,339.6808016640799,4480.9,710.5714285714286,339.6808016640799,4593.8,710.5714285714286,339.6808016640799,4693.9,710.5714285714286,339.6808016640799,4794.3,710.5714285714286,339.6808016640799,4894.3,710.5714285714286,339.6808016640799,4995]","[4096.8,4096.8,1687.3,2001.1,408.4,""oops"",""left"",""up"",""good_move"",7226.3,3128.8,2735.3,4097.5,393.5,""oops"",""left"",""up"",""good_move"",10283.9,3057.4,2541.8,7226.5,515.6,""smooth"",""left"",""left"",""good_move"",16734.7,6450.6,2394.4,13963.1,377.2,""smooth"",""left"",""left"",""good_move""]","","",""
"12858","","<div style=""width:500px;"">
  <p>What determined the result of this run?</p>
  </div>","73","html-slider-response","60","559443","0.0-10.0-1.4","48","1","2025-07-09 09:07:14","7701e855f2ef39aa3fd6c71abdc6918a","85.159.132.64","Mozilla/5.0 (Windows NT 10.0; Win64; x64) AppleWebKit/537.36 (KHTML, like Gecko) Chrome/138.0.0.0 Safari/537.36 Edg/138.0.0.0","WebKit","Edge","138.0.0.0","Windows","10.0","https://app.prolific.com/","en-GB,en;q=0.9,en-US;q=0.8","655621646782dec335983823","686d226cabeef709c732f8e1","686e31307d6394be2a7024a5","655621646782dec335983823","2025-07-09T09:16:34.559Z","","","","","","AttribQ","","","","","","","","","","","","","","","","","","","","","","","","","","","","","","","","","","","","","","50",""
"5424","","<div style=""width:500px;"">
  <p>How much control did you have over the ball?</p>
  </div>","56","html-slider-response","61","564874","0.0-10.0-2.4","48","1","2025-07-09 09:07:14","7701e855f2ef39aa3fd6c71abdc6918a","85.159.132.64","Mozilla/5.0 (Windows NT 10.0; Win64; x64) AppleWebKit/537.36 (KHTML, like Gecko) Chrome/138.0.0.0 Safari/537.36 Edg/138.0.0.0","WebKit","Edge","138.0.0.0","Windows","10.0","https://app.prolific.com/","en-GB,en;q=0.9,en-US;q=0.8","655621646782dec335983823","686d226cabeef709c732f8e1","686e31307d6394be2a7024a5","655621646782dec335983823","2025-07-09T09:16:39.989Z","","","","","","ControlQ","","","","","","","","","","","","","","","","","","","","","","","","","","","","","","","","","","","","","","50",""
"3733","","<div style=""width:500px;"">
  <p>How would you describe your current emotional state?</p>
  </div>","44","html-slider-response","62","568612","0.0-10.0-3.4","48","1","2025-07-09 09:07:14","7701e855f2ef39aa3fd6c71abdc6918a","85.159.132.64","Mozilla/5.0 (Windows NT 10.0; Win64; x64) AppleWebKit/537.36 (KHTML, like Gecko) Chrome/138.0.0.0 Safari/537.36 Edg/138.0.0.0","WebKit","Edge","138.0.0.0","Windows","10.0","https://app.prolific.com/","en-GB,en;q=0.9,en-US;q=0.8","655621646782dec335983823","686d226cabeef709c732f8e1","686e31307d6394be2a7024a5","655621646782dec335983823","2025-07-09T09:16:43.727Z","","","","","","StressQ","","","","","","","","","","","","","","","","","","","","","","","","","","","","","","","","","","","","","","50",""
"2429","","<div style=""width:500px;"">
  <p>What best describes how you currently feel?</p>
  </div>","57","html-slider-response","63","571042","0.0-10.0-4.4","48","1","2025-07-09 09:07:14","7701e855f2ef39aa3fd6c71abdc6918a","85.159.132.64","Mozilla/5.0 (Windows NT 10.0; Win64; x64) AppleWebKit/537.36 (KHTML, like Gecko) Chrome/138.0.0.0 Safari/537.36 Edg/138.0.0.0","WebKit","Edge","138.0.0.0","Windows","10.0","https://app.prolific.com/","en-GB,en;q=0.9,en-US;q=0.8","655621646782dec335983823","686d226cabeef709c732f8e1","686e31307d6394be2a7024a5","655621646782dec335983823","2025-07-09T09:16:46.158Z","","","","","","MotivationQ","","","","","","","","","","","","","","","","","","","","","","","","","","","","","","","","","","","","","","50",""
"","","","","ctl-task-cpt","64","620725","0.0-10.0-0.5","48","1","2025-07-09 09:07:14","7701e855f2ef39aa3fd6c71abdc6918a","85.159.132.64","Mozilla/5.0 (Windows NT 10.0; Win64; x64) AppleWebKit/537.36 (KHTML, like Gecko) Chrome/138.0.0.0 Safari/537.36 Edg/138.0.0.0","WebKit","Edge","138.0.0.0","Windows","10.0","https://app.prolific.com/","en-GB,en;q=0.9,en-US;q=0.8","655621646782dec335983823","686d226cabeef709c732f8e1","686e31307d6394be2a7024a5","655621646782dec335983823","2025-07-09T09:17:35.840Z","","","","","","","","","","","","","","","","win-only","3","g1:SW,g2:NE","0.5","6","0","572453","1298.8","6303.8","46647.2","1","4","4","6","1","-1","-2","9","11","0.06818181818181818","763.9","3000","-2115","[""down"",""left""]","{""num_key_presses"":11,""num_perfect"":5,""num_errors"":1,""num_randdir"":5,""num_randdir_good_moves"":1,""num_whilered"":0,""num_whileblue"":1,""num_blue"":4,""num_good_moves"":7}","[415.07142857142856,408.6808016640799,0.1,415.07142857142856,408.6808016640799,100.1,415.07142857142856,408.6808016640799,201.8,415.07142857142856,408.6808016640799,315.1,332.57142857142856,507.6808016640799,420.3,166.07142857142856,657.6808016640799,524,134.57142857142856,713.1808016640799,626.3,113.57142857142857,731.1808016640799,734.6,112.07142857142857,731.1808016640799,848.4,110.57142857142857,731.1808016640799,949.6,365.57142857142856,647.1808016640799,1049.7,710.5714285714286,524.1808016640799,1164.2,731.5714285714286,506.1808016640799,1265.1,731.5714285714286,504.6808016640799,1366.8,731.5714285714286,504.6808016640799,1466.8,731.5714285714286,504.6808016640799,1581.3,731.5714285714286,504.6808016640799,1682.6,731.5714285714286,504.6808016640799,1798.2,731.5714285714286,504.6808016640799,1898.8,731.5714285714286,504.6808016640799,2002.2,731.5714285714286,504.6808016640799,2108.1,731.5714285714286,504.6808016640799,2209.2,731.5714285714286,504.6808016640799,2312.4,731.5714285714286,504.6808016640799,2413.7,731.5714285714286,504.6808016640799,2517.1,731.5714285714286,504.6808016640799,2629.3,731.5714285714286,504.6808016640799,2731.9,731.5714285714286,504.6808016640799,2832.6,731.5714285714286,504.6808016640799,2947.7,731.5714285714286,504.6808016640799,3051.8,731.5714285714286,504.6808016640799,3164.6,731.5714285714286,504.6808016640799,3267.2,731.5714285714286,504.6808016640799,3367.2,731.5714285714286,504.6808016640799,3475.7,731.5714285714286,504.6808016640799,3577,731.5714285714286,504.6808016640799,3682.1,731.5714285714286,504.6808016640799,3794.8,731.5714285714286,504.6808016640799,3894.8,731.5714285714286,504.6808016640799,3996.5,731.5714285714286,504.6808016640799,4097.7,731.5714285714286,504.6808016640799,4202.8,731.5714285714286,504.6808016640799,4303.8,731.5714285714286,504.6808016640799,4406.7,731.5714285714286,504.6808016640799,4508.4,731.5714285714286,504.6808016640799,4611.7,731.5714285714286,504.6808016640799,4729.4,731.5714285714286,504.6808016640799,4832.3,731.5714285714286,504.6808016640799,4940.9]","[1427.8,1427.8,1000,0,427.8,""oops"",""down"",""up"",""bad_move"",4442.6,3014.5,2663.4,1428.1,351.1,""smooth"",""down"",""down"",""good_move"",6370.7,1927.6,1483.8,4443.1,443.8,""oops"",""down"",""left"",""good_move"",8764.1,2393.2,2023,6370.9,370.2,""smooth"",""down"",""down"",""good_move"",12328.4,3564.1,3085.4,8764.3,478.7,""oops"",""down"",""right"",""bad_move"",14866.9,2538.2,2170.7,12328.8,367.4,""oops"",""down"",""right"",""bad_move"",17157.7,2290.6,1916.2,14867.1,374.4,""while_blue"",""down"",""left"",""good_move"",30062.6,12904.7,1982.8,27534.5,545.3,""smooth"",""left"",""left"",""good_move"",32930.9,2868,2500.2,30062.9,367.8,""smooth"",""down"",""down"",""good_move"",35276.7,2345.6,1926.8,32931.1,418.8,""oops"",""left"",""right"",""bad_move"",37857.9,2580.8,2206.4,35277.1,374.4,""smooth"",""left"",""left"",""good_move""]","","",""
"3516","","<div style=""width:500px;"">
  <p>What determined the result of this run?</p>
  </div>","27","html-slider-response","65","624243","0.0-10.0-1.5","48","1","2025-07-09 09:07:14","7701e855f2ef39aa3fd6c71abdc6918a","85.159.132.64","Mozilla/5.0 (Windows NT 10.0; Win64; x64) AppleWebKit/537.36 (KHTML, like Gecko) Chrome/138.0.0.0 Safari/537.36 Edg/138.0.0.0","WebKit","Edge","138.0.0.0","Windows","10.0","https://app.prolific.com/","en-GB,en;q=0.9,en-US;q=0.8","655621646782dec335983823","686d226cabeef709c732f8e1","686e31307d6394be2a7024a5","655621646782dec335983823","2025-07-09T09:17:39.358Z","","","","","","AttribQ","","","","","","","","","","","","","","","","","","","","","","","","","","","","","","","","","","","","","","50",""
"2875","","<div style=""width:500px;"">
  <p>How much control did you have over the ball?</p>
  </div>","30","html-slider-response","66","627125","0.0-10.0-2.5","48","1","2025-07-09 09:07:14","7701e855f2ef39aa3fd6c71abdc6918a","85.159.132.64","Mozilla/5.0 (Windows NT 10.0; Win64; x64) AppleWebKit/537.36 (KHTML, like Gecko) Chrome/138.0.0.0 Safari/537.36 Edg/138.0.0.0","WebKit","Edge","138.0.0.0","Windows","10.0","https://app.prolific.com/","en-GB,en;q=0.9,en-US;q=0.8","655621646782dec335983823","686d226cabeef709c732f8e1","686e31307d6394be2a7024a5","655621646782dec335983823","2025-07-09T09:17:42.241Z","","","","","","ControlQ","","","","","","","","","","","","","","","","","","","","","","","","","","","","","","","","","","","","","","50",""
"4405","","<div style=""width:500px;"">
  <p>How would you describe your current emotional state?</p>
  </div>","68","html-slider-response","67","631539","0.0-10.0-3.5","48","1","2025-07-09 09:07:14","7701e855f2ef39aa3fd6c71abdc6918a","85.159.132.64","Mozilla/5.0 (Windows NT 10.0; Win64; x64) AppleWebKit/537.36 (KHTML, like Gecko) Chrome/138.0.0.0 Safari/537.36 Edg/138.0.0.0","WebKit","Edge","138.0.0.0","Windows","10.0","https://app.prolific.com/","en-GB,en;q=0.9,en-US;q=0.8","655621646782dec335983823","686d226cabeef709c732f8e1","686e31307d6394be2a7024a5","655621646782dec335983823","2025-07-09T09:17:46.655Z","","","","","","StressQ","","","","","","","","","","","","","","","","","","","","","","","","","","","","","","","","","","","","","","50",""
"4907","","<div style=""width:500px;"">
  <p>What best describes how you currently feel?</p>
  </div>","60","html-slider-response","68","636451","0.0-10.0-4.5","48","1","2025-07-09 09:07:14","7701e855f2ef39aa3fd6c71abdc6918a","85.159.132.64","Mozilla/5.0 (Windows NT 10.0; Win64; x64) AppleWebKit/537.36 (KHTML, like Gecko) Chrome/138.0.0.0 Safari/537.36 Edg/138.0.0.0","WebKit","Edge","138.0.0.0","Windows","10.0","https://app.prolific.com/","en-GB,en;q=0.9,en-US;q=0.8","655621646782dec335983823","686d226cabeef709c732f8e1","686e31307d6394be2a7024a5","655621646782dec335983823","2025-07-09T09:17:51.567Z","","","","","","MotivationQ","","","","","","","","","","","","","","","","","","","","","","","","","","","","","","","","","","","","","","50",""
"","","","","ctl-task-cpt","69","656297","0.0-10.0-0.6","48","1","2025-07-09 09:07:14","7701e855f2ef39aa3fd6c71abdc6918a","85.159.132.64","Mozilla/5.0 (Windows NT 10.0; Win64; x64) AppleWebKit/537.36 (KHTML, like Gecko) Chrome/138.0.0.0 Safari/537.36 Edg/138.0.0.0","WebKit","Edge","138.0.0.0","Windows","10.0","https://app.prolific.com/","en-GB,en;q=0.9,en-US;q=0.8","655621646782dec335983823","686d226cabeef709c732f8e1","686e31307d6394be2a7024a5","655621646782dec335983823","2025-07-09T09:18:11.412Z","","","","","","","","","","","","","","","","win-only","1","g1:NE,g2:SW","0.4","7","0","637862.9","1950.2","6965.5","16830","1","4","8","6","1","1","1","10","9","0.07575757575757576","1511.8","3000","1875","[""up"",""right""]","{""num_key_presses"":4,""num_perfect"":3,""num_errors"":0,""num_randdir"":1,""num_randdir_good_moves"":1,""num_whilered"":0,""num_whileblue"":0,""num_blue"":0,""num_good_moves"":4}","[419.57142857142856,404.1808016640799,0.1,419.57142857142856,404.1808016640799,101,419.57142857142856,404.1808016640799,218.8,419.57142857142856,404.1808016640799,333.8,419.57142857142856,404.1808016640799,435.5,419.57142857142856,404.1808016640799,535.9,419.57142857142856,404.1808016640799,651.4,419.57142857142856,404.1808016640799,767.3,419.57142857142856,404.1808016640799,867.9,419.57142857142856,404.1808016640799,983.7,425.57142857142856,404.1808016640799,1085.6,608.5714285714286,116.18080166407994,1186.8,626.5714285714286,68.18080166407994,1305.3,719.5714285714286,56.18080166407994,1405.5,727.0714285714286,56.18080166407994,1508.2,727.0714285714286,56.18080166407994,1615.2,727.0714285714286,56.18080166407994,1716.8,727.0714285714286,56.18080166407994,1819.5,727.0714285714286,56.18080166407994,1920.8,727.0714285714286,56.18080166407994,2025.9,727.0714285714286,56.18080166407994,2131.2,727.0714285714286,56.18080166407994,2232.4,727.0714285714286,56.18080166407994,2335.7,727.0714285714286,56.18080166407994,2436,727.0714285714286,56.18080166407994,2547,727.0714285714286,56.18080166407994,2652.3,727.0714285714286,56.18080166407994,2764.1,727.0714285714286,56.18080166407994,2865.1,727.0714285714286,56.18080166407994,2966.4,727.0714285714286,56.18080166407994,3077.6,727.0714285714286,56.18080166407994,3181.8,727.0714285714286,56.18080166407994,3285.5,727.0714285714286,56.18080166407994,3385.5,727.0714285714286,56.18080166407994,3497.5,727.0714285714286,56.18080166407994,3600.6,727.0714285714286,56.18080166407994,3713.8,727.0714285714286,56.18080166407994,3815.3,727.0714285714286,56.18080166407994,3915.3,727.0714285714286,56.18080166407994,4019.9,727.0714285714286,56.18080166407994,4130.7,727.0714285714286,56.18080166407994,4246.7,727.0714285714286,56.18080166407994,4347.7,727.0714285714286,56.18080166407994,4450.6,727.0714285714286,56.18080166407994,4550.6,727.0714285714286,56.18080166407994,4664.3,727.0714285714286,56.18080166407994,4765.9,727.0714285714286,56.18080166407994,4866.4,727.0714285714286,56.18080166407994,4981]","[1531.1,1531.1,1000,0,531.1,""smooth"",""right"",""right"",""good_move"",4677,3145.6,2785.5,1531.4,360.1,""smooth"",""right"",""right"",""good_move"",7506.4,2829.1,2469.3,4677.3,359.8,""oops"",""up"",""up"",""good_move"",9754.3,2247.7,1869.4,7506.7,378.2,""smooth"",""up"",""up"",""good_move""]","","",""
"2815","","<div style=""width:500px;"">
  <p>What determined the result of this run?</p>
  </div>","79","html-slider-response","70","659115","0.0-10.0-1.6","48","1","2025-07-09 09:07:14","7701e855f2ef39aa3fd6c71abdc6918a","85.159.132.64","Mozilla/5.0 (Windows NT 10.0; Win64; x64) AppleWebKit/537.36 (KHTML, like Gecko) Chrome/138.0.0.0 Safari/537.36 Edg/138.0.0.0","WebKit","Edge","138.0.0.0","Windows","10.0","https://app.prolific.com/","en-GB,en;q=0.9,en-US;q=0.8","655621646782dec335983823","686d226cabeef709c732f8e1","686e31307d6394be2a7024a5","655621646782dec335983823","2025-07-09T09:18:14.231Z","","","","","","AttribQ","","","","","","","","","","","","","","","","","","","","","","","","","","","","","","","","","","","","","","50",""
"3132","","<div style=""width:500px;"">
  <p>How much control did you have over the ball?</p>
  </div>","82","html-slider-response","71","662253","0.0-10.0-2.6","48","1","2025-07-09 09:07:14","7701e855f2ef39aa3fd6c71abdc6918a","85.159.132.64","Mozilla/5.0 (Windows NT 10.0; Win64; x64) AppleWebKit/537.36 (KHTML, like Gecko) Chrome/138.0.0.0 Safari/537.36 Edg/138.0.0.0","WebKit","Edge","138.0.0.0","Windows","10.0","https://app.prolific.com/","en-GB,en;q=0.9,en-US;q=0.8","655621646782dec335983823","686d226cabeef709c732f8e1","686e31307d6394be2a7024a5","655621646782dec335983823","2025-07-09T09:18:17.368Z","","","","","","ControlQ","","","","","","","","","","","","","","","","","","","","","","","","","","","","","","","","","","","","","","50",""
"4113","","<div style=""width:500px;"">
  <p>How would you describe your current emotional state?</p>
  </div>","41","html-slider-response","72","666371","0.0-10.0-3.6","48","1","2025-07-09 09:07:14","7701e855f2ef39aa3fd6c71abdc6918a","85.159.132.64","Mozilla/5.0 (Windows NT 10.0; Win64; x64) AppleWebKit/537.36 (KHTML, like Gecko) Chrome/138.0.0.0 Safari/537.36 Edg/138.0.0.0","WebKit","Edge","138.0.0.0","Windows","10.0","https://app.prolific.com/","en-GB,en;q=0.9,en-US;q=0.8","655621646782dec335983823","686d226cabeef709c732f8e1","686e31307d6394be2a7024a5","655621646782dec335983823","2025-07-09T09:18:21.487Z","","","","","","StressQ","","","","","","","","","","","","","","","","","","","","","","","","","","","","","","","","","","","","","","50",""
"3393","","<div style=""width:500px;"">
  <p>What best describes how you currently feel?</p>
  </div>","66","html-slider-response","73","669772","0.0-10.0-4.6","48","1","2025-07-09 09:07:14","7701e855f2ef39aa3fd6c71abdc6918a","85.159.132.64","Mozilla/5.0 (Windows NT 10.0; Win64; x64) AppleWebKit/537.36 (KHTML, like Gecko) Chrome/138.0.0.0 Safari/537.36 Edg/138.0.0.0","WebKit","Edge","138.0.0.0","Windows","10.0","https://app.prolific.com/","en-GB,en;q=0.9,en-US;q=0.8","655621646782dec335983823","686d226cabeef709c732f8e1","686e31307d6394be2a7024a5","655621646782dec335983823","2025-07-09T09:18:24.887Z","","","","","","MotivationQ","","","","","","","","","","","","","","","","","","","","","","","","","","","","","","","","","","","","","","50",""
"","","","","ctl-task-cpt","74","697912","0.0-10.0-0.7","48","1","2025-07-09 09:07:14","7701e855f2ef39aa3fd6c71abdc6918a","85.159.132.64","Mozilla/5.0 (Windows NT 10.0; Win64; x64) AppleWebKit/537.36 (KHTML, like Gecko) Chrome/138.0.0.0 Safari/537.36 Edg/138.0.0.0","WebKit","Edge","138.0.0.0","Windows","10.0","https://app.prolific.com/","en-GB,en;q=0.9,en-US;q=0.8","655621646782dec335983823","686d226cabeef709c732f8e1","686e31307d6394be2a7024a5","655621646782dec335983823","2025-07-09T09:18:53.027Z","","","","","","","","","","","","","","","","win-only","2","g1:SE,g2:NW","0.3","8","0","671186.2","1487.7","6494.4","25114.3","1","4","4","6","1","1","1","11","10","0.08333333333333333","760.8","3000","1350","[""down"",""right""]","{""num_key_presses"":6,""num_perfect"":3,""num_errors"":0,""num_randdir"":3,""num_randdir_good_moves"":2,""num_whilered"":0,""num_whileblue"":0,""num_blue"":1,""num_good_moves"":5}","[415.07142857142856,413.1808016640799,0.1,415.07142857142856,413.1808016640799,115.1,415.07142857142856,413.1808016640799,225.5,421.07142857142856,407.1808016640799,329.6,611.5714285714286,590.1808016640799,432.9,688.0714285714286,726.6808016640799,533,712.0714285714286,755.1808016640799,633.1,737.5714285714286,779.1808016640799,733.4,737.5714285714286,779.1808016640799,840.6,737.5714285714286,779.1808016640799,947.1,685.0714285714286,689.1808016640799,1055,656.5714285714286,612.6808016640799,1156.3,656.5714285714286,576.6808016640799,1258.2,656.5714285714286,564.6808016640799,1359.3,656.5714285714286,564.6808016640799,1463.1,644.5714285714286,563.1808016640799,1570.9,644.5714285714286,563.1808016640799,1672.3,644.5714285714286,563.1808016640799,1775.6,644.5714285714286,563.1808016640799,1879.6,644.5714285714286,563.1808016640799,1986.8,644.5714285714286,563.1808016640799,2093.2,644.5714285714286,563.1808016640799,2195.1,644.5714285714286,563.1808016640799,2299.6,644.5714285714286,563.1808016640799,2403.7,644.5714285714286,563.1808016640799,2514.6,644.5714285714286,563.1808016640799,2624.4,644.5714285714286,563.1808016640799,2728,644.5714285714286,563.1808016640799,2830.1,644.5714285714286,563.1808016640799,2932.9,644.5714285714286,563.1808016640799,3046.3,644.5714285714286,563.1808016640799,3161.4,644.5714285714286,563.1808016640799,3265.5,644.5714285714286,563.1808016640799,3371.2,644.5714285714286,563.1808016640799,3473.6,644.5714285714286,563.1808016640799,3575.6,644.5714285714286,563.1808016640799,3678.6,644.5714285714286,563.1808016640799,3791.4,644.5714285714286,563.1808016640799,3891.7,644.5714285714286,563.1808016640799,3993.3,644.5714285714286,563.1808016640799,4094.9,644.5714285714286,563.1808016640799,4200.7,644.5714285714286,563.1808016640799,4310.3,644.5714285714286,563.1808016640799,4416.4,644.5714285714286,563.1808016640799,4518.9,644.5714285714286,563.1808016640799,4628,644.5714285714286,563.1808016640799,4729.9,644.5714285714286,563.1808016640799,4832.5,644.5714285714286,563.1808016640799,4932.7]","[1352.5,1352.5,1000,0,352.5,""oops"",""right"",""left"",""bad_move"",4348.5,2995.6,2615.9,1352.9,379.7,""smooth"",""right"",""right"",""good_move"",6861,2512.2,2120.1,4348.9,392.1,""oops"",""right"",""right"",""good_move"",12753.2,5891.1,1765.4,10580.8,407,""oops"",""right"",""down"",""good_move"",15543,2789.2,2333,12753.8,456.2,""smooth"",""right"",""right"",""good_move"",18486.4,2943.2,2519,15543.2,424.2,""smooth"",""down"",""down"",""good_move""]","","",""
"2626","","<div style=""width:500px;"">
  <p>What determined the result of this run?</p>
  </div>","61","html-slider-response","75","700540","0.0-10.0-1.7","48","1","2025-07-09 09:07:14","7701e855f2ef39aa3fd6c71abdc6918a","85.159.132.64","Mozilla/5.0 (Windows NT 10.0; Win64; x64) AppleWebKit/537.36 (KHTML, like Gecko) Chrome/138.0.0.0 Safari/537.36 Edg/138.0.0.0","WebKit","Edge","138.0.0.0","Windows","10.0","https://app.prolific.com/","en-GB,en;q=0.9,en-US;q=0.8","655621646782dec335983823","686d226cabeef709c732f8e1","686e31307d6394be2a7024a5","655621646782dec335983823","2025-07-09T09:18:55.655Z","","","","","","AttribQ","","","","","","","","","","","","","","","","","","","","","","","","","","","","","","","","","","","","","","50",""
"2546","","<div style=""width:500px;"">
  <p>How much control did you have over the ball?</p>
  </div>","61","html-slider-response","76","703090","0.0-10.0-2.7","48","1","2025-07-09 09:07:14","7701e855f2ef39aa3fd6c71abdc6918a","85.159.132.64","Mozilla/5.0 (Windows NT 10.0; Win64; x64) AppleWebKit/537.36 (KHTML, like Gecko) Chrome/138.0.0.0 Safari/537.36 Edg/138.0.0.0","WebKit","Edge","138.0.0.0","Windows","10.0","https://app.prolific.com/","en-GB,en;q=0.9,en-US;q=0.8","655621646782dec335983823","686d226cabeef709c732f8e1","686e31307d6394be2a7024a5","655621646782dec335983823","2025-07-09T09:18:58.206Z","","","","","","ControlQ","","","","","","","","","","","","","","","","","","","","","","","","","","","","","","","","","","","","","","50",""
"3395","","<div style=""width:500px;"">
  <p>How would you describe your current emotional state?</p>
  </div>","35","html-slider-response","77","706492","0.0-10.0-3.7","48","1","2025-07-09 09:07:14","7701e855f2ef39aa3fd6c71abdc6918a","85.159.132.64","Mozilla/5.0 (Windows NT 10.0; Win64; x64) AppleWebKit/537.36 (KHTML, like Gecko) Chrome/138.0.0.0 Safari/537.36 Edg/138.0.0.0","WebKit","Edge","138.0.0.0","Windows","10.0","https://app.prolific.com/","en-GB,en;q=0.9,en-US;q=0.8","655621646782dec335983823","686d226cabeef709c732f8e1","686e31307d6394be2a7024a5","655621646782dec335983823","2025-07-09T09:19:01.608Z","","","","","","StressQ","","","","","","","","","","","","","","","","","","","","","","","","","","","","","","","","","","","","","","50",""
"1744","","<div style=""width:500px;"">
  <p>What best describes how you currently feel?</p>
  </div>","72","html-slider-response","78","708244","0.0-10.0-4.7","48","1","2025-07-09 09:07:14","7701e855f2ef39aa3fd6c71abdc6918a","85.159.132.64","Mozilla/5.0 (Windows NT 10.0; Win64; x64) AppleWebKit/537.36 (KHTML, like Gecko) Chrome/138.0.0.0 Safari/537.36 Edg/138.0.0.0","WebKit","Edge","138.0.0.0","Windows","10.0","https://app.prolific.com/","en-GB,en;q=0.9,en-US;q=0.8","655621646782dec335983823","686d226cabeef709c732f8e1","686e31307d6394be2a7024a5","655621646782dec335983823","2025-07-09T09:19:03.359Z","","","","","","MotivationQ","","","","","","","","","","","","","","","","","","","","","","","","","","","","","","","","","","","","","","50",""
"","","","","ctl-task-cpt","79","762115","0.0-10.0-0.8","48","1","2025-07-09 09:07:14","7701e855f2ef39aa3fd6c71abdc6918a","85.159.132.64","Mozilla/5.0 (Windows NT 10.0; Win64; x64) AppleWebKit/537.36 (KHTML, like Gecko) Chrome/138.0.0.0 Safari/537.36 Edg/138.0.0.0","WebKit","Edge","138.0.0.0","Windows","10.0","https://app.prolific.com/","en-GB,en;q=0.9,en-US;q=0.8","655621646782dec335983823","686d226cabeef709c732f8e1","686e31307d6394be2a7024a5","655621646782dec335983823","2025-07-09T09:19:57.230Z","","","","","","","","","","","","","","","","win-only","2","g1:SE,g2:NW","0.2","9","0","709655.2","956.5","5964","50848.9","1","4","8","6","1","-1","-1","10","11","0.07575757575757576","673.2","3000","-1935","[""down"",""right""]","{""num_key_presses"":11,""num_perfect"":3,""num_errors"":0,""num_randdir"":8,""num_randdir_good_moves"":4,""num_whilered"":0,""num_whileblue"":0,""num_blue"":3,""num_good_moves"":7}","[425.57142857142856,416.1808016640799,1.2,425.57142857142856,416.1808016640799,102.7,425.57142857142856,416.1808016640799,209.2,425.57142857142856,416.1808016640799,318,488.57142857142856,522.6808016640799,430.2,692.5714285714286,747.6808016640799,532.9,697.0714285714286,752.1808016640799,636.7,698.5714285714286,752.1808016640799,737.4,698.5714285714286,752.1808016640799,845.1,884.5714285714286,591.6808016640799,959.5,1003.0714285714286,473.1808016640799,1068.2,1004.5714285714286,396.6808016640799,1171.4,1004.5714285714286,396.6808016640799,1277.9,1004.5714285714286,396.6808016640799,1382.7,1004.5714285714286,396.6808016640799,1494.9,1004.5714285714286,396.6808016640799,1596.3,1004.5714285714286,396.6808016640799,1696.7,1004.5714285714286,396.6808016640799,1797.4,1004.5714285714286,396.6808016640799,1899.6,1004.5714285714286,396.6808016640799,2019.9,1004.5714285714286,396.6808016640799,2121.8,1004.5714285714286,396.6808016640799,2224.8,1004.5714285714286,396.6808016640799,2325.8,1004.5714285714286,396.6808016640799,2425.8,1004.5714285714286,396.6808016640799,2530.3,1004.5714285714286,396.6808016640799,2639.8,1004.5714285714286,396.6808016640799,2742.5,1004.5714285714286,396.6808016640799,2844.2,1004.5714285714286,396.6808016640799,2956.1,1004.5714285714286,396.6808016640799,3056.6,1004.5714285714286,396.6808016640799,3159.7,1004.5714285714286,396.6808016640799,3259.9,1004.5714285714286,396.6808016640799,3360.4,1004.5714285714286,396.6808016640799,3467.8,1004.5714285714286,396.6808016640799,3571.9,1004.5714285714286,396.6808016640799,3675,1004.5714285714286,396.6808016640799,3792.5,1004.5714285714286,396.6808016640799,3906.6,1004.5714285714286,396.6808016640799,4008.4,1004.5714285714286,396.6808016640799,4108.7,1004.5714285714286,396.6808016640799,4213.1,1004.5714285714286,396.6808016640799,4316.5,1004.5714285714286,396.6808016640799,4420.9,1004.5714285714286,396.6808016640799,4527.7,1004.5714285714286,396.6808016640799,4629.8,1004.5714285714286,396.6808016640799,4730.3,1004.5714285714286,396.6808016640799,4832.8,1004.5714285714286,396.6808016640799,4933.8]","[1404.3,1404.3,1000,0,404.3,""oops"",""down"",""down"",""good_move"",4340.3,2935.5,2426.7,1404.8,508.8,""oops"",""right"",""left"",""bad_move"",7694.4,3353.8,2956.7,4340.6,397.1,""smooth"",""right"",""right"",""good_move"",10778.2,3083.6,2713.7,7694.7,369.9,""oops"",""right"",""down"",""good_move"",15740.9,4962.4,1808.8,13578.3,353.9,""oops"",""right"",""right"",""good_move"",18736.1,2994.9,2585.3,15741.2,409.6,""oops"",""right"",""left"",""bad_move"",25558.3,6821.9,3042.9,22083.7,431.7,""smooth"",""right"",""right"",""good_move"",32900.8,7341.6,3054.3,29488.5,358,""oops"",""right"",""up"",""bad_move"",35884.2,2981.6,2489.7,32902.6,491.9,""oops"",""right"",""down"",""good_move"",38813.6,2929,2437.1,35884.6,491.9,""oops"",""right"",""up"",""bad_move"",42402.1,3588.2,3211.1,38813.9,377.1,""smooth"",""right"",""right"",""good_move""]","","",""
"3735","","<div style=""width:500px;"">
  <p>What determined the result of this run?</p>
  </div>","29","html-slider-response","80","765852","0.0-10.0-1.8","48","1","2025-07-09 09:07:14","7701e855f2ef39aa3fd6c71abdc6918a","85.159.132.64","Mozilla/5.0 (Windows NT 10.0; Win64; x64) AppleWebKit/537.36 (KHTML, like Gecko) Chrome/138.0.0.0 Safari/537.36 Edg/138.0.0.0","WebKit","Edge","138.0.0.0","Windows","10.0","https://app.prolific.com/","en-GB,en;q=0.9,en-US;q=0.8","655621646782dec335983823","686d226cabeef709c732f8e1","686e31307d6394be2a7024a5","655621646782dec335983823","2025-07-09T09:20:00.968Z","","","","","","AttribQ","","","","","","","","","","","","","","","","","","","","","","","","","","","","","","","","","","","","","","50",""
"3455","","<div style=""width:500px;"">
  <p>How much control did you have over the ball?</p>
  </div>","21","html-slider-response","81","769315","0.0-10.0-2.8","48","1","2025-07-09 09:07:14","7701e855f2ef39aa3fd6c71abdc6918a","85.159.132.64","Mozilla/5.0 (Windows NT 10.0; Win64; x64) AppleWebKit/537.36 (KHTML, like Gecko) Chrome/138.0.0.0 Safari/537.36 Edg/138.0.0.0","WebKit","Edge","138.0.0.0","Windows","10.0","https://app.prolific.com/","en-GB,en;q=0.9,en-US;q=0.8","655621646782dec335983823","686d226cabeef709c732f8e1","686e31307d6394be2a7024a5","655621646782dec335983823","2025-07-09T09:20:04.430Z","","","","","","ControlQ","","","","","","","","","","","","","","","","","","","","","","","","","","","","","","","","","","","","","","50",""
"4133","","<div style=""width:500px;"">
  <p>How would you describe your current emotional state?</p>
  </div>","61","html-slider-response","82","773453","0.0-10.0-3.8","48","1","2025-07-09 09:07:14","7701e855f2ef39aa3fd6c71abdc6918a","85.159.132.64","Mozilla/5.0 (Windows NT 10.0; Win64; x64) AppleWebKit/537.36 (KHTML, like Gecko) Chrome/138.0.0.0 Safari/537.36 Edg/138.0.0.0","WebKit","Edge","138.0.0.0","Windows","10.0","https://app.prolific.com/","en-GB,en;q=0.9,en-US;q=0.8","655621646782dec335983823","686d226cabeef709c732f8e1","686e31307d6394be2a7024a5","655621646782dec335983823","2025-07-09T09:20:08.569Z","","","","","","StressQ","","","","","","","","","","","","","","","","","","","","","","","","","","","","","","","","","","","","","","50",""
"5766","","<div style=""width:500px;"">
  <p>What best describes how you currently feel?</p>
  </div>","40","html-slider-response","83","779227","0.0-10.0-4.8","48","1","2025-07-09 09:07:14","7701e855f2ef39aa3fd6c71abdc6918a","85.159.132.64","Mozilla/5.0 (Windows NT 10.0; Win64; x64) AppleWebKit/537.36 (KHTML, like Gecko) Chrome/138.0.0.0 Safari/537.36 Edg/138.0.0.0","WebKit","Edge","138.0.0.0","Windows","10.0","https://app.prolific.com/","en-GB,en;q=0.9,en-US;q=0.8","655621646782dec335983823","686d226cabeef709c732f8e1","686e31307d6394be2a7024a5","655621646782dec335983823","2025-07-09T09:20:14.343Z","","","","","","MotivationQ","","","","","","","","","","","","","","","","","","","","","","","","","","","","","","","","","","","","","","50",""
