"rt","response_timestamp","stimulus","response","trial_type","trial_index","time_elapsed","internal_node_id","run_id","condition","recorded_at","source_code_version","ip","user_agent","device","browser","browser_version","platform","platform_version","referer","accept_language","PROLIFIC_PID","STUDY_ID","SESSION_ID","prolific_id","realtime","view_history","question_order","consent","success","question_id","eventType","responses","item_order","radio_event_ids","radio_event_times","key_event_times","mouse_event_times","straightlining","zigzagging","honeypot","which_type","canvas_config","goals_layout","control_level","trial_number","tutorial_trial_number","trial_start_time","phase1_start_time","phase2_start_time","phase3_start_time","goal_1_value","goal_1_distance","goal_2_value","goal_2_distance","goal_selected","outcome","outcome_total","participant_final_score","participant_initial_score","participant_final_score_prop","goal_choice_rt","allocated_time","allocated_time_remaining","goal_direction","counts","mouse_movements","key_presses","correct","slider_start"
"5771","1752052483261","<p style='font-size:40px;line-height:1.25'><strong>Welcome to the experiment!</strong></p><p style='font-size:1.1em;line-height:1.25'>Thank you for your interest in our experiment! Before you begin, it is important that we obtain your informed consent to participate in the study.</p><p style='font-size:1.1em;line-height:1.25'>On the next screen will be an <strong>information sheet</strong> for you to read. To participate in the study we need you to read this information sheet and the following consent form carefully. If you agree with all the statements, please click the <strong>I agree</strong> button.</p><p style='font-size:1.1em;line-height:1.25'>Press <strong>Next</strong> to read the information sheet.</p>","0","custom-html-button-response","0","5777","0.0-0.0","184","1","2025-07-09 09:14:07","7701e855f2ef39aa3fd6c71abdc6918a","5.184.201.164","Mozilla/5.0 (Windows NT 10.0; Win64; x64) AppleWebKit/537.36 (KHTML, like Gecko) Chrome/138.0.0.0 Safari/537.36","WebKit","Chrome","138.0.0.0","Windows","10.0","https://app.prolific.com/","pl-PL,pl;q=0.9","5c39ed7a688b59000102a145","686d226cabeef709c732f8e1","686e3135e949f10d8c5d74c0","5c39ed7a688b59000102a145","2025-07-09T09:14:43.263Z","","","","","","","","","","","","","","","","","","","","","","","","","","","","","","","","","","","","","","","","","","","",""
"40373","","","","instructions","1","46153","0.0-1.0","184","1","2025-07-09 09:14:07","7701e855f2ef39aa3fd6c71abdc6918a","5.184.201.164","Mozilla/5.0 (Windows NT 10.0; Win64; x64) AppleWebKit/537.36 (KHTML, like Gecko) Chrome/138.0.0.0 Safari/537.36","WebKit","Chrome","138.0.0.0","Windows","10.0","https://app.prolific.com/","pl-PL,pl;q=0.9","5c39ed7a688b59000102a145","686d226cabeef709c732f8e1","686e3135e949f10d8c5d74c0","5c39ed7a688b59000102a145","","[{""page_index"":0,""viewing_time"":34113},{""page_index"":1,""viewing_time"":6260}]","","","","","","","","","","","","","","","","","","","","","","","","","","","","","","","","","","","","","","","","","","",""
"18215","","","{""Q0"":"""",""Q1"":"""",""Q2"":"""",""Q3"":"""",""Q4"":"""",""Q5"":"""",""Q6"":""I agree""}","survey-multi-choice","2","64373","0.0-2.0","184","1","2025-07-09 09:14:07","7701e855f2ef39aa3fd6c71abdc6918a","5.184.201.164","Mozilla/5.0 (Windows NT 10.0; Win64; x64) AppleWebKit/537.36 (KHTML, like Gecko) Chrome/138.0.0.0 Safari/537.36","WebKit","Chrome","138.0.0.0","Windows","10.0","https://app.prolific.com/","pl-PL,pl;q=0.9","5c39ed7a688b59000102a145","686d226cabeef709c732f8e1","686e3135e949f10d8c5d74c0","5c39ed7a688b59000102a145","","","[0,1,2,3,4,5,6]","true","","","","","","","","","","","","","","","","","","","","","","","","","","","","","","","","","","","","","","","","",""
"20486","","","","fullscreen","3","85867","0.0-4.0","184","1","2025-07-09 09:14:07","7701e855f2ef39aa3fd6c71abdc6918a","5.184.201.164","Mozilla/5.0 (Windows NT 10.0; Win64; x64) AppleWebKit/537.36 (KHTML, like Gecko) Chrome/138.0.0.0 Safari/537.36","WebKit","Chrome","138.0.0.0","Windows","10.0","https://app.prolific.com/","pl-PL,pl;q=0.9","5c39ed7a688b59000102a145","686d226cabeef709c732f8e1","686e3135e949f10d8c5d74c0","5c39ed7a688b59000102a145","","","","","true","","","","","","","","","","","","","","","","","","","","","","","","","","","","","","","","","","","","","","","",""
"21651","1752052585005"," <p style='font-size:1.1em;line-height:1.25'>Thank you for completing the consent form and closing all other tabs.</p><p style='font-size:1.1em;line-height:1.25'>We will now invite you to fill in some demographic information and questionnaires, before starting the game.<br>This will take about 5 minutes.<br></p><p style='font-size:1.1em;line-height:1.25'>Press the <strong>Next</strong> button to continue.</p>","0","custom-html-button-response","4","107520","0.0-5.0","184","1","2025-07-09 09:14:07","7701e855f2ef39aa3fd6c71abdc6918a","5.184.201.164","Mozilla/5.0 (Windows NT 10.0; Win64; x64) AppleWebKit/537.36 (KHTML, like Gecko) Chrome/138.0.0.0 Safari/537.36","WebKit","Chrome","138.0.0.0","Windows","10.0","https://app.prolific.com/","pl-PL,pl;q=0.9","5c39ed7a688b59000102a145","686d226cabeef709c732f8e1","686e3135e949f10d8c5d74c0","5c39ed7a688b59000102a145","2025-07-09T09:16:25.006Z","","","","","","","","","","","","","","","","","","","","","","","","","","","","","","","","","","","","","","","","","","","",""
"5859","","","{""age"":""30""}","survey-text","5","113385","0.0-6.0-0.0","184","1","2025-07-09 09:14:07","7701e855f2ef39aa3fd6c71abdc6918a","5.184.201.164","Mozilla/5.0 (Windows NT 10.0; Win64; x64) AppleWebKit/537.36 (KHTML, like Gecko) Chrome/138.0.0.0 Safari/537.36","WebKit","Chrome","138.0.0.0","Windows","10.0","https://app.prolific.com/","pl-PL,pl;q=0.9","5c39ed7a688b59000102a145","686d226cabeef709c732f8e1","686e3135e949f10d8c5d74c0","5c39ed7a688b59000102a145","","","","","","0","demographics","","","","","","","","","","","","","","","","","","","","","","","","","","","","","","","","","","","","","",""
"3975","","","{""gender_identity"":""female/woman""}","survey-multi-choice","6","117364","0.0-6.0-1.0","184","1","2025-07-09 09:14:07","7701e855f2ef39aa3fd6c71abdc6918a","5.184.201.164","Mozilla/5.0 (Windows NT 10.0; Win64; x64) AppleWebKit/537.36 (KHTML, like Gecko) Chrome/138.0.0.0 Safari/537.36","WebKit","Chrome","138.0.0.0","Windows","10.0","https://app.prolific.com/","pl-PL,pl;q=0.9","5c39ed7a688b59000102a145","686d226cabeef709c732f8e1","686e3135e949f10d8c5d74c0","5c39ed7a688b59000102a145","","","[0]","","","1","demographics","","","","","","","","","","","","","","","","","","","","","","","","","","","","","","","","","","","","","",""
"6101","","","{""assigned_sex"":""female""}","survey-multi-choice","7","123467","0.0-6.0-2.0","184","1","2025-07-09 09:14:07","7701e855f2ef39aa3fd6c71abdc6918a","5.184.201.164","Mozilla/5.0 (Windows NT 10.0; Win64; x64) AppleWebKit/537.36 (KHTML, like Gecko) Chrome/138.0.0.0 Safari/537.36","WebKit","Chrome","138.0.0.0","Windows","10.0","https://app.prolific.com/","pl-PL,pl;q=0.9","5c39ed7a688b59000102a145","686d226cabeef709c732f8e1","686e3135e949f10d8c5d74c0","5c39ed7a688b59000102a145","","","[0]","","","2","demographics","","","","","","","","","","","","","","","","","","","","","","","","","","","","","","","","","","","","","",""
"7682","","","{""menstrual_cycle"":""Yes""}","survey-multi-choice","8","131152","0.0-6.0-3.0","184","1","2025-07-09 09:14:07","7701e855f2ef39aa3fd6c71abdc6918a","5.184.201.164","Mozilla/5.0 (Windows NT 10.0; Win64; x64) AppleWebKit/537.36 (KHTML, like Gecko) Chrome/138.0.0.0 Safari/537.36","WebKit","Chrome","138.0.0.0","Windows","10.0","https://app.prolific.com/","pl-PL,pl;q=0.9","5c39ed7a688b59000102a145","686d226cabeef709c732f8e1","686e3135e949f10d8c5d74c0","5c39ed7a688b59000102a145","","","[0]","","","4","demographics","","","","","","","","","","","","","","","","","","","","","","","","","","","","","","","","","","","","","",""
"15064","","","{""education"":""Master's Degree (e.g., MSc)""}","survey-multi-choice","9","146218","0.0-6.0-4.0","184","1","2025-07-09 09:14:07","7701e855f2ef39aa3fd6c71abdc6918a","5.184.201.164","Mozilla/5.0 (Windows NT 10.0; Win64; x64) AppleWebKit/537.36 (KHTML, like Gecko) Chrome/138.0.0.0 Safari/537.36","WebKit","Chrome","138.0.0.0","Windows","10.0","https://app.prolific.com/","pl-PL,pl;q=0.9","5c39ed7a688b59000102a145","686d226cabeef709c732f8e1","686e3135e949f10d8c5d74c0","5c39ed7a688b59000102a145","","","[0]","","","5","demographics","","","","","","","","","","","","","","","","","","","","","","","","","","","","","","","","","","","","","",""
"29051","","","{""education"":""Vocational Qualifications (e.g. City & Guilds)""}","survey-multi-choice","10","175272","0.0-6.0-5.0","184","1","2025-07-09 09:14:07","7701e855f2ef39aa3fd6c71abdc6918a","5.184.201.164","Mozilla/5.0 (Windows NT 10.0; Win64; x64) AppleWebKit/537.36 (KHTML, like Gecko) Chrome/138.0.0.0 Safari/537.36","WebKit","Chrome","138.0.0.0","Windows","10.0","https://app.prolific.com/","pl-PL,pl;q=0.9","5c39ed7a688b59000102a145","686d226cabeef709c732f8e1","686e3135e949f10d8c5d74c0","5c39ed7a688b59000102a145","2025-07-09T09:17:32.758Z","","[0]","","","6","demographics","","","","","","","","","","","","","","","","","","","","","","","","","","","","","","","","","","","","","",""
"19445","","","{""mental_health_condition"":""no"",""mental_health_treatment"":""no"",""psychiatric_medication"":""no""}","survey-text","11","194721","0.0-7.0-0.0","184","1","2025-07-09 09:14:07","7701e855f2ef39aa3fd6c71abdc6918a","5.184.201.164","Mozilla/5.0 (Windows NT 10.0; Win64; x64) AppleWebKit/537.36 (KHTML, like Gecko) Chrome/138.0.0.0 Safari/537.36","WebKit","Chrome","138.0.0.0","Windows","10.0","https://app.prolific.com/","pl-PL,pl;q=0.9","5c39ed7a688b59000102a145","686d226cabeef709c732f8e1","686e3135e949f10d8c5d74c0","5c39ed7a688b59000102a145","2025-07-09T09:17:52.207Z","","","","","1","mental_health","","","","","","","","","","","","","","","","","","","","","","","","","","","","","","","","","","","","","",""
"19069","","","{""depression_history"":[""Yes""]}","survey-multi-select","12","213796","0.0-7.0-1.0","184","1","2025-07-09 09:14:07","7701e855f2ef39aa3fd6c71abdc6918a","5.184.201.164","Mozilla/5.0 (Windows NT 10.0; Win64; x64) AppleWebKit/537.36 (KHTML, like Gecko) Chrome/138.0.0.0 Safari/537.36","WebKit","Chrome","138.0.0.0","Windows","10.0","https://app.prolific.com/","pl-PL,pl;q=0.9","5c39ed7a688b59000102a145","686d226cabeef709c732f8e1","686e3135e949f10d8c5d74c0","5c39ed7a688b59000102a145","","","[0]","","","","mental_health","","","","","","","","","","","","","","","","","","","","","","","","","","","","","","","","","","","","","",""
"40013","","","{""depression_episodes"":""3-5"",""depression_recent"":""Within the past year""}","survey-multi-choice","13","253812","0.0-7.0-2.0-0.0","184","1","2025-07-09 09:14:07","7701e855f2ef39aa3fd6c71abdc6918a","5.184.201.164","Mozilla/5.0 (Windows NT 10.0; Win64; x64) AppleWebKit/537.36 (KHTML, like Gecko) Chrome/138.0.0.0 Safari/537.36","WebKit","Chrome","138.0.0.0","Windows","10.0","https://app.prolific.com/","pl-PL,pl;q=0.9","5c39ed7a688b59000102a145","686d226cabeef709c732f8e1","686e3135e949f10d8c5d74c0","5c39ed7a688b59000102a145","2025-07-09T09:18:51.298Z","","[0,1]","","","3","mental_health","","","","","","","","","","","","","","","","","","","","","","","","","","","","","","","","","","","","","",""
"249526.30000001192","","","","survey-template","14","503345","0.0-7.0-3.0","184","1","2025-07-09 09:14:07","7701e855f2ef39aa3fd6c71abdc6918a","5.184.201.164","Mozilla/5.0 (Windows NT 10.0; Win64; x64) AppleWebKit/537.36 (KHTML, like Gecko) Chrome/138.0.0.0 Safari/537.36","WebKit","Chrome","138.0.0.0","Windows","10.0","https://app.prolific.com/","pl-PL,pl;q=0.9","5c39ed7a688b59000102a145","686d226cabeef709c732f8e1","686e3135e949f10d8c5d74c0","5c39ed7a688b59000102a145","2025-07-09T09:23:00.832Z","","","","","","ius","{""Q01"":""3"",""Q02"":""1"",""Q03"":""2"",""Q04"":""2"",""Q05"":""2"",""Q06"":""1"",""Q07"":""3"",""Q08"":""0"",""Q09"":""4"",""Q10"":""2"",""Q11"":""1"",""Q12"":""3"",""Q13"":""2""}","[0,1,2,3,4,5,6,7,8,9,10,11,12]","[""Q01"",""Q02"",""Q03"",""Q04"",""Q05"",""Q06"",""Q07"",""Q08"",""Q09"",""Q10"",""Q11"",""Q12"",""Q13""]","[30099.30000001192,41959,48512.90000000596,70592.90000000596,97557.09999999404,100909,115229,160947.09999999404,201875.20000001788,206603.09999999404,239325.20000001788,244135.5,247027]","[]","[30099.30000001192,41959,48512.90000000596,70592.90000000596,97557.09999999404,100909,114261,115229,160947.09999999404,201875.20000001788,206603.09999999404,239325.20000001788,244135.5,247027,249521.20000001788]","0.38461538461538464","0.4166666666666667","0","","","","","","","","","","","","","","","","","","","","","","","","","","","","",""
"6014","1752052986847","<p style='font-size:1.1em;line-height:1.25'>In the following, we will ask you a few questions relating to your experiences over the past month.<br></p><p style='font-size:1.1em;line-height:1.25'>Press the <strong>Next</strong> button to continue.</p>","0","custom-html-button-response","15","509362","0.0-7.0-4.0","184","1","2025-07-09 09:14:07","7701e855f2ef39aa3fd6c71abdc6918a","5.184.201.164","Mozilla/5.0 (Windows NT 10.0; Win64; x64) AppleWebKit/537.36 (KHTML, like Gecko) Chrome/138.0.0.0 Safari/537.36","WebKit","Chrome","138.0.0.0","Windows","10.0","https://app.prolific.com/","pl-PL,pl;q=0.9","5c39ed7a688b59000102a145","686d226cabeef709c732f8e1","686e3135e949f10d8c5d74c0","5c39ed7a688b59000102a145","2025-07-09T09:23:06.848Z","","","","","","","","","","","","","","","","","","","","","","","","","","","","","","","","","","","","","","","","","","","",""
"174084.79999998212","","","","survey-template","16","683452","0.0-7.0-5.0","184","1","2025-07-09 09:14:07","7701e855f2ef39aa3fd6c71abdc6918a","5.184.201.164","Mozilla/5.0 (Windows NT 10.0; Win64; x64) AppleWebKit/537.36 (KHTML, like Gecko) Chrome/138.0.0.0 Safari/537.36","WebKit","Chrome","138.0.0.0","Windows","10.0","https://app.prolific.com/","pl-PL,pl;q=0.9","5c39ed7a688b59000102a145","686d226cabeef709c732f8e1","686e3135e949f10d8c5d74c0","5c39ed7a688b59000102a145","2025-07-09T09:26:00.938Z","","","","","","pss","{""Q01"":""3"",""Q02"":""1"",""Q03"":""2"",""Q04"":""1"",""Q05"":""3"",""Q06"":""1"",""Q07"":""2"",""Q08"":""1"",""Q09"":""2"",""Q10"":""2""}","[0,1,2,3,4,5,6,7,8,9]","[""Q01"",""Q02"",""Q03"",""Q04"",""Q05"",""Q06"",""Q07"",""Q08"",""Q09"",""Q10""]","[12422.5,32956.39999997616,44538.59999999404,82586.69999998808,103946.89999997616,126006.29999998212,136956.39999997616,149340.5,161032.39999997616,171736.09999999404]","[]","[0.09999999403953552,12422.5,32956.39999997616,44538.59999999404,82586.69999998808,103946.89999997616,126006.29999998212,136956.39999997616,149340.5,159231.29999998212,161032.39999997616,171736.09999999404,174080.59999999404]","0.4","0.5555555555555556","0","","","","","","","","","","","","","","","","","","","","","","","","","","","","",""
"19184","1752053180124","<p style='font-size:1.1em;line-height:1.25'>Thank you for your answers! Now we will ask you a few more questions relating to your feelings in the last 24 hours.<br></p><p style='font-size:1.1em;line-height:1.25'>Press the <strong>Next</strong> button to continue.</p>","0","custom-html-button-response","17","702638","0.0-7.0-6.0","184","1","2025-07-09 09:14:07","7701e855f2ef39aa3fd6c71abdc6918a","5.184.201.164","Mozilla/5.0 (Windows NT 10.0; Win64; x64) AppleWebKit/537.36 (KHTML, like Gecko) Chrome/138.0.0.0 Safari/537.36","WebKit","Chrome","138.0.0.0","Windows","10.0","https://app.prolific.com/","pl-PL,pl;q=0.9","5c39ed7a688b59000102a145","686d226cabeef709c732f8e1","686e3135e949f10d8c5d74c0","5c39ed7a688b59000102a145","2025-07-09T09:26:20.124Z","","","","","","","","","","","","","","","","","","","","","","","","","","","","","","","","","","","","","","","","","","","",""
"186380.10000002384","","","","survey-template","18","889031","0.0-7.0-7.0","184","1","2025-07-09 09:14:07","7701e855f2ef39aa3fd6c71abdc6918a","5.184.201.164","Mozilla/5.0 (Windows NT 10.0; Win64; x64) AppleWebKit/537.36 (KHTML, like Gecko) Chrome/138.0.0.0 Safari/537.36","WebKit","Chrome","138.0.0.0","Windows","10.0","https://app.prolific.com/","pl-PL,pl;q=0.9","5c39ed7a688b59000102a145","686d226cabeef709c732f8e1","686e3135e949f10d8c5d74c0","5c39ed7a688b59000102a145","2025-07-09T09:29:26.517Z","","","","","","drsp","{""Q01"":""2"",""Q02"":""0"",""Q03"":""0"",""Q04"":""2"",""Q05"":""2"",""Q06"":""0"",""Q07"":""2"",""Q08"":""0"",""Q09"":""1"",""Q10"":""1"",""Q11"":""0"",""Q12"":""3"",""Q13"":""2"",""Q14"":""0"",""Q15"":""1"",""Q16"":""0"",""Q17"":""0"",""Q18"":""1"",""Q19"":""0"",""Q20"":""0"",""Q21"":""0""}","[0,1,2,3,4,5,6,7,8,9,10,11,12,13,14,15,16,17,18,19,20]","[""Q01"",""Q02"",""Q03"",""Q04"",""Q05"",""Q06"",""Q07"",""Q08"",""Q09"",""Q10"",""Q11"",""Q12"",""Q12"",""Q13"",""Q14"",""Q15"",""Q16"",""Q17"",""Q18"",""Q19"",""Q20"",""Q21""]","[11739.90000000596,15145,20096.80000001192,21874.30000001192,25134.80000001192,28994.70000001788,32218.80000001192,36212.70000001788,53283,56380.70000001788,77778.70000001788,95620.5,96918.80000001192,100378.70000001788,119530.90000000596,140951,143642.70000001788,145136.80000001192,153760.70000001788,172068.80000001192,176070.80000001192,180878.60000002384]","[]","[0.30000001192092896,11739.90000000596,15145,20096.80000001192,21874.30000001192,25134.80000001192,28994.70000001788,32218.80000001192,36212.70000001788,53283,56380.70000001788,75208.90000000596,76432.80000001192,77778.70000001788,95620.5,96918.80000001192,100378.70000001788,119530.90000000596,139832.60000002384,140951,143642.70000001788,145136.80000001192,153760.70000001788,172068.80000001192,176070.80000001192,180878.60000002384,186367]","0.5238095238095238","0.35","0","","","","","","","","","","","","","","","","","","","","","","","","","","","","",""
"35327.10000002384","","","","survey-template","19","924363","0.0-7.0-8.0","184","1","2025-07-09 09:14:07","7701e855f2ef39aa3fd6c71abdc6918a","5.184.201.164","Mozilla/5.0 (Windows NT 10.0; Win64; x64) AppleWebKit/537.36 (KHTML, like Gecko) Chrome/138.0.0.0 Safari/537.36","WebKit","Chrome","138.0.0.0","Windows","10.0","https://app.prolific.com/","pl-PL,pl;q=0.9","5c39ed7a688b59000102a145","686d226cabeef709c732f8e1","686e3135e949f10d8c5d74c0","5c39ed7a688b59000102a145","2025-07-09T09:30:01.849Z","","","","","","stress","{""Q01"":""2"",""Q02"":""2"",""Q03"":""3""}","[0,1,2]","[""Q01"",""Q02"",""Q03""]","[9961.300000011921,13959.300000011921,19367.20000001788]","[]","[9961.300000011921,13959.300000011921,19367.20000001788,35325.40000000596]","0.6666666666666666","0.5","0","","","","","","","","","","","","","","","","","","","","","","","","","","","","",""
"247076","","","","instructions","20","1171441","0.0-8.0-0.0","184","1","2025-07-09 09:14:07","7701e855f2ef39aa3fd6c71abdc6918a","5.184.201.164","Mozilla/5.0 (Windows NT 10.0; Win64; x64) AppleWebKit/537.36 (KHTML, like Gecko) Chrome/138.0.0.0 Safari/537.36","WebKit","Chrome","138.0.0.0","Windows","10.0","https://app.prolific.com/","pl-PL,pl;q=0.9","5c39ed7a688b59000102a145","686d226cabeef709c732f8e1","686e3135e949f10d8c5d74c0","5c39ed7a688b59000102a145","","[{""page_index"":0,""viewing_time"":96393},{""page_index"":1,""viewing_time"":66962},{""page_index"":2,""viewing_time"":37102},{""page_index"":3,""viewing_time"":46618}]","","","","","","","","","","","","","","","","","","","","","","","","","","","","","","","","","","","","","","","","","","",""
"","","","","ctl-task-cpt","21","1201743","0.0-8.0-1.0","184","1","2025-07-09 09:14:07","7701e855f2ef39aa3fd6c71abdc6918a","5.184.201.164","Mozilla/5.0 (Windows NT 10.0; Win64; x64) AppleWebKit/537.36 (KHTML, like Gecko) Chrome/138.0.0.0 Safari/537.36","WebKit","Chrome","138.0.0.0","Windows","10.0","https://app.prolific.com/","pl-PL,pl;q=0.9","5c39ed7a688b59000102a145","686d226cabeef709c732f8e1","686e3135e949f10d8c5d74c0","5c39ed7a688b59000102a145","","","","","","","","","","","","","","","","","win-only","3","g1:SW,g2:NE","1","0","1","1173987","7768","11772.7","27287.9","2","4","4","6","2","-4","-7","0","0","0","4004.6","4000","-2980","[""up"",""right""]","{""num_key_presses"":8,""num_perfect"":2,""num_errors"":3,""num_randdir"":0,""num_randdir_good_moves"":0,""num_whilered"":3,""num_whileblue"":0,""num_blue"":0,""num_good_moves"":2}","[294.22232142857143,294.12857142857143,0.5,294.22232142857143,294.12857142857143,103.7,294.22232142857143,294.12857142857143,204.2,294.22232142857143,294.12857142857143,308.4,294.22232142857143,294.12857142857143,409.4,294.22232142857143,294.12857142857143,514.3,291.22232142857143,293.12857142857143,618.3,258.22232142857143,329.12857142857143,719.1,248.22232142857143,338.12857142857143,823.1,244.22232142857143,342.12857142857143,923.7,242.22232142857143,343.12857142857143,1026.8,242.22232142857143,344.12857142857143,1129.3,246.22232142857143,352.12857142857143,1229.6,247.22232142857143,353.12857142857143,1331.2,251.22232142857143,357.12857142857143,1434.3,254.22232142857143,359.12857142857143,1539.4,255.22232142857143,360.12857142857143,1646.8,255.22232142857143,360.12857142857143,1748.6,253.22232142857143,358.12857142857143,1854.3,253.22232142857143,358.12857142857143,1954.6,256.22232142857143,346.12857142857143,2058.5,256.22232142857143,346.12857142857143,2163.6,256.22232142857143,346.12857142857143,2264.4,256.22232142857143,346.12857142857143,2369.4,256.22232142857143,346.12857142857143,2469.4,256.22232142857143,346.12857142857143,2573.4,252.22232142857143,347.12857142857143,2673.9,244.22232142857143,354.12857142857143,2774.5,243.22232142857143,355.12857142857143,2875.4,243.22232142857143,355.12857142857143,2978.4,243.22232142857143,356.12857142857143,3083.7,243.22232142857143,356.12857142857143,3184.6,243.22232142857143,356.12857142857143,3287.9,243.22232142857143,356.12857142857143,3388,243.22232142857143,356.12857142857143,3488.9,243.22232142857143,356.12857142857143,3593.9,243.22232142857143,356.12857142857143,3694.3,243.22232142857143,356.12857142857143,3798.3,243.22232142857143,356.12857142857143,3898.5]","[4056.7,4056.7,1000,0,3056.7,""smooth"",""up"",""up"",""good_move"",4252.9,195.4,2117.9,4057.6,-1922.5,""error"",""-"",""-"",""no_move"",4418.2,164.9,2117.9,4057.6,-1757.3,""while_red"",""-"",""-"",""no_move"",4850.6,597.4,2117.9,4057.6,-1324.8,""while_red"",""-"",""-"",""no_move"",5136.9,883.6,2117.9,4057.6,-1038.6,""while_red"",""-"",""-"",""no_move"",8103.7,3850.4,2666.1,5253.6,184,""smooth"",""right"",""right"",""good_move"",9596.8,1492.5,3088.9,8104.4,-1596.5,""error"",""-"",""-"",""no_move"",11482.3,1885.2,1814,10599,-930.7,""error"",""-"",""-"",""no_move""]","",""
"40134","","","","instructions","22","1241878","0.0-8.0-2.0","184","1","2025-07-09 09:14:07","7701e855f2ef39aa3fd6c71abdc6918a","5.184.201.164","Mozilla/5.0 (Windows NT 10.0; Win64; x64) AppleWebKit/537.36 (KHTML, like Gecko) Chrome/138.0.0.0 Safari/537.36","WebKit","Chrome","138.0.0.0","Windows","10.0","https://app.prolific.com/","pl-PL,pl;q=0.9","5c39ed7a688b59000102a145","686d226cabeef709c732f8e1","686e3135e949f10d8c5d74c0","5c39ed7a688b59000102a145","","[{""page_index"":0,""viewing_time"":40133}]","","","","","","","","","","","","","","","","","","","","","","","","","","","","","","","","","","","","","","","","","","",""
"","","","","ctl-task-cpt","23","1274090","0.0-8.0-3.0","184","1","2025-07-09 09:14:07","7701e855f2ef39aa3fd6c71abdc6918a","5.184.201.164","Mozilla/5.0 (Windows NT 10.0; Win64; x64) AppleWebKit/537.36 (KHTML, like Gecko) Chrome/138.0.0.0 Safari/537.36","WebKit","Chrome","138.0.0.0","Windows","10.0","https://app.prolific.com/","pl-PL,pl;q=0.9","5c39ed7a688b59000102a145","686d226cabeef709c732f8e1","686e3135e949f10d8c5d74c0","5c39ed7a688b59000102a145","","","","","","","","","","","","","","","","","win-only","3","g1:SW,g2:NE","0.35","0","3","1244419","1413.7","5416.6","29201","2","4","8","6","1","-2","-5","0","0","0","4002.8","4000","-2990","[""down"",""left""]","{""num_key_presses"":9,""num_perfect"":3,""num_errors"":3,""num_randdir"":0,""num_randdir_good_moves"":0,""num_whilered"":3,""num_whileblue"":0,""num_blue"":2,""num_good_moves"":0}","[288.22232142857143,299.12857142857143,0.3,288.22232142857143,299.12857142857143,101.2,288.22232142857143,299.12857142857143,202.1,288.22232142857143,299.12857142857143,302.6,281.22232142857143,308.12857142857143,408.1,278.22232142857143,330.12857142857143,508.2,278.22232142857143,331.12857142857143,612.3,265.22232142857143,349.12857142857143,712.9,252.22232142857143,371.12857142857143,814.7,248.22232142857143,369.12857142857143,920.3,244.22232142857143,357.12857142857143,1023.2,244.22232142857143,355.12857142857143,1127.6,244.22232142857143,344.12857142857143,1227.8,245.22232142857143,344.12857142857143,1335,245.22232142857143,344.12857142857143,1438.9,245.22232142857143,344.12857142857143,1542.6,245.22232142857143,344.12857142857143,1643.5,245.22232142857143,344.12857142857143,1747.8,245.22232142857143,344.12857142857143,1848,245.22232142857143,344.12857142857143,1948.8,246.22232142857143,344.12857142857143,2052.4,245.22232142857143,344.12857142857143,2157,245.22232142857143,344.12857142857143,2257.4,245.22232142857143,344.12857142857143,2364.5,245.22232142857143,344.12857142857143,2466.4,245.22232142857143,344.12857142857143,2568.6,245.22232142857143,344.12857142857143,2672.2,244.22232142857143,344.12857142857143,2776.9,244.22232142857143,344.12857142857143,2880,244.22232142857143,344.12857142857143,2982.5,244.22232142857143,344.12857142857143,3082.6,244.22232142857143,344.12857142857143,3183.9,244.22232142857143,344.12857142857143,3288.3,244.22232142857143,344.12857142857143,3388.7,244.22232142857143,344.12857142857143,3492.2,244.22232142857143,344.12857142857143,3592.3,244.22232142857143,344.12857142857143,3694.1,242.22232142857143,345.12857142857143,3797.1,242.22232142857143,346.12857142857143,3898]","[3424.2,3424.2,1000,0,2424.2,""smooth"",""up"",""up"",""bad_move"",3963,538.2,2413.9,3425,-1875.8,""error"",""-"",""-"",""no_move"",4342.3,378.1,2413.9,3425,-1496.6,""while_red"",""-"",""-"",""no_move"",4939.7,975.5,2413.9,3425,-899.2,""while_red"",""-"",""-"",""no_move"",7871.3,3907.1,1831.7,4965,1074.7,""smooth"",""right"",""right"",""bad_move"",8238.9,366.6,2933.1,7872.3,-2566.5,""error"",""-"",""-"",""no_move"",8537.2,297.2,2933.1,7872.3,-2268.2,""while_red"",""-"",""-"",""no_move"",12632.5,4392.6,2880.8,9240.6,511.2,""smooth"",""right"",""right"",""bad_move"",13251,618,2746,12633,-2128,""error"",""-"",""-"",""no_move""]","",""
"96232","","","","instructions","24","1370323","0.0-8.0-4.0","184","1","2025-07-09 09:14:07","7701e855f2ef39aa3fd6c71abdc6918a","5.184.201.164","Mozilla/5.0 (Windows NT 10.0; Win64; x64) AppleWebKit/537.36 (KHTML, like Gecko) Chrome/138.0.0.0 Safari/537.36","WebKit","Chrome","138.0.0.0","Windows","10.0","https://app.prolific.com/","pl-PL,pl;q=0.9","5c39ed7a688b59000102a145","686d226cabeef709c732f8e1","686e3135e949f10d8c5d74c0","5c39ed7a688b59000102a145","","[{""page_index"":0,""viewing_time"":35218},{""page_index"":1,""viewing_time"":61014}]","","","","","","","","","","","","","","","","","","","","","","","","","","","","","","","","","","","","","","","","","","",""
"35649","","","{""green_ball"":[""Ball always moves in the direction I press""]}","survey-multi-select","25","1405991","0.0-8.0-5.0-0.0","184","1","2025-07-09 09:14:07","7701e855f2ef39aa3fd6c71abdc6918a","5.184.201.164","Mozilla/5.0 (Windows NT 10.0; Win64; x64) AppleWebKit/537.36 (KHTML, like Gecko) Chrome/138.0.0.0 Safari/537.36","WebKit","Chrome","138.0.0.0","Windows","10.0","https://app.prolific.com/","pl-PL,pl;q=0.9","5c39ed7a688b59000102a145","686d226cabeef709c732f8e1","686e3135e949f10d8c5d74c0","5c39ed7a688b59000102a145","","","[0]","","","","quiz","","","","","","","","","","","","","","","","","","","","","","","","","","","","","","","","","","","","","false",""
"7294","","<p align='center'><b>INCORRECT.</b> Usually the green ball moves in the indicated direction, but sometimes it shakes and moves randomly. </p>","0","html-button-response","26","1413289","0.0-8.0-5.0-1.0","184","1","2025-07-09 09:14:07","7701e855f2ef39aa3fd6c71abdc6918a","5.184.201.164","Mozilla/5.0 (Windows NT 10.0; Win64; x64) AppleWebKit/537.36 (KHTML, like Gecko) Chrome/138.0.0.0 Safari/537.36","WebKit","Chrome","138.0.0.0","Windows","10.0","https://app.prolific.com/","pl-PL,pl;q=0.9","5c39ed7a688b59000102a145","686d226cabeef709c732f8e1","686e3135e949f10d8c5d74c0","5c39ed7a688b59000102a145","","","","","","","","","","","","","","","","","","","","","","","","","","","","","","","","","","","","","","","","","","","","",""
"7394","","","{""green_ball"":[""Ball sometimes shakes and moves in a random direction""]}","survey-multi-select","27","1420689","0.0-8.0-5.1-0.1","184","1","2025-07-09 09:14:07","7701e855f2ef39aa3fd6c71abdc6918a","5.184.201.164","Mozilla/5.0 (Windows NT 10.0; Win64; x64) AppleWebKit/537.36 (KHTML, like Gecko) Chrome/138.0.0.0 Safari/537.36","WebKit","Chrome","138.0.0.0","Windows","10.0","https://app.prolific.com/","pl-PL,pl;q=0.9","5c39ed7a688b59000102a145","686d226cabeef709c732f8e1","686e3135e949f10d8c5d74c0","5c39ed7a688b59000102a145","","","[0]","","","","quiz","","","","","","","","","","","","","","","","","","","","","","","","","","","","","","","","","","","","","true",""
"3363","","<p align='center'><b>CORRECT!</b> Indeed, the green ball may sometimes shake and move in a random direction.</p>","0","html-button-response","28","1424054","0.0-8.0-5.1-1.1","184","1","2025-07-09 09:14:07","7701e855f2ef39aa3fd6c71abdc6918a","5.184.201.164","Mozilla/5.0 (Windows NT 10.0; Win64; x64) AppleWebKit/537.36 (KHTML, like Gecko) Chrome/138.0.0.0 Safari/537.36","WebKit","Chrome","138.0.0.0","Windows","10.0","https://app.prolific.com/","pl-PL,pl;q=0.9","5c39ed7a688b59000102a145","686d226cabeef709c732f8e1","686e3135e949f10d8c5d74c0","5c39ed7a688b59000102a145","","","","","","","","","","","","","","","","","","","","","","","","","","","","","","","","","","","","","","","","","","","","",""
"9720","","","{""yellow_ball"":[""Ball doesn‘t move and I get -1 penalty point""]}","survey-multi-select","29","1433778","0.0-8.0-6.0-0.0","184","1","2025-07-09 09:14:07","7701e855f2ef39aa3fd6c71abdc6918a","5.184.201.164","Mozilla/5.0 (Windows NT 10.0; Win64; x64) AppleWebKit/537.36 (KHTML, like Gecko) Chrome/138.0.0.0 Safari/537.36","WebKit","Chrome","138.0.0.0","Windows","10.0","https://app.prolific.com/","pl-PL,pl;q=0.9","5c39ed7a688b59000102a145","686d226cabeef709c732f8e1","686e3135e949f10d8c5d74c0","5c39ed7a688b59000102a145","","","[0]","","","","quiz","","","","","","","","","","","","","","","","","","","","","","","","","","","","","","","","","","","","","true",""
"1718","","<p align='center'><b>CORRECT!</b> Indeed, the yellow ball never moves and you receive a penalty.</p>","0","html-button-response","30","1435499","0.0-8.0-6.0-1.0","184","1","2025-07-09 09:14:07","7701e855f2ef39aa3fd6c71abdc6918a","5.184.201.164","Mozilla/5.0 (Windows NT 10.0; Win64; x64) AppleWebKit/537.36 (KHTML, like Gecko) Chrome/138.0.0.0 Safari/537.36","WebKit","Chrome","138.0.0.0","Windows","10.0","https://app.prolific.com/","pl-PL,pl;q=0.9","5c39ed7a688b59000102a145","686d226cabeef709c732f8e1","686e3135e949f10d8c5d74c0","5c39ed7a688b59000102a145","","","","","","","","","","","","","","","","","","","","","","","","","","","","","","","","","","","","","","","","","","","","",""
"18087","","","{""blue_ball"":[""Ball always shakes and moves in a random direction""]}","survey-multi-select","31","1453590","0.0-8.0-7.0-0.0","184","1","2025-07-09 09:14:07","7701e855f2ef39aa3fd6c71abdc6918a","5.184.201.164","Mozilla/5.0 (Windows NT 10.0; Win64; x64) AppleWebKit/537.36 (KHTML, like Gecko) Chrome/138.0.0.0 Safari/537.36","WebKit","Chrome","138.0.0.0","Windows","10.0","https://app.prolific.com/","pl-PL,pl;q=0.9","5c39ed7a688b59000102a145","686d226cabeef709c732f8e1","686e3135e949f10d8c5d74c0","5c39ed7a688b59000102a145","","","[0]","","","","quiz","","","","","","","","","","","","","","","","","","","","","","","","","","","","","","","","","","","","","true",""
"8044","","<p align='center'><b>CORRECT!</b> Indeed, the blue ball always shakes and moves in a random direction. Also there is a penalty of -1 point.</p>","0","html-button-response","32","1461637","0.0-8.0-7.0-1.0","184","1","2025-07-09 09:14:07","7701e855f2ef39aa3fd6c71abdc6918a","5.184.201.164","Mozilla/5.0 (Windows NT 10.0; Win64; x64) AppleWebKit/537.36 (KHTML, like Gecko) Chrome/138.0.0.0 Safari/537.36","WebKit","Chrome","138.0.0.0","Windows","10.0","https://app.prolific.com/","pl-PL,pl;q=0.9","5c39ed7a688b59000102a145","686d226cabeef709c732f8e1","686e3135e949f10d8c5d74c0","5c39ed7a688b59000102a145","","","","","","","","","","","","","","","","","","","","","","","","","","","","","","","","","","","","","","","","","","","","",""
"5480","","","{""bonus"":[""When I reach 50% of points""]}","survey-multi-select","33","1467122","0.0-8.0-8.0-0.0","184","1","2025-07-09 09:14:07","7701e855f2ef39aa3fd6c71abdc6918a","5.184.201.164","Mozilla/5.0 (Windows NT 10.0; Win64; x64) AppleWebKit/537.36 (KHTML, like Gecko) Chrome/138.0.0.0 Safari/537.36","WebKit","Chrome","138.0.0.0","Windows","10.0","https://app.prolific.com/","pl-PL,pl;q=0.9","5c39ed7a688b59000102a145","686d226cabeef709c732f8e1","686e3135e949f10d8c5d74c0","5c39ed7a688b59000102a145","","","[0]","","","","quiz","","","","","","","","","","","","","","","","","","","","","","","","","","","","","","","","","","","","","true",""
"2892","","<p align='center'><b>CORRECT!</b> Indeed, you receive 2 pounds extra when you reach 50% of points.</p>","0","html-button-response","34","1470017","0.0-8.0-8.0-1.0","184","1","2025-07-09 09:14:07","7701e855f2ef39aa3fd6c71abdc6918a","5.184.201.164","Mozilla/5.0 (Windows NT 10.0; Win64; x64) AppleWebKit/537.36 (KHTML, like Gecko) Chrome/138.0.0.0 Safari/537.36","WebKit","Chrome","138.0.0.0","Windows","10.0","https://app.prolific.com/","pl-PL,pl;q=0.9","5c39ed7a688b59000102a145","686d226cabeef709c732f8e1","686e3135e949f10d8c5d74c0","5c39ed7a688b59000102a145","","","","","","","","","","","","","","","","","","","","","","","","","","","","","","","","","","","","","","","","","","","","",""
"18388","","","","instructions","35","1488407","0.0-8.0-9.0","184","1","2025-07-09 09:14:07","7701e855f2ef39aa3fd6c71abdc6918a","5.184.201.164","Mozilla/5.0 (Windows NT 10.0; Win64; x64) AppleWebKit/537.36 (KHTML, like Gecko) Chrome/138.0.0.0 Safari/537.36","WebKit","Chrome","138.0.0.0","Windows","10.0","https://app.prolific.com/","pl-PL,pl;q=0.9","5c39ed7a688b59000102a145","686d226cabeef709c732f8e1","686e3135e949f10d8c5d74c0","5c39ed7a688b59000102a145","","[{""page_index"":0,""viewing_time"":18386}]","","","","","","","","","","","","","","","","","","","","","","","","","","","","","","","","","","","","","","","","","","",""
"15929","","<p>Before you start with this game please answer the following three questions yourself. </p>
  <p>Through this game, we measure several aspects of your cognitive performance, such as reaction times, multi-tasking capabilities </p>
  <p>and the ability to assess the situation you are in.</p>
  <p></p>
  <p><b>How good do you usually are in such tasks?</b></p>","68","html-slider-response","36","1504339","0.0-9.0-0.0","184","1","2025-07-09 09:14:07","7701e855f2ef39aa3fd6c71abdc6918a","5.184.201.164","Mozilla/5.0 (Windows NT 10.0; Win64; x64) AppleWebKit/537.36 (KHTML, like Gecko) Chrome/138.0.0.0 Safari/537.36","WebKit","Chrome","138.0.0.0","Windows","10.0","https://app.prolific.com/","pl-PL,pl;q=0.9","5c39ed7a688b59000102a145","686d226cabeef709c732f8e1","686e3135e949f10d8c5d74c0","5c39ed7a688b59000102a145","2025-07-09T09:39:41.826Z","","","","","","PreSkillQ","","","","","","","","","","","","","","","","","","","","","","","","","","","","","","","","","","","","","","50"
"7294","","<div style=""width:500px;"">
  <p>How well do you think you will perform in this task compared to other participants?</p>
  </div>","63","html-slider-response","37","1511637","0.0-9.0-1.0","184","1","2025-07-09 09:14:07","7701e855f2ef39aa3fd6c71abdc6918a","5.184.201.164","Mozilla/5.0 (Windows NT 10.0; Win64; x64) AppleWebKit/537.36 (KHTML, like Gecko) Chrome/138.0.0.0 Safari/537.36","WebKit","Chrome","138.0.0.0","Windows","10.0","https://app.prolific.com/","pl-PL,pl;q=0.9","5c39ed7a688b59000102a145","686d226cabeef709c732f8e1","686e3135e949f10d8c5d74c0","5c39ed7a688b59000102a145","2025-07-09T09:39:49.123Z","","","","","","PrePerfQ","","","","","","","","","","","","","","","","","","","","","","","","","","","","","","","","","","","","","","50"
"8074","","<div style=""width:500px;"">
  <p>What best describes how you currently feel?</p>
  </div>","78","html-slider-response","38","1519713","0.0-9.0-2.0","184","1","2025-07-09 09:14:07","7701e855f2ef39aa3fd6c71abdc6918a","5.184.201.164","Mozilla/5.0 (Windows NT 10.0; Win64; x64) AppleWebKit/537.36 (KHTML, like Gecko) Chrome/138.0.0.0 Safari/537.36","WebKit","Chrome","138.0.0.0","Windows","10.0","https://app.prolific.com/","pl-PL,pl;q=0.9","5c39ed7a688b59000102a145","686d226cabeef709c732f8e1","686e3135e949f10d8c5d74c0","5c39ed7a688b59000102a145","2025-07-09T09:39:57.199Z","","","","","","PreMotivationQ","","","","","","","","","","","","","","","","","","","","","","","","","","","","","","","","","","","","","","50"
"","","","","ctl-task-cpt","39","1545699","0.0-10.0-0.0","184","1","2025-07-09 09:14:07","7701e855f2ef39aa3fd6c71abdc6918a","5.184.201.164","Mozilla/5.0 (Windows NT 10.0; Win64; x64) AppleWebKit/537.36 (KHTML, like Gecko) Chrome/138.0.0.0 Safari/537.36","WebKit","Chrome","138.0.0.0","Windows","10.0","https://app.prolific.com/","pl-PL,pl;q=0.9","5c39ed7a688b59000102a145","686d226cabeef709c732f8e1","686e3135e949f10d8c5d74c0","5c39ed7a688b59000102a145","2025-07-09T09:40:23.185Z","","","","","","","","","","","","","","","","win-only","3","g1:SW,g2:NE","1","1","0","1522255.8","2271.3","7278.4","22972.8","1","4","8","6","1","-1","-2","0","0","0","1524.4","3000","-2945","[""down"",""left""]","{""num_key_presses"":4,""num_perfect"":3,""num_errors"":1,""num_randdir"":0,""num_randdir_good_moves"":0,""num_whilered"":0,""num_whileblue"":0,""num_blue"":1,""num_good_moves"":3}","[292.22232142857143,297.12857142857143,0.5,292.22232142857143,297.12857142857143,108.1,292.22232142857143,297.12857142857143,210,292.22232142857143,297.12857142857143,314.8,290.22232142857143,297.12857142857143,421.7,290.22232142857143,297.12857142857143,524.3,290.22232142857143,297.12857142857143,624.6,226.22232142857143,352.12857142857143,729.8,167.22232142857143,406.12857142857143,830.6,164.22232142857143,420.12857142857143,930.6,138.22232142857143,438.12857142857143,1037,111.22232142857143,451.12857142857143,1140,73.22232142857143,518.1285714285714,1240.8,49.222321428571426,543.1285714285714,1344.4,48.222321428571426,562.1285714285714,1446.3,48.222321428571426,563.1285714285714,1546.7,48.222321428571426,563.1285714285714,1656,48.222321428571426,564.1285714285714,1758.9,49.222321428571426,564.1285714285714,1861.3,55.222321428571426,561.1285714285714,1964.7,112.22232142857143,517.1285714285714,2065.5,131.22232142857143,491.12857142857143,2172.2,135.22232142857143,482.12857142857143,2274.5,135.22232142857143,482.12857142857143,2376.5,135.22232142857143,482.12857142857143,2479.9,190.22232142857143,452.12857142857143,2588.8,230.22232142857143,351.12857142857143,2695.1,268.22232142857143,253.12857142857143,2795.5,272.22232142857143,244.12857142857143,2904.5,272.22232142857143,244.12857142857143,3008.9,272.22232142857143,244.12857142857143,3109.7,272.22232142857143,244.12857142857143,3215.8,272.22232142857143,244.12857142857143,3316.1,272.22232142857143,244.12857142857143,3423.7,272.22232142857143,244.12857142857143,3523.7,272.22232142857143,244.12857142857143,3625.5,272.22232142857143,244.12857142857143,3730.9,272.22232142857143,244.12857142857143,3835.6,272.22232142857143,244.12857142857143,3938.6,272.22232142857143,244.12857142857143,4040.7,272.22232142857143,244.12857142857143,4146.2,272.22232142857143,244.12857142857143,4251.8,272.22232142857143,244.12857142857143,4352.2,272.22232142857143,244.12857142857143,4458.7,272.22232142857143,244.12857142857143,4560.5,272.22232142857143,244.12857142857143,4660.8,272.22232142857143,244.12857142857143,4764.6,272.22232142857143,244.12857142857143,4864.9,272.22232142857143,244.12857142857143,4969.5]","[5276.6,5276.6,2650.1,2008.4,618.1,""smooth"",""down"",""down"",""good_move"",6051.3,773.9,2386.8,5277.4,-1612.9,""error"",""-"",""-"",""no_move"",9374.6,3323,1537.8,7056,780.8,""smooth"",""left"",""left"",""good_move"",13083.8,3708.4,2227,9375.4,1481.4,""smooth"",""down"",""down"",""good_move""]","",""
"9056","","<div style=""width:500px;"">
  <p>What determined the result of this run?</p>
  </div>","77","html-slider-response","40","1554757","0.0-10.0-1.0","184","1","2025-07-09 09:14:07","7701e855f2ef39aa3fd6c71abdc6918a","5.184.201.164","Mozilla/5.0 (Windows NT 10.0; Win64; x64) AppleWebKit/537.36 (KHTML, like Gecko) Chrome/138.0.0.0 Safari/537.36","WebKit","Chrome","138.0.0.0","Windows","10.0","https://app.prolific.com/","pl-PL,pl;q=0.9","5c39ed7a688b59000102a145","686d226cabeef709c732f8e1","686e3135e949f10d8c5d74c0","5c39ed7a688b59000102a145","2025-07-09T09:40:32.243Z","","","","","","AttribQ","","","","","","","","","","","","","","","","","","","","","","","","","","","","","","","","","","","","","","50"
"23097","","<div style=""width:500px;"">
  <p>How much control did you have over the ball?</p>
  </div>","64","html-slider-response","41","1577858","0.0-10.0-2.0","184","1","2025-07-09 09:14:07","7701e855f2ef39aa3fd6c71abdc6918a","5.184.201.164","Mozilla/5.0 (Windows NT 10.0; Win64; x64) AppleWebKit/537.36 (KHTML, like Gecko) Chrome/138.0.0.0 Safari/537.36","WebKit","Chrome","138.0.0.0","Windows","10.0","https://app.prolific.com/","pl-PL,pl;q=0.9","5c39ed7a688b59000102a145","686d226cabeef709c732f8e1","686e3135e949f10d8c5d74c0","5c39ed7a688b59000102a145","2025-07-09T09:40:55.344Z","","","","","","ControlQ","","","","","","","","","","","","","","","","","","","","","","","","","","","","","","","","","","","","","","50"
"14144","","<div style=""width:500px;"">
  <p>How would you describe your current emotional state?</p>
  </div>","81","html-slider-response","42","1592007","0.0-10.0-3.0","184","1","2025-07-09 09:14:07","7701e855f2ef39aa3fd6c71abdc6918a","5.184.201.164","Mozilla/5.0 (Windows NT 10.0; Win64; x64) AppleWebKit/537.36 (KHTML, like Gecko) Chrome/138.0.0.0 Safari/537.36","WebKit","Chrome","138.0.0.0","Windows","10.0","https://app.prolific.com/","pl-PL,pl;q=0.9","5c39ed7a688b59000102a145","686d226cabeef709c732f8e1","686e3135e949f10d8c5d74c0","5c39ed7a688b59000102a145","2025-07-09T09:41:09.493Z","","","","","","StressQ","","","","","","","","","","","","","","","","","","","","","","","","","","","","","","","","","","","","","","50"
"20367","","<div style=""width:500px;"">
  <p>What best describes how you currently feel?</p>
  </div>","100","html-slider-response","43","1612378","0.0-10.0-4.0","184","1","2025-07-09 09:14:07","7701e855f2ef39aa3fd6c71abdc6918a","5.184.201.164","Mozilla/5.0 (Windows NT 10.0; Win64; x64) AppleWebKit/537.36 (KHTML, like Gecko) Chrome/138.0.0.0 Safari/537.36","WebKit","Chrome","138.0.0.0","Windows","10.0","https://app.prolific.com/","pl-PL,pl;q=0.9","5c39ed7a688b59000102a145","686d226cabeef709c732f8e1","686e3135e949f10d8c5d74c0","5c39ed7a688b59000102a145","2025-07-09T09:41:29.864Z","","","","","","MotivationQ","","","","","","","","","","","","","","","","","","","","","","","","","","","","","","","","","","","","","","50"
"","","","","ctl-task-cpt","44","1652879","0.0-10.0-0.1","184","1","2025-07-09 09:14:07","7701e855f2ef39aa3fd6c71abdc6918a","5.184.201.164","Mozilla/5.0 (Windows NT 10.0; Win64; x64) AppleWebKit/537.36 (KHTML, like Gecko) Chrome/138.0.0.0 Safari/537.36","WebKit","Chrome","138.0.0.0","Windows","10.0","https://app.prolific.com/","pl-PL,pl;q=0.9","5c39ed7a688b59000102a145","686d226cabeef709c732f8e1","686e3135e949f10d8c5d74c0","5c39ed7a688b59000102a145","2025-07-09T09:42:10.365Z","","","","","","","","","","","","","","","","win-only","0","g1:NW,g2:SE","0.9","2","0","1614921.5","4180","9180.9","37477.6","1","4","4","6","2","4","4","4","0","0.030303030303030304","2262.1","3000","650","[""down"",""right""]","{""num_key_presses"":6,""num_perfect"":6,""num_errors"":0,""num_randdir"":0,""num_randdir_good_moves"":0,""num_whilered"":0,""num_whileblue"":0,""num_blue"":3,""num_good_moves"":6}","[289.22232142857143,293.12857142857143,0.4,289.22232142857143,293.12857142857143,102.8,289.22232142857143,293.12857142857143,208.3,289.22232142857143,293.12857142857143,315.2,286.22232142857143,295.12857142857143,417.2,276.22232142857143,305.12857142857143,521.2,233.22232142857143,289.12857142857143,623.5,231.22232142857143,288.12857142857143,734.3,236.22232142857143,295.12857142857143,839.3,345.22232142857143,395.12857142857143,948.8,481.22232142857143,477.12857142857143,1049.5,488.22232142857143,477.12857142857143,1154.1,447.22232142857143,454.12857142857143,1265.5,423.22232142857143,448.12857142857143,1369.4,448.22232142857143,480.12857142857143,1482,473.22232142857143,482.12857142857143,1583.5,560.2223214285714,535.1285714285714,1684,606.2223214285714,572.1285714285714,1786.6,650.2223214285714,564.1285714285714,1895.3,624.2223214285714,545.1285714285714,2000.1,547.2223214285714,511.12857142857143,2103,538.2223214285714,518.1285714285714,2208.8,538.2223214285714,518.1285714285714,2314.1,537.2223214285714,519.1285714285714,2415.7,537.2223214285714,520.1285714285714,2517.5,535.2223214285714,520.1285714285714,2625.1,517.2223214285714,513.1285714285714,2725.1,511.22232142857143,509.12857142857143,2830.5,510.22232142857143,499.12857142857143,2930.7,510.22232142857143,498.12857142857143,3032,510.22232142857143,485.12857142857143,3133.2,510.22232142857143,480.12857142857143,3246.2,510.22232142857143,480.12857142857143,3346.7,510.22232142857143,480.12857142857143,3446.8,510.22232142857143,480.12857142857143,3551.2,510.22232142857143,480.12857142857143,3656,510.22232142857143,480.12857142857143,3756.7,510.22232142857143,480.12857142857143,3860.9,510.22232142857143,480.12857142857143,3960.9,510.22232142857143,480.12857142857143,4061.2,510.22232142857143,480.12857142857143,4161.7,510.22232142857143,480.12857142857143,4268,510.22232142857143,480.12857142857143,4372,510.22232142857143,480.12857142857143,4475.1,510.22232142857143,480.12857142857143,4578.1,510.22232142857143,480.12857142857143,4678.4,510.22232142857143,480.12857142857143,4780.8,510.22232142857143,480.12857142857143,4891,510.22232142857143,480.12857142857143,4994.7]","[1406.5,1406.6,1000,0,406.6,""smooth"",""down"",""down"",""good_move"",7639.9,6232.2,2210.4,4971.2,458.3,""smooth"",""right"",""right"",""good_move"",11064.8,3424.5,2733.2,7640.3,691.3,""smooth"",""down"",""down"",""good_move"",21163.9,10098.9,3042.8,17711.2,410,""smooth"",""right"",""right"",""good_move"",24804.6,3640.4,3186.8,21164.3,453.5,""smooth"",""down"",""down"",""good_move"",28183.5,3378.4,2946.4,24805.1,432,""smooth"",""right"",""right"",""good_move""]","",""
"13392","","<div style=""width:500px;"">
  <p>What determined the result of this run?</p>
  </div>","100","html-slider-response","45","1666275","0.0-10.0-1.1","184","1","2025-07-09 09:14:07","7701e855f2ef39aa3fd6c71abdc6918a","5.184.201.164","Mozilla/5.0 (Windows NT 10.0; Win64; x64) AppleWebKit/537.36 (KHTML, like Gecko) Chrome/138.0.0.0 Safari/537.36","WebKit","Chrome","138.0.0.0","Windows","10.0","https://app.prolific.com/","pl-PL,pl;q=0.9","5c39ed7a688b59000102a145","686d226cabeef709c732f8e1","686e3135e949f10d8c5d74c0","5c39ed7a688b59000102a145","2025-07-09T09:42:23.761Z","","","","","","AttribQ","","","","","","","","","","","","","","","","","","","","","","","","","","","","","","","","","","","","","","50"
"2927","","<div style=""width:500px;"">
  <p>How much control did you have over the ball?</p>
  </div>","83","html-slider-response","46","1669206","0.0-10.0-2.1","184","1","2025-07-09 09:14:07","7701e855f2ef39aa3fd6c71abdc6918a","5.184.201.164","Mozilla/5.0 (Windows NT 10.0; Win64; x64) AppleWebKit/537.36 (KHTML, like Gecko) Chrome/138.0.0.0 Safari/537.36","WebKit","Chrome","138.0.0.0","Windows","10.0","https://app.prolific.com/","pl-PL,pl;q=0.9","5c39ed7a688b59000102a145","686d226cabeef709c732f8e1","686e3135e949f10d8c5d74c0","5c39ed7a688b59000102a145","2025-07-09T09:42:26.692Z","","","","","","ControlQ","","","","","","","","","","","","","","","","","","","","","","","","","","","","","","","","","","","","","","50"
"10699","","<div style=""width:500px;"">
  <p>How would you describe your current emotional state?</p>
  </div>","100","html-slider-response","47","1679910","0.0-10.0-3.1","184","1","2025-07-09 09:14:07","7701e855f2ef39aa3fd6c71abdc6918a","5.184.201.164","Mozilla/5.0 (Windows NT 10.0; Win64; x64) AppleWebKit/537.36 (KHTML, like Gecko) Chrome/138.0.0.0 Safari/537.36","WebKit","Chrome","138.0.0.0","Windows","10.0","https://app.prolific.com/","pl-PL,pl;q=0.9","5c39ed7a688b59000102a145","686d226cabeef709c732f8e1","686e3135e949f10d8c5d74c0","5c39ed7a688b59000102a145","2025-07-09T09:42:37.397Z","","","","","","StressQ","","","","","","","","","","","","","","","","","","","","","","","","","","","","","","","","","","","","","","50"
"3541","","<div style=""width:500px;"">
  <p>What best describes how you currently feel?</p>
  </div>","100","html-slider-response","48","1683454","0.0-10.0-4.1","184","1","2025-07-09 09:14:07","7701e855f2ef39aa3fd6c71abdc6918a","5.184.201.164","Mozilla/5.0 (Windows NT 10.0; Win64; x64) AppleWebKit/537.36 (KHTML, like Gecko) Chrome/138.0.0.0 Safari/537.36","WebKit","Chrome","138.0.0.0","Windows","10.0","https://app.prolific.com/","pl-PL,pl;q=0.9","5c39ed7a688b59000102a145","686d226cabeef709c732f8e1","686e3135e949f10d8c5d74c0","5c39ed7a688b59000102a145","2025-07-09T09:42:40.941Z","","","","","","MotivationQ","","","","","","","","","","","","","","","","","","","","","","","","","","","","","","","","","","","","","","50"
"","","","","ctl-task-cpt","49","1734836","0.0-10.0-0.2","184","1","2025-07-09 09:14:07","7701e855f2ef39aa3fd6c71abdc6918a","5.184.201.164","Mozilla/5.0 (Windows NT 10.0; Win64; x64) AppleWebKit/537.36 (KHTML, like Gecko) Chrome/138.0.0.0 Safari/537.36","WebKit","Chrome","138.0.0.0","Windows","10.0","https://app.prolific.com/","pl-PL,pl;q=0.9","5c39ed7a688b59000102a145","686d226cabeef709c732f8e1","686e3135e949f10d8c5d74c0","5c39ed7a688b59000102a145","2025-07-09T09:43:32.322Z","","","","","","","","","","","","","","","","win-only","3","g1:SW,g2:NE","0.8","3","0","1685996.5","1833.4","6836.7","48358.5","1","4","8","6","2","8","8","12","4","0.09090909090909091","1327","3000","190","[""up"",""right""]","{""num_key_presses"":8,""num_perfect"":6,""num_errors"":0,""num_randdir"":2,""num_randdir_good_moves"":1,""num_whilered"":0,""num_whileblue"":0,""num_blue"":5,""num_good_moves"":7}","[293.22232142857143,299.12857142857143,0.4,293.22232142857143,299.12857142857143,101.6,293.22232142857143,299.12857142857143,202.4,293.22232142857143,301.12857142857143,304,291.22232142857143,302.12857142857143,414.6,289.22232142857143,303.12857142857143,518.5,281.22232142857143,330.12857142857143,624.4,403.22232142857143,133.12857142857143,733.8,429.22232142857143,80.12857142857143,838.2,440.22232142857143,62.128571428571426,939.5,457.22232142857143,31.128571428571426,1045.4,485.22232142857143,48.128571428571426,1148.4,500.22232142857143,44.128571428571426,1254.1,509.22232142857143,45.128571428571426,1354.6,509.22232142857143,45.128571428571426,1461.1,512.2223214285714,51.128571428571426,1564.8,505.22232142857143,58.128571428571426,1665.8,467.22232142857143,83.12857142857143,1768.1,456.22232142857143,86.12857142857143,1875.1,453.22232142857143,86.12857142857143,1986.2,452.22232142857143,87.12857142857143,2087.8,452.22232142857143,87.12857142857143,2188,452.22232142857143,87.12857142857143,2288.8,449.22232142857143,90.12857142857143,2393.4,449.22232142857143,90.12857142857143,2493.6,448.22232142857143,90.12857142857143,2598.6,448.22232142857143,90.12857142857143,2699.6,448.22232142857143,90.12857142857143,2802.9,447.22232142857143,90.12857142857143,2912.2,447.22232142857143,90.12857142857143,3012.9,447.22232142857143,90.12857142857143,3117.1,447.22232142857143,90.12857142857143,3217.6,447.22232142857143,90.12857142857143,3327.7,447.22232142857143,90.12857142857143,3429.2,447.22232142857143,90.12857142857143,3533.5,448.22232142857143,92.12857142857143,3644.4,448.22232142857143,96.12857142857143,3749.1,448.22232142857143,96.12857142857143,3852.2,448.22232142857143,97.12857142857143,3954.1,447.22232142857143,100.12857142857143,4054.5,447.22232142857143,101.12857142857143,4161.2,447.22232142857143,101.12857142857143,4263.2,447.22232142857143,101.12857142857143,4363.4,447.22232142857143,101.12857142857143,4467.7,443.22232142857143,103.12857142857143,4574.9,443.22232142857143,94.12857142857143,4679.9,436.22232142857143,95.12857142857143,4782.2,429.22232142857143,102.12857142857143,4883.8,428.22232142857143,107.12857142857143,4983.9]","[1411,1411,1000,0,411,""smooth"",""up"",""up"",""good_move"",8005.3,6592.3,2675.5,4914.9,414.9,""oops"",""right"",""left"",""bad_move"",11477.2,3471.2,2979,8006,492.2,""oops"",""right"",""up"",""good_move"",18322.9,6844.8,2813.8,14992.3,516.8,""smooth"",""up"",""up"",""good_move"",25772.8,7449.7,2734.9,22627.4,411.1,""smooth"",""right"",""right"",""good_move"",31977.1,6202.5,3082.9,28485.4,408.8,""smooth"",""right"",""right"",""good_move"",34566.5,2588.6,1998.4,31977.9,590.2,""smooth"",""right"",""right"",""good_move"",41374.8,6806.9,2993.5,37999.9,381.5,""smooth"",""right"",""right"",""good_move""]","",""
"3525","","<div style=""width:500px;"">
  <p>What determined the result of this run?</p>
  </div>","100","html-slider-response","50","1738364","0.0-10.0-1.2","184","1","2025-07-09 09:14:07","7701e855f2ef39aa3fd6c71abdc6918a","5.184.201.164","Mozilla/5.0 (Windows NT 10.0; Win64; x64) AppleWebKit/537.36 (KHTML, like Gecko) Chrome/138.0.0.0 Safari/537.36","WebKit","Chrome","138.0.0.0","Windows","10.0","https://app.prolific.com/","pl-PL,pl;q=0.9","5c39ed7a688b59000102a145","686d226cabeef709c732f8e1","686e3135e949f10d8c5d74c0","5c39ed7a688b59000102a145","2025-07-09T09:43:35.850Z","","","","","","AttribQ","","","","","","","","","","","","","","","","","","","","","","","","","","","","","","","","","","","","","","50"
"2381","","<div style=""width:500px;"">
  <p>How much control did you have over the ball?</p>
  </div>","100","html-slider-response","51","1740749","0.0-10.0-2.2","184","1","2025-07-09 09:14:07","7701e855f2ef39aa3fd6c71abdc6918a","5.184.201.164","Mozilla/5.0 (Windows NT 10.0; Win64; x64) AppleWebKit/537.36 (KHTML, like Gecko) Chrome/138.0.0.0 Safari/537.36","WebKit","Chrome","138.0.0.0","Windows","10.0","https://app.prolific.com/","pl-PL,pl;q=0.9","5c39ed7a688b59000102a145","686d226cabeef709c732f8e1","686e3135e949f10d8c5d74c0","5c39ed7a688b59000102a145","2025-07-09T09:43:38.235Z","","","","","","ControlQ","","","","","","","","","","","","","","","","","","","","","","","","","","","","","","","","","","","","","","50"
"3583","","<div style=""width:500px;"">
  <p>How would you describe your current emotional state?</p>
  </div>","100","html-slider-response","52","1744335","0.0-10.0-3.2","184","1","2025-07-09 09:14:07","7701e855f2ef39aa3fd6c71abdc6918a","5.184.201.164","Mozilla/5.0 (Windows NT 10.0; Win64; x64) AppleWebKit/537.36 (KHTML, like Gecko) Chrome/138.0.0.0 Safari/537.36","WebKit","Chrome","138.0.0.0","Windows","10.0","https://app.prolific.com/","pl-PL,pl;q=0.9","5c39ed7a688b59000102a145","686d226cabeef709c732f8e1","686e3135e949f10d8c5d74c0","5c39ed7a688b59000102a145","2025-07-09T09:43:41.821Z","","","","","","StressQ","","","","","","","","","","","","","","","","","","","","","","","","","","","","","","","","","","","","","","50"
"2210","","<div style=""width:500px;"">
  <p>What best describes how you currently feel?</p>
  </div>","100","html-slider-response","53","1746548","0.0-10.0-4.2","184","1","2025-07-09 09:14:07","7701e855f2ef39aa3fd6c71abdc6918a","5.184.201.164","Mozilla/5.0 (Windows NT 10.0; Win64; x64) AppleWebKit/537.36 (KHTML, like Gecko) Chrome/138.0.0.0 Safari/537.36","WebKit","Chrome","138.0.0.0","Windows","10.0","https://app.prolific.com/","pl-PL,pl;q=0.9","5c39ed7a688b59000102a145","686d226cabeef709c732f8e1","686e3135e949f10d8c5d74c0","5c39ed7a688b59000102a145","2025-07-09T09:43:44.035Z","","","","","","MotivationQ","","","","","","","","","","","","","","","","","","","","","","","","","","","","","","","","","","","","","","50"
"","","","","ctl-task-cpt","54","1778944","0.0-10.0-0.3","184","1","2025-07-09 09:14:07","7701e855f2ef39aa3fd6c71abdc6918a","5.184.201.164","Mozilla/5.0 (Windows NT 10.0; Win64; x64) AppleWebKit/537.36 (KHTML, like Gecko) Chrome/138.0.0.0 Safari/537.36","WebKit","Chrome","138.0.0.0","Windows","10.0","https://app.prolific.com/","pl-PL,pl;q=0.9","5c39ed7a688b59000102a145","686d226cabeef709c732f8e1","686e3135e949f10d8c5d74c0","5c39ed7a688b59000102a145","2025-07-09T09:44:16.430Z","","","","","","","","","","","","","","","","win-only","3","g1:SW,g2:NE","0.7","4","0","1749092.5","1911.1","6918.9","29372","1","4","4","6","2","4","4","16","12","0.12121212121212122","1396.7","3000","310","[""up"",""right""]","{""num_key_presses"":8,""num_perfect"":5,""num_errors"":0,""num_randdir"":3,""num_randdir_good_moves"":2,""num_whilered"":0,""num_whileblue"":0,""num_blue"":0,""num_good_moves"":7}","[296.22232142857143,292.12857142857143,1,296.22232142857143,292.12857142857143,106.4,296.22232142857143,292.12857142857143,215,296.22232142857143,294.12857142857143,315.6,315.22232142857143,295.12857142857143,422.4,410.22232142857143,206.12857142857143,523.3,480.22232142857143,111.12857142857143,628,511.22232142857143,74.12857142857143,730.3,520.2223214285714,66.12857142857143,832.8,552.2223214285714,27.128571428571426,932.9,556.2223214285714,3.1285714285714263,1037.5,533.2223214285714,12.128571428571426,1139.2,535.2223214285714,17.128571428571426,1239.7,537.2223214285714,27.128571428571426,1345.6,537.2223214285714,35.128571428571426,1457.5,537.2223214285714,40.128571428571426,1561.4,531.2223214285714,51.128571428571426,1662.5,531.2223214285714,52.128571428571426,1765.5,525.2223214285714,58.128571428571426,1868.2,515.2223214285714,63.128571428571426,1980.8,512.2223214285714,65.12857142857143,2081.5,510.22232142857143,66.12857142857143,2182.6,506.22232142857143,67.12857142857143,2290.3,500.22232142857143,70.12857142857143,2390.4,497.22232142857143,74.12857142857143,2490.6,497.22232142857143,89.12857142857143,2594.5,502.22232142857143,114.12857142857143,2697.9,492.22232142857143,142.12857142857143,2806,486.22232142857143,149.12857142857143,2912.2,485.22232142857143,152.12857142857143,3022.2,485.22232142857143,152.12857142857143,3133,484.22232142857143,155.12857142857143,3233.7,484.22232142857143,157.12857142857143,3339.6,484.22232142857143,157.12857142857143,3445.5,484.22232142857143,157.12857142857143,3549,484.22232142857143,157.12857142857143,3653.9,484.22232142857143,157.12857142857143,3759.4,484.22232142857143,157.12857142857143,3862.4,484.22232142857143,157.12857142857143,3963.8,484.22232142857143,157.12857142857143,4068,484.22232142857143,157.12857142857143,4173.2,484.22232142857143,157.12857142857143,4275.9,484.22232142857143,157.12857142857143,4380.3,484.22232142857143,157.12857142857143,4481.4,484.22232142857143,157.12857142857143,4581.5,485.22232142857143,157.12857142857143,4682.5,485.22232142857143,157.12857142857143,4782.8,485.22232142857143,157.12857142857143,4887.6,485.22232142857143,157.12857142857143,4992.2]","[1416.6,1416.6,1000,0,416.6,""oops"",""right"",""up"",""good_move"",4360.4,2942.6,2519.8,1418.1,422.8,""oops"",""right"",""up"",""good_move"",7021,2658.7,2072.6,4362.3,586.1,""smooth"",""right"",""right"",""good_move"",10392.6,3370.2,2873.8,7022.5,496.3,""smooth"",""right"",""right"",""good_move"",12918.7,2525.6,2004.9,10393.1,520.7,""smooth"",""right"",""right"",""good_move"",16565,3644.7,3154.6,12920.3,490.1,""oops"",""up"",""left"",""bad_move"",19610.6,3044.4,2564.9,16566.2,479.5,""smooth"",""up"",""up"",""good_move"",22319.9,2708,2284.9,19611.9,423.1,""smooth"",""right"",""right"",""good_move""]","",""
"2665","","<div style=""width:500px;"">
  <p>What determined the result of this run?</p>
  </div>","100","html-slider-response","55","1781612","0.0-10.0-1.3","184","1","2025-07-09 09:14:07","7701e855f2ef39aa3fd6c71abdc6918a","5.184.201.164","Mozilla/5.0 (Windows NT 10.0; Win64; x64) AppleWebKit/537.36 (KHTML, like Gecko) Chrome/138.0.0.0 Safari/537.36","WebKit","Chrome","138.0.0.0","Windows","10.0","https://app.prolific.com/","pl-PL,pl;q=0.9","5c39ed7a688b59000102a145","686d226cabeef709c732f8e1","686e3135e949f10d8c5d74c0","5c39ed7a688b59000102a145","2025-07-09T09:44:19.098Z","","","","","","AttribQ","","","","","","","","","","","","","","","","","","","","","","","","","","","","","","","","","","","","","","50"
"2132","","<div style=""width:500px;"">
  <p>How much control did you have over the ball?</p>
  </div>","100","html-slider-response","56","1783747","0.0-10.0-2.3","184","1","2025-07-09 09:14:07","7701e855f2ef39aa3fd6c71abdc6918a","5.184.201.164","Mozilla/5.0 (Windows NT 10.0; Win64; x64) AppleWebKit/537.36 (KHTML, like Gecko) Chrome/138.0.0.0 Safari/537.36","WebKit","Chrome","138.0.0.0","Windows","10.0","https://app.prolific.com/","pl-PL,pl;q=0.9","5c39ed7a688b59000102a145","686d226cabeef709c732f8e1","686e3135e949f10d8c5d74c0","5c39ed7a688b59000102a145","2025-07-09T09:44:21.234Z","","","","","","ControlQ","","","","","","","","","","","","","","","","","","","","","","","","","","","","","","","","","","","","","","50"
"8183","","<div style=""width:500px;"">
  <p>How would you describe your current emotional state?</p>
  </div>","74","html-slider-response","57","1791933","0.0-10.0-3.3","184","1","2025-07-09 09:14:07","7701e855f2ef39aa3fd6c71abdc6918a","5.184.201.164","Mozilla/5.0 (Windows NT 10.0; Win64; x64) AppleWebKit/537.36 (KHTML, like Gecko) Chrome/138.0.0.0 Safari/537.36","WebKit","Chrome","138.0.0.0","Windows","10.0","https://app.prolific.com/","pl-PL,pl;q=0.9","5c39ed7a688b59000102a145","686d226cabeef709c732f8e1","686e3135e949f10d8c5d74c0","5c39ed7a688b59000102a145","2025-07-09T09:44:29.419Z","","","","","","StressQ","","","","","","","","","","","","","","","","","","","","","","","","","","","","","","","","","","","","","","50"
"3766","","<div style=""width:500px;"">
  <p>What best describes how you currently feel?</p>
  </div>","100","html-slider-response","58","1795704","0.0-10.0-4.3","184","1","2025-07-09 09:14:07","7701e855f2ef39aa3fd6c71abdc6918a","5.184.201.164","Mozilla/5.0 (Windows NT 10.0; Win64; x64) AppleWebKit/537.36 (KHTML, like Gecko) Chrome/138.0.0.0 Safari/537.36","WebKit","Chrome","138.0.0.0","Windows","10.0","https://app.prolific.com/","pl-PL,pl;q=0.9","5c39ed7a688b59000102a145","686d226cabeef709c732f8e1","686e3135e949f10d8c5d74c0","5c39ed7a688b59000102a145","2025-07-09T09:44:33.190Z","","","","","","MotivationQ","","","","","","","","","","","","","","","","","","","","","","","","","","","","","","","","","","","","","","50"
"","","","","ctl-task-cpt","59","1846566","0.0-10.0-0.4","184","1","2025-07-09 09:14:07","7701e855f2ef39aa3fd6c71abdc6918a","5.184.201.164","Mozilla/5.0 (Windows NT 10.0; Win64; x64) AppleWebKit/537.36 (KHTML, like Gecko) Chrome/138.0.0.0 Safari/537.36","WebKit","Chrome","138.0.0.0","Windows","10.0","https://app.prolific.com/","pl-PL,pl;q=0.9","5c39ed7a688b59000102a145","686d226cabeef709c732f8e1","686e3135e949f10d8c5d74c0","5c39ed7a688b59000102a145","2025-07-09T09:45:24.052Z","","","","","","","","","","","","","","","","win-only","2","g1:SE,g2:NW","0.6","5","0","1798246.9","1887.9","6898","47845","1","4","8","6","2","-8","-8","8","16","0.06060606060606061","1371.9","3000","-2005","[""left"",""up""]","{""num_key_presses"":8,""num_perfect"":5,""num_errors"":0,""num_randdir"":3,""num_randdir_good_moves"":1,""num_whilered"":0,""num_whileblue"":0,""num_blue"":4,""num_good_moves"":6}","[296.22232142857143,294.12857142857143,0.7,296.22232142857143,294.12857142857143,100.9,296.22232142857143,294.12857142857143,204.6,296.22232142857143,294.12857142857143,308.5,296.22232142857143,294.12857142857143,414.3,296.22232142857143,294.12857142857143,517,217.22232142857143,247.12857142857143,620.8,4.222321428571426,82.12857142857143,725.9,-20.777678571428574,39.128571428571426,833,-24.777678571428574,21.128571428571426,938.7,-26.777678571428574,14.128571428571426,1041.8,5.222321428571426,37.128571428571426,1142,33.222321428571426,51.128571428571426,1248.3,35.222321428571426,48.128571428571426,1350.3,35.222321428571426,48.128571428571426,1456,35.222321428571426,48.128571428571426,1557.1,35.222321428571426,48.128571428571426,1665.7,32.222321428571426,50.128571428571426,1769.1,31.222321428571426,50.128571428571426,1879,47.222321428571426,56.128571428571426,1981.7,47.222321428571426,56.128571428571426,2093.4,63.222321428571426,53.128571428571426,2194,63.222321428571426,53.128571428571426,2295.6,63.222321428571426,53.128571428571426,2396.3,63.222321428571426,53.128571428571426,2500.1,63.222321428571426,53.128571428571426,2602.9,63.222321428571426,53.128571428571426,2711.2,63.222321428571426,53.128571428571426,2812.8,63.222321428571426,53.128571428571426,2918.5,63.222321428571426,53.128571428571426,3023.6,77.22232142857143,60.128571428571426,3127.7,99.22232142857143,81.12857142857143,3234.8,99.22232142857143,83.12857142857143,3339,90.22232142857143,80.12857142857143,3445.3,90.22232142857143,80.12857142857143,3552.4,73.22232142857143,86.12857142857143,3652.8,58.222321428571426,88.12857142857143,3756.3,49.222321428571426,88.12857142857143,3857,49.222321428571426,88.12857142857143,3961,48.222321428571426,88.12857142857143,4061.8,48.222321428571426,88.12857142857143,4174.8,47.222321428571426,88.12857142857143,4275.7,47.222321428571426,88.12857142857143,4376.4,49.222321428571426,88.12857142857143,4476.9,67.22232142857143,88.12857142857143,4580,56.222321428571426,77.12857142857143,4680.6,54.222321428571426,76.12857142857143,4784.4,54.222321428571426,76.12857142857143,4885.4,54.222321428571426,76.12857142857143,4992.2]","[1461.7,1461.8,1000,0,461.8,""oops"",""left"",""right"",""bad_move"",8091.5,6628.8,2424.9,5150.1,516.6,""smooth"",""up"",""up"",""good_move"",14830.9,6738.2,2529.8,11802.9,498.3,""smooth"",""up"",""up"",""good_move"",20946.3,6115.1,2108.9,18236.4,601.1,""oops"",""left"",""left"",""good_move"",24560.5,3613.2,2917.2,20947.4,696,""smooth"",""left"",""left"",""good_move"",27426.7,2864.5,2325.6,24562.3,538.8,""smooth"",""left"",""left"",""good_move"",30689.5,3261.5,2777.2,27428,484.3,""smooth"",""left"",""left"",""good_move"",37511.9,6822,3030.9,33941,540,""oops"",""up"",""down"",""bad_move""]","",""
"14261","","<div style=""width:500px;"">
  <p>What determined the result of this run?</p>
  </div>","27","html-slider-response","60","1860831","0.0-10.0-1.4","184","1","2025-07-09 09:14:07","7701e855f2ef39aa3fd6c71abdc6918a","5.184.201.164","Mozilla/5.0 (Windows NT 10.0; Win64; x64) AppleWebKit/537.36 (KHTML, like Gecko) Chrome/138.0.0.0 Safari/537.36","WebKit","Chrome","138.0.0.0","Windows","10.0","https://app.prolific.com/","pl-PL,pl;q=0.9","5c39ed7a688b59000102a145","686d226cabeef709c732f8e1","686e3135e949f10d8c5d74c0","5c39ed7a688b59000102a145","2025-07-09T09:45:38.318Z","","","","","","AttribQ","","","","","","","","","","","","","","","","","","","","","","","","","","","","","","","","","","","","","","50"
"20390","","<div style=""width:500px;"">
  <p>How much control did you have over the ball?</p>
  </div>","37","html-slider-response","61","1881226","0.0-10.0-2.4","184","1","2025-07-09 09:14:07","7701e855f2ef39aa3fd6c71abdc6918a","5.184.201.164","Mozilla/5.0 (Windows NT 10.0; Win64; x64) AppleWebKit/537.36 (KHTML, like Gecko) Chrome/138.0.0.0 Safari/537.36","WebKit","Chrome","138.0.0.0","Windows","10.0","https://app.prolific.com/","pl-PL,pl;q=0.9","5c39ed7a688b59000102a145","686d226cabeef709c732f8e1","686e3135e949f10d8c5d74c0","5c39ed7a688b59000102a145","2025-07-09T09:45:58.712Z","","","","","","ControlQ","","","","","","","","","","","","","","","","","","","","","","","","","","","","","","","","","","","","","","50"
"2461","","<div style=""width:500px;"">
  <p>How would you describe your current emotional state?</p>
  </div>","72","html-slider-response","62","1883691","0.0-10.0-3.4","184","1","2025-07-09 09:14:07","7701e855f2ef39aa3fd6c71abdc6918a","5.184.201.164","Mozilla/5.0 (Windows NT 10.0; Win64; x64) AppleWebKit/537.36 (KHTML, like Gecko) Chrome/138.0.0.0 Safari/537.36","WebKit","Chrome","138.0.0.0","Windows","10.0","https://app.prolific.com/","pl-PL,pl;q=0.9","5c39ed7a688b59000102a145","686d226cabeef709c732f8e1","686e3135e949f10d8c5d74c0","5c39ed7a688b59000102a145","2025-07-09T09:46:01.177Z","","","","","","StressQ","","","","","","","","","","","","","","","","","","","","","","","","","","","","","","","","","","","","","","50"
"2493","","<div style=""width:500px;"">
  <p>What best describes how you currently feel?</p>
  </div>","70","html-slider-response","63","1886187","0.0-10.0-4.4","184","1","2025-07-09 09:14:07","7701e855f2ef39aa3fd6c71abdc6918a","5.184.201.164","Mozilla/5.0 (Windows NT 10.0; Win64; x64) AppleWebKit/537.36 (KHTML, like Gecko) Chrome/138.0.0.0 Safari/537.36","WebKit","Chrome","138.0.0.0","Windows","10.0","https://app.prolific.com/","pl-PL,pl;q=0.9","5c39ed7a688b59000102a145","686d226cabeef709c732f8e1","686e3135e949f10d8c5d74c0","5c39ed7a688b59000102a145","2025-07-09T09:46:03.673Z","","","","","","MotivationQ","","","","","","","","","","","","","","","","","","","","","","","","","","","","","","","","","","","","","","50"
"","","","","ctl-task-cpt","64","1939317","0.0-10.0-0.5","184","1","2025-07-09 09:14:07","7701e855f2ef39aa3fd6c71abdc6918a","5.184.201.164","Mozilla/5.0 (Windows NT 10.0; Win64; x64) AppleWebKit/537.36 (KHTML, like Gecko) Chrome/138.0.0.0 Safari/537.36","WebKit","Chrome","138.0.0.0","Windows","10.0","https://app.prolific.com/","pl-PL,pl;q=0.9","5c39ed7a688b59000102a145","686d226cabeef709c732f8e1","686e3135e949f10d8c5d74c0","5c39ed7a688b59000102a145","2025-07-09T09:46:56.803Z","","","","","","","","","","","","","","","","win-only","0","g1:NW,g2:SE","0.5","6","0","1888729","3444.5","8446.1","50112.2","1","4","4","6","2","-4","-4","4","8","0.030303030303030304","1536.3","3000","-2080","[""down"",""right""]","{""num_key_presses"":7,""num_perfect"":4,""num_errors"":0,""num_randdir"":3,""num_randdir_good_moves"":2,""num_whilered"":0,""num_whileblue"":0,""num_blue"":5,""num_good_moves"":6}","[294.22232142857143,297.12857142857143,0.6,294.22232142857143,297.12857142857143,105.6,294.22232142857143,297.12857142857143,208.8,294.22232142857143,297.12857142857143,311.1,294.22232142857143,297.12857142857143,415.9,288.22232142857143,299.12857142857143,521.7,285.22232142857143,304.12857142857143,622,285.22232142857143,305.12857142857143,734.6,288.22232142857143,315.12857142857143,837.6,406.22232142857143,465.12857142857143,938.5,514.2223214285714,530.1285714285714,1040.9,535.2223214285714,529.1285714285714,1152.8,541.2223214285714,524.1285714285714,1256.1,554.2223214285714,526.1285714285714,1357.3,552.2223214285714,528.1285714285714,1459.1,549.2223214285714,530.1285714285714,1565.8,549.2223214285714,530.1285714285714,1668,549.2223214285714,530.1285714285714,1769.1,549.2223214285714,530.1285714285714,1871,549.2223214285714,530.1285714285714,1971.5,549.2223214285714,530.1285714285714,2074.6,549.2223214285714,530.1285714285714,2176.3,546.2223214285714,530.1285714285714,2279.7,545.2223214285714,530.1285714285714,2382.7,545.2223214285714,530.1285714285714,2485.6,545.2223214285714,530.1285714285714,2593.3,545.2223214285714,530.1285714285714,2706.3,545.2223214285714,530.1285714285714,2812.7,545.2223214285714,530.1285714285714,2919.7,545.2223214285714,530.1285714285714,3032.9,545.2223214285714,530.1285714285714,3138.3,545.2223214285714,530.1285714285714,3239.5,545.2223214285714,530.1285714285714,3352.4,545.2223214285714,530.1285714285714,3453.1,545.2223214285714,530.1285714285714,3563.3,545.2223214285714,530.1285714285714,3664.9,545.2223214285714,530.1285714285714,3766,545.2223214285714,530.1285714285714,3867.7,545.2223214285714,530.1285714285714,3968.5,545.2223214285714,530.1285714285714,4076.4,545.2223214285714,530.1285714285714,4178.9,545.2223214285714,530.1285714285714,4281.9,545.2223214285714,530.1285714285714,4382.2,545.2223214285714,530.1285714285714,4489.9,545.2223214285714,530.1285714285714,4602.7,545.2223214285714,530.1285714285714,4703.5,545.2223214285714,530.1285714285714,4815.9,545.2223214285714,530.1285714285714,4919.6]","[1398.9,1399,1000,0,399,""oops"",""down"",""left"",""bad_move"",9230.6,7830.8,3085.8,5695.3,449.5,""smooth"",""down"",""down"",""good_move"",15996.5,6764.6,2695.1,12844.4,457,""smooth"",""down"",""down"",""good_move"",19708.2,3711.4,2732.8,15996.8,978.6,""smooth"",""right"",""right"",""good_move"",22771.4,3061.6,2586.3,19709.8,475.3,""smooth"",""right"",""right"",""good_move"",29348.8,6577.1,2519.8,26340.5,488.6,""oops"",""right"",""down"",""good_move"",31927,2576.3,1782.7,29350.7,793.6,""oops"",""right"",""right"",""good_move""]","",""
"4284","","<div style=""width:500px;"">
  <p>What determined the result of this run?</p>
  </div>","35","html-slider-response","65","1943604","0.0-10.0-1.5","184","1","2025-07-09 09:14:07","7701e855f2ef39aa3fd6c71abdc6918a","5.184.201.164","Mozilla/5.0 (Windows NT 10.0; Win64; x64) AppleWebKit/537.36 (KHTML, like Gecko) Chrome/138.0.0.0 Safari/537.36","WebKit","Chrome","138.0.0.0","Windows","10.0","https://app.prolific.com/","pl-PL,pl;q=0.9","5c39ed7a688b59000102a145","686d226cabeef709c732f8e1","686e3135e949f10d8c5d74c0","5c39ed7a688b59000102a145","2025-07-09T09:47:01.090Z","","","","","","AttribQ","","","","","","","","","","","","","","","","","","","","","","","","","","","","","","","","","","","","","","50"
"1660","","<div style=""width:500px;"">
  <p>How much control did you have over the ball?</p>
  </div>","33","html-slider-response","66","1945267","0.0-10.0-2.5","184","1","2025-07-09 09:14:07","7701e855f2ef39aa3fd6c71abdc6918a","5.184.201.164","Mozilla/5.0 (Windows NT 10.0; Win64; x64) AppleWebKit/537.36 (KHTML, like Gecko) Chrome/138.0.0.0 Safari/537.36","WebKit","Chrome","138.0.0.0","Windows","10.0","https://app.prolific.com/","pl-PL,pl;q=0.9","5c39ed7a688b59000102a145","686d226cabeef709c732f8e1","686e3135e949f10d8c5d74c0","5c39ed7a688b59000102a145","2025-07-09T09:47:02.753Z","","","","","","ControlQ","","","","","","","","","","","","","","","","","","","","","","","","","","","","","","","","","","","","","","50"
"1627","","<div style=""width:500px;"">
  <p>How would you describe your current emotional state?</p>
  </div>","39","html-slider-response","67","1946897","0.0-10.0-3.5","184","1","2025-07-09 09:14:07","7701e855f2ef39aa3fd6c71abdc6918a","5.184.201.164","Mozilla/5.0 (Windows NT 10.0; Win64; x64) AppleWebKit/537.36 (KHTML, like Gecko) Chrome/138.0.0.0 Safari/537.36","WebKit","Chrome","138.0.0.0","Windows","10.0","https://app.prolific.com/","pl-PL,pl;q=0.9","5c39ed7a688b59000102a145","686d226cabeef709c732f8e1","686e3135e949f10d8c5d74c0","5c39ed7a688b59000102a145","2025-07-09T09:47:04.383Z","","","","","","StressQ","","","","","","","","","","","","","","","","","","","","","","","","","","","","","","","","","","","","","","50"
"1818","","<div style=""width:500px;"">
  <p>What best describes how you currently feel?</p>
  </div>","61","html-slider-response","68","1948719","0.0-10.0-4.5","184","1","2025-07-09 09:14:07","7701e855f2ef39aa3fd6c71abdc6918a","5.184.201.164","Mozilla/5.0 (Windows NT 10.0; Win64; x64) AppleWebKit/537.36 (KHTML, like Gecko) Chrome/138.0.0.0 Safari/537.36","WebKit","Chrome","138.0.0.0","Windows","10.0","https://app.prolific.com/","pl-PL,pl;q=0.9","5c39ed7a688b59000102a145","686d226cabeef709c732f8e1","686e3135e949f10d8c5d74c0","5c39ed7a688b59000102a145","2025-07-09T09:47:06.205Z","","","","","","MotivationQ","","","","","","","","","","","","","","","","","","","","","","","","","","","","","","","","","","","","","","50"
"","","","","ctl-task-cpt","69","1995072","0.0-10.0-0.6","184","1","2025-07-09 09:14:07","7701e855f2ef39aa3fd6c71abdc6918a","5.184.201.164","Mozilla/5.0 (Windows NT 10.0; Win64; x64) AppleWebKit/537.36 (KHTML, like Gecko) Chrome/138.0.0.0 Safari/537.36","WebKit","Chrome","138.0.0.0","Windows","10.0","https://app.prolific.com/","pl-PL,pl;q=0.9","5c39ed7a688b59000102a145","686d226cabeef709c732f8e1","686e3135e949f10d8c5d74c0","5c39ed7a688b59000102a145","2025-07-09T09:47:52.558Z","","","","","","","","","","","","","","","","win-only","1","g1:NE,g2:SW","0.4","7","0","1951262.4","3184","8187.6","43326.4","1","4","8","6","2","8","8","12","4","0.09090909090909091","2330","3000","660","[""down"",""left""]","{""num_key_presses"":8,""num_perfect"":4,""num_errors"":0,""num_randdir"":4,""num_randdir_good_moves"":3,""num_whilered"":0,""num_whileblue"":0,""num_blue"":3,""num_good_moves"":7}","[289.22232142857143,297.12857142857143,0.5,289.22232142857143,297.12857142857143,108.6,289.22232142857143,297.12857142857143,213.1,289.22232142857143,302.12857142857143,323,291.22232142857143,340.12857142857143,431.4,286.22232142857143,384.12857142857143,539.3,283.22232142857143,390.12857142857143,640,283.22232142857143,392.12857142857143,745.1,283.22232142857143,392.12857142857143,855.4,283.22232142857143,392.12857142857143,964.3,211.22232142857143,421.12857142857143,1081.9,202.22232142857143,425.12857142857143,1184.2,107.22232142857143,512.1285714285714,1293.3,28.222321428571426,563.1285714285714,1400.1,-29.777678571428574,570.1285714285714,1501.2,-88.77767857142857,579.1285714285714,1605.9,-92.77767857142857,579.1285714285714,1712,-85.77767857142857,573.1285714285714,1816.2,-45.777678571428574,568.1285714285714,1916.2,5.222321428571426,568.1285714285714,2020.9,9.222321428571426,564.1285714285714,2127.6,21.222321428571426,562.1285714285714,2236.7,23.222321428571426,562.1285714285714,2336.8,23.222321428571426,561.1285714285714,2448.2,24.222321428571426,561.1285714285714,2554.1,24.222321428571426,561.1285714285714,2663,24.222321428571426,561.1285714285714,2771.3,69.22232142857143,559.1285714285714,2872.3,86.22232142857143,558.1285714285714,2985.6,87.22232142857143,558.1285714285714,3086,87.22232142857143,558.1285714285714,3187.6,87.22232142857143,558.1285714285714,3291.7,87.22232142857143,558.1285714285714,3393.3,87.22232142857143,558.1285714285714,3499.7,87.22232142857143,558.1285714285714,3614.6,87.22232142857143,558.1285714285714,3725.7,87.22232142857143,558.1285714285714,3828.9,87.22232142857143,558.1285714285714,3937.2,87.22232142857143,558.1285714285714,4040.9,87.22232142857143,558.1285714285714,4141.3,87.22232142857143,558.1285714285714,4244.1,87.22232142857143,558.1285714285714,4351.3,87.22232142857143,558.1285714285714,4464.9,87.22232142857143,558.1285714285714,4570.3,87.22232142857143,558.1285714285714,4678,87.22232142857143,558.1285714285714,4784.5,87.22232142857143,558.1285714285714,4890,87.22232142857143,558.1285714285714,4991.8]","[1525.4,1525.5,1000,0,525.5,""smooth"",""down"",""down"",""good_move"",5060.6,3533.9,3071.3,1526.7,462.6,""oops"",""left"",""down"",""good_move"",8109.8,3048.9,2552,5061,496.9,""oops"",""left"",""left"",""good_move"",10644.1,2532.4,2037.4,8111.7,495,""oops"",""left"",""up"",""bad_move"",13869.1,3223.1,2744.7,10646,478.4,""oops"",""down"",""down"",""good_move"",17297.5,3427.5,3052.9,13870.1,374.6,""smooth"",""down"",""down"",""good_move"",27498.7,10199,2198,24790.8,510,""smooth"",""left"",""left"",""good_move"",34951.9,7451.4,2818.5,31519.1,614.3,""smooth"",""left"",""left"",""good_move""]","",""
"2821","","<div style=""width:500px;"">
  <p>What determined the result of this run?</p>
  </div>","88","html-slider-response","70","1997896","0.0-10.0-1.6","184","1","2025-07-09 09:14:07","7701e855f2ef39aa3fd6c71abdc6918a","5.184.201.164","Mozilla/5.0 (Windows NT 10.0; Win64; x64) AppleWebKit/537.36 (KHTML, like Gecko) Chrome/138.0.0.0 Safari/537.36","WebKit","Chrome","138.0.0.0","Windows","10.0","https://app.prolific.com/","pl-PL,pl;q=0.9","5c39ed7a688b59000102a145","686d226cabeef709c732f8e1","686e3135e949f10d8c5d74c0","5c39ed7a688b59000102a145","2025-07-09T09:47:55.382Z","","","","","","AttribQ","","","","","","","","","","","","","","","","","","","","","","","","","","","","","","","","","","","","","","50"
"1695","","<div style=""width:500px;"">
  <p>How much control did you have over the ball?</p>
  </div>","94","html-slider-response","71","1999594","0.0-10.0-2.6","184","1","2025-07-09 09:14:07","7701e855f2ef39aa3fd6c71abdc6918a","5.184.201.164","Mozilla/5.0 (Windows NT 10.0; Win64; x64) AppleWebKit/537.36 (KHTML, like Gecko) Chrome/138.0.0.0 Safari/537.36","WebKit","Chrome","138.0.0.0","Windows","10.0","https://app.prolific.com/","pl-PL,pl;q=0.9","5c39ed7a688b59000102a145","686d226cabeef709c732f8e1","686e3135e949f10d8c5d74c0","5c39ed7a688b59000102a145","2025-07-09T09:47:57.081Z","","","","","","ControlQ","","","","","","","","","","","","","","","","","","","","","","","","","","","","","","","","","","","","","","50"
"2451","","<div style=""width:500px;"">
  <p>How would you describe your current emotional state?</p>
  </div>","86","html-slider-response","72","2002050","0.0-10.0-3.6","184","1","2025-07-09 09:14:07","7701e855f2ef39aa3fd6c71abdc6918a","5.184.201.164","Mozilla/5.0 (Windows NT 10.0; Win64; x64) AppleWebKit/537.36 (KHTML, like Gecko) Chrome/138.0.0.0 Safari/537.36","WebKit","Chrome","138.0.0.0","Windows","10.0","https://app.prolific.com/","pl-PL,pl;q=0.9","5c39ed7a688b59000102a145","686d226cabeef709c732f8e1","686e3135e949f10d8c5d74c0","5c39ed7a688b59000102a145","2025-07-09T09:47:59.537Z","","","","","","StressQ","","","","","","","","","","","","","","","","","","","","","","","","","","","","","","","","","","","","","","50"
"2511","","<div style=""width:500px;"">
  <p>What best describes how you currently feel?</p>
  </div>","95","html-slider-response","73","2004566","0.0-10.0-4.6","184","1","2025-07-09 09:14:07","7701e855f2ef39aa3fd6c71abdc6918a","5.184.201.164","Mozilla/5.0 (Windows NT 10.0; Win64; x64) AppleWebKit/537.36 (KHTML, like Gecko) Chrome/138.0.0.0 Safari/537.36","WebKit","Chrome","138.0.0.0","Windows","10.0","https://app.prolific.com/","pl-PL,pl;q=0.9","5c39ed7a688b59000102a145","686d226cabeef709c732f8e1","686e3135e949f10d8c5d74c0","5c39ed7a688b59000102a145","2025-07-09T09:48:02.052Z","","","","","","MotivationQ","","","","","","","","","","","","","","","","","","","","","","","","","","","","","","","","","","","","","","50"
"","","","","ctl-task-cpt","74","2059353","0.0-10.0-0.7","184","1","2025-07-09 09:14:07","7701e855f2ef39aa3fd6c71abdc6918a","5.184.201.164","Mozilla/5.0 (Windows NT 10.0; Win64; x64) AppleWebKit/537.36 (KHTML, like Gecko) Chrome/138.0.0.0 Safari/537.36","WebKit","Chrome","138.0.0.0","Windows","10.0","https://app.prolific.com/","pl-PL,pl;q=0.9","5c39ed7a688b59000102a145","686d226cabeef709c732f8e1","686e3135e949f10d8c5d74c0","5c39ed7a688b59000102a145","2025-07-09T09:48:56.840Z","","","","","","","","","","","","","","","","win-only","0","g1:NW,g2:SE","0.3","8","0","2007109.3","1800.3","6802.4","51758.9","1","4","4","6","2","-4","-6","6","12","0.045454545454545456","2218.7","3000","-1495","[""down"",""right""]","{""num_key_presses"":11,""num_perfect"":3,""num_errors"":2,""num_randdir"":6,""num_randdir_good_moves"":4,""num_whilered"":0,""num_whileblue"":2,""num_blue"":5,""num_good_moves"":7}","[291.22232142857143,294.12857142857143,0.3,291.22232142857143,294.12857142857143,102.2,291.22232142857143,294.12857142857143,202.7,291.22232142857143,294.12857142857143,313.8,285.22232142857143,294.12857142857143,422.5,269.22232142857143,307.12857142857143,533.6,269.22232142857143,307.12857142857143,638.1,269.22232142857143,307.12857142857143,745.4,270.22232142857143,307.12857142857143,845.7,249.22232142857143,305.12857142857143,950.5,259.22232142857143,307.12857142857143,1054.8,431.22232142857143,533.1285714285714,1156.5,499.22232142857143,528.1285714285714,1265.2,505.22232142857143,502.12857142857143,1368.7,513.2223214285714,499.12857142857143,1472,510.22232142857143,502.12857142857143,1575.6,520.2223214285714,517.1285714285714,1680.9,532.2223214285714,521.1285714285714,1790.5,540.2223214285714,524.1285714285714,1890.5,540.2223214285714,524.1285714285714,1996,540.2223214285714,524.1285714285714,2101.6,540.2223214285714,524.1285714285714,2204.4,540.2223214285714,524.1285714285714,2320.6,540.2223214285714,524.1285714285714,2424.3,540.2223214285714,524.1285714285714,2533.3,540.2223214285714,524.1285714285714,2637.8,540.2223214285714,524.1285714285714,2742.5,540.2223214285714,526.1285714285714,2852,537.2223214285714,526.1285714285714,2956.1,522.2223214285714,522.1285714285714,3058.8,456.22232142857143,498.12857142857143,3160.7,449.22232142857143,489.12857142857143,3271.6,449.22232142857143,489.12857142857143,3376.8,448.22232142857143,486.12857142857143,3486,447.22232142857143,482.12857142857143,3589.8,446.22232142857143,480.12857142857143,3693.8,446.22232142857143,480.12857142857143,3796.6,446.22232142857143,478.12857142857143,3901.5,446.22232142857143,478.12857142857143,4006.6,442.22232142857143,471.12857142857143,4114.1,436.22232142857143,464.12857142857143,4215.7,425.22232142857143,455.12857142857143,4322.8,425.22232142857143,455.12857142857143,4423.6,425.22232142857143,455.12857142857143,4531.3,423.22232142857143,457.12857142857143,4640.1,413.22232142857143,466.12857142857143,4746.6,407.22232142857143,469.12857142857143,4855.5,407.22232142857143,469.12857142857143,4959.2]","[1474.9,1474.9,1000,0,474.9,""oops"",""down"",""left"",""bad_move"",4249.3,2772.5,2396,1476.9,376.5,""while_blue"",""right"",""up"",""bad_move"",7576.7,3326.7,2743,4250.2,583.6,""smooth"",""right"",""right"",""good_move"",10839.4,3262.1,2768.9,7577.3,493.2,""oops"",""right"",""right"",""good_move"",13867.7,3026.3,2240.8,10841.5,785.4,""oops"",""down"",""down"",""good_move"",22083.3,8213.6,3057.7,18552.8,472.8,""smooth"",""down"",""down"",""good_move"",28715.4,6631.8,2469,25593.6,652.8,""smooth"",""down"",""down"",""good_move"",34706.4,5990.5,2269.6,32017.3,419.5,""oops"",""right"",""down"",""good_move"",36896.8,2189.4,1625.1,34707.5,564.2,""oops"",""right"",""right"",""good_move"",39998.8,3100.6,2749.2,36898.2,351.4,""oops"",""right"",""left"",""bad_move"",42620.4,2620.6,2219.8,39999.8,400.8,""while_blue"",""right"",""left"",""bad_move""]","",""
"3494","","<div style=""width:500px;"">
  <p>What determined the result of this run?</p>
  </div>","29","html-slider-response","75","2062851","0.0-10.0-1.7","184","1","2025-07-09 09:14:07","7701e855f2ef39aa3fd6c71abdc6918a","5.184.201.164","Mozilla/5.0 (Windows NT 10.0; Win64; x64) AppleWebKit/537.36 (KHTML, like Gecko) Chrome/138.0.0.0 Safari/537.36","WebKit","Chrome","138.0.0.0","Windows","10.0","https://app.prolific.com/","pl-PL,pl;q=0.9","5c39ed7a688b59000102a145","686d226cabeef709c732f8e1","686e3135e949f10d8c5d74c0","5c39ed7a688b59000102a145","2025-07-09T09:49:00.338Z","","","","","","AttribQ","","","","","","","","","","","","","","","","","","","","","","","","","","","","","","","","","","","","","","50"
"11308","","<div style=""width:500px;"">
  <p>How much control did you have over the ball?</p>
  </div>","22","html-slider-response","76","2074165","0.0-10.0-2.7","184","1","2025-07-09 09:14:07","7701e855f2ef39aa3fd6c71abdc6918a","5.184.201.164","Mozilla/5.0 (Windows NT 10.0; Win64; x64) AppleWebKit/537.36 (KHTML, like Gecko) Chrome/138.0.0.0 Safari/537.36","WebKit","Chrome","138.0.0.0","Windows","10.0","https://app.prolific.com/","pl-PL,pl;q=0.9","5c39ed7a688b59000102a145","686d226cabeef709c732f8e1","686e3135e949f10d8c5d74c0","5c39ed7a688b59000102a145","2025-07-09T09:49:11.651Z","","","","","","ControlQ","","","","","","","","","","","","","","","","","","","","","","","","","","","","","","","","","","","","","","50"
"12846","","<div style=""width:500px;"">
  <p>How would you describe your current emotional state?</p>
  </div>","90","html-slider-response","77","2087015","0.0-10.0-3.7","184","1","2025-07-09 09:14:07","7701e855f2ef39aa3fd6c71abdc6918a","5.184.201.164","Mozilla/5.0 (Windows NT 10.0; Win64; x64) AppleWebKit/537.36 (KHTML, like Gecko) Chrome/138.0.0.0 Safari/537.36","WebKit","Chrome","138.0.0.0","Windows","10.0","https://app.prolific.com/","pl-PL,pl;q=0.9","5c39ed7a688b59000102a145","686d226cabeef709c732f8e1","686e3135e949f10d8c5d74c0","5c39ed7a688b59000102a145","2025-07-09T09:49:24.501Z","","","","","","StressQ","","","","","","","","","","","","","","","","","","","","","","","","","","","","","","","","","","","","","","50"
"10199","","<div style=""width:500px;"">
  <p>What best describes how you currently feel?</p>
  </div>","95","html-slider-response","78","2097218","0.0-10.0-4.7","184","1","2025-07-09 09:14:07","7701e855f2ef39aa3fd6c71abdc6918a","5.184.201.164","Mozilla/5.0 (Windows NT 10.0; Win64; x64) AppleWebKit/537.36 (KHTML, like Gecko) Chrome/138.0.0.0 Safari/537.36","WebKit","Chrome","138.0.0.0","Windows","10.0","https://app.prolific.com/","pl-PL,pl;q=0.9","5c39ed7a688b59000102a145","686d226cabeef709c732f8e1","686e3135e949f10d8c5d74c0","5c39ed7a688b59000102a145","2025-07-09T09:49:34.704Z","","","","","","MotivationQ","","","","","","","","","","","","","","","","","","","","","","","","","","","","","","","","","","","","","","50"
"","","","","ctl-task-cpt","79","2148555","0.0-10.0-0.8","184","1","2025-07-09 09:14:07","7701e855f2ef39aa3fd6c71abdc6918a","5.184.201.164","Mozilla/5.0 (Windows NT 10.0; Win64; x64) AppleWebKit/537.36 (KHTML, like Gecko) Chrome/138.0.0.0 Safari/537.36","WebKit","Chrome","138.0.0.0","Windows","10.0","https://app.prolific.com/","pl-PL,pl;q=0.9","5c39ed7a688b59000102a145","686d226cabeef709c732f8e1","686e3135e949f10d8c5d74c0","5c39ed7a688b59000102a145","2025-07-09T09:50:26.041Z","","","","","","","","","","","","","","","","win-only","1","g1:NE,g2:SW","0.2","9","0","2099760.6","6430.6","11435.3","48319.4","1","4","8","6","2","-8","-8","0","6","0","1362.1","3000","-1290","[""down"",""left""]","{""num_key_presses"":11,""num_perfect"":2,""num_errors"":0,""num_randdir"":9,""num_randdir_good_moves"":5,""num_whilered"":0,""num_whileblue"":0,""num_blue"":1,""num_good_moves"":7}","[294.22232142857143,294.12857142857143,1.1,294.22232142857143,294.12857142857143,103.7,294.22232142857143,294.12857142857143,203.9,294.22232142857143,294.12857142857143,311.1,294.22232142857143,294.12857142857143,417.1,294.22232142857143,294.12857142857143,521.5,293.22232142857143,294.12857142857143,622.9,357.22232142857143,258.12857142857143,730.5,294.22232142857143,283.12857142857143,831.9,77.22232142857143,532.1285714285714,936.5,51.222321428571426,554.1285714285714,1037,40.222321428571426,550.1285714285714,1142.2,41.222321428571426,539.1285714285714,1254.3,44.222321428571426,530.1285714285714,1370.7,44.222321428571426,530.1285714285714,1502.2,44.222321428571426,530.1285714285714,1610.6,44.222321428571426,530.1285714285714,1717.5,44.222321428571426,530.1285714285714,1819.7,44.222321428571426,530.1285714285714,1922.8,44.222321428571426,529.1285714285714,2025.3,44.222321428571426,525.1285714285714,2126.3,45.222321428571426,522.1285714285714,2229.9,46.222321428571426,519.1285714285714,2334.2,48.222321428571426,516.1285714285714,2437.7,48.222321428571426,516.1285714285714,2538.7,48.222321428571426,516.1285714285714,2646.6,48.222321428571426,516.1285714285714,2752,48.222321428571426,516.1285714285714,2856.9,48.222321428571426,516.1285714285714,2962.9,48.222321428571426,516.1285714285714,3069.9,48.222321428571426,516.1285714285714,3172.4,48.222321428571426,516.1285714285714,3281.4,48.222321428571426,516.1285714285714,3390.6,48.222321428571426,516.1285714285714,3495.9,48.222321428571426,516.1285714285714,3599.5,48.222321428571426,516.1285714285714,3700.6,48.222321428571426,516.1285714285714,3821.9,48.222321428571426,516.1285714285714,3923.3,48.222321428571426,516.1285714285714,4024.5,6.222321428571426,533.1285714285714,4124.9,6.222321428571426,533.1285714285714,4225.6,6.222321428571426,534.1285714285714,4340,6.222321428571426,534.1285714285714,4452.4,6.222321428571426,534.1285714285714,4559,6.222321428571426,534.1285714285714,4664.4,6.222321428571426,534.1285714285714,4774.2,6.222321428571426,534.1285714285714,4875.1,6.222321428571426,534.1285714285714,4980]","[1449.2,1449.2,1000,0,449.2,""oops"",""down"",""down"",""good_move"",4781.6,3331.5,2881.1,1450.1,450.4,""smooth"",""down"",""down"",""good_move"",7616.1,2833.6,2348.4,4782.5,485.2,""smooth"",""down"",""down"",""good_move"",14590.9,6972.6,2681.7,11482.6,426.6,""oops"",""left"",""right"",""bad_move"",17171.2,2579.1,2053,14592.2,526,""oops"",""left"",""up"",""bad_move"",20455.8,3282.5,2715.3,17173.4,567.1,""oops"",""left"",""left"",""good_move"",23499.9,3042.5,2563.8,20457.4,478.7,""oops"",""left"",""down"",""good_move"",25928.9,2426.5,1941.4,23502.5,485.1,""oops"",""left"",""up"",""bad_move"",28608.6,2677.2,2283.8,25931.4,393.4,""oops"",""left"",""down"",""good_move"",31249.7,2637.4,2169.8,28612.3,467.6,""oops"",""left"",""left"",""good_move"",34520.2,3269.1,2864.7,31251.1,404.4,""oops"",""left"",""up"",""bad_move""]","",""
"10248","","<div style=""width:500px;"">
  <p>What determined the result of this run?</p>
  </div>","16","html-slider-response","80","2158806","0.0-10.0-1.8","184","1","2025-07-09 09:14:07","7701e855f2ef39aa3fd6c71abdc6918a","5.184.201.164","Mozilla/5.0 (Windows NT 10.0; Win64; x64) AppleWebKit/537.36 (KHTML, like Gecko) Chrome/138.0.0.0 Safari/537.36","WebKit","Chrome","138.0.0.0","Windows","10.0","https://app.prolific.com/","pl-PL,pl;q=0.9","5c39ed7a688b59000102a145","686d226cabeef709c732f8e1","686e3135e949f10d8c5d74c0","5c39ed7a688b59000102a145","2025-07-09T09:50:36.292Z","","","","","","AttribQ","","","","","","","","","","","","","","","","","","","","","","","","","","","","","","","","","","","","","","50"
"3662","","<div style=""width:500px;"">
  <p>How much control did you have over the ball?</p>
  </div>","1","html-slider-response","81","2162472","0.0-10.0-2.8","184","1","2025-07-09 09:14:07","7701e855f2ef39aa3fd6c71abdc6918a","5.184.201.164","Mozilla/5.0 (Windows NT 10.0; Win64; x64) AppleWebKit/537.36 (KHTML, like Gecko) Chrome/138.0.0.0 Safari/537.36","WebKit","Chrome","138.0.0.0","Windows","10.0","https://app.prolific.com/","pl-PL,pl;q=0.9","5c39ed7a688b59000102a145","686d226cabeef709c732f8e1","686e3135e949f10d8c5d74c0","5c39ed7a688b59000102a145","2025-07-09T09:50:39.958Z","","","","","","ControlQ","","","","","","","","","","","","","","","","","","","","","","","","","","","","","","","","","","","","","","50"
"6266","","<div style=""width:500px;"">
  <p>How would you describe your current emotional state?</p>
  </div>","68","html-slider-response","82","2168743","0.0-10.0-3.8","184","1","2025-07-09 09:14:07","7701e855f2ef39aa3fd6c71abdc6918a","5.184.201.164","Mozilla/5.0 (Windows NT 10.0; Win64; x64) AppleWebKit/537.36 (KHTML, like Gecko) Chrome/138.0.0.0 Safari/537.36","WebKit","Chrome","138.0.0.0","Windows","10.0","https://app.prolific.com/","pl-PL,pl;q=0.9","5c39ed7a688b59000102a145","686d226cabeef709c732f8e1","686e3135e949f10d8c5d74c0","5c39ed7a688b59000102a145","2025-07-09T09:50:46.229Z","","","","","","StressQ","","","","","","","","","","","","","","","","","","","","","","","","","","","","","","","","","","","","","","50"
"6190","","<div style=""width:500px;"">
  <p>What best describes how you currently feel?</p>
  </div>","92","html-slider-response","83","2174937","0.0-10.0-4.8","184","1","2025-07-09 09:14:07","7701e855f2ef39aa3fd6c71abdc6918a","5.184.201.164","Mozilla/5.0 (Windows NT 10.0; Win64; x64) AppleWebKit/537.36 (KHTML, like Gecko) Chrome/138.0.0.0 Safari/537.36","WebKit","Chrome","138.0.0.0","Windows","10.0","https://app.prolific.com/","pl-PL,pl;q=0.9","5c39ed7a688b59000102a145","686d226cabeef709c732f8e1","686e3135e949f10d8c5d74c0","5c39ed7a688b59000102a145","2025-07-09T09:50:52.423Z","","","","","","MotivationQ","","","","","","","","","","","","","","","","","","","","","","","","","","","","","","","","","","","","","","50"
