"rt","response_timestamp","stimulus","response","trial_type","trial_index","time_elapsed","internal_node_id","run_id","condition","recorded_at","source_code_version","ip","user_agent","device","browser","browser_version","platform","platform_version","referer","accept_language","PROLIFIC_PID","STUDY_ID","SESSION_ID","prolific_id","realtime","view_history","question_order","consent","success","question_id","eventType","responses","item_order","radio_event_ids","radio_event_times","key_event_times","mouse_event_times","straightlining","zigzagging","honeypot","which_type","canvas_config","goals_layout","control_level","trial_number","tutorial_trial_number","trial_start_time","phase1_start_time","phase2_start_time","phase3_start_time","goal_1_value","goal_1_distance","goal_2_value","goal_2_distance","goal_selected","outcome","outcome_total","participant_final_score","participant_initial_score","participant_final_score_prop","goal_choice_rt","allocated_time","allocated_time_remaining","goal_direction","counts","mouse_movements","key_presses","correct","slider_start","sub_question"
"10125","1752052149996","<p style='font-size:40px;line-height:1.25'><strong>Welcome to the experiment!</strong></p><p style='font-size:1.1em;line-height:1.25'>Thank you for your interest in our experiment! Before you begin, it is important that we obtain your informed consent to participate in the study.</p><p style='font-size:1.1em;line-height:1.25'>On the next screen will be an <strong>information sheet</strong> for you to read. To participate in the study we need you to read this information sheet and the following consent form carefully. If you agree with all the statements, please click the <strong>I agree</strong> button.</p><p style='font-size:1.1em;line-height:1.25'>Press <strong>Next</strong> to read the information sheet.</p>","0","custom-html-button-response","0","10128","0.0-0.0","132","1","2025-07-09 09:08:56","7701e855f2ef39aa3fd6c71abdc6918a","41.113.234.18","Mozilla/5.0 (Windows NT 10.0; Win64; x64) AppleWebKit/537.36 (KHTML, like Gecko) Chrome/138.0.0.0 Safari/537.36","WebKit","Chrome","138.0.0.0","Windows","10.0","https://app.prolific.com/","en-GB,en-US;q=0.9,en;q=0.8","67d95269b47464c18da766ca","686d226cabeef709c732f8e1","686e311daab5596ff27ccf60","67d95269b47464c18da766ca","2025-07-09T09:09:09.997Z","","","","","","","","","","","","","","","","","","","","","","","","","","","","","","","","","","","","","","","","","","","","",""
"78716","","","","instructions","1","88846","0.0-1.0","132","1","2025-07-09 09:08:56","7701e855f2ef39aa3fd6c71abdc6918a","41.113.234.18","Mozilla/5.0 (Windows NT 10.0; Win64; x64) AppleWebKit/537.36 (KHTML, like Gecko) Chrome/138.0.0.0 Safari/537.36","WebKit","Chrome","138.0.0.0","Windows","10.0","https://app.prolific.com/","en-GB,en-US;q=0.9,en;q=0.8","67d95269b47464c18da766ca","686d226cabeef709c732f8e1","686e311daab5596ff27ccf60","67d95269b47464c18da766ca","","[{""page_index"":0,""viewing_time"":70453},{""page_index"":1,""viewing_time"":8262}]","","","","","","","","","","","","","","","","","","","","","","","","","","","","","","","","","","","","","","","","","","","",""
"8270","","","{""Q0"":"""",""Q1"":"""",""Q2"":"""",""Q3"":"""",""Q4"":"""",""Q5"":"""",""Q6"":""I agree""}","survey-multi-choice","2","97119","0.0-2.0","132","1","2025-07-09 09:08:56","7701e855f2ef39aa3fd6c71abdc6918a","41.113.234.18","Mozilla/5.0 (Windows NT 10.0; Win64; x64) AppleWebKit/537.36 (KHTML, like Gecko) Chrome/138.0.0.0 Safari/537.36","WebKit","Chrome","138.0.0.0","Windows","10.0","https://app.prolific.com/","en-GB,en-US;q=0.9,en;q=0.8","67d95269b47464c18da766ca","686d226cabeef709c732f8e1","686e311daab5596ff27ccf60","67d95269b47464c18da766ca","","","[0,1,2,3,4,5,6]","true","","","","","","","","","","","","","","","","","","","","","","","","","","","","","","","","","","","","","","","","","",""
"70999","","","","fullscreen","3","169123","0.0-4.0","132","1","2025-07-09 09:08:56","7701e855f2ef39aa3fd6c71abdc6918a","41.113.234.18","Mozilla/5.0 (Windows NT 10.0; Win64; x64) AppleWebKit/537.36 (KHTML, like Gecko) Chrome/138.0.0.0 Safari/537.36","WebKit","Chrome","138.0.0.0","Windows","10.0","https://app.prolific.com/","en-GB,en-US;q=0.9,en;q=0.8","67d95269b47464c18da766ca","686d226cabeef709c732f8e1","686e311daab5596ff27ccf60","67d95269b47464c18da766ca","","","","","true","","","","","","","","","","","","","","","","","","","","","","","","","","","","","","","","","","","","","","","","",""
"20410","1752052329403"," <p style='font-size:1.1em;line-height:1.25'>Thank you for completing the consent form and closing all other tabs.</p><p style='font-size:1.1em;line-height:1.25'>We will now invite you to fill in some demographic information and questionnaires, before starting the game.<br>This will take about 5 minutes.<br></p><p style='font-size:1.1em;line-height:1.25'>Press the <strong>Next</strong> button to continue.</p>","0","custom-html-button-response","4","189535","0.0-5.0","132","1","2025-07-09 09:08:56","7701e855f2ef39aa3fd6c71abdc6918a","41.113.234.18","Mozilla/5.0 (Windows NT 10.0; Win64; x64) AppleWebKit/537.36 (KHTML, like Gecko) Chrome/138.0.0.0 Safari/537.36","WebKit","Chrome","138.0.0.0","Windows","10.0","https://app.prolific.com/","en-GB,en-US;q=0.9,en;q=0.8","67d95269b47464c18da766ca","686d226cabeef709c732f8e1","686e311daab5596ff27ccf60","67d95269b47464c18da766ca","2025-07-09T09:12:09.404Z","","","","","","","","","","","","","","","","","","","","","","","","","","","","","","","","","","","","","","","","","","","","",""
"28473","","","{""age"":""21""}","survey-text","5","218011","0.0-6.0-0.0","132","1","2025-07-09 09:08:56","7701e855f2ef39aa3fd6c71abdc6918a","41.113.234.18","Mozilla/5.0 (Windows NT 10.0; Win64; x64) AppleWebKit/537.36 (KHTML, like Gecko) Chrome/138.0.0.0 Safari/537.36","WebKit","Chrome","138.0.0.0","Windows","10.0","https://app.prolific.com/","en-GB,en-US;q=0.9,en;q=0.8","67d95269b47464c18da766ca","686d226cabeef709c732f8e1","686e311daab5596ff27ccf60","67d95269b47464c18da766ca","","","","","","0","demographics","","","","","","","","","","","","","","","","","","","","","","","","","","","","","","","","","","","","","","",""
"3097","","","{""gender_identity"":""female/woman""}","survey-multi-choice","6","221110","0.0-6.0-1.0","132","1","2025-07-09 09:08:56","7701e855f2ef39aa3fd6c71abdc6918a","41.113.234.18","Mozilla/5.0 (Windows NT 10.0; Win64; x64) AppleWebKit/537.36 (KHTML, like Gecko) Chrome/138.0.0.0 Safari/537.36","WebKit","Chrome","138.0.0.0","Windows","10.0","https://app.prolific.com/","en-GB,en-US;q=0.9,en;q=0.8","67d95269b47464c18da766ca","686d226cabeef709c732f8e1","686e311daab5596ff27ccf60","67d95269b47464c18da766ca","","","[0]","","","1","demographics","","","","","","","","","","","","","","","","","","","","","","","","","","","","","","","","","","","","","","",""
"4647","","","{""assigned_sex"":""female""}","survey-multi-choice","7","225759","0.0-6.0-2.0","132","1","2025-07-09 09:08:56","7701e855f2ef39aa3fd6c71abdc6918a","41.113.234.18","Mozilla/5.0 (Windows NT 10.0; Win64; x64) AppleWebKit/537.36 (KHTML, like Gecko) Chrome/138.0.0.0 Safari/537.36","WebKit","Chrome","138.0.0.0","Windows","10.0","https://app.prolific.com/","en-GB,en-US;q=0.9,en;q=0.8","67d95269b47464c18da766ca","686d226cabeef709c732f8e1","686e311daab5596ff27ccf60","67d95269b47464c18da766ca","","","[0]","","","2","demographics","","","","","","","","","","","","","","","","","","","","","","","","","","","","","","","","","","","","","","",""
"5166","","","{""menstrual_cycle"":""Yes""}","survey-multi-choice","8","230926","0.0-6.0-3.0","132","1","2025-07-09 09:08:56","7701e855f2ef39aa3fd6c71abdc6918a","41.113.234.18","Mozilla/5.0 (Windows NT 10.0; Win64; x64) AppleWebKit/537.36 (KHTML, like Gecko) Chrome/138.0.0.0 Safari/537.36","WebKit","Chrome","138.0.0.0","Windows","10.0","https://app.prolific.com/","en-GB,en-US;q=0.9,en;q=0.8","67d95269b47464c18da766ca","686d226cabeef709c732f8e1","686e311daab5596ff27ccf60","67d95269b47464c18da766ca","","","[0]","","","4","demographics","","","","","","","","","","","","","","","","","","","","","","","","","","","","","","","","","","","","","","",""
"6329","","","{""education"":""Bachelor's Degree (e.g., BA)""}","survey-multi-choice","9","237256","0.0-6.0-4.0","132","1","2025-07-09 09:08:56","7701e855f2ef39aa3fd6c71abdc6918a","41.113.234.18","Mozilla/5.0 (Windows NT 10.0; Win64; x64) AppleWebKit/537.36 (KHTML, like Gecko) Chrome/138.0.0.0 Safari/537.36","WebKit","Chrome","138.0.0.0","Windows","10.0","https://app.prolific.com/","en-GB,en-US;q=0.9,en;q=0.8","67d95269b47464c18da766ca","686d226cabeef709c732f8e1","686e311daab5596ff27ccf60","67d95269b47464c18da766ca","","","[0]","","","5","demographics","","","","","","","","","","","","","","","","","","","","","","","","","","","","","","","","","","","","","","",""
"6990","","","{""education"":""Bachelor's Degree (e.g., BA)""}","survey-multi-choice","10","244247","0.0-6.0-5.0","132","1","2025-07-09 09:08:56","7701e855f2ef39aa3fd6c71abdc6918a","41.113.234.18","Mozilla/5.0 (Windows NT 10.0; Win64; x64) AppleWebKit/537.36 (KHTML, like Gecko) Chrome/138.0.0.0 Safari/537.36","WebKit","Chrome","138.0.0.0","Windows","10.0","https://app.prolific.com/","en-GB,en-US;q=0.9,en;q=0.8","67d95269b47464c18da766ca","686d226cabeef709c732f8e1","686e311daab5596ff27ccf60","67d95269b47464c18da766ca","2025-07-09T09:13:04.116Z","","[0]","","","6","demographics","","","","","","","","","","","","","","","","","","","","","","","","","","","","","","","","","","","","","","",""
"13892","","","{""mental_health_condition"":"""",""mental_health_treatment"":"""",""psychiatric_medication"":""""}","survey-text","11","258144","0.0-7.0-0.0","132","1","2025-07-09 09:08:56","7701e855f2ef39aa3fd6c71abdc6918a","41.113.234.18","Mozilla/5.0 (Windows NT 10.0; Win64; x64) AppleWebKit/537.36 (KHTML, like Gecko) Chrome/138.0.0.0 Safari/537.36","WebKit","Chrome","138.0.0.0","Windows","10.0","https://app.prolific.com/","en-GB,en-US;q=0.9,en;q=0.8","67d95269b47464c18da766ca","686d226cabeef709c732f8e1","686e311daab5596ff27ccf60","67d95269b47464c18da766ca","2025-07-09T09:13:18.013Z","","","","","1","mental_health","","","","","","","","","","","","","","","","","","","","","","","","","","","","","","","","","","","","","","",""
"13110","","","{""depression_history"":[""No""]}","survey-multi-select","12","271257","0.0-7.0-1.0","132","1","2025-07-09 09:08:56","7701e855f2ef39aa3fd6c71abdc6918a","41.113.234.18","Mozilla/5.0 (Windows NT 10.0; Win64; x64) AppleWebKit/537.36 (KHTML, like Gecko) Chrome/138.0.0.0 Safari/537.36","WebKit","Chrome","138.0.0.0","Windows","10.0","https://app.prolific.com/","en-GB,en-US;q=0.9,en;q=0.8","67d95269b47464c18da766ca","686d226cabeef709c732f8e1","686e311daab5596ff27ccf60","67d95269b47464c18da766ca","","","[0]","","","","mental_health","","","","","","","","","","","","","","","","","","","","","","","","","","","","","","","","","","","","","","",""
"95701.10000000149","","","","survey-template","13","366962","0.0-7.0-3.0","132","1","2025-07-09 09:08:56","7701e855f2ef39aa3fd6c71abdc6918a","41.113.234.18","Mozilla/5.0 (Windows NT 10.0; Win64; x64) AppleWebKit/537.36 (KHTML, like Gecko) Chrome/138.0.0.0 Safari/537.36","WebKit","Chrome","138.0.0.0","Windows","10.0","https://app.prolific.com/","en-GB,en-US;q=0.9,en;q=0.8","67d95269b47464c18da766ca","686d226cabeef709c732f8e1","686e311daab5596ff27ccf60","67d95269b47464c18da766ca","2025-07-09T09:15:06.831Z","","","","","","ius","{""Q01"":""0"",""Q02"":""1"",""Q03"":""1"",""Q04"":""3"",""Q05"":""0"",""Q06"":""0"",""Q07"":""0"",""Q08"":""0"",""Q09"":""3"",""Q10"":""1"",""Q11"":""3"",""Q12"":""3"",""Q13"":""2""}","[0,1,2,3,4,5,6,7,8,9,10,11,12]","[""Q01"",""Q02"",""Q03"",""Q04"",""Q05"",""Q06"",""Q07"",""Q08"",""Q09"",""Q10"",""Q11"",""Q12"",""Q13""]","[15557.60000000149,29401.199999999255,33526.60000000149,40475.60000000149,52165.10000000149,58307.300000000745,61720.10000000149,64770.900000002235,68754.80000000075,73609.40000000224,82360.90000000224,88484,94121.80000000075]","[]","[15557.60000000149,29401.199999999255,33526.60000000149,39363.5,40475.60000000149,52165.10000000149,58307.300000000745,61720.10000000149,64770.900000002235,68754.80000000075,73609.40000000224,78678.80000000075,82360.90000000224,88484,94121.80000000075,95697.69999999925]","0.38461538461538464","0.16666666666666666","0","","","","","","","","","","","","","","","","","","","","","","","","","","","","","",""
"3158","1752052509990","<p style='font-size:1.1em;line-height:1.25'>In the following, we will ask you a few questions relating to your experiences over the past month.<br></p><p style='font-size:1.1em;line-height:1.25'>Press the <strong>Next</strong> button to continue.</p>","0","custom-html-button-response","14","370121","0.0-7.0-4.0","132","1","2025-07-09 09:08:56","7701e855f2ef39aa3fd6c71abdc6918a","41.113.234.18","Mozilla/5.0 (Windows NT 10.0; Win64; x64) AppleWebKit/537.36 (KHTML, like Gecko) Chrome/138.0.0.0 Safari/537.36","WebKit","Chrome","138.0.0.0","Windows","10.0","https://app.prolific.com/","en-GB,en-US;q=0.9,en;q=0.8","67d95269b47464c18da766ca","686d226cabeef709c732f8e1","686e311daab5596ff27ccf60","67d95269b47464c18da766ca","2025-07-09T09:15:09.991Z","","","","","","","","","","","","","","","","","","","","","","","","","","","","","","","","","","","","","","","","","","","","",""
"106779","","","","survey-template","15","476902","0.0-7.0-5.0","132","1","2025-07-09 09:08:56","7701e855f2ef39aa3fd6c71abdc6918a","41.113.234.18","Mozilla/5.0 (Windows NT 10.0; Win64; x64) AppleWebKit/537.36 (KHTML, like Gecko) Chrome/138.0.0.0 Safari/537.36","WebKit","Chrome","138.0.0.0","Windows","10.0","https://app.prolific.com/","en-GB,en-US;q=0.9,en;q=0.8","67d95269b47464c18da766ca","686d226cabeef709c732f8e1","686e311daab5596ff27ccf60","67d95269b47464c18da766ca","2025-07-09T09:16:56.771Z","","","","","","pss","{""Q01"":""1"",""Q02"":""0"",""Q03"":""1"",""Q04"":""0"",""Q05"":""1"",""Q06"":""1"",""Q07"":""1"",""Q08"":""1"",""Q09"":""1"",""Q10"":""1""}","[0,1,2,3,4,5,6,7,8,9]","[""Q01"",""Q02"",""Q03"",""Q04"",""Q05"",""Q06"",""Q07"",""Q08"",""Q09"",""Q10""]","[12056.699999999255,21628.800000000745,25652.599999997765,32291.800000000745,39417,47014.89999999851,70514.09999999776,78780.09999999776,87024.30000000075,94806.30000000075]","[]","[0,12056.699999999255,21628.800000000745,25652.599999997765,32291.800000000745,39417,47014.89999999851,70514.09999999776,78780.09999999776,87024.30000000075,94806.30000000075,106776.69999999925]","0.5","0.3333333333333333","0","","","","","","","","","","","","","","","","","","","","","","","","","","","","","",""
"2470","1752052619242","<p style='font-size:1.1em;line-height:1.25'>Thank you for your answers! Now we will ask you a few more questions relating to your feelings in the last 24 hours.<br></p><p style='font-size:1.1em;line-height:1.25'>Press the <strong>Next</strong> button to continue.</p>","0","custom-html-button-response","16","479373","0.0-7.0-6.0","132","1","2025-07-09 09:08:56","7701e855f2ef39aa3fd6c71abdc6918a","41.113.234.18","Mozilla/5.0 (Windows NT 10.0; Win64; x64) AppleWebKit/537.36 (KHTML, like Gecko) Chrome/138.0.0.0 Safari/537.36","WebKit","Chrome","138.0.0.0","Windows","10.0","https://app.prolific.com/","en-GB,en-US;q=0.9,en;q=0.8","67d95269b47464c18da766ca","686d226cabeef709c732f8e1","686e311daab5596ff27ccf60","67d95269b47464c18da766ca","2025-07-09T09:16:59.242Z","","","","","","","","","","","","","","","","","","","","","","","","","","","","","","","","","","","","","","","","","","","","",""
"85279.10000000149","","","","survey-template","17","564657","0.0-7.0-7.0","132","1","2025-07-09 09:08:56","7701e855f2ef39aa3fd6c71abdc6918a","41.113.234.18","Mozilla/5.0 (Windows NT 10.0; Win64; x64) AppleWebKit/537.36 (KHTML, like Gecko) Chrome/138.0.0.0 Safari/537.36","WebKit","Chrome","138.0.0.0","Windows","10.0","https://app.prolific.com/","en-GB,en-US;q=0.9,en;q=0.8","67d95269b47464c18da766ca","686d226cabeef709c732f8e1","686e311daab5596ff27ccf60","67d95269b47464c18da766ca","2025-07-09T09:18:24.526Z","","","","","","drsp","{""Q01"":""0"",""Q02"":""0"",""Q03"":""0"",""Q04"":""0"",""Q05"":""0"",""Q06"":""0"",""Q07"":""0"",""Q08"":""0"",""Q09"":""0"",""Q10"":""0"",""Q11"":""0"",""Q12"":""0"",""Q13"":""0"",""Q14"":""0"",""Q15"":""0"",""Q16"":""0"",""Q17"":""0"",""Q18"":""0"",""Q19"":""0"",""Q20"":""0"",""Q21"":""0""}","[0,1,2,3,4,5,6,7,8,9,10,11,12,13,14,15,16,17,18,19,20]","[""Q01"",""Q02"",""Q03"",""Q04"",""Q05"",""Q06"",""Q07"",""Q08"",""Q09"",""Q10"",""Q11"",""Q12"",""Q13"",""Q16"",""Q17"",""Q18"",""Q19"",""Q20"",""Q21"",""Q16"",""Q15"",""Q14""]","[3289.300000000745,4592.300000000745,6762.800000000745,8007,9427.5,11252.60000000149,14662.800000000745,16102.300000000745,18769.900000002235,19994.800000000745,24105,27615.5,29385.60000000149,46041,48606.70000000298,53172.60000000149,59552.10000000149,66458.40000000224,67854.20000000298,71975.20000000298,74690.20000000298,76182.90000000224]","[]","[0,3289.300000000745,4592.300000000745,5706,6762.800000000745,8007,9427.5,11252.60000000149,14662.800000000745,16102.300000000745,18769.900000002235,19994.800000000745,24105,27615.5,29385.60000000149,46041,48606.70000000298,53172.60000000149,59552.10000000149,64844.20000000298,66458.40000000224,67854.20000000298,71975.20000000298,74690.20000000298,76182.90000000224,85275.20000000298]","1","0","0","","","","","","","","","","","","","","","","","","","","","","","","","","","","","",""
"35887.800000000745","","","","survey-template","18","600547","0.0-7.0-8.0","132","1","2025-07-09 09:08:56","7701e855f2ef39aa3fd6c71abdc6918a","41.113.234.18","Mozilla/5.0 (Windows NT 10.0; Win64; x64) AppleWebKit/537.36 (KHTML, like Gecko) Chrome/138.0.0.0 Safari/537.36","WebKit","Chrome","138.0.0.0","Windows","10.0","https://app.prolific.com/","en-GB,en-US;q=0.9,en;q=0.8","67d95269b47464c18da766ca","686d226cabeef709c732f8e1","686e311daab5596ff27ccf60","67d95269b47464c18da766ca","2025-07-09T09:19:00.416Z","","","","","","stress","{""Q01"":""1"",""Q02"":""5"",""Q03"":""0""}","[0,1,2]","[""Q01"",""Q02"",""Q03"",""Q01""]","[17048.599999997765,26151.699999999255,29595.300000000745,34071.199999999255]","[]","[17048.599999997765,26151.699999999255,29595.300000000745,34071.199999999255,35886.599999997765]","0.6666666666666666","0.5","0","","","","","","","","","","","","","","","","","","","","","","","","","","","","","",""
"163503","","","","instructions","19","764052","0.0-8.0-0.0","132","1","2025-07-09 09:08:56","7701e855f2ef39aa3fd6c71abdc6918a","41.113.234.18","Mozilla/5.0 (Windows NT 10.0; Win64; x64) AppleWebKit/537.36 (KHTML, like Gecko) Chrome/138.0.0.0 Safari/537.36","WebKit","Chrome","138.0.0.0","Windows","10.0","https://app.prolific.com/","en-GB,en-US;q=0.9,en;q=0.8","67d95269b47464c18da766ca","686d226cabeef709c732f8e1","686e311daab5596ff27ccf60","67d95269b47464c18da766ca","","[{""page_index"":0,""viewing_time"":47848},{""page_index"":1,""viewing_time"":33436},{""page_index"":2,""viewing_time"":54825},{""page_index"":3,""viewing_time"":27394}]","","","","","","","","","","","","","","","","","","","","","","","","","","","","","","","","","","","","","","","","","","","",""
"","","","","ctl-task-cpt","20","810482","0.0-8.0-1.0","132","1","2025-07-09 09:08:56","7701e855f2ef39aa3fd6c71abdc6918a","41.113.234.18","Mozilla/5.0 (Windows NT 10.0; Win64; x64) AppleWebKit/537.36 (KHTML, like Gecko) Chrome/138.0.0.0 Safari/537.36","WebKit","Chrome","138.0.0.0","Windows","10.0","https://app.prolific.com/","en-GB,en-US;q=0.9,en;q=0.8","67d95269b47464c18da766ca","686d226cabeef709c732f8e1","686e311daab5596ff27ccf60","67d95269b47464c18da766ca","","","","","","","","","","","","","","","","","win-only","1","g1:NE,g2:SW","1","0","1","768031.3","5649.3","9652","43424.5","2","4","4","6","2","-4","-5","0","0","0","4002.7","4000","-2995","[""down"",""left""]","{""num_key_presses"":6,""num_perfect"":5,""num_errors"":1,""num_randdir"":0,""num_randdir_good_moves"":0,""num_whilered"":0,""num_whileblue"":0,""num_blue"":4,""num_good_moves"":4}","[409.0714133126395,420.32142761775424,0.3,410.3214133126395,420.32142761775424,101.9,410.3214133126395,420.32142761775424,201.9,410.3214133126395,420.32142761775424,306.2,410.3214133126395,420.32142761775424,407.9,410.3214133126395,420.32142761775424,508.6,410.3214133126395,420.32142761775424,612.2,419.0714133126395,414.07142761775424,717.7,437.8214133126395,402.82142761775424,823.7,446.5714133126395,399.07142761775424,926.7,460.3214133126395,391.57142761775424,1026.9,475.3214133126395,374.07142761775424,1128.1,476.5714133126395,370.32142761775424,1231.7,476.5714133126395,370.32142761775424,1331.8,476.5714133126395,370.32142761775424,1431.8,476.5714133126395,370.32142761775424,1536.9,476.5714133126395,370.32142761775424,1637.5,476.5714133126395,370.32142761775424,1743.1,476.5714133126395,370.32142761775424,1846.9,476.5714133126395,370.32142761775424,1947.3,476.5714133126395,370.32142761775424,2051.9,476.5714133126395,370.32142761775424,2153.1,476.5714133126395,370.32142761775424,2257.4,476.5714133126395,370.32142761775424,2362.2,476.5714133126395,370.32142761775424,2467,476.5714133126395,370.32142761775424,2571.4,476.5714133126395,370.32142761775424,2672.8,476.5714133126395,370.32142761775424,2773.1,476.5714133126395,370.32142761775424,2876.3,476.5714133126395,370.32142761775424,2976.9,476.5714133126395,370.32142761775424,3081.4,476.5714133126395,370.32142761775424,3182.3,476.5714133126395,370.32142761775424,3286.7,476.5714133126395,370.32142761775424,3386.9,476.5714133126395,370.32142761775424,3487.3,476.5714133126395,370.32142761775424,3593.6,476.5714133126395,370.32142761775424,3697,476.5714133126395,370.32142761775424,3802,476.5714133126395,370.32142761775424,3908.4]","[2992.8,2992.7,2765.8,2009.4,-1782.4,""error"",""-"",""-"",""no_move"",17763.9,14770.6,1914.3,14514.6,1335,""smooth"",""left"",""left"",""good_move"",22236,4471.5,3106.2,17764.5,1365.3,""smooth"",""left"",""left"",""good_move"",25558.1,3321.7,2868.8,22236.5,452.8,""smooth"",""left"",""left"",""good_move"",28421.1,2863,2414.7,25558.2,448.3,""smooth"",""up"",""up"",""bad_move"",31401.6,2979.8,2568.2,28421.8,411.6,""smooth"",""down"",""down"",""good_move""]","","",""
"26301","","","","instructions","21","836783","0.0-8.0-2.0","132","1","2025-07-09 09:08:56","7701e855f2ef39aa3fd6c71abdc6918a","41.113.234.18","Mozilla/5.0 (Windows NT 10.0; Win64; x64) AppleWebKit/537.36 (KHTML, like Gecko) Chrome/138.0.0.0 Safari/537.36","WebKit","Chrome","138.0.0.0","Windows","10.0","https://app.prolific.com/","en-GB,en-US;q=0.9,en;q=0.8","67d95269b47464c18da766ca","686d226cabeef709c732f8e1","686e311daab5596ff27ccf60","67d95269b47464c18da766ca","","[{""page_index"":0,""viewing_time"":26301}]","","","","","","","","","","","","","","","","","","","","","","","","","","","","","","","","","","","","","","","","","","","",""
"","","","","ctl-task-cpt","22","877108","0.0-8.0-3.0","132","1","2025-07-09 09:08:56","7701e855f2ef39aa3fd6c71abdc6918a","41.113.234.18","Mozilla/5.0 (Windows NT 10.0; Win64; x64) AppleWebKit/537.36 (KHTML, like Gecko) Chrome/138.0.0.0 Safari/537.36","WebKit","Chrome","138.0.0.0","Windows","10.0","https://app.prolific.com/","en-GB,en-US;q=0.9,en;q=0.8","67d95269b47464c18da766ca","686d226cabeef709c732f8e1","686e311daab5596ff27ccf60","67d95269b47464c18da766ca","","","","","","","","","","","","","","","","","win-only","1","g1:NE,g2:SW","0.35","0","3","840760.1","2126.4","6130.7","37312.1","2","4","8","6","2","-8","-8","0","0","0","4004.3","4000","-2955","[""down"",""left""]","{""num_key_presses"":9,""num_perfect"":4,""num_errors"":0,""num_randdir"":5,""num_randdir_good_moves"":2,""num_whilered"":0,""num_whileblue"":0,""num_blue"":1,""num_good_moves"":6}","[411.5714133126395,425.32142761775424,0.5,411.5714133126395,425.32142761775424,104.5,411.5714133126395,425.32142761775424,204.6,709.0714133126395,676.5714276177542,309.5,1307.8214133126396,960.3214276177542,414.5,1375.3214133126396,960.3214276177542,515.8,1375.3214133126396,960.3214276177542,619.5,1375.3214133126396,960.3214276177542,720.7,1375.3214133126396,960.3214276177542,825.6,1375.3214133126396,960.3214276177542,929.7,1375.3214133126396,960.3214276177542,1032.9,1375.3214133126396,960.3214276177542,1134.1,1375.3214133126396,960.3214276177542,1234.9,1375.3214133126396,960.3214276177542,1340.8,1375.3214133126396,960.3214276177542,1443.9,1375.3214133126396,960.3214276177542,1544.4,1375.3214133126396,960.3214276177542,1649.1,1375.3214133126396,960.3214276177542,1752.3,1375.3214133126396,960.3214276177542,1855,1375.3214133126396,960.3214276177542,1955.2,1375.3214133126396,960.3214276177542,2059.3,1375.3214133126396,960.3214276177542,2165.8,1375.3214133126396,960.3214276177542,2269.3,1375.3214133126396,960.3214276177542,2375.1,1375.3214133126396,960.3214276177542,2480.8,1375.3214133126396,960.3214276177542,2581.2,1375.3214133126396,960.3214276177542,2684.5,1375.3214133126396,960.3214276177542,2784.7,1375.3214133126396,960.3214276177542,2889.9,1375.3214133126396,960.3214276177542,2994.5,1375.3214133126396,960.3214276177542,3095.1,1375.3214133126396,960.3214276177542,3195.7,1375.3214133126396,960.3214276177542,3295.7,1375.3214133126396,960.3214276177542,3400.5,1375.3214133126396,960.3214276177542,3504.3,1375.3214133126396,960.3214276177542,3604.4,1375.3214133126396,960.3214276177542,3705.5,1375.3214133126396,960.3214276177542,3810.5,1375.3214133126396,960.3214276177542,3917]","[1580,1580,1000,0,580,""oops"",""down"",""down"",""good_move"",7710.5,6130.2,2451.4,4855.9,403.2,""smooth"",""down"",""down"",""good_move"",10660.8,2949.9,2335.4,7710.9,614.5,""smooth"",""down"",""down"",""good_move"",13891.4,3230.3,2817,10661.1,413.3,""smooth"",""left"",""left"",""good_move"",16910.4,3017.9,2643.9,13892.5,374,""oops"",""left"",""right"",""bad_move"",19925.1,3014.1,2599.8,16911,414.3,""oops"",""left"",""left"",""good_move"",22675.7,2750.4,2351.8,19925.3,398.6,""oops"",""left"",""up"",""bad_move"",24939.9,2263.6,1936.7,22676.3,326.9,""smooth"",""left"",""left"",""good_move"",28030.5,3090.2,2699.4,24940.3,390.8,""oops"",""left"",""right"",""bad_move""]","","",""
"69149","","","","instructions","23","946258","0.0-8.0-4.0","132","1","2025-07-09 09:08:56","7701e855f2ef39aa3fd6c71abdc6918a","41.113.234.18","Mozilla/5.0 (Windows NT 10.0; Win64; x64) AppleWebKit/537.36 (KHTML, like Gecko) Chrome/138.0.0.0 Safari/537.36","WebKit","Chrome","138.0.0.0","Windows","10.0","https://app.prolific.com/","en-GB,en-US;q=0.9,en;q=0.8","67d95269b47464c18da766ca","686d226cabeef709c732f8e1","686e311daab5596ff27ccf60","67d95269b47464c18da766ca","","[{""page_index"":0,""viewing_time"":21812},{""page_index"":1,""viewing_time"":47336}]","","","","","","","","","","","","","","","","","","","","","","","","","","","","","","","","","","","","","","","","","","","",""
"36610","","","{""green_ball"":[""Ball sometimes shakes and moves in a random direction""]}","survey-multi-select","24","982871","0.0-8.0-5.0-0.0","132","1","2025-07-09 09:08:56","7701e855f2ef39aa3fd6c71abdc6918a","41.113.234.18","Mozilla/5.0 (Windows NT 10.0; Win64; x64) AppleWebKit/537.36 (KHTML, like Gecko) Chrome/138.0.0.0 Safari/537.36","WebKit","Chrome","138.0.0.0","Windows","10.0","https://app.prolific.com/","en-GB,en-US;q=0.9,en;q=0.8","67d95269b47464c18da766ca","686d226cabeef709c732f8e1","686e311daab5596ff27ccf60","67d95269b47464c18da766ca","","","[0]","","","","quiz","","","","","","","","","","","","","","","","","","","","","","","","","","","","","","","","","","","","","true","",""
"20181","","<p align='center'><b>CORRECT!</b> Indeed, the green ball may sometimes shake and move in a random direction.</p>","0","html-button-response","25","1003054","0.0-8.0-5.0-1.0","132","1","2025-07-09 09:08:56","7701e855f2ef39aa3fd6c71abdc6918a","41.113.234.18","Mozilla/5.0 (Windows NT 10.0; Win64; x64) AppleWebKit/537.36 (KHTML, like Gecko) Chrome/138.0.0.0 Safari/537.36","WebKit","Chrome","138.0.0.0","Windows","10.0","https://app.prolific.com/","en-GB,en-US;q=0.9,en;q=0.8","67d95269b47464c18da766ca","686d226cabeef709c732f8e1","686e311daab5596ff27ccf60","67d95269b47464c18da766ca","","","","","","","","","","","","","","","","","","","","","","","","","","","","","","","","","","","","","","","","","","","","","",""
"13559","","","{""yellow_ball"":[""Ball doesn‘t move and I get -1 penalty point""]}","survey-multi-select","26","1016615","0.0-8.0-6.0-0.0","132","1","2025-07-09 09:08:56","7701e855f2ef39aa3fd6c71abdc6918a","41.113.234.18","Mozilla/5.0 (Windows NT 10.0; Win64; x64) AppleWebKit/537.36 (KHTML, like Gecko) Chrome/138.0.0.0 Safari/537.36","WebKit","Chrome","138.0.0.0","Windows","10.0","https://app.prolific.com/","en-GB,en-US;q=0.9,en;q=0.8","67d95269b47464c18da766ca","686d226cabeef709c732f8e1","686e311daab5596ff27ccf60","67d95269b47464c18da766ca","","","[0]","","","","quiz","","","","","","","","","","","","","","","","","","","","","","","","","","","","","","","","","","","","","true","",""
"3641","","<p align='center'><b>CORRECT!</b> Indeed, the yellow ball never moves and you receive a penalty.</p>","0","html-button-response","27","1020259","0.0-8.0-6.0-1.0","132","1","2025-07-09 09:08:56","7701e855f2ef39aa3fd6c71abdc6918a","41.113.234.18","Mozilla/5.0 (Windows NT 10.0; Win64; x64) AppleWebKit/537.36 (KHTML, like Gecko) Chrome/138.0.0.0 Safari/537.36","WebKit","Chrome","138.0.0.0","Windows","10.0","https://app.prolific.com/","en-GB,en-US;q=0.9,en;q=0.8","67d95269b47464c18da766ca","686d226cabeef709c732f8e1","686e311daab5596ff27ccf60","67d95269b47464c18da766ca","","","","","","","","","","","","","","","","","","","","","","","","","","","","","","","","","","","","","","","","","","","","","",""
"6808","","","{""blue_ball"":[""Ball doesn‘t move and I get -1 penalty point""]}","survey-multi-select","28","1027068","0.0-8.0-7.0-0.0","132","1","2025-07-09 09:08:56","7701e855f2ef39aa3fd6c71abdc6918a","41.113.234.18","Mozilla/5.0 (Windows NT 10.0; Win64; x64) AppleWebKit/537.36 (KHTML, like Gecko) Chrome/138.0.0.0 Safari/537.36","WebKit","Chrome","138.0.0.0","Windows","10.0","https://app.prolific.com/","en-GB,en-US;q=0.9,en;q=0.8","67d95269b47464c18da766ca","686d226cabeef709c732f8e1","686e311daab5596ff27ccf60","67d95269b47464c18da766ca","","","[0]","","","","quiz","","","","","","","","","","","","","","","","","","","","","","","","","","","","","","","","","","","","","false","",""
"6172","","<p align='center'><b>INCORRECT.</b> The blue ball always shakes and moves randomly.</p>","0","html-button-response","29","1033241","0.0-8.0-7.0-1.0","132","1","2025-07-09 09:08:56","7701e855f2ef39aa3fd6c71abdc6918a","41.113.234.18","Mozilla/5.0 (Windows NT 10.0; Win64; x64) AppleWebKit/537.36 (KHTML, like Gecko) Chrome/138.0.0.0 Safari/537.36","WebKit","Chrome","138.0.0.0","Windows","10.0","https://app.prolific.com/","en-GB,en-US;q=0.9,en;q=0.8","67d95269b47464c18da766ca","686d226cabeef709c732f8e1","686e311daab5596ff27ccf60","67d95269b47464c18da766ca","","","","","","","","","","","","","","","","","","","","","","","","","","","","","","","","","","","","","","","","","","","","","",""
"7168","","","{""blue_ball"":[""Ball always shakes and moves in a random direction""]}","survey-multi-select","30","1040411","0.0-8.0-7.1-0.1","132","1","2025-07-09 09:08:56","7701e855f2ef39aa3fd6c71abdc6918a","41.113.234.18","Mozilla/5.0 (Windows NT 10.0; Win64; x64) AppleWebKit/537.36 (KHTML, like Gecko) Chrome/138.0.0.0 Safari/537.36","WebKit","Chrome","138.0.0.0","Windows","10.0","https://app.prolific.com/","en-GB,en-US;q=0.9,en;q=0.8","67d95269b47464c18da766ca","686d226cabeef709c732f8e1","686e311daab5596ff27ccf60","67d95269b47464c18da766ca","","","[0]","","","","quiz","","","","","","","","","","","","","","","","","","","","","","","","","","","","","","","","","","","","","true","",""
"11121","","<p align='center'><b>CORRECT!</b> Indeed, the blue ball always shakes and moves in a random direction. Also there is a penalty of -1 point.</p>","0","html-button-response","31","1051533","0.0-8.0-7.1-1.1","132","1","2025-07-09 09:08:56","7701e855f2ef39aa3fd6c71abdc6918a","41.113.234.18","Mozilla/5.0 (Windows NT 10.0; Win64; x64) AppleWebKit/537.36 (KHTML, like Gecko) Chrome/138.0.0.0 Safari/537.36","WebKit","Chrome","138.0.0.0","Windows","10.0","https://app.prolific.com/","en-GB,en-US;q=0.9,en;q=0.8","67d95269b47464c18da766ca","686d226cabeef709c732f8e1","686e311daab5596ff27ccf60","67d95269b47464c18da766ca","","","","","","","","","","","","","","","","","","","","","","","","","","","","","","","","","","","","","","","","","","","","","",""
"9629","","","{""bonus"":[""When I reach 50% of points""]}","survey-multi-select","32","1061164","0.0-8.0-8.0-0.0","132","1","2025-07-09 09:08:56","7701e855f2ef39aa3fd6c71abdc6918a","41.113.234.18","Mozilla/5.0 (Windows NT 10.0; Win64; x64) AppleWebKit/537.36 (KHTML, like Gecko) Chrome/138.0.0.0 Safari/537.36","WebKit","Chrome","138.0.0.0","Windows","10.0","https://app.prolific.com/","en-GB,en-US;q=0.9,en;q=0.8","67d95269b47464c18da766ca","686d226cabeef709c732f8e1","686e311daab5596ff27ccf60","67d95269b47464c18da766ca","","","[0]","","","","quiz","","","","","","","","","","","","","","","","","","","","","","","","","","","","","","","","","","","","","true","",""
"3082","","<p align='center'><b>CORRECT!</b> Indeed, you receive 2 pounds extra when you reach 50% of points.</p>","0","html-button-response","33","1064248","0.0-8.0-8.0-1.0","132","1","2025-07-09 09:08:56","7701e855f2ef39aa3fd6c71abdc6918a","41.113.234.18","Mozilla/5.0 (Windows NT 10.0; Win64; x64) AppleWebKit/537.36 (KHTML, like Gecko) Chrome/138.0.0.0 Safari/537.36","WebKit","Chrome","138.0.0.0","Windows","10.0","https://app.prolific.com/","en-GB,en-US;q=0.9,en;q=0.8","67d95269b47464c18da766ca","686d226cabeef709c732f8e1","686e311daab5596ff27ccf60","67d95269b47464c18da766ca","","","","","","","","","","","","","","","","","","","","","","","","","","","","","","","","","","","","","","","","","","","","","",""
"2941","","","","instructions","34","1067190","0.0-8.0-9.0","132","1","2025-07-09 09:08:56","7701e855f2ef39aa3fd6c71abdc6918a","41.113.234.18","Mozilla/5.0 (Windows NT 10.0; Win64; x64) AppleWebKit/537.36 (KHTML, like Gecko) Chrome/138.0.0.0 Safari/537.36","WebKit","Chrome","138.0.0.0","Windows","10.0","https://app.prolific.com/","en-GB,en-US;q=0.9,en;q=0.8","67d95269b47464c18da766ca","686d226cabeef709c732f8e1","686e311daab5596ff27ccf60","67d95269b47464c18da766ca","","[{""page_index"":0,""viewing_time"":2941}]","","","","","","","","","","","","","","","","","","","","","","","","","","","","","","","","","","","","","","","","","","","",""
"19575","","<p>Before you start with this game please answer the following three questions yourself. </p>
  <p>Through this game, we measure several aspects of your cognitive performance, such as reaction times, multi-tasking capabilities </p>
  <p>and the ability to assess the situation you are in.</p>
  <p></p>
  <p><b>How good do you usually are in such tasks?</b></p>","60","html-slider-response","35","1086784","0.0-9.0-0.0","132","1","2025-07-09 09:08:56","7701e855f2ef39aa3fd6c71abdc6918a","41.113.234.18","Mozilla/5.0 (Windows NT 10.0; Win64; x64) AppleWebKit/537.36 (KHTML, like Gecko) Chrome/138.0.0.0 Safari/537.36","WebKit","Chrome","138.0.0.0","Windows","10.0","https://app.prolific.com/","en-GB,en-US;q=0.9,en;q=0.8","67d95269b47464c18da766ca","686d226cabeef709c732f8e1","686e311daab5596ff27ccf60","67d95269b47464c18da766ca","2025-07-09T09:27:06.653Z","","","","","","PreSkillQ","","","","","","","","","","","","","","","","","","","","","","","","","","","","","","","","","","","","","","50",""
"6755","","<div style=""width:500px;"">
  <p>How well do you think you will perform in this task compared to other participants?</p>
  </div>","55","html-slider-response","36","1093541","0.0-9.0-1.0","132","1","2025-07-09 09:08:56","7701e855f2ef39aa3fd6c71abdc6918a","41.113.234.18","Mozilla/5.0 (Windows NT 10.0; Win64; x64) AppleWebKit/537.36 (KHTML, like Gecko) Chrome/138.0.0.0 Safari/537.36","WebKit","Chrome","138.0.0.0","Windows","10.0","https://app.prolific.com/","en-GB,en-US;q=0.9,en;q=0.8","67d95269b47464c18da766ca","686d226cabeef709c732f8e1","686e311daab5596ff27ccf60","67d95269b47464c18da766ca","2025-07-09T09:27:13.410Z","","","","","","PrePerfQ","","","","","","","","","","","","","","","","","","","","","","","","","","","","","","","","","","","","","","50",""
"7371","","<div style=""width:500px;"">
  <p>What best describes how you currently feel?</p>
  </div>","87","html-slider-response","37","1100914","0.0-9.0-2.0","132","1","2025-07-09 09:08:56","7701e855f2ef39aa3fd6c71abdc6918a","41.113.234.18","Mozilla/5.0 (Windows NT 10.0; Win64; x64) AppleWebKit/537.36 (KHTML, like Gecko) Chrome/138.0.0.0 Safari/537.36","WebKit","Chrome","138.0.0.0","Windows","10.0","https://app.prolific.com/","en-GB,en-US;q=0.9,en;q=0.8","67d95269b47464c18da766ca","686d226cabeef709c732f8e1","686e311daab5596ff27ccf60","67d95269b47464c18da766ca","2025-07-09T09:27:20.783Z","","","","","","PreMotivationQ","","","","","","","","","","","","","","","","","","","","","","","","","","","","","","","","","","","","","","50",""
"","","","","ctl-task-cpt","38","1125286","0.0-10.0-0.0","132","1","2025-07-09 09:08:56","7701e855f2ef39aa3fd6c71abdc6918a","41.113.234.18","Mozilla/5.0 (Windows NT 10.0; Win64; x64) AppleWebKit/537.36 (KHTML, like Gecko) Chrome/138.0.0.0 Safari/537.36","WebKit","Chrome","138.0.0.0","Windows","10.0","https://app.prolific.com/","en-GB,en-US;q=0.9,en;q=0.8","67d95269b47464c18da766ca","686d226cabeef709c732f8e1","686e311daab5596ff27ccf60","67d95269b47464c18da766ca","2025-07-09T09:27:45.155Z","","","","","","","","","","","","","","","","win-only","0","g1:NW,g2:SE","1","1","0","1104892.5","1832.5","6834.6","21350.9","1","4","8","6","1","1","1","1","0","0.007575757575757576","5002.1","3000","1345","[""left"",""up""]","{""num_key_presses"":4,""num_perfect"":4,""num_errors"":0,""num_randdir"":0,""num_randdir_good_moves"":0,""num_whilered"":0,""num_whileblue"":0,""num_blue"":1,""num_good_moves"":4}","[417.8214133126395,421.57142761775424,0.3,417.8214133126395,421.57142761775424,104.8,417.8214133126395,421.57142761775424,207.8,417.8214133126395,421.57142761775424,309.8,417.8214133126395,421.57142761775424,417.3,417.8214133126395,421.57142761775424,518.6,417.8214133126395,421.57142761775424,623.3,417.8214133126395,421.57142761775424,723.3,417.8214133126395,421.57142761775424,829.5,417.8214133126395,421.57142761775424,936.3,417.8214133126395,421.57142761775424,1038.1,417.8214133126395,421.57142761775424,1144.4,417.8214133126395,421.57142761775424,1244.8,417.8214133126395,421.57142761775424,1349.1,417.8214133126395,421.57142761775424,1453.5,417.8214133126395,421.57142761775424,1553.7,417.8214133126395,421.57142761775424,1658,417.8214133126395,421.57142761775424,1758.4,417.8214133126395,421.57142761775424,1858.7,417.8214133126395,421.57142761775424,1958.7,417.8214133126395,421.57142761775424,2065.2,417.8214133126395,421.57142761775424,2166.4,417.8214133126395,421.57142761775424,2268.3,417.8214133126395,421.57142761775424,2368.9,417.8214133126395,421.57142761775424,2473.7,417.8214133126395,421.57142761775424,2578.4,417.8214133126395,421.57142761775424,2678.9,417.8214133126395,421.57142761775424,2785.2,417.8214133126395,421.57142761775424,2889.1,417.8214133126395,421.57142761775424,2990.5,417.8214133126395,421.57142761775424,3093.4,417.8214133126395,421.57142761775424,3193.4,417.8214133126395,421.57142761775424,3293.4,417.8214133126395,421.57142761775424,3399.8,417.8214133126395,421.57142761775424,3500.9,417.8214133126395,421.57142761775424,3602,417.8214133126395,421.57142761775424,3703.9,417.8214133126395,421.57142761775424,3808.6,417.8214133126395,421.57142761775424,3913.3,417.8214133126395,421.57142761775424,4015.3,417.8214133126395,421.57142761775424,4118.7,417.8214133126395,421.57142761775424,4219.6,417.8214133126395,421.57142761775424,4323.2,417.8214133126395,421.57142761775424,4428.8,417.8214133126395,421.57142761775424,4533.8,417.8214133126395,421.57142761775424,4638.5,417.8214133126395,421.57142761775424,4738.9,417.8214133126395,421.57142761775424,4839.2,417.8214133126395,421.57142761775424,4943.5]","[1428.9,1428.9,1000,0,428.9,""smooth"",""up"",""up"",""good_move"",4013.8,2583.9,2155,1430,428.9,""smooth"",""up"",""up"",""good_move"",7429.5,3415.4,3065.3,4014.1,350.1,""smooth"",""left"",""left"",""good_move"",14420.5,6990.1,2594.5,11321.2,504.8,""smooth"",""left"",""left"",""good_move""]","","",""
"7496","","<div style=""width:500px;"">
  <p>What determined the result of this run?</p>
  </div>","69","html-slider-response","39","1132784","0.0-10.0-1.0","132","1","2025-07-09 09:08:56","7701e855f2ef39aa3fd6c71abdc6918a","41.113.234.18","Mozilla/5.0 (Windows NT 10.0; Win64; x64) AppleWebKit/537.36 (KHTML, like Gecko) Chrome/138.0.0.0 Safari/537.36","WebKit","Chrome","138.0.0.0","Windows","10.0","https://app.prolific.com/","en-GB,en-US;q=0.9,en;q=0.8","67d95269b47464c18da766ca","686d226cabeef709c732f8e1","686e311daab5596ff27ccf60","67d95269b47464c18da766ca","2025-07-09T09:27:52.653Z","","","","","","AttribQ","","","","","","","","","","","","","","","","","","","","","","","","","","","","","","","","","","","","","","50",""
"6807","","<div style=""width:500px;"">
  <p>How much control did you have over the ball?</p>
  </div>","61","html-slider-response","40","1139592","0.0-10.0-2.0","132","1","2025-07-09 09:08:56","7701e855f2ef39aa3fd6c71abdc6918a","41.113.234.18","Mozilla/5.0 (Windows NT 10.0; Win64; x64) AppleWebKit/537.36 (KHTML, like Gecko) Chrome/138.0.0.0 Safari/537.36","WebKit","Chrome","138.0.0.0","Windows","10.0","https://app.prolific.com/","en-GB,en-US;q=0.9,en;q=0.8","67d95269b47464c18da766ca","686d226cabeef709c732f8e1","686e311daab5596ff27ccf60","67d95269b47464c18da766ca","2025-07-09T09:27:59.461Z","","","","","","ControlQ","","","","","","","","","","","","","","","","","","","","","","","","","","","","","","","","","","","","","","50",""
"5596","","<div style=""width:500px;"">
  <p>How would you describe your current emotional state?</p>
  </div>","17","html-slider-response","41","1145190","0.0-10.0-3.0","132","1","2025-07-09 09:08:56","7701e855f2ef39aa3fd6c71abdc6918a","41.113.234.18","Mozilla/5.0 (Windows NT 10.0; Win64; x64) AppleWebKit/537.36 (KHTML, like Gecko) Chrome/138.0.0.0 Safari/537.36","WebKit","Chrome","138.0.0.0","Windows","10.0","https://app.prolific.com/","en-GB,en-US;q=0.9,en;q=0.8","67d95269b47464c18da766ca","686d226cabeef709c732f8e1","686e311daab5596ff27ccf60","67d95269b47464c18da766ca","2025-07-09T09:28:05.060Z","","","","","","StressQ","","","","","","","","","","","","","","","","","","","","","","","","","","","","","","","","","","","","","","50",""
"9216","","<div style=""width:500px;"">
  <p>What best describes how you currently feel?</p>
  </div>","85","html-slider-response","42","1154410","0.0-10.0-4.0","132","1","2025-07-09 09:08:56","7701e855f2ef39aa3fd6c71abdc6918a","41.113.234.18","Mozilla/5.0 (Windows NT 10.0; Win64; x64) AppleWebKit/537.36 (KHTML, like Gecko) Chrome/138.0.0.0 Safari/537.36","WebKit","Chrome","138.0.0.0","Windows","10.0","https://app.prolific.com/","en-GB,en-US;q=0.9,en;q=0.8","67d95269b47464c18da766ca","686d226cabeef709c732f8e1","686e311daab5596ff27ccf60","67d95269b47464c18da766ca","2025-07-09T09:28:14.279Z","","","","","","MotivationQ","","","","","","","","","","","","","","","","","","","","","","","","","","","","","","","","","","","","","","50",""
"","","","","ctl-task-cpt","43","1195681","0.0-10.0-0.1","132","1","2025-07-09 09:08:56","7701e855f2ef39aa3fd6c71abdc6918a","41.113.234.18","Mozilla/5.0 (Windows NT 10.0; Win64; x64) AppleWebKit/537.36 (KHTML, like Gecko) Chrome/138.0.0.0 Safari/537.36","WebKit","Chrome","138.0.0.0","Windows","10.0","https://app.prolific.com/","en-GB,en-US;q=0.9,en;q=0.8","67d95269b47464c18da766ca","686d226cabeef709c732f8e1","686e311daab5596ff27ccf60","67d95269b47464c18da766ca","2025-07-09T09:28:55.550Z","","","","","","","","","","","","","","","","win-only","1","g1:NE,g2:SW","0.9","2","0","1158390.6","1934.7","6937.3","38248.5","1","4","4","6","1","-1","-2","0","1","0","5002.6","3000","-2670","[""up"",""right""]","{""num_key_presses"":7,""num_perfect"":5,""num_errors"":1,""num_randdir"":1,""num_randdir_good_moves"":0,""num_whilered"":0,""num_whileblue"":1,""num_blue"":3,""num_good_moves"":5}","[411.5714133126395,426.57142761775424,0.5,411.5714133126395,426.57142761775424,100.8,411.5714133126395,426.57142761775424,200.9,411.5714133126395,426.57142761775424,306.3,415.3214133126395,442.82142761775424,415.6,452.8214133126395,555.3214276177542,515.7,521.5714133126395,656.5714276177542,616.5,521.5714133126395,657.8214276177542,717.1,521.5714133126395,657.8214276177542,821.9,521.5714133126395,657.8214276177542,926.4,521.5714133126395,657.8214276177542,1026.4,521.5714133126395,657.8214276177542,1133.7,521.5714133126395,657.8214276177542,1234.2,521.5714133126395,657.8214276177542,1336.4,521.5714133126395,657.8214276177542,1441.8,521.5714133126395,657.8214276177542,1549.8,521.5714133126395,657.8214276177542,1649.9,521.5714133126395,657.8214276177542,1749.9,521.5714133126395,657.8214276177542,1851.4,521.5714133126395,657.8214276177542,1957.1,521.5714133126395,657.8214276177542,2065.9,521.5714133126395,657.8214276177542,2170.5,521.5714133126395,657.8214276177542,2270.5,521.5714133126395,657.8214276177542,2371,521.5714133126395,657.8214276177542,2471.3,521.5714133126395,657.8214276177542,2575.7,521.5714133126395,657.8214276177542,2676.8,521.5714133126395,657.8214276177542,2783.2,521.5714133126395,657.8214276177542,2883.8,521.5714133126395,657.8214276177542,2987.7,521.5714133126395,657.8214276177542,3091,521.5714133126395,657.8214276177542,3191.5,521.5714133126395,657.8214276177542,3298.7,521.5714133126395,657.8214276177542,3399.7,521.5714133126395,657.8214276177542,3502,521.5714133126395,657.8214276177542,3607.1,521.5714133126395,657.8214276177542,3716.3,521.5714133126395,657.8214276177542,3816.4,521.5714133126395,657.8214276177542,3921.1,521.5714133126395,657.8214276177542,4026.8,521.5714133126395,657.8214276177542,4127.6,521.5714133126395,657.8214276177542,4236.8,521.5714133126395,657.8214276177542,4336.8,521.5714133126395,657.8214276177542,4443.2,521.5714133126395,657.8214276177542,4548.9,521.5714133126395,657.8214276177542,4650.3,521.5714133126395,657.8214276177542,4751.3,521.5714133126395,657.8214276177542,4851.8,521.5714133126395,657.8214276177542,4956.8]","[1531.8,1531.8,1000,0,531.8,""smooth"",""up"",""up"",""good_move"",5517.3,3985,3436.8,1532.3,548.2,""smooth"",""right"",""right"",""good_move"",8473,2955.4,2515.5,5517.6,439.9,""smooth"",""right"",""right"",""good_move"",11649.9,3176.5,2721.2,8473.4,455.3,""while_blue"",""up"",""down"",""bad_move"",14311.4,2661,1986.4,11650.4,674.6,""smooth"",""up"",""up"",""good_move"",21277.7,6966.1,2461.1,18333.8,482.8,""oops"",""up"",""left"",""bad_move"",28072.1,6793.9,2617,24928.2,526.9,""smooth"",""up"",""up"",""good_move""]","","",""
"7386","","<div style=""width:500px;"">
  <p>What determined the result of this run?</p>
  </div>","47","html-slider-response","44","1203070","0.0-10.0-1.1","132","1","2025-07-09 09:08:56","7701e855f2ef39aa3fd6c71abdc6918a","41.113.234.18","Mozilla/5.0 (Windows NT 10.0; Win64; x64) AppleWebKit/537.36 (KHTML, like Gecko) Chrome/138.0.0.0 Safari/537.36","WebKit","Chrome","138.0.0.0","Windows","10.0","https://app.prolific.com/","en-GB,en-US;q=0.9,en;q=0.8","67d95269b47464c18da766ca","686d226cabeef709c732f8e1","686e311daab5596ff27ccf60","67d95269b47464c18da766ca","2025-07-09T09:29:02.939Z","","","","","","AttribQ","","","","","","","","","","","","","","","","","","","","","","","","","","","","","","","","","","","","","","50",""
"3595","","<div style=""width:500px;"">
  <p>How much control did you have over the ball?</p>
  </div>","47","html-slider-response","45","1206666","0.0-10.0-2.1","132","1","2025-07-09 09:08:56","7701e855f2ef39aa3fd6c71abdc6918a","41.113.234.18","Mozilla/5.0 (Windows NT 10.0; Win64; x64) AppleWebKit/537.36 (KHTML, like Gecko) Chrome/138.0.0.0 Safari/537.36","WebKit","Chrome","138.0.0.0","Windows","10.0","https://app.prolific.com/","en-GB,en-US;q=0.9,en;q=0.8","67d95269b47464c18da766ca","686d226cabeef709c732f8e1","686e311daab5596ff27ccf60","67d95269b47464c18da766ca","2025-07-09T09:29:06.535Z","","","","","","ControlQ","","","","","","","","","","","","","","","","","","","","","","","","","","","","","","","","","","","","","","50",""
"5524","","<div style=""width:500px;"">
  <p>How would you describe your current emotional state?</p>
  </div>","18","html-slider-response","46","1212191","0.0-10.0-3.1","132","1","2025-07-09 09:08:56","7701e855f2ef39aa3fd6c71abdc6918a","41.113.234.18","Mozilla/5.0 (Windows NT 10.0; Win64; x64) AppleWebKit/537.36 (KHTML, like Gecko) Chrome/138.0.0.0 Safari/537.36","WebKit","Chrome","138.0.0.0","Windows","10.0","https://app.prolific.com/","en-GB,en-US;q=0.9,en;q=0.8","67d95269b47464c18da766ca","686d226cabeef709c732f8e1","686e311daab5596ff27ccf60","67d95269b47464c18da766ca","2025-07-09T09:29:12.060Z","","","","","","StressQ","","","","","","","","","","","","","","","","","","","","","","","","","","","","","","","","","","","","","","50",""
"4224","","<div style=""width:500px;"">
  <p>What best describes how you currently feel?</p>
  </div>","82","html-slider-response","47","1216417","0.0-10.0-4.1","132","1","2025-07-09 09:08:56","7701e855f2ef39aa3fd6c71abdc6918a","41.113.234.18","Mozilla/5.0 (Windows NT 10.0; Win64; x64) AppleWebKit/537.36 (KHTML, like Gecko) Chrome/138.0.0.0 Safari/537.36","WebKit","Chrome","138.0.0.0","Windows","10.0","https://app.prolific.com/","en-GB,en-US;q=0.9,en;q=0.8","67d95269b47464c18da766ca","686d226cabeef709c732f8e1","686e311daab5596ff27ccf60","67d95269b47464c18da766ca","2025-07-09T09:29:16.286Z","","","","","","MotivationQ","","","","","","","","","","","","","","","","","","","","","","","","","","","","","","","","","","","","","","50",""
"","","","","ctl-task-cpt","48","1255608","0.0-10.0-0.2","132","1","2025-07-09 09:08:56","7701e855f2ef39aa3fd6c71abdc6918a","41.113.234.18","Mozilla/5.0 (Windows NT 10.0; Win64; x64) AppleWebKit/537.36 (KHTML, like Gecko) Chrome/138.0.0.0 Safari/537.36","WebKit","Chrome","138.0.0.0","Windows","10.0","https://app.prolific.com/","en-GB,en-US;q=0.9,en;q=0.8","67d95269b47464c18da766ca","686d226cabeef709c732f8e1","686e311daab5596ff27ccf60","67d95269b47464c18da766ca","2025-07-09T09:29:55.477Z","","","","","","","","","","","","","","","","win-only","3","g1:SW,g2:NE","0.8","3","0","1220395","1928.3","6931.6","36171.1","1","4","4","6","1","-1","-3","0","0","0","5003.3","3000","-2990","[""down"",""left""]","{""num_key_presses"":7,""num_perfect"":3,""num_errors"":2,""num_randdir"":2,""num_randdir_good_moves"":0,""num_whilered"":0,""num_whileblue"":0,""num_blue"":2,""num_good_moves"":3}","[415.3214133126395,416.57142761775424,0.2,415.3214133126395,416.57142761775424,102.8,415.3214133126395,416.57142761775424,208.1,415.3214133126395,416.57142761775424,312.5,415.3214133126395,416.57142761775424,417.7,415.3214133126395,416.57142761775424,523.5,415.3214133126395,416.57142761775424,627.8,415.3214133126395,416.57142761775424,727.9,415.3214133126395,416.57142761775424,833.2,415.3214133126395,416.57142761775424,937.5,415.3214133126395,416.57142761775424,1037.8,415.3214133126395,416.57142761775424,1142.3,415.3214133126395,416.57142761775424,1243.2,415.3214133126395,416.57142761775424,1347.1,415.3214133126395,416.57142761775424,1448.2,415.3214133126395,416.57142761775424,1553.1,415.3214133126395,416.57142761775424,1653.6,415.3214133126395,416.57142761775424,1757.9,415.3214133126395,416.57142761775424,1865.2,415.3214133126395,416.57142761775424,1968.3,415.3214133126395,416.57142761775424,2073.2,415.3214133126395,416.57142761775424,2177.8,415.3214133126395,416.57142761775424,2277.9,415.3214133126395,416.57142761775424,2383.3,415.3214133126395,416.57142761775424,2487.3,415.3214133126395,416.57142761775424,2587.5,415.3214133126395,416.57142761775424,2688.8,415.3214133126395,416.57142761775424,2793.9,415.3214133126395,416.57142761775424,2898.1,415.3214133126395,416.57142761775424,3003.2,415.3214133126395,416.57142761775424,3107.7,415.3214133126395,416.57142761775424,3212.3,415.3214133126395,416.57142761775424,3318.1,415.3214133126395,416.57142761775424,3418.5,415.3214133126395,416.57142761775424,3518.5,415.3214133126395,416.57142761775424,3622.1,415.3214133126395,416.57142761775424,3722.1,415.3214133126395,416.57142761775424,3822.3,415.3214133126395,416.57142761775424,3923.3,415.3214133126395,416.57142761775424,4023.5,415.3214133126395,416.57142761775424,4127.3,415.3214133126395,416.57142761775424,4227.5,415.3214133126395,416.57142761775424,4333,415.3214133126395,416.57142761775424,4439.2,415.3214133126395,416.57142761775424,4542.4,415.3214133126395,416.57142761775424,4648.5,415.3214133126395,416.57142761775424,4752.2,415.3214133126395,416.57142761775424,4852.6,415.3214133126395,416.57142761775424,4957.3]","[480.6,480.6,1000,0,-519.4,""error"",""-"",""-"",""no_move"",12362,11881.3,2787.3,8968.7,606.1,""smooth"",""down"",""down"",""good_move"",12638.2,275.7,3093.8,12362.5,-2818.1,""error"",""-"",""-"",""no_move"",16424,3785.5,2228.9,13642.6,552.5,""smooth"",""down"",""down"",""good_move"",19677.6,3252.7,2718.5,16424.9,534.2,""oops"",""left"",""right"",""bad_move"",22520,2842.2,2218.2,19677.9,624,""smooth"",""left"",""left"",""good_move"",26496.5,3975.9,3474.2,22520.6,501.7,""oops"",""left"",""right"",""bad_move""]","","",""
"9490","","<div style=""width:500px;"">
  <p>What determined the result of this run?</p>
  </div>","54","html-slider-response","49","1265100","0.0-10.0-1.2","132","1","2025-07-09 09:08:56","7701e855f2ef39aa3fd6c71abdc6918a","41.113.234.18","Mozilla/5.0 (Windows NT 10.0; Win64; x64) AppleWebKit/537.36 (KHTML, like Gecko) Chrome/138.0.0.0 Safari/537.36","WebKit","Chrome","138.0.0.0","Windows","10.0","https://app.prolific.com/","en-GB,en-US;q=0.9,en;q=0.8","67d95269b47464c18da766ca","686d226cabeef709c732f8e1","686e311daab5596ff27ccf60","67d95269b47464c18da766ca","2025-07-09T09:30:04.969Z","","","","","","AttribQ","","","","","","","","","","","","","","","","","","","","","","","","","","","","","","","","","","","","","","50",""
"4250","","<div style=""width:500px;"">
  <p>How much control did you have over the ball?</p>
  </div>","44","html-slider-response","50","1269352","0.0-10.0-2.2","132","1","2025-07-09 09:08:56","7701e855f2ef39aa3fd6c71abdc6918a","41.113.234.18","Mozilla/5.0 (Windows NT 10.0; Win64; x64) AppleWebKit/537.36 (KHTML, like Gecko) Chrome/138.0.0.0 Safari/537.36","WebKit","Chrome","138.0.0.0","Windows","10.0","https://app.prolific.com/","en-GB,en-US;q=0.9,en;q=0.8","67d95269b47464c18da766ca","686d226cabeef709c732f8e1","686e311daab5596ff27ccf60","67d95269b47464c18da766ca","2025-07-09T09:30:09.221Z","","","","","","ControlQ","","","","","","","","","","","","","","","","","","","","","","","","","","","","","","","","","","","","","","50",""
"5139","","<div style=""width:500px;"">
  <p>How would you describe your current emotional state?</p>
  </div>","25","html-slider-response","51","1274492","0.0-10.0-3.2","132","1","2025-07-09 09:08:56","7701e855f2ef39aa3fd6c71abdc6918a","41.113.234.18","Mozilla/5.0 (Windows NT 10.0; Win64; x64) AppleWebKit/537.36 (KHTML, like Gecko) Chrome/138.0.0.0 Safari/537.36","WebKit","Chrome","138.0.0.0","Windows","10.0","https://app.prolific.com/","en-GB,en-US;q=0.9,en;q=0.8","67d95269b47464c18da766ca","686d226cabeef709c732f8e1","686e311daab5596ff27ccf60","67d95269b47464c18da766ca","2025-07-09T09:30:14.361Z","","","","","","StressQ","","","","","","","","","","","","","","","","","","","","","","","","","","","","","","","","","","","","","","50",""
"6064","","<div style=""width:500px;"">
  <p>What best describes how you currently feel?</p>
  </div>","81","html-slider-response","52","1280557","0.0-10.0-4.2","132","1","2025-07-09 09:08:56","7701e855f2ef39aa3fd6c71abdc6918a","41.113.234.18","Mozilla/5.0 (Windows NT 10.0; Win64; x64) AppleWebKit/537.36 (KHTML, like Gecko) Chrome/138.0.0.0 Safari/537.36","WebKit","Chrome","138.0.0.0","Windows","10.0","https://app.prolific.com/","en-GB,en-US;q=0.9,en;q=0.8","67d95269b47464c18da766ca","686d226cabeef709c732f8e1","686e311daab5596ff27ccf60","67d95269b47464c18da766ca","2025-07-09T09:30:20.426Z","","","","","","MotivationQ","","","","","","","","","","","","","","","","","","","","","","","","","","","","","","","","","","","","","","50",""
"","","","","ctl-task-cpt","53","1306194","0.0-10.0-0.3","132","1","2025-07-09 09:08:56","7701e855f2ef39aa3fd6c71abdc6918a","41.113.234.18","Mozilla/5.0 (Windows NT 10.0; Win64; x64) AppleWebKit/537.36 (KHTML, like Gecko) Chrome/138.0.0.0 Safari/537.36","WebKit","Chrome","138.0.0.0","Windows","10.0","https://app.prolific.com/","en-GB,en-US;q=0.9,en;q=0.8","67d95269b47464c18da766ca","686d226cabeef709c732f8e1","686e311daab5596ff27ccf60","67d95269b47464c18da766ca","2025-07-09T09:30:46.063Z","","","","","","","","","","","","","","","","win-only","1","g1:NE,g2:SW","0.7","4","0","1284536","1378.9","6387","22625.6","1","4","8","6","2","-8","-9","0","0","0","5008.1","3000","-2495","[""down"",""left""]","{""num_key_presses"":5,""num_perfect"":3,""num_errors"":1,""num_randdir"":1,""num_randdir_good_moves"":0,""num_whilered"":0,""num_whileblue"":0,""num_blue"":0,""num_good_moves"":3}","[419.0714133126395,414.07142761775424,0.6,419.0714133126395,414.07142761775424,106.6,419.0714133126395,414.07142761775424,211.5,419.0714133126395,414.07142761775424,312,416.5714133126395,477.82142761775424,422.4,431.5714133126395,581.5714276177542,526.8,465.3214133126395,671.5714276177542,626.9,495.3214133126395,751.5714276177542,739.1,504.0714133126395,767.8214276177542,842.5,504.0714133126395,767.8214276177542,947.9,504.0714133126395,767.8214276177542,1055.8,504.0714133126395,767.8214276177542,1158.8,504.0714133126395,767.8214276177542,1261.7,504.0714133126395,767.8214276177542,1363.1,504.0714133126395,767.8214276177542,1467.5,504.0714133126395,767.8214276177542,1569.2,504.0714133126395,767.8214276177542,1672.6,504.0714133126395,767.8214276177542,1773.7,504.0714133126395,767.8214276177542,1877,504.0714133126395,767.8214276177542,1989.8,504.0714133126395,767.8214276177542,2091.5,504.0714133126395,767.8214276177542,2191.5,504.0714133126395,767.8214276177542,2292.2,504.0714133126395,767.8214276177542,2397.1,504.0714133126395,767.8214276177542,2506.9,504.0714133126395,767.8214276177542,2607.3,504.0714133126395,767.8214276177542,2711.8,504.0714133126395,767.8214276177542,2812,504.0714133126395,767.8214276177542,2912,504.0714133126395,767.8214276177542,3012.1,504.0714133126395,767.8214276177542,3122.8,504.0714133126395,767.8214276177542,3229.7,504.0714133126395,767.8214276177542,3339.1,504.0714133126395,767.8214276177542,3439.8,504.0714133126395,767.8214276177542,3541.8,504.0714133126395,767.8214276177542,3646.6,504.0714133126395,767.8214276177542,3758,504.0714133126395,767.8214276177542,3862.5,504.0714133126395,767.8214276177542,3962.8,504.0714133126395,767.8214276177542,4073.1,504.0714133126395,767.8214276177542,4176.2,504.0714133126395,767.8214276177542,4276.6,504.0714133126395,767.8214276177542,4377.2,504.0714133126395,767.8214276177542,4481.7,504.0714133126395,767.8214276177542,4589.3,504.0714133126395,767.8214276177542,4690.7,504.0714133126395,767.8214276177542,4791.9,504.0714133126395,767.8214276177542,4898]","[980.5,980.5,1000,0,-19.5,""error"",""-"",""-"",""no_move"",4665.3,3684.7,1815.3,1984.2,865.8,""oops"",""down"",""up"",""bad_move"",7781.1,3115.4,2298.8,4665.7,816.6,""smooth"",""down"",""down"",""good_move"",9810.2,2028.7,1396.9,7781.5,631.8,""smooth"",""down"",""down"",""good_move"",12733.2,2921.8,2464.4,9811.4,457.4,""smooth"",""down"",""down"",""good_move""]","","",""
"3995","","<div style=""width:500px;"">
  <p>What determined the result of this run?</p>
  </div>","59","html-slider-response","54","1310190","0.0-10.0-1.3","132","1","2025-07-09 09:08:56","7701e855f2ef39aa3fd6c71abdc6918a","41.113.234.18","Mozilla/5.0 (Windows NT 10.0; Win64; x64) AppleWebKit/537.36 (KHTML, like Gecko) Chrome/138.0.0.0 Safari/537.36","WebKit","Chrome","138.0.0.0","Windows","10.0","https://app.prolific.com/","en-GB,en-US;q=0.9,en;q=0.8","67d95269b47464c18da766ca","686d226cabeef709c732f8e1","686e311daab5596ff27ccf60","67d95269b47464c18da766ca","2025-07-09T09:30:50.059Z","","","","","","AttribQ","","","","","","","","","","","","","","","","","","","","","","","","","","","","","","","","","","","","","","50",""
"3030","","<div style=""width:500px;"">
  <p>How much control did you have over the ball?</p>
  </div>","53","html-slider-response","55","1313221","0.0-10.0-2.3","132","1","2025-07-09 09:08:56","7701e855f2ef39aa3fd6c71abdc6918a","41.113.234.18","Mozilla/5.0 (Windows NT 10.0; Win64; x64) AppleWebKit/537.36 (KHTML, like Gecko) Chrome/138.0.0.0 Safari/537.36","WebKit","Chrome","138.0.0.0","Windows","10.0","https://app.prolific.com/","en-GB,en-US;q=0.9,en;q=0.8","67d95269b47464c18da766ca","686d226cabeef709c732f8e1","686e311daab5596ff27ccf60","67d95269b47464c18da766ca","2025-07-09T09:30:53.090Z","","","","","","ControlQ","","","","","","","","","","","","","","","","","","","","","","","","","","","","","","","","","","","","","","50",""
"5487","","<div style=""width:500px;"">
  <p>How would you describe your current emotional state?</p>
  </div>","31","html-slider-response","56","1318709","0.0-10.0-3.3","132","1","2025-07-09 09:08:56","7701e855f2ef39aa3fd6c71abdc6918a","41.113.234.18","Mozilla/5.0 (Windows NT 10.0; Win64; x64) AppleWebKit/537.36 (KHTML, like Gecko) Chrome/138.0.0.0 Safari/537.36","WebKit","Chrome","138.0.0.0","Windows","10.0","https://app.prolific.com/","en-GB,en-US;q=0.9,en;q=0.8","67d95269b47464c18da766ca","686d226cabeef709c732f8e1","686e311daab5596ff27ccf60","67d95269b47464c18da766ca","2025-07-09T09:30:58.578Z","","","","","","StressQ","","","","","","","","","","","","","","","","","","","","","","","","","","","","","","","","","","","","","","50",""
"3951","","<div style=""width:500px;"">
  <p>What best describes how you currently feel?</p>
  </div>","70","html-slider-response","57","1322662","0.0-10.0-4.3","132","1","2025-07-09 09:08:56","7701e855f2ef39aa3fd6c71abdc6918a","41.113.234.18","Mozilla/5.0 (Windows NT 10.0; Win64; x64) AppleWebKit/537.36 (KHTML, like Gecko) Chrome/138.0.0.0 Safari/537.36","WebKit","Chrome","138.0.0.0","Windows","10.0","https://app.prolific.com/","en-GB,en-US;q=0.9,en;q=0.8","67d95269b47464c18da766ca","686d226cabeef709c732f8e1","686e311daab5596ff27ccf60","67d95269b47464c18da766ca","2025-07-09T09:31:02.531Z","","","","","","MotivationQ","","","","","","","","","","","","","","","","","","","","","","","","","","","","","","","","","","","","","","50",""
"","","","","ctl-task-cpt","58","1331928","0.0-10.0-0.4","132","1","2025-07-09 09:08:56","7701e855f2ef39aa3fd6c71abdc6918a","41.113.234.18","Mozilla/5.0 (Windows NT 10.0; Win64; x64) AppleWebKit/537.36 (KHTML, like Gecko) Chrome/138.0.0.0 Safari/537.36","WebKit","Chrome","138.0.0.0","Windows","10.0","https://app.prolific.com/","en-GB,en-US;q=0.9,en;q=0.8","67d95269b47464c18da766ca","686d226cabeef709c732f8e1","686e311daab5596ff27ccf60","67d95269b47464c18da766ca","2025-07-09T09:31:11.797Z","","","","","","","","","","","","","","","","win-only","0","g1:NW,g2:SE","0.6","5","0","1326640.2","1245.8","-9999","6250.5","1","4","4","6","-9999","-4","-4","0","0","0","-9999","3000","3000","[]","{""num_key_presses"":0,""num_perfect"":0,""num_errors"":0,""num_randdir"":0,""num_randdir_good_moves"":0,""num_whilered"":0,""num_whileblue"":0,""num_blue"":0,""num_good_moves"":0}","[420.3214133126395,419.07142761775424,0.1,420.3214133126395,419.07142761775424,100.1,420.3214133126395,419.07142761775424,200.3,420.3214133126395,419.07142761775424,301.5,420.3214133126395,419.07142761775424,404.8,420.3214133126395,419.07142761775424,506.5,420.3214133126395,419.07142761775424,606.7,420.3214133126395,419.07142761775424,711.3,420.3214133126395,419.07142761775424,817.6,420.3214133126395,419.07142761775424,920,420.3214133126395,419.07142761775424,1024.7,420.3214133126395,419.07142761775424,1125.8,420.3214133126395,419.07142761775424,1234.9,420.3214133126395,419.07142761775424,1335.2,420.3214133126395,419.07142761775424,1435.2,420.3214133126395,419.07142761775424,1540.7,420.3214133126395,419.07142761775424,1641.1,420.3214133126395,419.07142761775424,1749.7,420.3214133126395,419.07142761775424,1850.6,420.3214133126395,419.07142761775424,1957,420.3214133126395,419.07142761775424,2066.8,420.3214133126395,419.07142761775424,2170.8,420.3214133126395,419.07142761775424,2274.8,420.3214133126395,419.07142761775424,2384,420.3214133126395,419.07142761775424,2484.9,420.3214133126395,419.07142761775424,2585.1,420.3214133126395,419.07142761775424,2686,420.3214133126395,419.07142761775424,2790.1,420.3214133126395,419.07142761775424,2901.1,420.3214133126395,419.07142761775424,3001.6,420.3214133126395,419.07142761775424,3105.6,420.3214133126395,419.07142761775424,3210.5,420.3214133126395,419.07142761775424,3311.8,420.3214133126395,419.07142761775424,3417.5,420.3214133126395,419.07142761775424,3519.8,420.3214133126395,419.07142761775424,3620.8,420.3214133126395,419.07142761775424,3720.8,420.3214133126395,419.07142761775424,3825,420.3214133126395,419.07142761775424,3925.6,420.3214133126395,419.07142761775424,4027.5,420.3214133126395,419.07142761775424,4133.5,420.3214133126395,419.07142761775424,4234.7,420.3214133126395,419.07142761775424,4334.8,420.3214133126395,419.07142761775424,4439.7,420.3214133126395,419.07142761775424,4540.1,420.3214133126395,419.07142761775424,4640.9,420.3214133126395,419.07142761775424,4750.7,420.3214133126395,419.07142761775424,4851.5,420.3214133126395,419.07142761775424,4955.5]","[]","","",""
"5044","","<div style=""width:500px;"">
  <p>What determined the result of this run?</p>
  </div>","45","html-slider-response","59","1336973","0.0-10.0-1.4","132","1","2025-07-09 09:08:56","7701e855f2ef39aa3fd6c71abdc6918a","41.113.234.18","Mozilla/5.0 (Windows NT 10.0; Win64; x64) AppleWebKit/537.36 (KHTML, like Gecko) Chrome/138.0.0.0 Safari/537.36","WebKit","Chrome","138.0.0.0","Windows","10.0","https://app.prolific.com/","en-GB,en-US;q=0.9,en;q=0.8","67d95269b47464c18da766ca","686d226cabeef709c732f8e1","686e311daab5596ff27ccf60","67d95269b47464c18da766ca","2025-07-09T09:31:16.842Z","","","","","","AttribQ","","","","","","","","","","","","","","","","","","","","","","","","","","","","","","","","","","","","","","50",""
"4168","","<div style=""width:500px;"">
  <p>How much control did you have over the ball?</p>
  </div>","45","html-slider-response","60","1341142","0.0-10.0-2.4","132","1","2025-07-09 09:08:56","7701e855f2ef39aa3fd6c71abdc6918a","41.113.234.18","Mozilla/5.0 (Windows NT 10.0; Win64; x64) AppleWebKit/537.36 (KHTML, like Gecko) Chrome/138.0.0.0 Safari/537.36","WebKit","Chrome","138.0.0.0","Windows","10.0","https://app.prolific.com/","en-GB,en-US;q=0.9,en;q=0.8","67d95269b47464c18da766ca","686d226cabeef709c732f8e1","686e311daab5596ff27ccf60","67d95269b47464c18da766ca","2025-07-09T09:31:21.011Z","","","","","","ControlQ","","","","","","","","","","","","","","","","","","","","","","","","","","","","","","","","","","","","","","50",""
"4124","","<div style=""width:500px;"">
  <p>How would you describe your current emotional state?</p>
  </div>","41","html-slider-response","61","1345268","0.0-10.0-3.4","132","1","2025-07-09 09:08:56","7701e855f2ef39aa3fd6c71abdc6918a","41.113.234.18","Mozilla/5.0 (Windows NT 10.0; Win64; x64) AppleWebKit/537.36 (KHTML, like Gecko) Chrome/138.0.0.0 Safari/537.36","WebKit","Chrome","138.0.0.0","Windows","10.0","https://app.prolific.com/","en-GB,en-US;q=0.9,en;q=0.8","67d95269b47464c18da766ca","686d226cabeef709c732f8e1","686e311daab5596ff27ccf60","67d95269b47464c18da766ca","2025-07-09T09:31:25.137Z","","","","","","StressQ","","","","","","","","","","","","","","","","","","","","","","","","","","","","","","","","","","","","","","50",""
"5713","","<div style=""width:500px;"">
  <p>What best describes how you currently feel?</p>
  </div>","62","html-slider-response","62","1350982","0.0-10.0-4.4","132","1","2025-07-09 09:08:56","7701e855f2ef39aa3fd6c71abdc6918a","41.113.234.18","Mozilla/5.0 (Windows NT 10.0; Win64; x64) AppleWebKit/537.36 (KHTML, like Gecko) Chrome/138.0.0.0 Safari/537.36","WebKit","Chrome","138.0.0.0","Windows","10.0","https://app.prolific.com/","en-GB,en-US;q=0.9,en;q=0.8","67d95269b47464c18da766ca","686d226cabeef709c732f8e1","686e311daab5596ff27ccf60","67d95269b47464c18da766ca","2025-07-09T09:31:30.851Z","","","","","","MotivationQ","","","","","","","","","","","","","","","","","","","","","","","","","","","","","","","","","","","","","","50",""
"","","","","ctl-task-cpt","63","1370826","0.0-10.0-0.5","132","1","2025-07-09 09:08:56","7701e855f2ef39aa3fd6c71abdc6918a","41.113.234.18","Mozilla/5.0 (Windows NT 10.0; Win64; x64) AppleWebKit/537.36 (KHTML, like Gecko) Chrome/138.0.0.0 Safari/537.36","WebKit","Chrome","138.0.0.0","Windows","10.0","https://app.prolific.com/","en-GB,en-US;q=0.9,en;q=0.8","67d95269b47464c18da766ca","686d226cabeef709c732f8e1","686e311daab5596ff27ccf60","67d95269b47464c18da766ca","2025-07-09T09:31:50.695Z","","","","","","","","","","","","","","","","win-only","0","g1:NW,g2:SE","0.5","6","0","1354959.9","1373.5","6376.4","16831.8","1","4","8","6","1","1","1","1","0","0.007575757575757576","5002.9","3000","1280","[""left"",""up""]","{""num_key_presses"":4,""num_perfect"":1,""num_errors"":0,""num_randdir"":3,""num_randdir_good_moves"":3,""num_whilered"":0,""num_whileblue"":0,""num_blue"":0,""num_good_moves"":4}","[422.8214133126395,421.57142761775424,0.1,422.8214133126395,421.57142761775424,102.1,422.8214133126395,421.57142761775424,202.7,422.8214133126395,421.57142761775424,303.6,422.8214133126395,421.57142761775424,403.9,422.8214133126395,421.57142761775424,507.6,422.8214133126395,421.57142761775424,613.3,422.8214133126395,421.57142761775424,715.6,422.8214133126395,421.57142761775424,816.9,422.8214133126395,421.57142761775424,918,422.8214133126395,421.57142761775424,1021.8,422.8214133126395,421.57142761775424,1121.8,422.8214133126395,421.57142761775424,1222.7,422.8214133126395,421.57142761775424,1327.8,422.8214133126395,421.57142761775424,1433.2,422.8214133126395,421.57142761775424,1537.6,422.8214133126395,421.57142761775424,1643.9,422.8214133126395,421.57142761775424,1750.6,422.8214133126395,421.57142761775424,1853.6,422.8214133126395,421.57142761775424,1957.3,422.8214133126395,421.57142761775424,2068,422.8214133126395,421.57142761775424,2173.7,422.8214133126395,421.57142761775424,2285,422.8214133126395,421.57142761775424,2385.5,422.8214133126395,421.57142761775424,2486,422.8214133126395,421.57142761775424,2587.1,422.8214133126395,421.57142761775424,2692.8,422.8214133126395,421.57142761775424,2797.5,422.8214133126395,421.57142761775424,2899.7,422.8214133126395,421.57142761775424,3001.1,422.8214133126395,421.57142761775424,3102.4,422.8214133126395,421.57142761775424,3202.6,422.8214133126395,421.57142761775424,3307,422.8214133126395,421.57142761775424,3412.3,422.8214133126395,421.57142761775424,3518.2,422.8214133126395,421.57142761775424,3619,422.8214133126395,421.57142761775424,3722.7,422.8214133126395,421.57142761775424,3826.7,422.8214133126395,421.57142761775424,3933.2,422.8214133126395,421.57142761775424,4035.5,422.8214133126395,421.57142761775424,4137.5,422.8214133126395,421.57142761775424,4242.5,422.8214133126395,421.57142761775424,4350.5,422.8214133126395,421.57142761775424,4450.5,422.8214133126395,421.57142761775424,4550.5,422.8214133126395,421.57142761775424,4650.9,422.8214133126395,421.57142761775424,4752.7,422.8214133126395,421.57142761775424,4857,422.8214133126395,421.57142761775424,4966.9]","[1772.7,1772.7,1000,0,772.7,""oops"",""up"",""up"",""good_move"",4730.5,2957.5,2457.8,1773,499.7,""oops"",""up"",""up"",""good_move"",7297.7,2566.8,2167,4730.9,399.8,""smooth"",""left"",""left"",""good_move"",10347.7,3049.6,2629.5,7298.1,420.1,""oops"",""left"",""left"",""good_move""]","","",""
"3968","","<div style=""width:500px;"">
  <p>What determined the result of this run?</p>
  </div>","54","html-slider-response","64","1374795","0.0-10.0-1.5","132","1","2025-07-09 09:08:56","7701e855f2ef39aa3fd6c71abdc6918a","41.113.234.18","Mozilla/5.0 (Windows NT 10.0; Win64; x64) AppleWebKit/537.36 (KHTML, like Gecko) Chrome/138.0.0.0 Safari/537.36","WebKit","Chrome","138.0.0.0","Windows","10.0","https://app.prolific.com/","en-GB,en-US;q=0.9,en;q=0.8","67d95269b47464c18da766ca","686d226cabeef709c732f8e1","686e311daab5596ff27ccf60","67d95269b47464c18da766ca","2025-07-09T09:31:54.664Z","","","","","","AttribQ","","","","","","","","","","","","","","","","","","","","","","","","","","","","","","","","","","","","","","50",""
"4914","","<div style=""width:500px;"">
  <p>How much control did you have over the ball?</p>
  </div>","52","html-slider-response","65","1379710","0.0-10.0-2.5","132","1","2025-07-09 09:08:56","7701e855f2ef39aa3fd6c71abdc6918a","41.113.234.18","Mozilla/5.0 (Windows NT 10.0; Win64; x64) AppleWebKit/537.36 (KHTML, like Gecko) Chrome/138.0.0.0 Safari/537.36","WebKit","Chrome","138.0.0.0","Windows","10.0","https://app.prolific.com/","en-GB,en-US;q=0.9,en;q=0.8","67d95269b47464c18da766ca","686d226cabeef709c732f8e1","686e311daab5596ff27ccf60","67d95269b47464c18da766ca","2025-07-09T09:31:59.579Z","","","","","","ControlQ","","","","","","","","","","","","","","","","","","","","","","","","","","","","","","","","","","","","","","50",""
"3978","","<div style=""width:500px;"">
  <p>How would you describe your current emotional state?</p>
  </div>","38","html-slider-response","66","1383690","0.0-10.0-3.5","132","1","2025-07-09 09:08:56","7701e855f2ef39aa3fd6c71abdc6918a","41.113.234.18","Mozilla/5.0 (Windows NT 10.0; Win64; x64) AppleWebKit/537.36 (KHTML, like Gecko) Chrome/138.0.0.0 Safari/537.36","WebKit","Chrome","138.0.0.0","Windows","10.0","https://app.prolific.com/","en-GB,en-US;q=0.9,en;q=0.8","67d95269b47464c18da766ca","686d226cabeef709c732f8e1","686e311daab5596ff27ccf60","67d95269b47464c18da766ca","2025-07-09T09:32:03.559Z","","","","","","StressQ","","","","","","","","","","","","","","","","","","","","","","","","","","","","","","","","","","","","","","50",""
"4283","","<div style=""width:500px;"">
  <p>What best describes how you currently feel?</p>
  </div>","55","html-slider-response","67","1387974","0.0-10.0-4.5","132","1","2025-07-09 09:08:56","7701e855f2ef39aa3fd6c71abdc6918a","41.113.234.18","Mozilla/5.0 (Windows NT 10.0; Win64; x64) AppleWebKit/537.36 (KHTML, like Gecko) Chrome/138.0.0.0 Safari/537.36","WebKit","Chrome","138.0.0.0","Windows","10.0","https://app.prolific.com/","en-GB,en-US;q=0.9,en;q=0.8","67d95269b47464c18da766ca","686d226cabeef709c732f8e1","686e311daab5596ff27ccf60","67d95269b47464c18da766ca","2025-07-09T09:32:07.843Z","","","","","","MotivationQ","","","","","","","","","","","","","","","","","","","","","","","","","","","","","","","","","","","","","","50",""
"","","","","ctl-task-cpt","68","1434708","0.0-10.0-0.6","132","1","2025-07-09 09:08:56","7701e855f2ef39aa3fd6c71abdc6918a","41.113.234.18","Mozilla/5.0 (Windows NT 10.0; Win64; x64) AppleWebKit/537.36 (KHTML, like Gecko) Chrome/138.0.0.0 Safari/537.36","WebKit","Chrome","138.0.0.0","Windows","10.0","https://app.prolific.com/","en-GB,en-US;q=0.9,en;q=0.8","67d95269b47464c18da766ca","686d226cabeef709c732f8e1","686e311daab5596ff27ccf60","67d95269b47464c18da766ca","2025-07-09T09:32:54.577Z","","","","","","","","","","","","","","","","win-only","0","g1:NW,g2:SE","0.4","7","0","1391951.3","1498.1","6501.7","43715.6","1","4","4","6","2","4","3","4","1","0.030303030303030304","5003.6","3000","485","[""down"",""right""]","{""num_key_presses"":8,""num_perfect"":3,""num_errors"":1,""num_randdir"":4,""num_randdir_good_moves"":4,""num_whilered"":0,""num_whileblue"":1,""num_blue"":5,""num_good_moves"":7}","[420.3214133126395,417.82142761775424,0.1,420.3214133126395,417.82142761775424,102.1,420.3214133126395,417.82142761775424,202.4,420.3214133126395,417.82142761775424,307.5,420.3214133126395,417.82142761775424,412.3,420.3214133126395,417.82142761775424,517.2,420.3214133126395,417.82142761775424,617.8,420.3214133126395,417.82142761775424,720.7,420.3214133126395,417.82142761775424,820.7,420.3214133126395,417.82142761775424,921.1,420.3214133126395,417.82142761775424,1022.6,420.3214133126395,417.82142761775424,1122.8,420.3214133126395,417.82142761775424,1236.9,420.3214133126395,417.82142761775424,1337.3,420.3214133126395,417.82142761775424,1437.9,420.3214133126395,417.82142761775424,1551.7,420.3214133126395,417.82142761775424,1652.2,420.3214133126395,417.82142761775424,1758.4,420.3214133126395,417.82142761775424,1868.7,420.3214133126395,417.82142761775424,1972.8,420.3214133126395,417.82142761775424,2087.6,420.3214133126395,417.82142761775424,2192,420.3214133126395,417.82142761775424,2292.3,420.3214133126395,417.82142761775424,2392.5,420.3214133126395,417.82142761775424,2492.7,420.3214133126395,417.82142761775424,2604.2,420.3214133126395,417.82142761775424,2707.2,420.3214133126395,417.82142761775424,2808,420.3214133126395,417.82142761775424,2920.9,420.3214133126395,417.82142761775424,3023,420.3214133126395,417.82142761775424,3136.6,420.3214133126395,417.82142761775424,3236.9,420.3214133126395,417.82142761775424,3336.9,420.3214133126395,417.82142761775424,3439.2,420.3214133126395,417.82142761775424,3543.2,420.3214133126395,417.82142761775424,3645.4,420.3214133126395,417.82142761775424,3752.5,420.3214133126395,417.82142761775424,3857.4,420.3214133126395,417.82142761775424,3957.8,420.3214133126395,417.82142761775424,4070,420.3214133126395,417.82142761775424,4172.2,420.3214133126395,417.82142761775424,4272.2,420.3214133126395,417.82142761775424,4372.5,420.3214133126395,417.82142761775424,4474.9,420.3214133126395,417.82142761775424,4578.3,420.3214133126395,417.82142761775424,4690.1,420.3214133126395,417.82142761775424,4792.3,420.3214133126395,417.82142761775424,4898.3]","[1687.6,1687.6,1000,0,687.6,""oops"",""up"",""right"",""good_move"",5066,3378,2947.1,1688,430.9,""while_blue"",""down"",""up"",""bad_move"",8231.4,3165.2,2621.4,5066.2,543.8,""smooth"",""down"",""down"",""good_move"",11089.7,2858,2465.3,8231.7,392.7,""oops"",""down"",""down"",""good_move"",14214.1,3123.8,2707.7,11090.3,416.1,""oops"",""down"",""right"",""good_move"",17498.2,3283.8,2894.9,14214.4,388.9,""smooth"",""down"",""down"",""good_move"",27962.8,10463.9,3496.8,24024.3,441.7,""oops"",""down"",""right"",""good_move"",37112,9148.9,1989.1,34683.7,439.2,""smooth"",""down"",""down"",""good_move""]","","",""
"4842","","<div style=""width:500px;"">
  <p>What determined the result of this run?</p>
  </div>","55","html-slider-response","69","1439552","0.0-10.0-1.6","132","1","2025-07-09 09:08:56","7701e855f2ef39aa3fd6c71abdc6918a","41.113.234.18","Mozilla/5.0 (Windows NT 10.0; Win64; x64) AppleWebKit/537.36 (KHTML, like Gecko) Chrome/138.0.0.0 Safari/537.36","WebKit","Chrome","138.0.0.0","Windows","10.0","https://app.prolific.com/","en-GB,en-US;q=0.9,en;q=0.8","67d95269b47464c18da766ca","686d226cabeef709c732f8e1","686e311daab5596ff27ccf60","67d95269b47464c18da766ca","2025-07-09T09:32:59.421Z","","","","","","AttribQ","","","","","","","","","","","","","","","","","","","","","","","","","","","","","","","","","","","","","","50",""
"3514","","<div style=""width:500px;"">
  <p>How much control did you have over the ball?</p>
  </div>","44","html-slider-response","70","1443070","0.0-10.0-2.6","132","1","2025-07-09 09:08:56","7701e855f2ef39aa3fd6c71abdc6918a","41.113.234.18","Mozilla/5.0 (Windows NT 10.0; Win64; x64) AppleWebKit/537.36 (KHTML, like Gecko) Chrome/138.0.0.0 Safari/537.36","WebKit","Chrome","138.0.0.0","Windows","10.0","https://app.prolific.com/","en-GB,en-US;q=0.9,en;q=0.8","67d95269b47464c18da766ca","686d226cabeef709c732f8e1","686e311daab5596ff27ccf60","67d95269b47464c18da766ca","2025-07-09T09:33:02.940Z","","","","","","ControlQ","","","","","","","","","","","","","","","","","","","","","","","","","","","","","","","","","","","","","","50",""
"3505","","<div style=""width:500px;"">
  <p>How would you describe your current emotional state?</p>
  </div>","46","html-slider-response","71","1446578","0.0-10.0-3.6","132","1","2025-07-09 09:08:56","7701e855f2ef39aa3fd6c71abdc6918a","41.113.234.18","Mozilla/5.0 (Windows NT 10.0; Win64; x64) AppleWebKit/537.36 (KHTML, like Gecko) Chrome/138.0.0.0 Safari/537.36","WebKit","Chrome","138.0.0.0","Windows","10.0","https://app.prolific.com/","en-GB,en-US;q=0.9,en;q=0.8","67d95269b47464c18da766ca","686d226cabeef709c732f8e1","686e311daab5596ff27ccf60","67d95269b47464c18da766ca","2025-07-09T09:33:06.447Z","","","","","","StressQ","","","","","","","","","","","","","","","","","","","","","","","","","","","","","","","","","","","","","","50",""
"4347","","<div style=""width:500px;"">
  <p>What best describes how you currently feel?</p>
  </div>","63","html-slider-response","72","1450926","0.0-10.0-4.6","132","1","2025-07-09 09:08:56","7701e855f2ef39aa3fd6c71abdc6918a","41.113.234.18","Mozilla/5.0 (Windows NT 10.0; Win64; x64) AppleWebKit/537.36 (KHTML, like Gecko) Chrome/138.0.0.0 Safari/537.36","WebKit","Chrome","138.0.0.0","Windows","10.0","https://app.prolific.com/","en-GB,en-US;q=0.9,en;q=0.8","67d95269b47464c18da766ca","686d226cabeef709c732f8e1","686e311daab5596ff27ccf60","67d95269b47464c18da766ca","2025-07-09T09:33:10.795Z","","","","","","MotivationQ","","","","","","","","","","","","","","","","","","","","","","","","","","","","","","","","","","","","","","50",""
"","","","","ctl-task-cpt","73","1462642","0.0-10.0-0.7","132","1","2025-07-09 09:08:56","7701e855f2ef39aa3fd6c71abdc6918a","41.113.234.18","Mozilla/5.0 (Windows NT 10.0; Win64; x64) AppleWebKit/537.36 (KHTML, like Gecko) Chrome/138.0.0.0 Safari/537.36","WebKit","Chrome","138.0.0.0","Windows","10.0","https://app.prolific.com/","en-GB,en-US;q=0.9,en;q=0.8","67d95269b47464c18da766ca","686d226cabeef709c732f8e1","686e311daab5596ff27ccf60","67d95269b47464c18da766ca","2025-07-09T09:33:22.511Z","","","","","","","","","","","","","","","","win-only","3","g1:SW,g2:NE","0.3","8","0","1454903.7","3694.7","-9999","8696.1","1","4","8","6","-9999","-4","-4","0","4","0","-9999","3000","3000","[]","{""num_key_presses"":0,""num_perfect"":0,""num_errors"":0,""num_randdir"":0,""num_randdir_good_moves"":0,""num_whilered"":0,""num_whileblue"":0,""num_blue"":0,""num_good_moves"":0}","[414.0714133126395,412.82142761775424,0.3,414.0714133126395,412.82142761775424,100.8,414.0714133126395,414.07142761775424,201.5,414.0714133126395,414.07142761775424,305.5,414.0714133126395,414.07142761775424,405.7,414.0714133126395,414.07142761775424,506.1,414.0714133126395,414.07142761775424,610.9,414.0714133126395,414.07142761775424,717.1,414.0714133126395,414.07142761775424,821.6,414.0714133126395,414.07142761775424,935.2,414.0714133126395,414.07142761775424,1036,414.0714133126395,414.07142761775424,1137.3,414.0714133126395,414.07142761775424,1250.6,414.0714133126395,414.07142761775424,1355.4,414.0714133126395,414.07142761775424,1456.3,414.0714133126395,414.07142761775424,1561.4,414.0714133126395,414.07142761775424,1666.1,414.0714133126395,414.07142761775424,1766.9,414.0714133126395,414.07142761775424,1872.3,414.0714133126395,414.07142761775424,1975.7,414.0714133126395,414.07142761775424,2084.7,414.0714133126395,414.07142761775424,2186.3,414.0714133126395,414.07142761775424,2287.1,414.0714133126395,414.07142761775424,2390.8,414.0714133126395,414.07142761775424,2500.9,414.0714133126395,414.07142761775424,2601,414.0714133126395,414.07142761775424,2705.6,414.0714133126395,414.07142761775424,2805.9,414.0714133126395,414.07142761775424,2906,414.0714133126395,414.07142761775424,3017.4,414.0714133126395,414.07142761775424,3120.4,414.0714133126395,414.07142761775424,3220.8,414.0714133126395,414.07142761775424,3338.3,414.0714133126395,414.07142761775424,3442,414.0714133126395,414.07142761775424,3550.6,414.0714133126395,414.07142761775424,3650.8,414.0714133126395,414.07142761775424,3756.4,414.0714133126395,414.07142761775424,3860.9,414.0714133126395,414.07142761775424,3961.8,414.0714133126395,414.07142761775424,4067.3,414.0714133126395,414.07142761775424,4171.9,414.0714133126395,414.07142761775424,4275.6,414.0714133126395,414.07142761775424,4376,414.0714133126395,414.07142761775424,4480.6,414.0714133126395,414.07142761775424,4580.8,414.0714133126395,414.07142761775424,4682.3,414.0714133126395,414.07142761775424,4785.9,414.0714133126395,414.07142761775424,4886,414.0714133126395,414.07142761775424,4991.1]","[]","","",""
"4531","","<div style=""width:500px;"">
  <p>What determined the result of this run?</p>
  </div>","54","html-slider-response","74","1467175","0.0-10.0-1.7","132","1","2025-07-09 09:08:56","7701e855f2ef39aa3fd6c71abdc6918a","41.113.234.18","Mozilla/5.0 (Windows NT 10.0; Win64; x64) AppleWebKit/537.36 (KHTML, like Gecko) Chrome/138.0.0.0 Safari/537.36","WebKit","Chrome","138.0.0.0","Windows","10.0","https://app.prolific.com/","en-GB,en-US;q=0.9,en;q=0.8","67d95269b47464c18da766ca","686d226cabeef709c732f8e1","686e311daab5596ff27ccf60","67d95269b47464c18da766ca","2025-07-09T09:33:27.044Z","","","","","","AttribQ","","","","","","","","","","","","","","","","","","","","","","","","","","","","","","","","","","","","","","50",""
"2560","","<div style=""width:500px;"">
  <p>How much control did you have over the ball?</p>
  </div>","47","html-slider-response","75","1469740","0.0-10.0-2.7","132","1","2025-07-09 09:08:56","7701e855f2ef39aa3fd6c71abdc6918a","41.113.234.18","Mozilla/5.0 (Windows NT 10.0; Win64; x64) AppleWebKit/537.36 (KHTML, like Gecko) Chrome/138.0.0.0 Safari/537.36","WebKit","Chrome","138.0.0.0","Windows","10.0","https://app.prolific.com/","en-GB,en-US;q=0.9,en;q=0.8","67d95269b47464c18da766ca","686d226cabeef709c732f8e1","686e311daab5596ff27ccf60","67d95269b47464c18da766ca","2025-07-09T09:33:29.609Z","","","","","","ControlQ","","","","","","","","","","","","","","","","","","","","","","","","","","","","","","","","","","","","","","50",""
"3019","","<div style=""width:500px;"">
  <p>How would you describe your current emotional state?</p>
  </div>","45","html-slider-response","76","1472763","0.0-10.0-3.7","132","1","2025-07-09 09:08:56","7701e855f2ef39aa3fd6c71abdc6918a","41.113.234.18","Mozilla/5.0 (Windows NT 10.0; Win64; x64) AppleWebKit/537.36 (KHTML, like Gecko) Chrome/138.0.0.0 Safari/537.36","WebKit","Chrome","138.0.0.0","Windows","10.0","https://app.prolific.com/","en-GB,en-US;q=0.9,en;q=0.8","67d95269b47464c18da766ca","686d226cabeef709c732f8e1","686e311daab5596ff27ccf60","67d95269b47464c18da766ca","2025-07-09T09:33:32.633Z","","","","","","StressQ","","","","","","","","","","","","","","","","","","","","","","","","","","","","","","","","","","","","","","50",""
"2319","","<div style=""width:500px;"">
  <p>What best describes how you currently feel?</p>
  </div>","55","html-slider-response","77","1475087","0.0-10.0-4.7","132","1","2025-07-09 09:08:56","7701e855f2ef39aa3fd6c71abdc6918a","41.113.234.18","Mozilla/5.0 (Windows NT 10.0; Win64; x64) AppleWebKit/537.36 (KHTML, like Gecko) Chrome/138.0.0.0 Safari/537.36","WebKit","Chrome","138.0.0.0","Windows","10.0","https://app.prolific.com/","en-GB,en-US;q=0.9,en;q=0.8","67d95269b47464c18da766ca","686d226cabeef709c732f8e1","686e311daab5596ff27ccf60","67d95269b47464c18da766ca","2025-07-09T09:33:34.956Z","","","","","","MotivationQ","","","","","","","","","","","","","","","","","","","","","","","","","","","","","","","","","","","","","","50",""
"","","","","ctl-task-cpt","78","1511905","0.0-10.0-0.8","132","1","2025-07-09 09:08:56","7701e855f2ef39aa3fd6c71abdc6918a","41.113.234.18","Mozilla/5.0 (Windows NT 10.0; Win64; x64) AppleWebKit/537.36 (KHTML, like Gecko) Chrome/138.0.0.0 Safari/537.36","WebKit","Chrome","138.0.0.0","Windows","10.0","https://app.prolific.com/","en-GB,en-US;q=0.9,en;q=0.8","67d95269b47464c18da766ca","686d226cabeef709c732f8e1","686e311daab5596ff27ccf60","67d95269b47464c18da766ca","2025-07-09T09:34:11.774Z","","","","","","","","","","","","","","","","win-only","2","g1:SE,g2:NW","0.2","9","0","1479064.4","1299","6300.2","33800.1","1","4","8","6","1","-1","-1","0","0","0","5000.9","3000","-2265","[""down"",""right""]","{""num_key_presses"":9,""num_perfect"":2,""num_errors"":0,""num_randdir"":7,""num_randdir_good_moves"":2,""num_whilered"":0,""num_whileblue"":0,""num_blue"":0,""num_good_moves"":3}","[411.5714133126395,417.82142761775424,0.3,411.5714133126395,417.82142761775424,102.6,411.5714133126395,417.82142761775424,203.3,411.5714133126395,417.82142761775424,307.7,411.5714133126395,417.82142761775424,412.8,411.5714133126395,417.82142761775424,512.8,411.5714133126395,417.82142761775424,618.4,411.5714133126395,417.82142761775424,722.4,411.5714133126395,417.82142761775424,827,411.5714133126395,417.82142761775424,933.2,411.5714133126395,417.82142761775424,1037.2,411.5714133126395,417.82142761775424,1137.7,411.5714133126395,417.82142761775424,1252.4,411.5714133126395,417.82142761775424,1356.4,411.5714133126395,417.82142761775424,1456.7,411.5714133126395,417.82142761775424,1557.6,411.5714133126395,417.82142761775424,1661.6,411.5714133126395,417.82142761775424,1761.9,411.5714133126395,417.82142761775424,1862,411.5714133126395,417.82142761775424,1966.6,411.5714133126395,417.82142761775424,2066.7,411.5714133126395,417.82142761775424,2168.1,411.5714133126395,417.82142761775424,2271.2,411.5714133126395,417.82142761775424,2371.9,411.5714133126395,417.82142761775424,2487.5,411.5714133126395,417.82142761775424,2592.6,411.5714133126395,417.82142761775424,2701.6,411.5714133126395,417.82142761775424,2801.8,411.5714133126395,417.82142761775424,2918.3,411.5714133126395,417.82142761775424,3020.9,411.5714133126395,417.82142761775424,3122.6,411.5714133126395,417.82142761775424,3222.8,411.5714133126395,417.82142761775424,3326.9,411.5714133126395,417.82142761775424,3434.8,411.5714133126395,417.82142761775424,3536.8,411.5714133126395,417.82142761775424,3652,411.5714133126395,417.82142761775424,3752.2,411.5714133126395,417.82142761775424,3868.4,411.5714133126395,417.82142761775424,3971.5,411.5714133126395,417.82142761775424,4073.2,411.5714133126395,417.82142761775424,4176.4,411.5714133126395,417.82142761775424,4283.1,411.5714133126395,417.82142761775424,4385.7,411.5714133126395,417.82142761775424,4487,411.5714133126395,417.82142761775424,4601.7,411.5714133126395,417.82142761775424,4706.4,411.5714133126395,417.82142761775424,4807.4,411.5714133126395,417.82142761775424,4912.8]","[1267.4,1267.4,1000,0,267.4,""smooth"",""up"",""up"",""bad_move"",4533.6,3265.9,2686.8,1267.7,579.1,""smooth"",""down"",""down"",""good_move"",7749.2,3215.3,2774.6,4533.9,440.7,""oops"",""down"",""right"",""good_move"",10665.4,2915.8,2530.8,7749.6,385,""oops"",""down"",""up"",""bad_move"",13898.6,3233,2618.2,10665.6,614.8,""oops"",""down"",""left"",""bad_move"",16949.6,3050.7,2678.6,13898.9,372.1,""oops"",""down"",""left"",""bad_move"",20183.2,3233.5,2846,16949.7,387.5,""oops"",""down"",""right"",""good_move"",22932.9,2749.3,2352.1,20183.6,397.2,""oops"",""down"",""up"",""bad_move"",25566.1,2632.9,2120.1,22933.2,512.8,""oops"",""down"",""up"",""bad_move""]","","",""
"2945","","<div style=""width:500px;"">
  <p>What determined the result of this run?</p>
  </div>","27","html-slider-response","79","1514853","0.0-10.0-1.8","132","1","2025-07-09 09:08:56","7701e855f2ef39aa3fd6c71abdc6918a","41.113.234.18","Mozilla/5.0 (Windows NT 10.0; Win64; x64) AppleWebKit/537.36 (KHTML, like Gecko) Chrome/138.0.0.0 Safari/537.36","WebKit","Chrome","138.0.0.0","Windows","10.0","https://app.prolific.com/","en-GB,en-US;q=0.9,en;q=0.8","67d95269b47464c18da766ca","686d226cabeef709c732f8e1","686e311daab5596ff27ccf60","67d95269b47464c18da766ca","2025-07-09T09:34:14.722Z","","","","","","AttribQ","","","","","","","","","","","","","","","","","","","","","","","","","","","","","","","","","","","","","","50",""
"5090","","<div style=""width:500px;"">
  <p>How much control did you have over the ball?</p>
  </div>","0","html-slider-response","80","1519948","0.0-10.0-2.8","132","1","2025-07-09 09:08:56","7701e855f2ef39aa3fd6c71abdc6918a","41.113.234.18","Mozilla/5.0 (Windows NT 10.0; Win64; x64) AppleWebKit/537.36 (KHTML, like Gecko) Chrome/138.0.0.0 Safari/537.36","WebKit","Chrome","138.0.0.0","Windows","10.0","https://app.prolific.com/","en-GB,en-US;q=0.9,en;q=0.8","67d95269b47464c18da766ca","686d226cabeef709c732f8e1","686e311daab5596ff27ccf60","67d95269b47464c18da766ca","2025-07-09T09:34:19.817Z","","","","","","ControlQ","","","","","","","","","","","","","","","","","","","","","","","","","","","","","","","","","","","","","","50",""
"5375","","<div style=""width:500px;"">
  <p>How would you describe your current emotional state?</p>
  </div>","47","html-slider-response","81","1525328","0.0-10.0-3.8","132","1","2025-07-09 09:08:56","7701e855f2ef39aa3fd6c71abdc6918a","41.113.234.18","Mozilla/5.0 (Windows NT 10.0; Win64; x64) AppleWebKit/537.36 (KHTML, like Gecko) Chrome/138.0.0.0 Safari/537.36","WebKit","Chrome","138.0.0.0","Windows","10.0","https://app.prolific.com/","en-GB,en-US;q=0.9,en;q=0.8","67d95269b47464c18da766ca","686d226cabeef709c732f8e1","686e311daab5596ff27ccf60","67d95269b47464c18da766ca","2025-07-09T09:34:25.198Z","","","","","","StressQ","","","","","","","","","","","","","","","","","","","","","","","","","","","","","","","","","","","","","","50",""
"2912","","<div style=""width:500px;"">
  <p>What best describes how you currently feel?</p>
  </div>","52","html-slider-response","82","1528246","0.0-10.0-4.8","132","1","2025-07-09 09:08:56","7701e855f2ef39aa3fd6c71abdc6918a","41.113.234.18","Mozilla/5.0 (Windows NT 10.0; Win64; x64) AppleWebKit/537.36 (KHTML, like Gecko) Chrome/138.0.0.0 Safari/537.36","WebKit","Chrome","138.0.0.0","Windows","10.0","https://app.prolific.com/","en-GB,en-US;q=0.9,en;q=0.8","67d95269b47464c18da766ca","686d226cabeef709c732f8e1","686e311daab5596ff27ccf60","67d95269b47464c18da766ca","2025-07-09T09:34:28.115Z","","","","","","MotivationQ","","","","","","","","","","","","","","","","","","","","","","","","","","","","","","","","","","","","","","50",""
"","","","","ctl-task-cpt","83","1560445","0.0-10.0-0.9","132","1","2025-07-09 09:08:56","7701e855f2ef39aa3fd6c71abdc6918a","41.113.234.18","Mozilla/5.0 (Windows NT 10.0; Win64; x64) AppleWebKit/537.36 (KHTML, like Gecko) Chrome/138.0.0.0 Safari/537.36","WebKit","Chrome","138.0.0.0","Windows","10.0","https://app.prolific.com/","en-GB,en-US;q=0.9,en;q=0.8","67d95269b47464c18da766ca","686d226cabeef709c732f8e1","686e311daab5596ff27ccf60","67d95269b47464c18da766ca","2025-07-09T09:35:00.314Z","","","","","","","","","","","","","","","","win-only","0","g1:NW,g2:SE","0.4","10","0","1532228.3","1453","6456.3","29175.7","1","4","4","6","1","1","0","0","0","0","5003.2","3000","910","[""left"",""up""]","{""num_key_presses"":7,""num_perfect"":3,""num_errors"":1,""num_randdir"":3,""num_randdir_good_moves"":2,""num_whilered"":0,""num_whileblue"":0,""num_blue"":1,""num_good_moves"":5}","[415.3214133126395,422.82142761775424,0.1,415.3214133126395,422.82142761775424,103.3,415.3214133126395,422.82142761775424,213.5,415.3214133126395,422.82142761775424,318.6,415.3214133126395,422.82142761775424,422.8,415.3214133126395,422.82142761775424,522.8,415.3214133126395,422.82142761775424,627.5,415.3214133126395,422.82142761775424,729.1,415.3214133126395,422.82142761775424,829.3,415.3214133126395,422.82142761775424,932.4,415.3214133126395,422.82142761775424,1034.2,415.3214133126395,422.82142761775424,1137.8,415.3214133126395,422.82142761775424,1238.4,415.3214133126395,422.82142761775424,1342.9,415.3214133126395,422.82142761775424,1447.8,415.3214133126395,422.82142761775424,1548.9,415.3214133126395,422.82142761775424,1649,415.3214133126395,422.82142761775424,1753.9,415.3214133126395,422.82142761775424,1860.7,415.3214133126395,422.82142761775424,1963.2,415.3214133126395,422.82142761775424,2067.6,415.3214133126395,422.82142761775424,2169.2,415.3214133126395,422.82142761775424,2269.3,415.3214133126395,422.82142761775424,2372.8,415.3214133126395,422.82142761775424,2473.1,415.3214133126395,422.82142761775424,2579.8,415.3214133126395,422.82142761775424,2683.9,415.3214133126395,422.82142761775424,2789.7,415.3214133126395,422.82142761775424,2898.2,415.3214133126395,422.82142761775424,3003.4,415.3214133126395,422.82142761775424,3107.5,415.3214133126395,422.82142761775424,3211.5,415.3214133126395,422.82142761775424,3314.4,415.3214133126395,422.82142761775424,3418.1,415.3214133126395,422.82142761775424,3519,415.3214133126395,422.82142761775424,3626.9,415.3214133126395,422.82142761775424,3728.9,415.3214133126395,422.82142761775424,3833.7,415.3214133126395,422.82142761775424,3940.7,415.3214133126395,422.82142761775424,4044.3,415.3214133126395,422.82142761775424,4148.3,415.3214133126395,422.82142761775424,4253.2,415.3214133126395,422.82142761775424,4358.8,415.3214133126395,422.82142761775424,4463.3,415.3214133126395,422.82142761775424,4572.9,415.3214133126395,422.82142761775424,4677.5,415.3214133126395,422.82142761775424,4784,415.3214133126395,422.82142761775424,4892.6,415.3214133126395,422.82142761775424,4993.2]","[905.8,905.8,1000,0,-94.2,""error"",""-"",""-"",""no_move"",5192.7,4286.8,2770.9,1909.4,512.4,""oops"",""up"",""right"",""bad_move"",7845.1,2651.6,2147.2,5193.5,504.4,""smooth"",""left"",""left"",""good_move"",10195.4,2350.1,1944.7,7845.4,405.4,""oops"",""left"",""left"",""good_move"",13828.2,3632.4,3035.2,10195.8,597.2,""smooth"",""left"",""left"",""good_move"",16712.5,2884,2461.9,13828.5,422.1,""oops"",""up"",""up"",""good_move"",22612.5,5899.6,2461.2,19664.6,486.7,""smooth"",""up"",""up"",""good_move""]","","",""
"5303","","<div style=""width:500px;"">
  <p>What determined the result of this run?</p>
  </div>","54","html-slider-response","84","1565750","0.0-10.0-1.9","132","1","2025-07-09 09:08:56","7701e855f2ef39aa3fd6c71abdc6918a","41.113.234.18","Mozilla/5.0 (Windows NT 10.0; Win64; x64) AppleWebKit/537.36 (KHTML, like Gecko) Chrome/138.0.0.0 Safari/537.36","WebKit","Chrome","138.0.0.0","Windows","10.0","https://app.prolific.com/","en-GB,en-US;q=0.9,en;q=0.8","67d95269b47464c18da766ca","686d226cabeef709c732f8e1","686e311daab5596ff27ccf60","67d95269b47464c18da766ca","2025-07-09T09:35:05.619Z","","","","","","AttribQ","","","","","","","","","","","","","","","","","","","","","","","","","","","","","","","","","","","","","","50",""
"3733","","<div style=""width:500px;"">
  <p>How much control did you have over the ball?</p>
  </div>","48","html-slider-response","85","1569485","0.0-10.0-2.9","132","1","2025-07-09 09:08:56","7701e855f2ef39aa3fd6c71abdc6918a","41.113.234.18","Mozilla/5.0 (Windows NT 10.0; Win64; x64) AppleWebKit/537.36 (KHTML, like Gecko) Chrome/138.0.0.0 Safari/537.36","WebKit","Chrome","138.0.0.0","Windows","10.0","https://app.prolific.com/","en-GB,en-US;q=0.9,en;q=0.8","67d95269b47464c18da766ca","686d226cabeef709c732f8e1","686e311daab5596ff27ccf60","67d95269b47464c18da766ca","2025-07-09T09:35:09.354Z","","","","","","ControlQ","","","","","","","","","","","","","","","","","","","","","","","","","","","","","","","","","","","","","","50",""
"3151","","<div style=""width:500px;"">
  <p>How would you describe your current emotional state?</p>
