"rt","response_timestamp","stimulus","response","trial_type","trial_index","time_elapsed","internal_node_id","run_id","condition","recorded_at","source_code_version","ip","user_agent","device","browser","browser_version","platform","platform_version","referer","accept_language","PROLIFIC_PID","STUDY_ID","SESSION_ID","prolific_id","realtime","view_history","question_order","consent","success","question_id","eventType","responses","item_order","radio_event_ids","radio_event_times","key_event_times","mouse_event_times","straightlining","zigzagging","honeypot","which_type","canvas_config","goals_layout","control_level","trial_number","tutorial_trial_number","trial_start_time","phase1_start_time","phase2_start_time","phase3_start_time","goal_1_value","goal_1_distance","goal_2_value","goal_2_distance","goal_selected","outcome","outcome_total","participant_final_score","participant_initial_score","participant_final_score_prop","goal_choice_rt","allocated_time","allocated_time_remaining","goal_direction","counts","mouse_movements","key_presses","correct","slider_start"
"1587","1752052909407","<p style='font-size:40px;line-height:1.25'><strong>Welcome to the experiment!</strong></p><p style='font-size:1.1em;line-height:1.25'>Thank you for your interest in our experiment! Before you begin, it is important that we obtain your informed consent to participate in the study.</p><p style='font-size:1.1em;line-height:1.25'>On the next screen will be an <strong>information sheet</strong> for you to read. To participate in the study we need you to read this information sheet and the following consent form carefully. If you agree with all the statements, please click the <strong>I agree</strong> button.</p><p style='font-size:1.1em;line-height:1.25'>Press <strong>Next</strong> to read the information sheet.</p>","0","custom-html-button-response","0","1589","0.0-0.0","210","1","2025-07-09 09:21:41","7701e855f2ef39aa3fd6c71abdc6918a","176.46.145.59","Mozilla/5.0 (Windows NT 10.0; Win64; x64) AppleWebKit/537.36 (KHTML, like Gecko) Chrome/131.0.0.0 Safari/537.36","WebKit","Chrome","131.0.0.0","Windows","10.0","https://app.prolific.com/","en-US,en;q=0.9","677d2164671591fcaf5c1688","686d226cabeef709c732f8e1","686e31404be6c4da378bc9d3","677d2164671591fcaf5c1688","2025-07-09T09:21:49.409Z","","","","","","","","","","","","","","","","","","","","","","","","","","","","","","","","","","","","","","","","","","","",""
"3270","","","","instructions","1","4861","0.0-1.0","210","1","2025-07-09 09:21:41","7701e855f2ef39aa3fd6c71abdc6918a","176.46.145.59","Mozilla/5.0 (Windows NT 10.0; Win64; x64) AppleWebKit/537.36 (KHTML, like Gecko) Chrome/131.0.0.0 Safari/537.36","WebKit","Chrome","131.0.0.0","Windows","10.0","https://app.prolific.com/","en-US,en;q=0.9","677d2164671591fcaf5c1688","686d226cabeef709c732f8e1","686e31404be6c4da378bc9d3","677d2164671591fcaf5c1688","","[{""page_index"":0,""viewing_time"":2757},{""page_index"":1,""viewing_time"":513}]","","","","","","","","","","","","","","","","","","","","","","","","","","","","","","","","","","","","","","","","","","",""
"1756","","","{""Q0"":"""",""Q1"":"""",""Q2"":"""",""Q3"":"""",""Q4"":"""",""Q5"":"""",""Q6"":""I agree""}","survey-multi-choice","2","6620","0.0-2.0","210","1","2025-07-09 09:21:41","7701e855f2ef39aa3fd6c71abdc6918a","176.46.145.59","Mozilla/5.0 (Windows NT 10.0; Win64; x64) AppleWebKit/537.36 (KHTML, like Gecko) Chrome/131.0.0.0 Safari/537.36","WebKit","Chrome","131.0.0.0","Windows","10.0","https://app.prolific.com/","en-US,en;q=0.9","677d2164671591fcaf5c1688","686d226cabeef709c732f8e1","686e31404be6c4da378bc9d3","677d2164671591fcaf5c1688","","","[0,1,2,3,4,5,6]","true","","","","","","","","","","","","","","","","","","","","","","","","","","","","","","","","","","","","","","","","",""
"782","","","","fullscreen","3","8409","0.0-4.0","210","1","2025-07-09 09:21:41","7701e855f2ef39aa3fd6c71abdc6918a","176.46.145.59","Mozilla/5.0 (Windows NT 10.0; Win64; x64) AppleWebKit/537.36 (KHTML, like Gecko) Chrome/131.0.0.0 Safari/537.36","WebKit","Chrome","131.0.0.0","Windows","10.0","https://app.prolific.com/","en-US,en;q=0.9","677d2164671591fcaf5c1688","686d226cabeef709c732f8e1","686e31404be6c4da378bc9d3","677d2164671591fcaf5c1688","","","","","true","","","","","","","","","","","","","","","","","","","","","","","","","","","","","","","","","","","","","","","",""
"1816","1752052918047"," <p style='font-size:1.1em;line-height:1.25'>Thank you for completing the consent form and closing all other tabs.</p><p style='font-size:1.1em;line-height:1.25'>We will now invite you to fill in some demographic information and questionnaires, before starting the game.<br>This will take about 5 minutes.<br></p><p style='font-size:1.1em;line-height:1.25'>Press the <strong>Next</strong> button to continue.</p>","0","custom-html-button-response","4","10228","0.0-5.0","210","1","2025-07-09 09:21:41","7701e855f2ef39aa3fd6c71abdc6918a","176.46.145.59","Mozilla/5.0 (Windows NT 10.0; Win64; x64) AppleWebKit/537.36 (KHTML, like Gecko) Chrome/131.0.0.0 Safari/537.36","WebKit","Chrome","131.0.0.0","Windows","10.0","https://app.prolific.com/","en-US,en;q=0.9","677d2164671591fcaf5c1688","686d226cabeef709c732f8e1","686e31404be6c4da378bc9d3","677d2164671591fcaf5c1688","2025-07-09T09:21:58.047Z","","","","","","","","","","","","","","","","","","","","","","","","","","","","","","","","","","","","","","","","","","","",""
"2527","","","{""age"":""32""}","survey-text","5","12758","0.0-6.0-0.0","210","1","2025-07-09 09:21:41","7701e855f2ef39aa3fd6c71abdc6918a","176.46.145.59","Mozilla/5.0 (Windows NT 10.0; Win64; x64) AppleWebKit/537.36 (KHTML, like Gecko) Chrome/131.0.0.0 Safari/537.36","WebKit","Chrome","131.0.0.0","Windows","10.0","https://app.prolific.com/","en-US,en;q=0.9","677d2164671591fcaf5c1688","686d226cabeef709c732f8e1","686e31404be6c4da378bc9d3","677d2164671591fcaf5c1688","","","","","","0","demographics","","","","","","","","","","","","","","","","","","","","","","","","","","","","","","","","","","","","","",""
"1705","","","{""gender_identity"":""female/woman""}","survey-multi-choice","6","14465","0.0-6.0-1.0","210","1","2025-07-09 09:21:41","7701e855f2ef39aa3fd6c71abdc6918a","176.46.145.59","Mozilla/5.0 (Windows NT 10.0; Win64; x64) AppleWebKit/537.36 (KHTML, like Gecko) Chrome/131.0.0.0 Safari/537.36","WebKit","Chrome","131.0.0.0","Windows","10.0","https://app.prolific.com/","en-US,en;q=0.9","677d2164671591fcaf5c1688","686d226cabeef709c732f8e1","686e31404be6c4da378bc9d3","677d2164671591fcaf5c1688","","","[0]","","","1","demographics","","","","","","","","","","","","","","","","","","","","","","","","","","","","","","","","","","","","","",""
"1338","","","{""assigned_sex"":""female""}","survey-multi-choice","7","15804","0.0-6.0-2.0","210","1","2025-07-09 09:21:41","7701e855f2ef39aa3fd6c71abdc6918a","176.46.145.59","Mozilla/5.0 (Windows NT 10.0; Win64; x64) AppleWebKit/537.36 (KHTML, like Gecko) Chrome/131.0.0.0 Safari/537.36","WebKit","Chrome","131.0.0.0","Windows","10.0","https://app.prolific.com/","en-US,en;q=0.9","677d2164671591fcaf5c1688","686d226cabeef709c732f8e1","686e31404be6c4da378bc9d3","677d2164671591fcaf5c1688","","","[0]","","","2","demographics","","","","","","","","","","","","","","","","","","","","","","","","","","","","","","","","","","","","","",""
"1872","","","{""menstrual_cycle"":""Rather not tell""}","survey-multi-choice","8","17677","0.0-6.0-3.0","210","1","2025-07-09 09:21:41","7701e855f2ef39aa3fd6c71abdc6918a","176.46.145.59","Mozilla/5.0 (Windows NT 10.0; Win64; x64) AppleWebKit/537.36 (KHTML, like Gecko) Chrome/131.0.0.0 Safari/537.36","WebKit","Chrome","131.0.0.0","Windows","10.0","https://app.prolific.com/","en-US,en;q=0.9","677d2164671591fcaf5c1688","686d226cabeef709c732f8e1","686e31404be6c4da378bc9d3","677d2164671591fcaf5c1688","","","[0]","","","4","demographics","","","","","","","","","","","","","","","","","","","","","","","","","","","","","","","","","","","","","",""
"1859","","","{""education"":""Master's Degree (e.g., MSc)""}","survey-multi-choice","9","19538","0.0-6.0-4.0","210","1","2025-07-09 09:21:41","7701e855f2ef39aa3fd6c71abdc6918a","176.46.145.59","Mozilla/5.0 (Windows NT 10.0; Win64; x64) AppleWebKit/537.36 (KHTML, like Gecko) Chrome/131.0.0.0 Safari/537.36","WebKit","Chrome","131.0.0.0","Windows","10.0","https://app.prolific.com/","en-US,en;q=0.9","677d2164671591fcaf5c1688","686d226cabeef709c732f8e1","686e31404be6c4da378bc9d3","677d2164671591fcaf5c1688","","","[0]","","","5","demographics","","","","","","","","","","","","","","","","","","","","","","","","","","","","","","","","","","","","","",""
"1198","","","{""education"":""Master's Degree (e.g., MSc)""}","survey-multi-choice","10","20736","0.0-6.0-5.0","210","1","2025-07-09 09:21:41","7701e855f2ef39aa3fd6c71abdc6918a","176.46.145.59","Mozilla/5.0 (Windows NT 10.0; Win64; x64) AppleWebKit/537.36 (KHTML, like Gecko) Chrome/131.0.0.0 Safari/537.36","WebKit","Chrome","131.0.0.0","Windows","10.0","https://app.prolific.com/","en-US,en;q=0.9","677d2164671591fcaf5c1688","686d226cabeef709c732f8e1","686e31404be6c4da378bc9d3","677d2164671591fcaf5c1688","2025-07-09T09:22:08.555Z","","[0]","","","6","demographics","","","","","","","","","","","","","","","","","","","","","","","","","","","","","","","","","","","","","",""
"1567","","","{""mental_health_condition"":"""",""mental_health_treatment"":"""",""psychiatric_medication"":""""}","survey-text","11","22305","0.0-7.0-0.0","210","1","2025-07-09 09:21:41","7701e855f2ef39aa3fd6c71abdc6918a","176.46.145.59","Mozilla/5.0 (Windows NT 10.0; Win64; x64) AppleWebKit/537.36 (KHTML, like Gecko) Chrome/131.0.0.0 Safari/537.36","WebKit","Chrome","131.0.0.0","Windows","10.0","https://app.prolific.com/","en-US,en;q=0.9","677d2164671591fcaf5c1688","686d226cabeef709c732f8e1","686e31404be6c4da378bc9d3","677d2164671591fcaf5c1688","2025-07-09T09:22:10.125Z","","","","","1","mental_health","","","","","","","","","","","","","","","","","","","","","","","","","","","","","","","","","","","","","",""
"50155","","","{""depression_history"":[""No"",""Prefer not to say""]}","survey-multi-select","12","72464","0.0-7.0-1.0","210","1","2025-07-09 09:21:41","7701e855f2ef39aa3fd6c71abdc6918a","176.46.145.59","Mozilla/5.0 (Windows NT 10.0; Win64; x64) AppleWebKit/537.36 (KHTML, like Gecko) Chrome/131.0.0.0 Safari/537.36","WebKit","Chrome","131.0.0.0","Windows","10.0","https://app.prolific.com/","en-US,en;q=0.9","677d2164671591fcaf5c1688","686d226cabeef709c732f8e1","686e31404be6c4da378bc9d3","677d2164671591fcaf5c1688","","","[0]","","","","mental_health","","","","","","","","","","","","","","","","","","","","","","","","","","","","","","","","","","","","","",""
"62762.29999998212","","","","survey-template","13","135232","0.0-7.0-3.0","210","1","2025-07-09 09:21:41","7701e855f2ef39aa3fd6c71abdc6918a","176.46.145.59","Mozilla/5.0 (Windows NT 10.0; Win64; x64) AppleWebKit/537.36 (KHTML, like Gecko) Chrome/131.0.0.0 Safari/537.36","WebKit","Chrome","131.0.0.0","Windows","10.0","https://app.prolific.com/","en-US,en;q=0.9","677d2164671591fcaf5c1688","686d226cabeef709c732f8e1","686e31404be6c4da378bc9d3","677d2164671591fcaf5c1688","2025-07-09T09:24:03.051Z","","","","","","ius","{""Q01"":""1"",""Q02"":""2"",""Q03"":""0"",""Q04"":""3"",""Q05"":""1"",""Q06"":""0"",""Q07"":""0"",""Q08"":""0"",""Q09"":""2"",""Q10"":""0"",""Q11"":""0"",""Q12"":""3"",""Q13"":""3""}","[0,1,2,3,4,5,6,7,8,9,10,11,12]","[""Q01"",""Q02"",""Q03"",""Q04"",""Q05"",""Q06"",""Q07"",""Q07"",""Q08"",""Q09"",""Q10"",""Q10"",""Q11"",""Q12"",""Q13""]","[7476.199999988079,13231.299999982119,17447.5,22533.19999998808,28983.59999999404,33491.40000000596,36533.90000000596,37442.09999999404,39760.79999998212,44890.5,48484,50136.90000000596,53621.79999998212,56576.09999999404,59446.40000000596]","[]","[7476.199999988079,12370.299999982119,13231.299999982119,17447.5,21946.5,22533.19999998808,28280,28983.59999999404,33491.40000000596,36533.90000000596,37442.09999999404,39760.79999998212,44890.5,48484,50136.90000000596,52298.5,52907.59999999404,53621.79999998212,56576.09999999404,59446.40000000596,62758.5]","0.46153846153846156","0.16666666666666666","0","","","","","","","","","","","","","","","","","","","","","","","","","","","","",""
"28480","1752053071533","<p style='font-size:1.1em;line-height:1.25'>In the following, we will ask you a few questions relating to your experiences over the past month.<br></p><p style='font-size:1.1em;line-height:1.25'>Press the <strong>Next</strong> button to continue.</p>","0","custom-html-button-response","14","163714","0.0-7.0-4.0","210","1","2025-07-09 09:21:41","7701e855f2ef39aa3fd6c71abdc6918a","176.46.145.59","Mozilla/5.0 (Windows NT 10.0; Win64; x64) AppleWebKit/537.36 (KHTML, like Gecko) Chrome/131.0.0.0 Safari/537.36","WebKit","Chrome","131.0.0.0","Windows","10.0","https://app.prolific.com/","en-US,en;q=0.9","677d2164671591fcaf5c1688","686d226cabeef709c732f8e1","686e31404be6c4da378bc9d3","677d2164671591fcaf5c1688","2025-07-09T09:24:31.534Z","","","","","","","","","","","","","","","","","","","","","","","","","","","","","","","","","","","","","","","","","","","",""
"52462.59999999404","","","","survey-template","15","216180","0.0-7.0-5.0","210","1","2025-07-09 09:21:41","7701e855f2ef39aa3fd6c71abdc6918a","176.46.145.59","Mozilla/5.0 (Windows NT 10.0; Win64; x64) AppleWebKit/537.36 (KHTML, like Gecko) Chrome/131.0.0.0 Safari/537.36","WebKit","Chrome","131.0.0.0","Windows","10.0","https://app.prolific.com/","en-US,en;q=0.9","677d2164671591fcaf5c1688","686d226cabeef709c732f8e1","686e31404be6c4da378bc9d3","677d2164671591fcaf5c1688","2025-07-09T09:25:23.999Z","","","","","","pss","{""Q01"":""0"",""Q02"":""1"",""Q03"":""0"",""Q04"":""2"",""Q05"":""4"",""Q06"":""0"",""Q07"":""1"",""Q08"":""1"",""Q09"":""0"",""Q10"":""0""}","[0,1,2,3,4,5,6,7,8,9]","[""Q01"",""Q02"",""Q03"",""Q04"",""Q05"",""Q06"",""Q07"",""Q08"",""Q08"",""Q07"",""Q06"",""Q09"",""Q10""]","[15723.09999999404,21972.90000000596,22877.90000000596,23853.59999999404,24856.19999998808,26093.59999999404,29724.40000000596,31269.69999998808,34161.59999999404,37531.29999998212,41093.69999998808,44704.40000000596,47601.40000000596]","[]","[0,14022.09999999404,14564.699999988079,15723.09999999404,21972.90000000596,22877.90000000596,23853.59999999404,24856.19999998808,26093.59999999404,27342,28183.29999998212,29724.40000000596,30260,31269.69999998808,33618.09999999404,34161.59999999404,37531.29999998212,41093.69999998808,44704.40000000596,45745.19999998808,47601.40000000596,52461.19999998808]","0.6","0.2222222222222222","0","","","","","","","","","","","","","","","","","","","","","","","","","","","","",""
"31307","1752053155307","<p style='font-size:1.1em;line-height:1.25'>Thank you for your answers! Now we will ask you a few more questions relating to your feelings in the last 24 hours.<br></p><p style='font-size:1.1em;line-height:1.25'>Press the <strong>Next</strong> button to continue.</p>","0","custom-html-button-response","16","247488","0.0-7.0-6.0","210","1","2025-07-09 09:21:41","7701e855f2ef39aa3fd6c71abdc6918a","176.46.145.59","Mozilla/5.0 (Windows NT 10.0; Win64; x64) AppleWebKit/537.36 (KHTML, like Gecko) Chrome/131.0.0.0 Safari/537.36","WebKit","Chrome","131.0.0.0","Windows","10.0","https://app.prolific.com/","en-US,en;q=0.9","677d2164671591fcaf5c1688","686d226cabeef709c732f8e1","686e31404be6c4da378bc9d3","677d2164671591fcaf5c1688","2025-07-09T09:25:55.307Z","","","","","","","","","","","","","","","","","","","","","","","","","","","","","","","","","","","","","","","","","","","",""
"47572.5","","","","survey-template","17","295064","0.0-7.0-7.0","210","1","2025-07-09 09:21:41","7701e855f2ef39aa3fd6c71abdc6918a","176.46.145.59","Mozilla/5.0 (Windows NT 10.0; Win64; x64) AppleWebKit/537.36 (KHTML, like Gecko) Chrome/131.0.0.0 Safari/537.36","WebKit","Chrome","131.0.0.0","Windows","10.0","https://app.prolific.com/","en-US,en;q=0.9","677d2164671591fcaf5c1688","686d226cabeef709c732f8e1","686e31404be6c4da378bc9d3","677d2164671591fcaf5c1688","2025-07-09T09:26:42.883Z","","","","","","drsp","{""Q01"":""0"",""Q02"":""0"",""Q03"":""0"",""Q04"":""0"",""Q05"":""2"",""Q06"":""0"",""Q07"":""0"",""Q08"":""0"",""Q09"":""1"",""Q10"":""0"",""Q11"":""0"",""Q12"":""3"",""Q13"":""3"",""Q14"":""0"",""Q15"":""1"",""Q16"":""0"",""Q17"":""0"",""Q18"":""0"",""Q19"":""0"",""Q20"":""0"",""Q21"":""1""}","[0,1,2,3,4,5,6,7,8,9,10,11,12,13,14,15,16,17,18,19,20]","[""Q01"",""Q02"",""Q03"",""Q04"",""Q05"",""Q05"",""Q05"",""Q06"",""Q07"",""Q08"",""Q09"",""Q10"",""Q11"",""Q12"",""Q12"",""Q13"",""Q14"",""Q15"",""Q16"",""Q17"",""Q18"",""Q19"",""Q20"",""Q21""]","[2165.800000011921,3283.9000000059605,4777.100000023842,5326.5,6151.200000017881,7438.300000011921,8016.5,8784.800000011921,12120.800000011921,13864.90000000596,16110.300000011921,17570.5,18857.5,19574,21543.100000023842,23670.80000001192,25975.100000023842,29590,31325.600000023842,32926.20000001788,36586.20000001788,37897.80000001192,42717.60000002384,46873.60000002384]","[]","[0,2165.800000011921,3283.9000000059605,4777.100000023842,5326.5,6151.200000017881,7438.300000011921,8016.5,8784.800000011921,10748.5,12120.800000011921,13864.90000000596,16110.300000011921,17570.5,18330.600000023842,18857.5,19574,21142,21543.100000023842,23670.80000001192,25975.100000023842,28657.80000001192,29590,31325.600000023842,32926.20000001788,36586.20000001788,37897.80000001192,42717.60000002384,46093.30000001192,46873.60000002384,47569.10000002384]","0.7142857142857143","0.25","0","","","","","","","","","","","","","","","","","","","","","","","","","","","","",""
"9524.300000011921","","","","survey-template","18","304590","0.0-7.0-8.0","210","1","2025-07-09 09:21:41","7701e855f2ef39aa3fd6c71abdc6918a","176.46.145.59","Mozilla/5.0 (Windows NT 10.0; Win64; x64) AppleWebKit/537.36 (KHTML, like Gecko) Chrome/131.0.0.0 Safari/537.36","WebKit","Chrome","131.0.0.0","Windows","10.0","https://app.prolific.com/","en-US,en;q=0.9","677d2164671591fcaf5c1688","686d226cabeef709c732f8e1","686e31404be6c4da378bc9d3","677d2164671591fcaf5c1688","2025-07-09T09:26:52.409Z","","","","","","stress","{""Q01"":""2"",""Q02"":""2"",""Q03"":""0""}","[0,1,2]","[""Q01"",""Q01"",""Q01"",""Q02"",""Q03""]","[2143.9000000059605,2979.4000000059605,3312.7000000178814,5675.200000017881,7944.300000011921]","[]","[2143.9000000059605,2979.4000000059605,3312.7000000178814,5675.200000017881,7944.300000011921,8663.5,9523.700000017881]","0.3333333333333333","0.5","0","","","","","","","","","","","","","","","","","","","","","","","","","","","","",""
"181876","","","","instructions","19","486467","0.0-8.0-0.0","210","1","2025-07-09 09:21:41","7701e855f2ef39aa3fd6c71abdc6918a","176.46.145.59","Mozilla/5.0 (Windows NT 10.0; Win64; x64) AppleWebKit/537.36 (KHTML, like Gecko) Chrome/131.0.0.0 Safari/537.36","WebKit","Chrome","131.0.0.0","Windows","10.0","https://app.prolific.com/","en-US,en;q=0.9","677d2164671591fcaf5c1688","686d226cabeef709c732f8e1","686e31404be6c4da378bc9d3","677d2164671591fcaf5c1688","","[{""page_index"":0,""viewing_time"":1273},{""page_index"":1,""viewing_time"":752},{""page_index"":2,""viewing_time"":134594},{""page_index"":3,""viewing_time"":45257}]","","","","","","","","","","","","","","","","","","","","","","","","","","","","","","","","","","","","","","","","","","",""
"","","","","ctl-task-cpt","20","512816","0.0-8.0-1.0","210","1","2025-07-09 09:21:41","7701e855f2ef39aa3fd6c71abdc6918a","176.46.145.59","Mozilla/5.0 (Windows NT 10.0; Win64; x64) AppleWebKit/537.36 (KHTML, like Gecko) Chrome/131.0.0.0 Safari/537.36","WebKit","Chrome","131.0.0.0","Windows","10.0","https://app.prolific.com/","en-US,en;q=0.9","677d2164671591fcaf5c1688","686d226cabeef709c732f8e1","686e31404be6c4da378bc9d3","677d2164671591fcaf5c1688","","","","","","","","","","","","","","","","","win-only","0","g1:NW,g2:SE","1","0","1","494434.1","14299","18301.3","23344","2","4","4","6","2","-4","-4","0","0","0","4002.3","4000","-3005","[""down"",""right""]","{""num_key_presses"":0,""num_perfect"":0,""num_errors"":0,""num_randdir"":0,""num_randdir_good_moves"":0,""num_whilered"":0,""num_whileblue"":0,""num_blue"":0,""num_good_moves"":0}","[350.3888392857143,350.7794642857143,1,350.3888392857143,350.7794642857143,102.3,350.3888392857143,350.7794642857143,202.2,350.3888392857143,350.7794642857143,302.5,350.3888392857143,350.7794642857143,402.6,350.3888392857143,350.7794642857143,507.8,350.3888392857143,350.7794642857143,612.6,350.3888392857143,350.7794642857143,716.8,350.3888392857143,349.7794642857143,817,349.3888392857143,345.7794642857143,917.1,349.3888392857143,331.7794642857143,1017.7,356.3888392857143,319.7794642857143,1122.1,372.3888392857143,316.7794642857143,1227.3,408.3888392857143,352.7794642857143,1332.2,414.3888392857143,384.7794642857143,1436.4,414.3888392857143,388.7794642857143,1536.8,388.3888392857143,410.7794642857143,1636.8,354.3888392857143,430.7794642857143,1736.9,333.3888392857143,435.7794642857143,1841.6,329.3888392857143,420.7794642857143,1941.6,330.3888392857143,395.7794642857143,2041.8,331.3888392857143,385.7794642857143,2147.7,334.3888392857143,374.7794642857143,2247.7,336.3888392857143,371.7794642857143,2347.9,336.3888392857143,371.7794642857143,2448.3,336.3888392857143,371.7794642857143,2551.5,336.3888392857143,371.7794642857143,2652,336.3888392857143,371.7794642857143,2752.2,336.3888392857143,371.7794642857143,2856.3,336.3888392857143,371.7794642857143,2957.5,336.3888392857143,371.7794642857143,3057.7,336.3888392857143,371.7794642857143,3163,336.3888392857143,371.7794642857143,3266.3,336.3888392857143,371.7794642857143,3366.3,336.3888392857143,371.7794642857143,3467.5,336.3888392857143,371.7794642857143,3572.2,336.3888392857143,371.7794642857143,3676.8,336.3888392857143,371.7794642857143,3777.3,336.3888392857143,371.7794642857143,3882.3,334.3888392857143,368.7794642857143,3986.7]","[]","",""
"1957","","","","instructions","21","514773","0.0-8.0-2.0","210","1","2025-07-09 09:21:41","7701e855f2ef39aa3fd6c71abdc6918a","176.46.145.59","Mozilla/5.0 (Windows NT 10.0; Win64; x64) AppleWebKit/537.36 (KHTML, like Gecko) Chrome/131.0.0.0 Safari/537.36","WebKit","Chrome","131.0.0.0","Windows","10.0","https://app.prolific.com/","en-US,en;q=0.9","677d2164671591fcaf5c1688","686d226cabeef709c732f8e1","686e31404be6c4da378bc9d3","677d2164671591fcaf5c1688","","[{""page_index"":0,""viewing_time"":1957}]","","","","","","","","","","","","","","","","","","","","","","","","","","","","","","","","","","","","","","","","","","",""
"","","","","ctl-task-cpt","22","528975","0.0-8.0-3.0","210","1","2025-07-09 09:21:41","7701e855f2ef39aa3fd6c71abdc6918a","176.46.145.59","Mozilla/5.0 (Windows NT 10.0; Win64; x64) AppleWebKit/537.36 (KHTML, like Gecko) Chrome/131.0.0.0 Safari/537.36","WebKit","Chrome","131.0.0.0","Windows","10.0","https://app.prolific.com/","en-US,en;q=0.9","677d2164671591fcaf5c1688","686d226cabeef709c732f8e1","686e31404be6c4da378bc9d3","677d2164671591fcaf5c1688","","","","","","","","","","","","","","","","","win-only","0","g1:NW,g2:SE","0.35","0","3","522738.9","2105.1","6107.7","11191.2","2","4","8","6","1","-2","-2","0","0","0","4002.6","4000","-2975","[""left"",""up""]","{""num_key_presses"":0,""num_perfect"":0,""num_errors"":0,""num_randdir"":0,""num_randdir_good_moves"":0,""num_whilered"":0,""num_whileblue"":0,""num_blue"":0,""num_good_moves"":0}","[360.3888392857143,357.7794642857143,0.3,360.3888392857143,357.7794642857143,100.4,360.3888392857143,357.7794642857143,201.8,360.3888392857143,357.7794642857143,305.7,360.3888392857143,357.7794642857143,405.8,360.3888392857143,357.7794642857143,507,360.3888392857143,357.7794642857143,612.4,360.3888392857143,357.7794642857143,716,360.3888392857143,357.7794642857143,816.3,360.3888392857143,357.7794642857143,921.3,360.3888392857143,357.7794642857143,1021.5,360.3888392857143,357.7794642857143,1126,360.3888392857143,357.7794642857143,1226.3,360.3888392857143,357.7794642857143,1326.3,360.3888392857143,357.7794642857143,1431.2,360.3888392857143,357.7794642857143,1532.1,360.3888392857143,357.7794642857143,1635.6,360.3888392857143,357.7794642857143,1736,360.3888392857143,357.7794642857143,1840.8,360.3888392857143,357.7794642857143,1941.1,360.3888392857143,357.7794642857143,2045.7,360.3888392857143,357.7794642857143,2145.9,360.3888392857143,357.7794642857143,2247.4,360.3888392857143,357.7794642857143,2351,360.3888392857143,357.7794642857143,2455.4,360.3888392857143,357.7794642857143,2560.7,360.3888392857143,357.7794642857143,2665.9,360.3888392857143,357.7794642857143,2770.5,360.3888392857143,357.7794642857143,2875.6,360.3888392857143,357.7794642857143,2980.9,360.3888392857143,357.7794642857143,3081.5,360.3888392857143,357.7794642857143,3186.8,355.3888392857143,350.7794642857143,3290.4,339.3888392857143,328.7794642857143,3391.2,336.3888392857143,309.7794642857143,3496.4,337.3888392857143,300.7794642857143,3600.6,337.3888392857143,300.7794642857143,3700.6,337.3888392857143,300.7794642857143,3800.9,337.3888392857143,300.7794642857143,3901]","[]","",""
"4979","","","","instructions","23","533955","0.0-8.0-4.0","210","1","2025-07-09 09:21:41","7701e855f2ef39aa3fd6c71abdc6918a","176.46.145.59","Mozilla/5.0 (Windows NT 10.0; Win64; x64) AppleWebKit/537.36 (KHTML, like Gecko) Chrome/131.0.0.0 Safari/537.36","WebKit","Chrome","131.0.0.0","Windows","10.0","https://app.prolific.com/","en-US,en;q=0.9","677d2164671591fcaf5c1688","686d226cabeef709c732f8e1","686e31404be6c4da378bc9d3","677d2164671591fcaf5c1688","","[{""page_index"":0,""viewing_time"":1710},{""page_index"":1,""viewing_time"":3270}]","","","","","","","","","","","","","","","","","","","","","","","","","","","","","","","","","","","","","","","","","","",""
"13517","","","{""green_ball"":[""Ball always moves in the direction I press""]}","survey-multi-select","24","547475","0.0-8.0-5.0-0.0","210","1","2025-07-09 09:21:41","7701e855f2ef39aa3fd6c71abdc6918a","176.46.145.59","Mozilla/5.0 (Windows NT 10.0; Win64; x64) AppleWebKit/537.36 (KHTML, like Gecko) Chrome/131.0.0.0 Safari/537.36","WebKit","Chrome","131.0.0.0","Windows","10.0","https://app.prolific.com/","en-US,en;q=0.9","677d2164671591fcaf5c1688","686d226cabeef709c732f8e1","686e31404be6c4da378bc9d3","677d2164671591fcaf5c1688","","","[0]","","","","quiz","","","","","","","","","","","","","","","","","","","","","","","","","","","","","","","","","","","","","false",""
"5022","","<p align='center'><b>INCORRECT.</b> Usually the green ball moves in the indicated direction, but sometimes it shakes and moves randomly. </p>","0","html-button-response","25","552500","0.0-8.0-5.0-1.0","210","1","2025-07-09 09:21:41","7701e855f2ef39aa3fd6c71abdc6918a","176.46.145.59","Mozilla/5.0 (Windows NT 10.0; Win64; x64) AppleWebKit/537.36 (KHTML, like Gecko) Chrome/131.0.0.0 Safari/537.36","WebKit","Chrome","131.0.0.0","Windows","10.0","https://app.prolific.com/","en-US,en;q=0.9","677d2164671591fcaf5c1688","686d226cabeef709c732f8e1","686e31404be6c4da378bc9d3","677d2164671591fcaf5c1688","","","","","","","","","","","","","","","","","","","","","","","","","","","","","","","","","","","","","","","","","","","","",""
"13206","","","{""green_ball"":[""Ball sometimes shakes and moves in a random direction""]}","survey-multi-select","26","565709","0.0-8.0-5.1-0.1","210","1","2025-07-09 09:21:41","7701e855f2ef39aa3fd6c71abdc6918a","176.46.145.59","Mozilla/5.0 (Windows NT 10.0; Win64; x64) AppleWebKit/537.36 (KHTML, like Gecko) Chrome/131.0.0.0 Safari/537.36","WebKit","Chrome","131.0.0.0","Windows","10.0","https://app.prolific.com/","en-US,en;q=0.9","677d2164671591fcaf5c1688","686d226cabeef709c732f8e1","686e31404be6c4da378bc9d3","677d2164671591fcaf5c1688","","","[0]","","","","quiz","","","","","","","","","","","","","","","","","","","","","","","","","","","","","","","","","","","","","true",""
"1676","","<p align='center'><b>CORRECT!</b> Indeed, the green ball may sometimes shake and move in a random direction.</p>","0","html-button-response","27","567386","0.0-8.0-5.1-1.1","210","1","2025-07-09 09:21:41","7701e855f2ef39aa3fd6c71abdc6918a","176.46.145.59","Mozilla/5.0 (Windows NT 10.0; Win64; x64) AppleWebKit/537.36 (KHTML, like Gecko) Chrome/131.0.0.0 Safari/537.36","WebKit","Chrome","131.0.0.0","Windows","10.0","https://app.prolific.com/","en-US,en;q=0.9","677d2164671591fcaf5c1688","686d226cabeef709c732f8e1","686e31404be6c4da378bc9d3","677d2164671591fcaf5c1688","","","","","","","","","","","","","","","","","","","","","","","","","","","","","","","","","","","","","","","","","","","","",""
"5719","","","{""yellow_ball"":[""Ball doesn‘t move and I get -1 penalty point""]}","survey-multi-select","28","573107","0.0-8.0-6.0-0.0","210","1","2025-07-09 09:21:41","7701e855f2ef39aa3fd6c71abdc6918a","176.46.145.59","Mozilla/5.0 (Windows NT 10.0; Win64; x64) AppleWebKit/537.36 (KHTML, like Gecko) Chrome/131.0.0.0 Safari/537.36","WebKit","Chrome","131.0.0.0","Windows","10.0","https://app.prolific.com/","en-US,en;q=0.9","677d2164671591fcaf5c1688","686d226cabeef709c732f8e1","686e31404be6c4da378bc9d3","677d2164671591fcaf5c1688","","","[0]","","","","quiz","","","","","","","","","","","","","","","","","","","","","","","","","","","","","","","","","","","","","true",""
"1419","","<p align='center'><b>CORRECT!</b> Indeed, the yellow ball never moves and you receive a penalty.</p>","0","html-button-response","29","574527","0.0-8.0-6.0-1.0","210","1","2025-07-09 09:21:41","7701e855f2ef39aa3fd6c71abdc6918a","176.46.145.59","Mozilla/5.0 (Windows NT 10.0; Win64; x64) AppleWebKit/537.36 (KHTML, like Gecko) Chrome/131.0.0.0 Safari/537.36","WebKit","Chrome","131.0.0.0","Windows","10.0","https://app.prolific.com/","en-US,en;q=0.9","677d2164671591fcaf5c1688","686d226cabeef709c732f8e1","686e31404be6c4da378bc9d3","677d2164671591fcaf5c1688","","","","","","","","","","","","","","","","","","","","","","","","","","","","","","","","","","","","","","","","","","","","",""
"13955","","","{""blue_ball"":[""Ball always shakes and moves in a random direction""]}","survey-multi-select","30","588484","0.0-8.0-7.0-0.0","210","1","2025-07-09 09:21:41","7701e855f2ef39aa3fd6c71abdc6918a","176.46.145.59","Mozilla/5.0 (Windows NT 10.0; Win64; x64) AppleWebKit/537.36 (KHTML, like Gecko) Chrome/131.0.0.0 Safari/537.36","WebKit","Chrome","131.0.0.0","Windows","10.0","https://app.prolific.com/","en-US,en;q=0.9","677d2164671591fcaf5c1688","686d226cabeef709c732f8e1","686e31404be6c4da378bc9d3","677d2164671591fcaf5c1688","","","[0]","","","","quiz","","","","","","","","","","","","","","","","","","","","","","","","","","","","","","","","","","","","","true",""
"1450","","<p align='center'><b>CORRECT!</b> Indeed, the blue ball always shakes and moves in a random direction. Also there is a penalty of -1 point.</p>","0","html-button-response","31","589936","0.0-8.0-7.0-1.0","210","1","2025-07-09 09:21:41","7701e855f2ef39aa3fd6c71abdc6918a","176.46.145.59","Mozilla/5.0 (Windows NT 10.0; Win64; x64) AppleWebKit/537.36 (KHTML, like Gecko) Chrome/131.0.0.0 Safari/537.36","WebKit","Chrome","131.0.0.0","Windows","10.0","https://app.prolific.com/","en-US,en;q=0.9","677d2164671591fcaf5c1688","686d226cabeef709c732f8e1","686e31404be6c4da378bc9d3","677d2164671591fcaf5c1688","","","","","","","","","","","","","","","","","","","","","","","","","","","","","","","","","","","","","","","","","","","","",""
"8080","","","{""bonus"":[""When I reach 80% of points""]}","survey-multi-select","32","598020","0.0-8.0-8.0-0.0","210","1","2025-07-09 09:21:41","7701e855f2ef39aa3fd6c71abdc6918a","176.46.145.59","Mozilla/5.0 (Windows NT 10.0; Win64; x64) AppleWebKit/537.36 (KHTML, like Gecko) Chrome/131.0.0.0 Safari/537.36","WebKit","Chrome","131.0.0.0","Windows","10.0","https://app.prolific.com/","en-US,en;q=0.9","677d2164671591fcaf5c1688","686d226cabeef709c732f8e1","686e31404be6c4da378bc9d3","677d2164671591fcaf5c1688","","","[0]","","","","quiz","","","","","","","","","","","","","","","","","","","","","","","","","","","","","","","","","","","","","false",""
"3054","","<p align='center'><b>INCORRECT.</b> You receive 2 pounds extra when you reach 50% of points </p>","0","html-button-response","33","601076","0.0-8.0-8.0-1.0","210","1","2025-07-09 09:21:41","7701e855f2ef39aa3fd6c71abdc6918a","176.46.145.59","Mozilla/5.0 (Windows NT 10.0; Win64; x64) AppleWebKit/537.36 (KHTML, like Gecko) Chrome/131.0.0.0 Safari/537.36","WebKit","Chrome","131.0.0.0","Windows","10.0","https://app.prolific.com/","en-US,en;q=0.9","677d2164671591fcaf5c1688","686d226cabeef709c732f8e1","686e31404be6c4da378bc9d3","677d2164671591fcaf5c1688","","","","","","","","","","","","","","","","","","","","","","","","","","","","","","","","","","","","","","","","","","","","",""
"2806","","","{""bonus"":[""When I reach 50% of points""]}","survey-multi-select","34","603884","0.0-8.0-8.1-0.1","210","1","2025-07-09 09:21:41","7701e855f2ef39aa3fd6c71abdc6918a","176.46.145.59","Mozilla/5.0 (Windows NT 10.0; Win64; x64) AppleWebKit/537.36 (KHTML, like Gecko) Chrome/131.0.0.0 Safari/537.36","WebKit","Chrome","131.0.0.0","Windows","10.0","https://app.prolific.com/","en-US,en;q=0.9","677d2164671591fcaf5c1688","686d226cabeef709c732f8e1","686e31404be6c4da378bc9d3","677d2164671591fcaf5c1688","","","[0]","","","","quiz","","","","","","","","","","","","","","","","","","","","","","","","","","","","","","","","","","","","","true",""
"1388","","<p align='center'><b>CORRECT!</b> Indeed, you receive 2 pounds extra when you reach 50% of points.</p>","0","html-button-response","35","605275","0.0-8.0-8.1-1.1","210","1","2025-07-09 09:21:41","7701e855f2ef39aa3fd6c71abdc6918a","176.46.145.59","Mozilla/5.0 (Windows NT 10.0; Win64; x64) AppleWebKit/537.36 (KHTML, like Gecko) Chrome/131.0.0.0 Safari/537.36","WebKit","Chrome","131.0.0.0","Windows","10.0","https://app.prolific.com/","en-US,en;q=0.9","677d2164671591fcaf5c1688","686d226cabeef709c732f8e1","686e31404be6c4da378bc9d3","677d2164671591fcaf5c1688","","","","","","","","","","","","","","","","","","","","","","","","","","","","","","","","","","","","","","","","","","","","",""
"3531","","","","instructions","36","608807","0.0-8.0-9.0","210","1","2025-07-09 09:21:41","7701e855f2ef39aa3fd6c71abdc6918a","176.46.145.59","Mozilla/5.0 (Windows NT 10.0; Win64; x64) AppleWebKit/537.36 (KHTML, like Gecko) Chrome/131.0.0.0 Safari/537.36","WebKit","Chrome","131.0.0.0","Windows","10.0","https://app.prolific.com/","en-US,en;q=0.9","677d2164671591fcaf5c1688","686d226cabeef709c732f8e1","686e31404be6c4da378bc9d3","677d2164671591fcaf5c1688","","[{""page_index"":0,""viewing_time"":3531}]","","","","","","","","","","","","","","","","","","","","","","","","","","","","","","","","","","","","","","","","","","",""
"12379","","<p>Before you start with this game please answer the following three questions yourself. </p>
  <p>Through this game, we measure several aspects of your cognitive performance, such as reaction times, multi-tasking capabilities </p>
  <p>and the ability to assess the situation you are in.</p>
  <p></p>
  <p><b>How good do you usually are in such tasks?</b></p>","83","html-slider-response","37","621190","0.0-9.0-0.0","210","1","2025-07-09 09:21:41","7701e855f2ef39aa3fd6c71abdc6918a","176.46.145.59","Mozilla/5.0 (Windows NT 10.0; Win64; x64) AppleWebKit/537.36 (KHTML, like Gecko) Chrome/131.0.0.0 Safari/537.36","WebKit","Chrome","131.0.0.0","Windows","10.0","https://app.prolific.com/","en-US,en;q=0.9","677d2164671591fcaf5c1688","686d226cabeef709c732f8e1","686e31404be6c4da378bc9d3","677d2164671591fcaf5c1688","2025-07-09T09:32:09.009Z","","","","","","PreSkillQ","","","","","","","","","","","","","","","","","","","","","","","","","","","","","","","","","","","","","","50"
"4305","","<div style=""width:500px;"">
  <p>How well do you think you will perform in this task compared to other participants?</p>
  </div>","84","html-slider-response","38","625496","0.0-9.0-1.0","210","1","2025-07-09 09:21:41","7701e855f2ef39aa3fd6c71abdc6918a","176.46.145.59","Mozilla/5.0 (Windows NT 10.0; Win64; x64) AppleWebKit/537.36 (KHTML, like Gecko) Chrome/131.0.0.0 Safari/537.36","WebKit","Chrome","131.0.0.0","Windows","10.0","https://app.prolific.com/","en-US,en;q=0.9","677d2164671591fcaf5c1688","686d226cabeef709c732f8e1","686e31404be6c4da378bc9d3","677d2164671591fcaf5c1688","2025-07-09T09:32:13.315Z","","","","","","PrePerfQ","","","","","","","","","","","","","","","","","","","","","","","","","","","","","","","","","","","","","","50"
"4245","","<div style=""width:500px;"">
  <p>What best describes how you currently feel?</p>
  </div>","87","html-slider-response","39","629742","0.0-9.0-2.0","210","1","2025-07-09 09:21:41","7701e855f2ef39aa3fd6c71abdc6918a","176.46.145.59","Mozilla/5.0 (Windows NT 10.0; Win64; x64) AppleWebKit/537.36 (KHTML, like Gecko) Chrome/131.0.0.0 Safari/537.36","WebKit","Chrome","131.0.0.0","Windows","10.0","https://app.prolific.com/","en-US,en;q=0.9","677d2164671591fcaf5c1688","686d226cabeef709c732f8e1","686e31404be6c4da378bc9d3","677d2164671591fcaf5c1688","2025-07-09T09:32:17.561Z","","","","","","PreMotivationQ","","","","","","","","","","","","","","","","","","","","","","","","","","","","","","","","","","","","","","50"
"","","","","ctl-task-cpt","40","643482","0.0-10.0-0.0","210","1","2025-07-09 09:21:41","7701e855f2ef39aa3fd6c71abdc6918a","176.46.145.59","Mozilla/5.0 (Windows NT 10.0; Win64; x64) AppleWebKit/537.36 (KHTML, like Gecko) Chrome/131.0.0.0 Safari/537.36","WebKit","Chrome","131.0.0.0","Windows","10.0","https://app.prolific.com/","en-US,en;q=0.9","677d2164671591fcaf5c1688","686d226cabeef709c732f8e1","686e31404be6c4da378bc9d3","677d2164671591fcaf5c1688","2025-07-09T09:32:31.301Z","","","","","","","","","","","","","","","","win-only","2","g1:SE,g2:NW","1","1","0","637710.5","1686.1","6688.2","10721.8","1","4","8","6","1","-1","-1","0","0","0","4577.4","3000","-3010","[""down"",""right""]","{""num_key_presses"":0,""num_perfect"":0,""num_errors"":0,""num_randdir"":0,""num_randdir_good_moves"":0,""num_whilered"":0,""num_whileblue"":0,""num_blue"":0,""num_good_moves"":0}","[351.3888392857143,354.7794642857143,0.2,351.3888392857143,354.7794642857143,105.3,351.3888392857143,354.7794642857143,207.5,351.3888392857143,354.7794642857143,310,351.3888392857143,354.7794642857143,411.2,351.3888392857143,354.7794642857143,514.8,351.3888392857143,354.7794642857143,620.9,351.3888392857143,354.7794642857143,723.4,351.3888392857143,354.7794642857143,824.8,351.3888392857143,354.7794642857143,929.3,356.3888392857143,343.7794642857143,1029.7,356.3888392857143,340.7794642857143,1130.2,351.3888392857143,330.7794642857143,1241,359.3888392857143,337.7794642857143,1344.4,371.3888392857143,387.7794642857143,1445.3,375.3888392857143,403.7794642857143,1550,375.3888392857143,403.7794642857143,1657.7,376.3888392857143,403.7794642857143,1759.8,406.3888392857143,446.7794642857143,1865.9,412.3888392857143,457.7794642857143,1971.4,412.3888392857143,457.7794642857143,2073.6,413.3888392857143,457.7794642857143,2174.5,427.3888392857143,452.7794642857143,2275.9,418.3888392857143,417.7794642857143,2379.6,415.3888392857143,410.7794642857143,2480,415.3888392857143,410.7794642857143,2584.9,415.3888392857143,410.7794642857143,2686.1,415.3888392857143,410.7794642857143,2789.5,415.3888392857143,410.7794642857143,2890.2,415.3888392857143,410.7794642857143,2994.8,497.3888392857143,448.7794642857143,3095.3,662.3888392857143,602.7794642857143,3203,669.3888392857143,610.7794642857143,3306.4,669.3888392857143,611.7794642857143,3409.7,659.3888392857143,701.7794642857143,3509.9,658.3888392857143,704.7794642857143,3610.3,658.3888392857143,704.7794642857143,3710.7,658.3888392857143,704.7794642857143,3815.1,658.3888392857143,704.7794642857143,3921.1,658.3888392857143,704.7794642857143,4024.8,658.3888392857143,704.7794642857143,4124.8,658.3888392857143,704.7794642857143,4225.5,652.3888392857143,689.7794642857143,4325.6,649.3888392857143,668.7794642857143,4429.4,649.3888392857143,668.7794642857143,4530.3,649.3888392857143,668.7794642857143,4636,649.3888392857143,668.7794642857143,4736.4,649.3888392857143,668.7794642857143,4838,649.3888392857143,668.7794642857143,4940.6]","[]","",""
"5523","","<div style=""width:500px;"">
  <p>What determined the result of this run?</p>
  </div>","73","html-slider-response","41","649007","0.0-10.0-1.0","210","1","2025-07-09 09:21:41","7701e855f2ef39aa3fd6c71abdc6918a","176.46.145.59","Mozilla/5.0 (Windows NT 10.0; Win64; x64) AppleWebKit/537.36 (KHTML, like Gecko) Chrome/131.0.0.0 Safari/537.36","WebKit","Chrome","131.0.0.0","Windows","10.0","https://app.prolific.com/","en-US,en;q=0.9","677d2164671591fcaf5c1688","686d226cabeef709c732f8e1","686e31404be6c4da378bc9d3","677d2164671591fcaf5c1688","2025-07-09T09:32:36.826Z","","","","","","AttribQ","","","","","","","","","","","","","","","","","","","","","","","","","","","","","","","","","","","","","","50"
"4805","","<div style=""width:500px;"">
  <p>How much control did you have over the ball?</p>
  </div>","37","html-slider-response","42","653813","0.0-10.0-2.0","210","1","2025-07-09 09:21:41","7701e855f2ef39aa3fd6c71abdc6918a","176.46.145.59","Mozilla/5.0 (Windows NT 10.0; Win64; x64) AppleWebKit/537.36 (KHTML, like Gecko) Chrome/131.0.0.0 Safari/537.36","WebKit","Chrome","131.0.0.0","Windows","10.0","https://app.prolific.com/","en-US,en;q=0.9","677d2164671591fcaf5c1688","686d226cabeef709c732f8e1","686e31404be6c4da378bc9d3","677d2164671591fcaf5c1688","2025-07-09T09:32:41.632Z","","","","","","ControlQ","","","","","","","","","","","","","","","","","","","","","","","","","","","","","","","","","","","","","","50"
"8804","","<div style=""width:500px;"">
  <p>How would you describe your current emotional state?</p>
  </div>","6","html-slider-response","43","662618","0.0-10.0-3.0","210","1","2025-07-09 09:21:41","7701e855f2ef39aa3fd6c71abdc6918a","176.46.145.59","Mozilla/5.0 (Windows NT 10.0; Win64; x64) AppleWebKit/537.36 (KHTML, like Gecko) Chrome/131.0.0.0 Safari/537.36","WebKit","Chrome","131.0.0.0","Windows","10.0","https://app.prolific.com/","en-US,en;q=0.9","677d2164671591fcaf5c1688","686d226cabeef709c732f8e1","686e31404be6c4da378bc9d3","677d2164671591fcaf5c1688","2025-07-09T09:32:50.437Z","","","","","","StressQ","","","","","","","","","","","","","","","","","","","","","","","","","","","","","","","","","","","","","","50"
"22615","","<div style=""width:500px;"">
  <p>What best describes how you currently feel?</p>
  </div>","92","html-slider-response","44","685234","0.0-10.0-4.0","210","1","2025-07-09 09:21:41","7701e855f2ef39aa3fd6c71abdc6918a","176.46.145.59","Mozilla/5.0 (Windows NT 10.0; Win64; x64) AppleWebKit/537.36 (KHTML, like Gecko) Chrome/131.0.0.0 Safari/537.36","WebKit","Chrome","131.0.0.0","Windows","10.0","https://app.prolific.com/","en-US,en;q=0.9","677d2164671591fcaf5c1688","686d226cabeef709c732f8e1","686e31404be6c4da378bc9d3","677d2164671591fcaf5c1688","2025-07-09T09:33:13.053Z","","","","","","MotivationQ","","","","","","","","","","","","","","","","","","","","","","","","","","","","","","","","","","","","","","50"
"","","","","ctl-task-cpt","45","699302","0.0-10.0-0.1","210","1","2025-07-09 09:21:41","7701e855f2ef39aa3fd6c71abdc6918a","176.46.145.59","Mozilla/5.0 (Windows NT 10.0; Win64; x64) AppleWebKit/537.36 (KHTML, like Gecko) Chrome/131.0.0.0 Safari/537.36","WebKit","Chrome","131.0.0.0","Windows","10.0","https://app.prolific.com/","en-US,en;q=0.9","677d2164671591fcaf5c1688","686d226cabeef709c732f8e1","686e31404be6c4da378bc9d3","677d2164671591fcaf5c1688","2025-07-09T09:33:27.121Z","","","","","","","","","","","","","","","","win-only","2","g1:SE,g2:NW","0.9","2","0","693201.5","1745.9","6747","11056","1","4","4","6","1","-1","-1","0","0","0","1186","3000","-2865","[""down"",""right""]","{""num_key_presses"":0,""num_perfect"":0,""num_errors"":0,""num_randdir"":0,""num_randdir_good_moves"":0,""num_whilered"":0,""num_whileblue"":0,""num_blue"":0,""num_good_moves"":0}","[350.3888392857143,359.7794642857143,1.8,350.3888392857143,359.7794642857143,100,350.3888392857143,359.7794642857143,205,350.3888392857143,359.7794642857143,305.6,350.3888392857143,359.7794642857143,409.7,590.3888392857143,498.7794642857143,510.3,713.3888392857143,594.7794642857143,618.7,713.3888392857143,594.7794642857143,720.4,713.3888392857143,594.7794642857143,820.5,676.3888392857143,622.7794642857143,925.2,669.3888392857143,623.7794642857143,1031.6,669.3888392857143,623.7794642857143,1135.3,669.3888392857143,623.7794642857143,1235.5,669.3888392857143,623.7794642857143,1336.1,669.3888392857143,623.7794642857143,1440.2,669.3888392857143,623.7794642857143,1541.2,669.3888392857143,623.7794642857143,1644.4,669.3888392857143,623.7794642857143,1745.5,669.3888392857143,623.7794642857143,1850,669.3888392857143,623.7794642857143,1954.5,669.3888392857143,623.7794642857143,2054.5,669.3888392857143,623.7794642857143,2155,669.3888392857143,623.7794642857143,2255.2,669.3888392857143,623.7794642857143,2360.5,669.3888392857143,623.7794642857143,2469.9,669.3888392857143,623.7794642857143,2571.5,669.3888392857143,623.7794642857143,2674.5,669.3888392857143,623.7794642857143,2774.9,669.3888392857143,623.7794642857143,2880.9,669.3888392857143,623.7794642857143,2985.9,669.3888392857143,623.7794642857143,3089.8,669.3888392857143,623.7794642857143,3194.8,669.3888392857143,623.7794642857143,3295.1,669.3888392857143,623.7794642857143,3401.6,669.3888392857143,623.7794642857143,3504.4,669.3888392857143,623.7794642857143,3610.2,669.3888392857143,623.7794642857143,3718.8,669.3888392857143,623.7794642857143,3820.7,669.3888392857143,623.7794642857143,3924.3,669.3888392857143,623.7794642857143,4025.4,669.3888392857143,623.7794642857143,4130.3,669.3888392857143,623.7794642857143,4234.9,669.3888392857143,623.7794642857143,4335.6,669.3888392857143,623.7794642857143,4436,669.3888392857143,623.7794642857143,4539.4,669.3888392857143,623.7794642857143,4639.8,669.3888392857143,623.7794642857143,4739.9,669.3888392857143,623.7794642857143,4840.2,669.3888392857143,623.7794642857143,4947.1]","[]","",""
"4886","","<div style=""width:500px;"">
  <p>What determined the result of this run?</p>
  </div>","25","html-slider-response","46","704190","0.0-10.0-1.1","210","1","2025-07-09 09:21:41","7701e855f2ef39aa3fd6c71abdc6918a","176.46.145.59","Mozilla/5.0 (Windows NT 10.0; Win64; x64) AppleWebKit/537.36 (KHTML, like Gecko) Chrome/131.0.0.0 Safari/537.36","WebKit","Chrome","131.0.0.0","Windows","10.0","https://app.prolific.com/","en-US,en;q=0.9","677d2164671591fcaf5c1688","686d226cabeef709c732f8e1","686e31404be6c4da378bc9d3","677d2164671591fcaf5c1688","2025-07-09T09:33:32.009Z","","","","","","AttribQ","","","","","","","","","","","","","","","","","","","","","","","","","","","","","","","","","","","","","","50"
"4119","","<div style=""width:500px;"">
  <p>How much control did you have over the ball?</p>
  </div>","19","html-slider-response","47","708311","0.0-10.0-2.1","210","1","2025-07-09 09:21:41","7701e855f2ef39aa3fd6c71abdc6918a","176.46.145.59","Mozilla/5.0 (Windows NT 10.0; Win64; x64) AppleWebKit/537.36 (KHTML, like Gecko) Chrome/131.0.0.0 Safari/537.36","WebKit","Chrome","131.0.0.0","Windows","10.0","https://app.prolific.com/","en-US,en;q=0.9","677d2164671591fcaf5c1688","686d226cabeef709c732f8e1","686e31404be6c4da378bc9d3","677d2164671591fcaf5c1688","2025-07-09T09:33:36.130Z","","","","","","ControlQ","","","","","","","","","","","","","","","","","","","","","","","","","","","","","","","","","","","","","","50"
"4083","","<div style=""width:500px;"">
  <p>How would you describe your current emotional state?</p>
  </div>","35","html-slider-response","48","712395","0.0-10.0-3.1","210","1","2025-07-09 09:21:41","7701e855f2ef39aa3fd6c71abdc6918a","176.46.145.59","Mozilla/5.0 (Windows NT 10.0; Win64; x64) AppleWebKit/537.36 (KHTML, like Gecko) Chrome/131.0.0.0 Safari/537.36","WebKit","Chrome","131.0.0.0","Windows","10.0","https://app.prolific.com/","en-US,en;q=0.9","677d2164671591fcaf5c1688","686d226cabeef709c732f8e1","686e31404be6c4da378bc9d3","677d2164671591fcaf5c1688","2025-07-09T09:33:40.214Z","","","","","","StressQ","","","","","","","","","","","","","","","","","","","","","","","","","","","","","","","","","","","","","","50"
"5855","","<div style=""width:500px;"">
  <p>What best describes how you currently feel?</p>
  </div>","99","html-slider-response","49","718252","0.0-10.0-4.1","210","1","2025-07-09 09:21:41","7701e855f2ef39aa3fd6c71abdc6918a","176.46.145.59","Mozilla/5.0 (Windows NT 10.0; Win64; x64) AppleWebKit/537.36 (KHTML, like Gecko) Chrome/131.0.0.0 Safari/537.36","WebKit","Chrome","131.0.0.0","Windows","10.0","https://app.prolific.com/","en-US,en;q=0.9","677d2164671591fcaf5c1688","686d226cabeef709c732f8e1","686e31404be6c4da378bc9d3","677d2164671591fcaf5c1688","2025-07-09T09:33:46.071Z","","","","","","MotivationQ","","","","","","","","","","","","","","","","","","","","","","","","","","","","","","","","","","","","","","50"
"","","","","ctl-task-cpt","50","739277","0.0-10.0-0.2","210","1","2025-07-09 09:21:41","7701e855f2ef39aa3fd6c71abdc6918a","176.46.145.59","Mozilla/5.0 (Windows NT 10.0; Win64; x64) AppleWebKit/537.36 (KHTML, like Gecko) Chrome/131.0.0.0 Safari/537.36","WebKit","Chrome","131.0.0.0","Windows","10.0","https://app.prolific.com/","en-US,en;q=0.9","677d2164671591fcaf5c1688","686d226cabeef709c732f8e1","686e31404be6c4da378bc9d3","677d2164671591fcaf5c1688","2025-07-09T09:34:07.096Z","","","","","","","","","","","","","","","","win-only","0","g1:NW,g2:SE","0.8","3","0","726219.4","2985.7","7986.2","18002.9","1","4","4","6","1","-1","-1","0","0","0","2252.4","3000","-2830","[""left"",""up""]","{""num_key_presses"":0,""num_perfect"":0,""num_errors"":0,""num_randdir"":0,""num_randdir_good_moves"":0,""num_whilered"":0,""num_whileblue"":0,""num_blue"":2,""num_good_moves"":0}","[348.3888392857143,353.7794642857143,0.7,348.3888392857143,353.7794642857143,100.4,348.3888392857143,353.7794642857143,201.2,348.3888392857143,353.7794642857143,305.4,348.3888392857143,353.7794642857143,407.5,348.3888392857143,353.7794642857143,511.7,364.3888392857143,373.7794642857143,612.3,433.3888392857143,471.7794642857143,714.7,440.3888392857143,483.7794642857143,815.2,440.3888392857143,483.7794642857143,916.1,251.38883928571428,345.7794642857143,1021.5,241.38883928571428,335.7794642857143,1125.1,241.38883928571428,335.7794642857143,1230.1,194.38883928571428,320.7794642857143,1330.6,-5.61116071428571,194.77946428571428,1438.1,-5.61116071428571,194.77946428571428,1547.9,-5.61116071428571,193.77946428571428,1650.6,3.3888392857142904,112.77946428571428,1762.9,21.38883928571429,97.77946428571428,1866.4,34.38883928571429,91.77946428571428,1967.5,36.38883928571429,89.77946428571428,2070.8,36.38883928571429,89.77946428571428,2176.9,36.38883928571429,89.77946428571428,2281.5,36.38883928571429,89.77946428571428,2387.3,36.38883928571429,89.77946428571428,2496.5,36.38883928571429,89.77946428571428,2596.9,36.38883928571429,89.77946428571428,2699.6,36.38883928571429,89.77946428571428,2799.7,36.38883928571429,89.77946428571428,2901.4,36.38883928571429,89.77946428571428,3010,36.38883928571429,89.77946428571428,3111.4,36.38883928571429,89.77946428571428,3214.9,36.38883928571429,89.77946428571428,3315.1,36.38883928571429,89.77946428571428,3421.9,36.38883928571429,89.77946428571428,3526.8,36.38883928571429,89.77946428571428,3629.8,36.38883928571429,89.77946428571428,3735.6,36.38883928571429,89.77946428571428,3837.1,36.38883928571429,89.77946428571428,3940.8,36.38883928571429,89.77946428571428,4046.1,36.38883928571429,89.77946428571428,4150,36.38883928571429,89.77946428571428,4250.8,36.38883928571429,89.77946428571428,4354.9,36.38883928571429,89.77946428571428,4455.4,36.38883928571429,89.77946428571428,4558.6,36.38883928571429,89.77946428571428,4660.3,36.38883928571429,89.77946428571428,4767.4,36.38883928571429,89.77946428571428,4872.5,36.38883928571429,89.77946428571428,4978.4]","[]","",""
"6638","","<div style=""width:500px;"">
  <p>What determined the result of this run?</p>
  </div>","50","html-slider-response","51","745916","0.0-10.0-1.2","210","1","2025-07-09 09:21:41","7701e855f2ef39aa3fd6c71abdc6918a","176.46.145.59","Mozilla/5.0 (Windows NT 10.0; Win64; x64) AppleWebKit/537.36 (KHTML, like Gecko) Chrome/131.0.0.0 Safari/537.36","WebKit","Chrome","131.0.0.0","Windows","10.0","https://app.prolific.com/","en-US,en;q=0.9","677d2164671591fcaf5c1688","686d226cabeef709c732f8e1","686e31404be6c4da378bc9d3","677d2164671591fcaf5c1688","2025-07-09T09:34:13.735Z","","","","","","AttribQ","","","","","","","","","","","","","","","","","","","","","","","","","","","","","","","","","","","","","","50"
"5505","","<div style=""width:500px;"">
  <p>How much control did you have over the ball?</p>
  </div>","73","html-slider-response","52","751423","0.0-10.0-2.2","210","1","2025-07-09 09:21:41","7701e855f2ef39aa3fd6c71abdc6918a","176.46.145.59","Mozilla/5.0 (Windows NT 10.0; Win64; x64) AppleWebKit/537.36 (KHTML, like Gecko) Chrome/131.0.0.0 Safari/537.36","WebKit","Chrome","131.0.0.0","Windows","10.0","https://app.prolific.com/","en-US,en;q=0.9","677d2164671591fcaf5c1688","686d226cabeef709c732f8e1","686e31404be6c4da378bc9d3","677d2164671591fcaf5c1688","2025-07-09T09:34:19.242Z","","","","","","ControlQ","","","","","","","","","","","","","","","","","","","","","","","","","","","","","","","","","","","","","","50"
"5957","","<div style=""width:500px;"">
  <p>How would you describe your current emotional state?</p>
  </div>","17","html-slider-response","53","757380","0.0-10.0-3.2","210","1","2025-07-09 09:21:41","7701e855f2ef39aa3fd6c71abdc6918a","176.46.145.59","Mozilla/5.0 (Windows NT 10.0; Win64; x64) AppleWebKit/537.36 (KHTML, like Gecko) Chrome/131.0.0.0 Safari/537.36","WebKit","Chrome","131.0.0.0","Windows","10.0","https://app.prolific.com/","en-US,en;q=0.9","677d2164671591fcaf5c1688","686d226cabeef709c732f8e1","686e31404be6c4da378bc9d3","677d2164671591fcaf5c1688","2025-07-09T09:34:25.200Z","","","","","","StressQ","","","","","","","","","","","","","","","","","","","","","","","","","","","","","","","","","","","","","","50"
"4981","","<div style=""width:500px;"">
  <p>What best describes how you currently feel?</p>
  </div>","99","html-slider-response","54","762364","0.0-10.0-4.2","210","1","2025-07-09 09:21:41","7701e855f2ef39aa3fd6c71abdc6918a","176.46.145.59","Mozilla/5.0 (Windows NT 10.0; Win64; x64) AppleWebKit/537.36 (KHTML, like Gecko) Chrome/131.0.0.0 Safari/537.36","WebKit","Chrome","131.0.0.0","Windows","10.0","https://app.prolific.com/","en-US,en;q=0.9","677d2164671591fcaf5c1688","686d226cabeef709c732f8e1","686e31404be6c4da378bc9d3","677d2164671591fcaf5c1688","2025-07-09T09:34:30.183Z","","","","","","MotivationQ","","","","","","","","","","","","","","","","","","","","","","","","","","","","","","","","","","","","","","50"
"","","","","ctl-task-cpt","55","780674","0.0-10.0-0.3","210","1","2025-07-09 09:21:41","7701e855f2ef39aa3fd6c71abdc6918a","176.46.145.59","Mozilla/5.0 (Windows NT 10.0; Win64; x64) AppleWebKit/537.36 (KHTML, like Gecko) Chrome/131.0.0.0 Safari/537.36","WebKit","Chrome","131.0.0.0","Windows","10.0","https://app.prolific.com/","en-US,en;q=0.9","677d2164671591fcaf5c1688","686d226cabeef709c732f8e1","686e31404be6c4da378bc9d3","677d2164671591fcaf5c1688","2025-07-09T09:34:48.494Z","","","","","","","","","","","","","","","","win-only","0","g1:NW,g2:SE","0.7","4","0","770331.1","1567.4","6571","15286","1","4","8","6","2","-8","-8","0","0","0","2629.5","3000","-2555","[""down"",""right""]","{""num_key_presses"":0,""num_perfect"":0,""num_errors"":0,""num_randdir"":0,""num_randdir_good_moves"":0,""num_whilered"":0,""num_whileblue"":0,""num_blue"":1,""num_good_moves"":0}","[349.3888392857143,352.7794642857143,0.4,349.3888392857143,352.7794642857143,100.2,349.3888392857143,352.7794642857143,203.1,349.3888392857143,352.7794642857143,315,349.3888392857143,352.7794642857143,417.6,349.3888392857143,352.7794642857143,521.5,349.3888392857143,352.7794642857143,623.5,349.3888392857143,352.7794642857143,730.8,349.3888392857143,352.7794642857143,831.2,349.3888392857143,352.7794642857143,934.5,354.3888392857143,345.7794642857143,1036.4,397.3888392857143,337.7794642857143,1136.7,408.3888392857143,354.7794642857143,1238.3,408.3888392857143,354.7794642857143,1338.7,410.3888392857143,354.7794642857143,1451.6,586.3888392857143,447.7794642857143,1554.5,611.3888392857143,471.7794642857143,1657.9,611.3888392857143,471.7794642857143,1764.5,611.3888392857143,476.7794642857143,1868.7,639.3888392857143,604.7794642857143,1976.5,639.3888392857143,604.7794642857143,2079.8,639.3888392857143,604.7794642857143,2186.7,654.3888392857143,644.7794642857143,2289.2,654.3888392857143,645.7794642857143,2390.5,654.3888392857143,645.7794642857143,2495.7,654.3888392857143,645.7794642857143,2601.9,654.3888392857143,645.7794642857143,2704.2,654.3888392857143,645.7794642857143,2809.4,654.3888392857143,645.7794642857143,2914.4,654.3888392857143,645.7794642857143,3015.8,654.3888392857143,645.7794642857143,3118.9,654.3888392857143,645.7794642857143,3219.1,654.3888392857143,645.7794642857143,3319.4,654.3888392857143,645.7794642857143,3424,654.3888392857143,645.7794642857143,3530.5,654.3888392857143,645.7794642857143,3634.9,654.3888392857143,645.7794642857143,3735.5,654.3888392857143,645.7794642857143,3838.6,654.3888392857143,645.7794642857143,3950.1,654.3888392857143,645.7794642857143,4053.3,654.3888392857143,645.7794642857143,4153.7,654.3888392857143,645.7794642857143,4260.1,654.3888392857143,645.7794642857143,4365.1,654.3888392857143,645.7794642857143,4469,654.3888392857143,645.7794642857143,4579.4,654.3888392857143,645.7794642857143,4684.4,654.3888392857143,645.7794642857143,4788.1,654.3888392857143,645.7794642857143,4894.8,654.3888392857143,645.7794642857143,4999.7]","[]","",""
"13030","","<div style=""width:500px;"">
  <p>What determined the result of this run?</p>
  </div>","11","html-slider-response","56","793706","0.0-10.0-1.3","210","1","2025-07-09 09:21:41","7701e855f2ef39aa3fd6c71abdc6918a","176.46.145.59","Mozilla/5.0 (Windows NT 10.0; Win64; x64) AppleWebKit/537.36 (KHTML, like Gecko) Chrome/131.0.0.0 Safari/537.36","WebKit","Chrome","131.0.0.0","Windows","10.0","https://app.prolific.com/","en-US,en;q=0.9","677d2164671591fcaf5c1688","686d226cabeef709c732f8e1","686e31404be6c4da378bc9d3","677d2164671591fcaf5c1688","2025-07-09T09:35:01.525Z","","","","","","AttribQ","","","","","","","","","","","","","","","","","","","","","","","","","","","","","","","","","","","","","","50"
"2147","","<div style=""width:500px;"">
  <p>How much control did you have over the ball?</p>
  </div>","21","html-slider-response","57","795854","0.0-10.0-2.3","210","1","2025-07-09 09:21:41","7701e855f2ef39aa3fd6c71abdc6918a","176.46.145.59","Mozilla/5.0 (Windows NT 10.0; Win64; x64) AppleWebKit/537.36 (KHTML, like Gecko) Chrome/131.0.0.0 Safari/537.36","WebKit","Chrome","131.0.0.0","Windows","10.0","https://app.prolific.com/","en-US,en;q=0.9","677d2164671591fcaf5c1688","686d226cabeef709c732f8e1","686e31404be6c4da378bc9d3","677d2164671591fcaf5c1688","2025-07-09T09:35:03.673Z","","","","","","ControlQ","","","","","","","","","","","","","","","","","","","","","","","","","","","","","","","","","","","","","","50"
"3276","","<div style=""width:500px;"">
  <p>How would you describe your current emotional state?</p>
  </div>","12","html-slider-response","58","799132","0.0-10.0-3.3","210","1","2025-07-09 09:21:41","7701e855f2ef39aa3fd6c71abdc6918a","176.46.145.59","Mozilla/5.0 (Windows NT 10.0; Win64; x64) AppleWebKit/537.36 (KHTML, like Gecko) Chrome/131.0.0.0 Safari/537.36","WebKit","Chrome","131.0.0.0","Windows","10.0","https://app.prolific.com/","en-US,en;q=0.9","677d2164671591fcaf5c1688","686d226cabeef709c732f8e1","686e31404be6c4da378bc9d3","677d2164671591fcaf5c1688","2025-07-09T09:35:06.951Z","","","","","","StressQ","","","","","","","","","","","","","","","","","","","","","","","","","","","","","","","","","","","","","","50"
"3005","","<div style=""width:500px;"">
  <p>What best describes how you currently feel?</p>
  </div>","85","html-slider-response","59","802140","0.0-10.0-4.3","210","1","2025-07-09 09:21:41","7701e855f2ef39aa3fd6c71abdc6918a","176.46.145.59","Mozilla/5.0 (Windows NT 10.0; Win64; x64) AppleWebKit/537.36 (KHTML, like Gecko) Chrome/131.0.0.0 Safari/537.36","WebKit","Chrome","131.0.0.0","Windows","10.0","https://app.prolific.com/","en-US,en;q=0.9","677d2164671591fcaf5c1688","686d226cabeef709c732f8e1","686e31404be6c4da378bc9d3","677d2164671591fcaf5c1688","2025-07-09T09:35:09.959Z","","","","","","MotivationQ","","","","","","","","","","","","","","","","","","","","","","","","","","","","","","","","","","","","","","50"
"","","","","ctl-task-cpt","60","816916","0.0-10.0-0.4","210","1","2025-07-09 09:21:41","7701e855f2ef39aa3fd6c71abdc6918a","176.46.145.59","Mozilla/5.0 (Windows NT 10.0; Win64; x64) AppleWebKit/537.36 (KHTML, like Gecko) Chrome/131.0.0.0 Safari/537.36","WebKit","Chrome","131.0.0.0","Windows","10.0","https://app.prolific.com/","en-US,en;q=0.9","677d2164671591fcaf5c1688","686d226cabeef709c732f8e1","686e31404be6c4da378bc9d3","677d2164671591fcaf5c1688","2025-07-09T09:35:24.736Z","","","","","","","","","","","","","","","","win-only","0","g1:NW,g2:SE","0.6","5","0","810106.6","1738.1","6742.8","11754.1","1","4","8","6","1","-1","-1","0","0","0","1750.7","3000","-2455","[""left"",""up""]","{""num_key_presses"":0,""num_perfect"":0,""num_errors"":0,""num_randdir"":0,""num_randdir_good_moves"":0,""num_whilered"":0,""num_whileblue"":0,""num_blue"":0,""num_good_moves"":0}","[360.3888392857143,355.7794642857143,0.2,360.3888392857143,355.7794642857143,103.6,360.3888392857143,355.7794642857143,210.7,360.3888392857143,355.7794642857143,312.4,360.3888392857143,355.7794642857143,416.2,360.3888392857143,355.7794642857143,522.1,360.3888392857143,355.7794642857143,627,360.3888392857143,355.7794642857143,735.8,360.3888392857143,355.7794642857143,837.4,360.3888392857143,355.7794642857143,938.1,360.3888392857143,355.7794642857143,1050.7,360.3888392857143,355.7794642857143,1154.5,360.3888392857143,355.7794642857143,1265.3,360.3888392857143,355.7794642857143,1366.5,360.3888392857143,355.7794642857143,1468.9,360.3888392857143,355.7794642857143,1580.9,360.3888392857143,355.7794642857143,1685.1,67.38883928571428,70.77946428571428,1786.1,67.38883928571428,70.77946428571428,1886.1,67.38883928571428,70.77946428571428,1986.4,67.38883928571428,70.77946428571428,2088.4,67.38883928571428,70.77946428571428,2199.9,67.38883928571428,70.77946428571428,2306,67.38883928571428,70.77946428571428,2408.3,67.38883928571428,70.77946428571428,2518.7,67.38883928571428,70.77946428571428,2619.1,67.38883928571428,70.77946428571428,2719.1,67.38883928571428,70.77946428571428,2825.4,67.38883928571428,70.77946428571428,2930,67.38883928571428,70.77946428571428,3037.3,67.38883928571428,70.77946428571428,3137.4,67.38883928571428,70.77946428571428,3238.5,67.38883928571428,70.77946428571428,3344.2,67.38883928571428,70.77946428571428,3445.3,67.38883928571428,70.77946428571428,3550.4,67.38883928571428,70.77946428571428,3654.2,67.38883928571428,70.77946428571428,3759.1,67.38883928571428,70.77946428571428,3865.5,67.38883928571428,70.77946428571428,3971.8,67.38883928571428,70.77946428571428,4073.8,67.38883928571428,70.77946428571428,4182,67.38883928571428,70.77946428571428,4282.3,67.38883928571428,70.77946428571428,4384.7,67.38883928571428,70.77946428571428,4486.8,67.38883928571428,70.77946428571428,4586.9,67.38883928571428,70.77946428571428,4687.9,67.38883928571428,70.77946428571428,4788.2,67.38883928571428,70.77946428571428,4892.8,67.38883928571428,70.77946428571428,4999.1]","[]","",""
"5260","","<div style=""width:500px;"">
  <p>What determined the result of this run?</p>
  </div>","88","html-slider-response","61","822178","0.0-10.0-1.4","210","1","2025-07-09 09:21:41","7701e855f2ef39aa3fd6c71abdc6918a","176.46.145.59","Mozilla/5.0 (Windows NT 10.0; Win64; x64) AppleWebKit/537.36 (KHTML, like Gecko) Chrome/131.0.0.0 Safari/537.36","WebKit","Chrome","131.0.0.0","Windows","10.0","https://app.prolific.com/","en-US,en;q=0.9","677d2164671591fcaf5c1688","686d226cabeef709c732f8e1","686e31404be6c4da378bc9d3","677d2164671591fcaf5c1688","2025-07-09T09:35:29.997Z","","","","","","AttribQ","","","","","","","","","","","","","","","","","","","","","","","","","","","","","","","","","","","","","","50"
"3013","","<div style=""width:500px;"">
  <p>How much control did you have over the ball?</p>
  </div>","28","html-slider-response","62","825192","0.0-10.0-2.4","210","1","2025-07-09 09:21:41","7701e855f2ef39aa3fd6c71abdc6918a","176.46.145.59","Mozilla/5.0 (Windows NT 10.0; Win64; x64) AppleWebKit/537.36 (KHTML, like Gecko) Chrome/131.0.0.0 Safari/537.36","WebKit","Chrome","131.0.0.0","Windows","10.0","https://app.prolific.com/","en-US,en;q=0.9","677d2164671591fcaf5c1688","686d226cabeef709c732f8e1","686e31404be6c4da378bc9d3","677d2164671591fcaf5c1688","2025-07-09T09:35:33.011Z","","","","","","ControlQ","","","","","","","","","","","","","","","","","","","","","","","","","","","","","","","","","","","","","","50"
"3291","","<div style=""width:500px;"">
  <p>How would you describe your current emotional state?</p>
  </div>","2","html-slider-response","63","828484","0.0-10.0-3.4","210","1","2025-07-09 09:21:41","7701e855f2ef39aa3fd6c71abdc6918a","176.46.145.59","Mozilla/5.0 (Windows NT 10.0; Win64; x64) AppleWebKit/537.36 (KHTML, like Gecko) Chrome/131.0.0.0 Safari/537.36","WebKit","Chrome","131.0.0.0","Windows","10.0","https://app.prolific.com/","en-US,en;q=0.9","677d2164671591fcaf5c1688","686d226cabeef709c732f8e1","686e31404be6c4da378bc9d3","677d2164671591fcaf5c1688","2025-07-09T09:35:36.303Z","","","","","","StressQ","","","","","","","","","","","","","","","","","","","","","","","","","","","","","","","","","","","","","","50"
"2261","","<div style=""width:500px;"">
  <p>What best describes how you currently feel?</p>
  </div>","96","html-slider-response","64","830747","0.0-10.0-4.4","210","1","2025-07-09 09:21:41","7701e855f2ef39aa3fd6c71abdc6918a","176.46.145.59","Mozilla/5.0 (Windows NT 10.0; Win64; x64) AppleWebKit/537.36 (KHTML, like Gecko) Chrome/131.0.0.0 Safari/537.36","WebKit","Chrome","131.0.0.0","Windows","10.0","https://app.prolific.com/","en-US,en;q=0.9","677d2164671591fcaf5c1688","686d226cabeef709c732f8e1","686e31404be6c4da378bc9d3","677d2164671591fcaf5c1688","2025-07-09T09:35:38.566Z","","","","","","MotivationQ","","","","","","","","","","","","","","","","","","","","","","","","","","","","","","","","","","","","","","50"
"","","","","ctl-task-cpt","65","846848","0.0-10.0-0.5","210","1","2025-07-09 09:21:41","7701e855f2ef39aa3fd6c71abdc6918a","176.46.145.59","Mozilla/5.0 (Windows NT 10.0; Win64; x64) AppleWebKit/537.36 (KHTML, like Gecko) Chrome/131.0.0.0 Safari/537.36","WebKit","Chrome","131.0.0.0","Windows","10.0","https://app.prolific.com/","en-US,en;q=0.9","677d2164671591fcaf5c1688","686d226cabeef709c732f8e1","686e31404be6c4da378bc9d3","677d2164671591fcaf5c1688","2025-07-09T09:35:54.667Z","","","","","","","","","","","","","","","","win-only","1","g1:NE,g2:SW","0.5","6","0","838714","796.3","5797.7","13086","1","4","4","6","2","-4","-4","0","0","0","3670.5","3000","-2525","[""down"",""left""]","{""num_key_presses"":0,""num_perfect"":0,""num_errors"":0,""num_randdir"":0,""num_randdir_good_moves"":0,""num_whilered"":0,""num_whileblue"":0,""num_blue"":1,""num_good_moves"":0}","[343.3888392857143,352.7794642857143,0.2,343.3888392857143,352.7794642857143,108.4,343.3888392857143,352.7794642857143,210.8,343.3888392857143,352.7794642857143,313.8,343.3888392857143,352.7794642857143,420,343.3888392857143,352.7794642857143,521.3,343.3888392857143,352.7794642857143,622.4,343.3888392857143,352.7794642857143,733.7,343.3888392857143,352.7794642857143,834,343.3888392857143,352.7794642857143,934.8,343.3888392857143,352.7794642857143,1035.8,343.3888392857143,352.7794642857143,1136.2,343.3888392857143,352.7794642857143,1241.9,343.3888392857143,352.7794642857143,1345.4,343.3888392857143,352.7794642857143,1451.1,343.3888392857143,352.7794642857143,1555.9,343.3888392857143,352.7794642857143,1662.5,343.3888392857143,352.7794642857143,1765.5,343.3888392857143,352.7794642857143,1869.1,343.3888392857143,352.7794642857143,1969.3,343.3888392857143,352.7794642857143,2070,343.3888392857143,352.7794642857143,2171,343.3888392857143,352.7794642857143,2271.5,343.3888392857143,352.7794642857143,2382.2,343.3888392857143,352.7794642857143,2486.6,343.3888392857143,352.7794642857143,2589.2,343.3888392857143,352.7794642857143,2690.3,343.3888392857143,352.7794642857143,2798.5,343.3888392857143,352.7794642857143,2903.1,343.3888392857143,352.7794642857143,3005.6,343.3888392857143,352.7794642857143,3111.9,343.3888392857143,352.7794642857143,3217.9,343.3888392857143,352.7794642857143,3318.4,343.3888392857143,352.7794642857143,3418.4,343.3888392857143,352.7794642857143,3519.1,343.3888392857143,352.7794642857143,3620.1,59.38883928571429,641.7794642857143,3720.3,59.38883928571429,641.7794642857143,3825.2,59.38883928571429,641.7794642857143,3934.2,59.38883928571429,641.7794642857143,4040.3,59.38883928571429,641.7794642857143,4147.6,59.38883928571429,641.7794642857143,4248.1,59.38883928571429,641.7794642857143,4349,59.38883928571429,641.7794642857143,4449.3,59.38883928571429,641.7794642857143,4554.2,59.38883928571429,641.7794642857143,4654.3,59.38883928571429,641.7794642857143,4754.4,59.38883928571429,641.7794642857143,4862.1,59.38883928571429,641.7794642857143,4964.5]","[]","",""
"2783","","<div style=""width:500px;"">
  <p>What determined the result of this run?</p>
  </div>","11","html-slider-response","66","849633","0.0-10.0-1.5","210","1","2025-07-09 09:21:41","7701e855f2ef39aa3fd6c71abdc6918a","176.46.145.59","Mozilla/5.0 (Windows NT 10.0; Win64; x64) AppleWebKit/537.36 (KHTML, like Gecko) Chrome/131.0.0.0 Safari/537.36","WebKit","Chrome","131.0.0.0","Windows","10.0","https://app.prolific.com/","en-US,en;q=0.9","677d2164671591fcaf5c1688","686d226cabeef709c732f8e1","686e31404be6c4da378bc9d3","677d2164671591fcaf5c1688","2025-07-09T09:35:57.452Z","","","","","","AttribQ","","","","","","","","","","","","","","","","","","","","","","","","","","","","","","","","","","","","","","50"
"2310","","<div style=""width:500px;"">
  <p>How much control did you have over the ball?</p>
  </div>","4","html-slider-response","67","851944","0.0-10.0-2.5","210","1","2025-07-09 09:21:41","7701e855f2ef39aa3fd6c71abdc6918a","176.46.145.59","Mozilla/5.0 (Windows NT 10.0; Win64; x64) AppleWebKit/537.36 (KHTML, like Gecko) Chrome/131.0.0.0 Safari/537.36","WebKit","Chrome","131.0.0.0","Windows","10.0","https://app.prolific.com/","en-US,en;q=0.9","677d2164671591fcaf5c1688","686d226cabeef709c732f8e1","686e31404be6c4da378bc9d3","677d2164671591fcaf5c1688","2025-07-09T09:35:59.763Z","","","","","","ControlQ","","","","","","","","","","","","","","","","","","","","","","","","","","","","","","","","","","","","","","50"
"3247","","<div style=""width:500px;"">
  <p>How would you describe your current emotional state?</p>
  </div>","0","html-slider-response","68","855192","0.0-10.0-3.5","210","1","2025-07-09 09:21:41","7701e855f2ef39aa3fd6c71abdc6918a","176.46.145.59","Mozilla/5.0 (Windows NT 10.0; Win64; x64) AppleWebKit/537.36 (KHTML, like Gecko) Chrome/131.0.0.0 Safari/537.36","WebKit","Chrome","131.0.0.0","Windows","10.0","https://app.prolific.com/","en-US,en;q=0.9","677d2164671591fcaf5c1688","686d226cabeef709c732f8e1","686e31404be6c4da378bc9d3","677d2164671591fcaf5c1688","2025-07-09T09:36:03.011Z","","","","","","StressQ","","","","","","","","","","","","","","","","","","","","","","","","","","","","","","","","","","","","","","50"
"1684","","<div style=""width:500px;"">
  <p>What best describes how you currently feel?</p>
  </div>","100","html-slider-response","69","856877","0.0-10.0-4.5","210","1","2025-07-09 09:21:41","7701e855f2ef39aa3fd6c71abdc6918a","176.46.145.59","Mozilla/5.0 (Windows NT 10.0; Win64; x64) AppleWebKit/537.36 (KHTML, like Gecko) Chrome/131.0.0.0 Safari/537.36","WebKit","Chrome","131.0.0.0","Windows","10.0","https://app.prolific.com/","en-US,en;q=0.9","677d2164671591fcaf5c1688","686d226cabeef709c732f8e1","686e31404be6c4da378bc9d3","677d2164671591fcaf5c1688","2025-07-09T09:36:04.696Z","","","","","","MotivationQ","","","","","","","","","","","","","","","","","","","","","","","","","","","","","","","","","","","","","","50"
"","","","","ctl-task-cpt","70","871459","0.0-10.0-0.6","210","1","2025-07-09 09:21:41","7701e855f2ef39aa3fd6c71abdc6918a","176.46.145.59","Mozilla/5.0 (Windows NT 10.0; Win64; x64) AppleWebKit/537.36 (KHTML, like Gecko) Chrome/131.0.0.0 Safari/537.36","WebKit","Chrome","131.0.0.0","Windows","10.0","https://app.prolific.com/","en-US,en;q=0.9","677d2164671591fcaf5c1688","686d226cabeef709c732f8e1","686e31404be6c4da378bc9d3","677d2164671591fcaf5c1688","2025-07-09T09:36:19.278Z","","","","","","","","","","","","","","","","win-only","1","g1:NE,g2:SW","0.4","7","0","864845.6","1384.3","6388.2","11551.3","1","4","8","6","1","-1","-1","0","0","0","1628.8","3000","-2340","[""up"",""right""]","{""num_key_presses"":0,""num_perfect"":0,""num_errors"":0,""num_randdir"":0,""num_randdir_good_moves"":0,""num_whilered"":0,""num_whileblue"":0,""num_blue"":0,""num_good_moves"":0}","[358.3888392857143,351.7794642857143,0.2,358.3888392857143,351.7794642857143,105.9,358.3888392857143,351.7794642857143,206.7,358.3888392857143,351.7794642857143,310.7,358.3888392857143,351.7794642857143,411.3,358.3888392857143,351.7794642857143,521,358.3888392857143,351.7794642857143,626.9,358.3888392857143,351.7794642857143,730,358.3888392857143,351.7794642857143,832.2,358.3888392857143,351.7794642857143,941.4,358.3888392857143,351.7794642857143,1046.8,358.3888392857143,351.7794642857143,1147.3,358.3888392857143,351.7794642857143,1255.5,358.3888392857143,351.7794642857143,1357.1,358.3888392857143,351.7794642857143,1462.1,358.3888392857143,351.7794642857143,1562.2,682.3888392857143,108.77946428571428,1670.4,682.3888392857143,108.77946428571428,1774.4,682.3888392857143,108.77946428571428,1877.8,682.3888392857143,108.77946428571428,1983.2,682.3888392857143,108.77946428571428,2087,682.3888392857143,108.77946428571428,2191.7,682.3888392857143,108.77946428571428,2295.6,682.3888392857143,108.77946428571428,2396.2,682.3888392857143,108.77946428571428,2496.5,682.3888392857143,108.77946428571428,2600.3,682.3888392857143,108.77946428571428,2702.2,682.3888392857143,108.77946428571428,2809.7,682.3888392857143,108.77946428571428,2911.8,682.3888392857143,108.77946428571428,3013.9,682.3888392857143,108.77946428571428,3117.9,682.3888392857143,108.77946428571428,3225,682.3888392857143,108.77946428571428,3329,682.3888392857143,108.77946428571428,3432.2,682.3888392857143,108.77946428571428,3533.1,682.3888392857143,108.77946428571428,3640.9,682.3888392857143,108.77946428571428,3745.9,682.3888392857143,108.77946428571428,3854.4,682.3888392857143,108.77946428571428,3966,682.3888392857143,108.77946428571428,4069.9,682.3888392857143,108.77946428571428,4173.2,682.3888392857143,108.77946428571428,4277.4,682.3888392857143,108.77946428571428,4378.4,682.3888392857143,108.77946428571428,4478.5,682.3888392857143,108.77946428571428,4579,682.3888392857143,108.77946428571428,4679.3,682.3888392857143,108.77946428571428,4782.5,682.3888392857143,108.77946428571428,4882.9,682.3888392857143,108.77946428571428,4983]","[]","",""
"4597","","<div style=""width:500px;"">
  <p>What determined the result of this run?</p>
  </div>","54","html-slider-response","71","876058","0.0-10.0-1.6","210","1","2025-07-09 09:21:41","7701e855f2ef39aa3fd6c71abdc6918a","176.46.145.59","Mozilla/5.0 (Windows NT 10.0; Win64; x64) AppleWebKit/537.36 (KHTML, like Gecko) Chrome/131.0.0.0 Safari/537.36","WebKit","Chrome","131.0.0.0","Windows","10.0","https://app.prolific.com/","en-US,en;q=0.9","677d2164671591fcaf5c1688","686d226cabeef709c732f8e1","686e31404be6c4da378bc9d3","677d2164671591fcaf5c1688","2025-07-09T09:36:23.877Z","","","","","","AttribQ","","","","","","","","","","","","","","","","","","","","","","","","","","","","","","","","","","","","","","50"
"1471","","<div style=""width:500px;"">
  <p>How much control did you have over the ball?</p>
  </div>","42","html-slider-response","72","877531","0.0-10.0-2.6","210","1","2025-07-09 09:21:41","7701e855f2ef39aa3fd6c71abdc6918a","176.46.145.59","Mozilla/5.0 (Windows NT 10.0; Win64; x64) AppleWebKit/537.36 (KHTML, like Gecko) Chrome/131.0.0.0 Safari/537.36","WebKit","Chrome","131.0.0.0","Windows","10.0","https://app.prolific.com/","en-US,en;q=0.9","677d2164671591fcaf5c1688","686d226cabeef709c732f8e1","686e31404be6c4da378bc9d3","677d2164671591fcaf5c1688","2025-07-09T09:36:25.350Z","","","","","","ControlQ","","","","","","","","","","","","","","","","","","","","","","","","","","","","","","","","","","","","","","50"
"2989","","<div style=""width:500px;"">
  <p>How would you describe your current emotional state?</p>
  </div>","0","html-slider-response","73","880523","0.0-10.0-3.6","210","1","2025-07-09 09:21:41","7701e855f2ef39aa3fd6c71abdc6918a","176.46.145.59","Mozilla/5.0 (Windows NT 10.0; Win64; x64) AppleWebKit/537.36 (KHTML, like Gecko) Chrome/131.0.0.0 Safari/537.36","WebKit","Chrome","131.0.0.0","Windows","10.0","https://app.prolific.com/","en-US,en;q=0.9","677d2164671591fcaf5c1688","686d226cabeef709c732f8e1","686e31404be6c4da378bc9d3","677d2164671591fcaf5c1688","2025-07-09T09:36:28.342Z","","","","","","StressQ","","","","","","","","","","","","","","","","","","","","","","","","","","","","","","","","","","","","","","50"
"2502","","<div style=""width:500px;"">
  <p>What best describes how you currently feel?</p>
  </div>","100","html-slider-response","74","883026","0.0-10.0-4.6","210","1","2025-07-09 09:21:41","7701e855f2ef39aa3fd6c71abdc6918a","176.46.145.59","Mozilla/5.0 (Windows NT 10.0; Win64; x64) AppleWebKit/537.36 (KHTML, like Gecko) Chrome/131.0.0.0 Safari/537.36","WebKit","Chrome","131.0.0.0","Windows","10.0","https://app.prolific.com/","en-US,en;q=0.9","677d2164671591fcaf5c1688","686d226cabeef709c732f8e1","686e31404be6c4da378bc9d3","677d2164671591fcaf5c1688","2025-07-09T09:36:30.846Z","","","","","","MotivationQ","","","","","","","","","","","","","","","","","","","","","","","","","","","","","","","","","","","","","","50"
"","","","","ctl-task-cpt","75","897080","0.0-10.0-0.7","210","1","2025-07-09 09:21:41","7701e855f2ef39aa3fd6c71abdc6918a","176.46.145.59","Mozilla/5.0 (Windows NT 10.0; Win64; x64) AppleWebKit/537.36 (KHTML, like Gecko) Chrome/131.0.0.0 Safari/537.36","WebKit","Chrome","131.0.0.0","Windows","10.0","https://app.prolific.com/","en-US,en;q=0.9","677d2164671591fcaf5c1688","686d226cabeef709c732f8e1","686e31404be6c4da378bc9d3","677d2164671591fcaf5c1688","2025-07-09T09:36:44.899Z","","","","","","","","","","","","","","","","win-only","1","g1:NE,g2:SW","0.3","8","0","890992.9","693.5","5695.7","11044.5","1","4","4","6","1","-1","-1","0","0","0","1564.8","3000","-2215","[""up"",""right""]","{""num_key_presses"":0,""num_perfect"":0,""num_errors"":0,""num_randdir"":0,""num_randdir_good_moves"":0,""num_whilered"":0,""num_whileblue"":0,""num_blue"":0,""num_good_moves"":0}","[362.3888392857143,351.7794642857143,0.4,362.3888392857143,351.7794642857143,102,362.3888392857143,351.7794642857143,205.5,362.3888392857143,351.7794642857143,309.5,362.3888392857143,351.7794642857143,421.5,362.3888392857143,351.7794642857143,523.9,362.3888392857143,351.7794642857143,629.1,362.3888392857143,351.7794642857143,735.5,362.3888392857143,351.7794642857143,837.3,362.3888392857143,351.7794642857143,944.1,362.3888392857143,351.7794642857143,1044.4,362.3888392857143,351.7794642857143,1155.4,362.3888392857143,351.7794642857143,1258,362.3888392857143,351.7794642857143,1358.2,362.3888392857143,351.7794642857143,1458.6,362.3888392857143,351.7794642857143,1564.5,651.3888392857143,30.77946428571429,1665.2,651.3888392857143,30.77946428571429,1770.8,651.3888392857143,30.77946428571429,1875.6,651.3888392857143,30.77946428571429,1977.5,651.3888392857143,30.77946428571429,2087.5,651.3888392857143,30.77946428571429,2191.7,651.3888392857143,30.77946428571429,2291.9,651.3888392857143,30.77946428571429,2392.4,651.3888392857143,30.77946428571429,2506.5,651.3888392857143,30.77946428571429,2611.6,651.3888392857143,30.77946428571429,2715,651.3888392857143,30.77946428571429,2818.4,651.3888392857143,30.77946428571429,2922.5,651.3888392857143,30.77946428571429,3029.4,651.3888392857143,30.77946428571429,3135.9,651.3888392857143,30.77946428571429,3236.3,651.3888392857143,30.77946428571429,3338.6,651.3888392857143,30.77946428571429,3443.1,651.3888392857143,30.77946428571429,3544.9,651.3888392857143,30.77946428571429,3649.7,651.3888392857143,30.77946428571429,3751,651.3888392857143,30.77946428571429,3853.3,651.3888392857143,30.77946428571429,3956.8,651.3888392857143,30.77946428571429,4056.9,651.3888392857143,30.77946428571429,4159.5,651.3888392857143,30.77946428571429,4271,651.3888392857143,30.77946428571429,4373.5,651.3888392857143,30.77946428571429,4481.1,651.3888392857143,30.77946428571429,4590.1,651.3888392857143,30.77946428571429,4691.9,651.3888392857143,30.77946428571429,4792.5,651.3888392857143,30.77946428571429,4892.7]","[]","",""
"157616","","<div style=""width:500px;"">
  <p>What determined the result of this run?</p>
  </div>","48","html-slider-response","76","1054698","0.0-10.0-1.7","210","1","2025-07-09 09:21:41","7701e855f2ef39aa3fd6c71abdc6918a","176.46.145.59","Mozilla/5.0 (Windows NT 10.0; Win64; x64) AppleWebKit/537.36 (KHTML, like Gecko) Chrome/131.0.0.0 Safari/537.36","WebKit","Chrome","131.0.0.0","Windows","10.0","https://app.prolific.com/","en-US,en;q=0.9","677d2164671591fcaf5c1688","686d226cabeef709c732f8e1","686e31404be6c4da378bc9d3","677d2164671591fcaf5c1688","2025-07-09T09:39:22.517Z","","","","","","AttribQ","","","","","","","","","","","","","","","","","","","","","","","","","","","","","","","","","","","","","","50"
"2981","","<div style=""width:500px;"">
  <p>How much control did you have over the ball?</p>
  </div>","33","html-slider-response","77","1057681","0.0-10.0-2.7","210","1","2025-07-09 09:21:41","7701e855f2ef39aa3fd6c71abdc6918a","176.46.145.59","Mozilla/5.0 (Windows NT 10.0; Win64; x64) AppleWebKit/537.36 (KHTML, like Gecko) Chrome/131.0.0.0 Safari/537.36","WebKit","Chrome","131.0.0.0","Windows","10.0","https://app.prolific.com/","en-US,en;q=0.9","677d2164671591fcaf5c1688","686d226cabeef709c732f8e1","686e31404be6c4da378bc9d3","677d2164671591fcaf5c1688","2025-07-09T09:39:25.500Z","","","","","","ControlQ","","","","","","","","","","","","","","","","","","","","","","","","","","","","","","","","","","","","","","50"
"2648","","<div style=""width:500px;"">
  <p>How would you describe your current emotional state?</p>
  </div>","0","html-slider-response","78","1060330","0.0-10.0-3.7","210","1","2025-07-09 09:21:41","7701e855f2ef39aa3fd6c71abdc6918a","176.46.145.59","Mozilla/5.0 (Windows NT 10.0; Win64; x64) AppleWebKit/537.36 (KHTML, like Gecko) Chrome/131.0.0.0 Safari/537.36","WebKit","Chrome","131.0.0.0","Windows","10.0","https://app.prolific.com/","en-US,en;q=0.9","677d2164671591fcaf5c1688","686d226cabeef709c732f8e1","686e31404be6c4da378bc9d3","677d2164671591fcaf5c1688","2025-07-09T09:39:28.150Z","","","","","","StressQ","","","","","","","","","","","","","","","","","","","","","","","","","","","","","","","","","","","","","","50"
"2335","","<div style=""width:500px;"">
  <p>What best describes how you currently feel?</p>
  </div>","100","html-slider-response","79","1062667","0.0-10.0-4.7","210","1","2025-07-09 09:21:41","7701e855f2ef39aa3fd6c71abdc6918a","176.46.145.59","Mozilla/5.0 (Windows NT 10.0; Win64; x64) AppleWebKit/537.36 (KHTML, like Gecko) Chrome/131.0.0.0 Safari/537.36","WebKit","Chrome","131.0.0.0","Windows","10.0","https://app.prolific.com/","en-US,en;q=0.9","677d2164671591fcaf5c1688","686d226cabeef709c732f8e1","686e31404be6c4da378bc9d3","677d2164671591fcaf5c1688","2025-07-09T09:39:30.486Z","","","","","","MotivationQ","","","","","","","","","","","","","","","","","","","","","","","","","","","","","","","","","","","","","","50"
"","","","","ctl-task-cpt","80","1079954","0.0-10.0-0.8","210","1","2025-07-09 09:21:41","7701e855f2ef39aa3fd6c71abdc6918a","176.46.145.59","Mozilla/5.0 (Windows NT 10.0; Win64; x64) AppleWebKit/537.36 (KHTML, like Gecko) Chrome/131.0.0.0 Safari/537.36","WebKit","Chrome","131.0.0.0","Windows","10.0","https://app.prolific.com/","en-US,en;q=0.9","677d2164671591fcaf5c1688","686d226cabeef709c732f8e1","686e31404be6c4da378bc9d3","677d2164671591fcaf5c1688","2025-07-09T09:39:47.773Z","","","","","","","","","","","","","","","","win-only","0","g1:NW,g2:SE","0.2","9","0","1070633.5","998.8","6005","14257.2","1","4","4","6","2","-4","-4","0","0","0","1548.8","3000","-1160","[""down"",""right""]","{""num_key_presses"":0,""num_perfect"":0,""num_errors"":0,""num_randdir"":0,""num_randdir_good_moves"":0,""num_whilered"":0,""num_whileblue"":0,""num_blue"":0,""num_good_moves"":0}","[354.3888392857143,360.7794642857143,0.1,354.3888392857143,360.7794642857143,107.9,354.3888392857143,360.7794642857143,219.6,354.3888392857143,360.7794642857143,329.2,354.3888392857143,360.7794642857143,429.6,354.3888392857143,360.7794642857143,532.7,354.3888392857143,360.7794642857143,634,354.3888392857143,360.7794642857143,739,354.3888392857143,360.7794642857143,846.9,354.3888392857143,360.7794642857143,952.8,354.3888392857143,360.7794642857143,1053.4,354.3888392857143,360.7794642857143,1156.5,354.3888392857143,360.7794642857143,1259.2,354.3888392857143,360.7794642857143,1367,354.3888392857143,360.7794642857143,1472.1,646.3888392857143,657.7794642857143,1574,646.3888392857143,657.7794642857143,1674.1,646.3888392857143,657.7794642857143,1779.7,646.3888392857143,657.7794642857143,1886.8,646.3888392857143,657.7794642857143,1991.8,646.3888392857143,657.7794642857143,2093.2,646.3888392857143,657.7794642857143,2196.6,646.3888392857143,657.7794642857143,2298.2,646.3888392857143,657.7794642857143,2398.6,646.3888392857143,657.7794642857143,2502.3,646.3888392857143,657.7794642857143,2610.7,646.3888392857143,657.7794642857143,2713.9,646.3888392857143,657.7794642857143,2817.4,646.3888392857143,657.7794642857143,2921.8,646.3888392857143,657.7794642857143,3027.4,646.3888392857143,657.7794642857143,3128.9,646.3888392857143,657.7794642857143,3233.5,646.3888392857143,657.7794642857143,3340,646.3888392857143,657.7794642857143,3446.4,646.3888392857143,657.7794642857143,3548.8,646.3888392857143,657.7794642857143,3655.8,646.3888392857143,657.7794642857143,3759.5,646.3888392857143,657.7794642857143,3863.7,646.3888392857143,657.7794642857143,3970.7,646.3888392857143,657.7794642857143,4072.4,646.3888392857143,657.7794642857143,4184.3,646.3888392857143,657.7794642857143,4292.3,646.3888392857143,657.7794642857143,4395.9,646.3888392857143,657.7794642857143,4497.8,646.3888392857143,657.7794642857143,4600.8,646.3888392857143,657.7794642857143,4711.5,646.3888392857143,657.7794642857143,4815.6,646.3888392857143,657.7794642857143,4916.2]","[]","",""
"5001","","<div style=""width:500px;"">
  <p>What determined the result of this run?</p>
  </div>","86","html-slider-response","81","1084957","0.0-10.0-1.8","210","1","2025-07-09 09:21:41","7701e855f2ef39aa3fd6c71abdc6918a","176.46.145.59","Mozilla/5.0 (Windows NT 10.0; Win64; x64) AppleWebKit/537.36 (KHTML, like Gecko) Chrome/131.0.0.0 Safari/537.36","WebKit","Chrome","131.0.0.0","Windows","10.0","https://app.prolific.com/","en-US,en;q=0.9","677d2164671591fcaf5c1688","686d226cabeef709c732f8e1","686e31404be6c4da378bc9d3","677d2164671591fcaf5c1688","2025-07-09T09:39:52.777Z","","","","","","AttribQ","","","","","","","","","","","","","","","","","","","","","","","","","","","","","","","","","","","","","","50"
"5277","","<div style=""width:500px;"">
  <p>How much control did you have over the ball?</p>
  </div>","39","html-slider-response","82","1090236","0.0-10.0-2.8","210","1","2025-07-09 09:21:41","7701e855f2ef39aa3fd6c71abdc6918a","176.46.145.59","Mozilla/5.0 (Windows NT 10.0; Win64; x64) AppleWebKit/537.36 (KHTML, like Gecko) Chrome/131.0.0.0 Safari/537.36","WebKit","Chrome","131.0.0.0","Windows","10.0","https://app.prolific.com/","en-US,en;q=0.9","677d2164671591fcaf5c1688","686d226cabeef709c732f8e1","686e31404be6c4da378bc9d3","677d2164671591fcaf5c1688","2025-07-09T09:39:58.055Z","","","","","","ControlQ","","","","","","","","","","","","","","","","","","","","","","","","","","","","","","","","","","","","","","50"
"4200","","<div style=""width:500px;"">
  <p>How would you describe your current emotional state?</p>
  </div>","0","html-slider-response","83","1094438","0.0-10.0-3.8","210","1","2025-07-09 09:21:41","7701e855f2ef39aa3fd6c71abdc6918a","176.46.145.59","Mozilla/5.0 (Windows NT 10.0; Win64; x64) AppleWebKit/537.36 (KHTML, like Gecko) Chrome/131.0.0.0 Safari/537.36","WebKit","Chrome","131.0.0.0","Windows","10.0","https://app.prolific.com/","en-US,en;q=0.9","677d2164671591fcaf5c1688","686d226cabeef709c732f8e1","686e31404be6c4da378bc9d3","677d2164671591fcaf5c1688","2025-07-09T09:40:02.258Z","","","","","","StressQ","","","","","","","","","","","","","","","","","","","","","","","","","","","","","","","","","","","","","","50"
"2186","","<div style=""width:500px;"">
  <p>What best describes how you currently feel?</p>
  </div>","100","html-slider-response","84","1096625","0.0-10.0-4.8","210","1","2025-07-09 09:21:41","7701e855f2ef39aa3fd6c71abdc6918a","176.46.145.59","Mozilla/5.0 (Windows NT 10.0; Win64; x64) AppleWebKit/537.36 (KHTML, like Gecko) Chrome/131.0.0.0 Safari/537.36","WebKit","Chrome","131.0.0.0","Windows","10.0","https://app.prolific.com/","en-US,en;q=0.9","677d2164671591fcaf5c1688","686d226cabeef709c732f8e1","686e31404be6c4da378bc9d3","677d2164671591fcaf5c1688","2025-07-09T09:40:04.444Z","","","","","","MotivationQ","","","","","","","","","","","","","","","","","","","","","","","","","","","","","","","","","","","","","","50"
"","","","","ctl-task-cpt","85","1116759","0.0-10.0-0.9","210","1","2025-07-09 09:21:41","7701e855f2ef39aa3fd6c71abdc6918a","176.46.145.59","Mozilla/5.0 (Windows NT 10.0; Win64; x64) AppleWebKit/537.36 (KHTML, like Gecko) Chrome/131.0.0.0 Safari/537.36","WebKit","Chrome","131.0.0.0","Windows","10.0","https://app.prolific.com/","en-US,en;q=0.9","677d2164671591fcaf5c1688","686d226cabeef709c732f8e1","686e31404be6c4da378bc9d3","677d2164671591fcaf5c1688","2025-07-09T09:40:24.578Z","","","","","","","","","","","","","","","","win-only","2","g1:SE,g2:NW","0.4","10","0","1104591.7","2577.8","7585.6","17109","1","4","8","6","1","-1","-1","0","0","0","1590","3000","-1870","[""down"",""right""]","{""num_key_presses"":0,""num_perfect"":0,""num_errors"":0,""num_randdir"":0,""num_randdir_good_moves"":0,""num_whilered"":0,""num_whileblue"":0,""num_blue"":0,""num_good_moves"":0}","[347.3888392857143,341.7794642857143,0.7,347.3888392857143,341.7794642857143,106.6,347.3888392857143,341.7794642857143,209.9,347.3888392857143,341.7794642857143,310.9,347.3888392857143,341.7794642857143,415.1,347.3888392857143,341.7794642857143,522,347.3888392857143,341.7794642857143,630.6,347.3888392857143,341.7794642857143,739.5,347.3888392857143,341.7794642857143,842.9,347.3888392857143,341.7794642857143,945.1,347.3888392857143,341.7794642857143,1049.1,347.3888392857143,341.7794642857143,1155.6,347.3888392857143,341.7794642857143,1261.4,347.3888392857143,341.7794642857143,1364.8,347.3888392857143,341.7794642857143,1468.9,347.3888392857143,341.7794642857143,1576.8,642.3888392857143,601.7794642857143,1677.7,642.3888392857143,601.7794642857143,1777.9,642.3888392857143,601.7794642857143,1881.1,642.3888392857143,601.7794642857143,1986.2,642.3888392857143,601.7794642857143,2094.8,642.3888392857143,601.7794642857143,2202,642.3888392857143,601.7794642857143,2305.5,642.3888392857143,601.7794642857143,2410.3,642.3888392857143,601.7794642857143,2519.5,642.3888392857143,601.7794642857143,2627.2,642.3888392857143,601.7794642857143,2734.6,642.3888392857143,601.7794642857143,2841.3,642.3888392857143,601.7794642857143,2941.7,642.3888392857143,601.7794642857143,3051.5,642.3888392857143,601.7794642857143,3157.7,642.3888392857143,601.7794642857143,3260.5,642.3888392857143,601.7794642857143,3361.7,642.3888392857143,601.7794642857143,3471.7,642.3888392857143,601.7794642857143,3579.5,642.3888392857143,601.7794642857143,3681.4,642.3888392857143,601.7794642857143,3792.2,642.3888392857143,601.7794642857143,3893.4,642.3888392857143,601.7794642857143,3993.6,642.3888392857143,601.7794642857143,4099.3,642.3888392857143,601.7794642857143,4203.5,642.3888392857143,601.7794642857143,4311.2,642.3888392857143,601.7794642857143,4417.8,642.3888392857143,601.7794642857143,4525,642.3888392857143,601.7794642857143,4632.8,642.3888392857143,601.7794642857143,4741.5,642.3888392857143,601.7794642857143,4847.6,642.3888392857143,601.7794642857143,4957.4]","[]","",""
"3941","","<div style=""width:500px;"">
  <p>What determined the result of this run?</p>
  </div>","84","html-slider-response","86","1120703","0.0-10.0-1.9","210","1","2025-07-09 09:21:41","7701e855f2ef39aa3fd6c71abdc6918a","176.46.145.59","Mozilla/5.0 (Windows NT 10.0; Win64; x64) AppleWebKit/537.36 (KHTML, like Gecko) Chrome/131.0.0.0 Safari/537.36","WebKit","Chrome","131.0.0.0","Windows","10.0","https://app.prolific.com/","en-US,en;q=0.9","677d2164671591fcaf5c1688","686d226cabeef709c732f8e1","686e31404be6c4da378bc9d3","677d2164671591fcaf5c1688","2025-07-09T09:40:28.522Z","","","","","","AttribQ","","","","","","","","","","","","","","","","","","","","","","","","","","","","","","","","","","","","","","50"
"5789","","<div style=""width:500px;"">
  <p>How much control did you have over the ball?</p>
  </div>","87","html-slider-response","87","1126494","0.0-10.0-2.9","210","1","2025-07-09 09:21:41","7701e855f2ef39aa3fd6c71abdc6918a","176.46.145.59","Mozilla/5.0 (Windows NT 10.0; Win64; x64) AppleWebKit/537.36 (KHTML, like Gecko) Chrome/131.0.0.0 Safari/537.36","WebKit","Chrome","131.0.0.0","Windows","10.0","https://app.prolific.com/","en-US,en;q=0.9","677d2164671591fcaf5c1688","686d226cabeef709c732f8e1","686e31404be6c4da378bc9d3","677d2164671591fcaf5c1688","2025-07-09T09:40:34.313Z","","","","","","ControlQ","","","","","","","","","","","","","","","","","","","","","","","","","","","","","","","","","","","","","","50"
"1877","","<div style=""width:500px;"">
  <p>How would you describe your current emotional state?</p>
  </div>","0","html-slider-response","88","1128373","0.0-10.0-3.9","210","1","2025-07-09 09:21:41","7701e855f2ef39aa3fd6c71abdc6918a","176.46.145.59","Mozilla/5.0 (Windows NT 10.0; Win64; x64) AppleWebKit/537.36 (KHTML, like Gecko) Chrome/131.0.0.0 Safari/537.36","WebKit","Chrome","131.0.0.0","Windows","10.0","https://app.prolific.com/","en-US,en;q=0.9","677d2164671591fcaf5c1688","686d226cabeef709c732f8e1","686e31404be6c4da378bc9d3","677d2164671591fcaf5c1688","2025-07-09T09:40:36.192Z","","","","","","StressQ","","","","","","","","","","","","","","","","","","","","","","","","","","","","","","","","","","","","","","50"
"1212","","<div style=""width:500px;"">
  <p>What best describes how you currently feel?</p>
  </div>","100","html-slider-response","89","1129586","0.0-10.0-4.9","210","1","2025-07-09 09:21:41","7701e855f2ef39aa3fd6c71abdc6918a","176.46.145.59","Mozilla/5.0 (Windows NT 10.0; Win64; x64) AppleWebKit/537.36 (KHTML, like Gecko) Chrome/131.0.0.0 Safari/537.36","WebKit","Chrome","131.0.0.0","Windows","10.0","https://app.prolific.com/","en-US,en;q=0.9","677d2164671591fcaf5c1688","686d226cabeef709c732f8e1","686e31404be6c4da378bc9d3","677d2164671591fcaf5c1688","2025-07-09T09:40:37.405Z","","","","","","MotivationQ","","","","","","","","","","","","","","","","","","","","","","","","","","","","","","","","","","","","","","50"
"","","","","ctl-task-cpt","90","1149417","0.0-10.0-0.10","210","1","2025-07-09 09:21:41","7701e855f2ef39aa3fd6c71abdc6918a","176.46.145.59","Mozilla/5.0 (Windows NT 10.0; Win64; x64) AppleWebKit/537.36 (KHTML, like Gecko) Chrome/131.0.0.0 Safari/537.36","WebKit","Chrome","131.0.0.0","Windows","10.0","https://app.prolific.com/","en-US,en;q=0.9","677d2164671591fcaf5c1688","686d226cabeef709c732f8e1","686e31404be6c4da378bc9d3","677d2164671591fcaf5c1688","2025-07-09T09:40:57.236Z","","","","","","","","","","","","","","","","win-only","3","g1:SW,g2:NE","0.5","11","0","1137552.4","2304.6","7308.2","16818","1","4","8","6","2","-8","-8","0","0","0","2722.2","3000","-1135","[""up"",""right""]","{""num_key_presses"":0,""num_perfect"":0,""num_errors"":0,""num_randdir"":0,""num_randdir_good_moves"":0,""num_whilered"":0,""num_whileblue"":0,""num_blue"":0,""num_good_moves"":0}","[345.3888392857143,343.7794642857143,0.3,345.3888392857143,343.7794642857143,101.5,345.3888392857143,343.7794642857143,205.4,345.3888392857143,343.7794642857143,310.6,345.3888392857143,343.7794642857143,417,345.3888392857143,343.7794642857143,519.6,345.3888392857143,343.7794642857143,627,345.3888392857143,343.7794642857143,734.9,345.3888392857143,343.7794642857143,836.9,345.3888392857143,343.7794642857143,944.3,345.3888392857143,343.7794642857143,1052.8,345.3888392857143,343.7794642857143,1164.4,345.3888392857143,343.7794642857143,1270.7,345.3888392857143,343.7794642857143,1374.6,345.3888392857143,343.7794642857143,1482.5,345.3888392857143,343.7794642857143,1587.1,345.3888392857143,343.7794642857143,1687.3,345.3888392857143,343.7794642857143,1789.4,345.3888392857143,343.7794642857143,1900.2,345.3888392857143,343.7794642857143,2009,345.3888392857143,343.7794642857143,2110.3,345.3888392857143,343.7794642857143,2212.4,345.3888392857143,343.7794642857143,2319.6,345.3888392857143,343.7794642857143,2421.9,345.3888392857143,343.7794642857143,2529.2,345.3888392857143,343.7794642857143,2629.8,636.3888392857143,62.77946428571429,2729.9,636.3888392857143,62.77946428571429,2845.4,636.3888392857143,62.77946428571429,2945.5,636.3888392857143,62.77946428571429,3047.7,636.3888392857143,62.77946428571429,3152.2,636.3888392857143,62.77946428571429,3256.8,636.3888392857143,62.77946428571429,3365.2,636.3888392857143,62.77946428571429,3465.9,636.3888392857143,62.77946428571429,3568.9,636.3888392857143,62.77946428571429,3671.9,636.3888392857143,62.77946428571429,3782.4,636.3888392857143,62.77946428571429,3886.9,636.3888392857143,62.77946428571429,3992.3,636.3888392857143,62.77946428571429,4101.8,636.3888392857143,62.77946428571429,4202.8,636.3888392857143,62.77946428571429,4303.4,636.3888392857143,62.77946428571429,4408.2,636.3888392857143,62.77946428571429,4513.2,636.3888392857143,62.77946428571429,4620,636.3888392857143,62.77946428571429,4721.3,636.3888392857143,62.77946428571429,4829.5,636.3888392857143,62.77946428571429,4935.5]","[]","",""
"3323","","<div style=""width:500px;"">
  <p>What determined the result of this run?</p>
  </div>","54","html-slider-response","91","1152742","0.0-10.0-1.10","210","1","2025-07-09 09:21:41","7701e855f2ef39aa3fd6c71abdc6918a","176.46.145.59","Mozilla/5.0 (Windows NT 10.0; Win64; x64) AppleWebKit/537.36 (KHTML, like Gecko) Chrome/131.0.0.0 Safari/537.36","WebKit","Chrome","131.0.0.0","Windows","10.0","https://app.prolific.com/","en-US,en;q=0.9","677d2164671591fcaf5c1688","686d226cabeef709c732f8e1","686e31404be6c4da378bc9d3","677d2164671591fcaf5c1688","2025-07-09T09:41:00.561Z","","","","","","AttribQ","","","","","","","","","","","","","","","","","","","","","","","","","","","","","","","","","","","","","","50"
"1970","","<div style=""width:500px;"">
  <p>How much control did you have over the ball?</p>
