"rt","response_timestamp","stimulus","response","trial_type","trial_index","time_elapsed","internal_node_id","run_id","condition","recorded_at","source_code_version","ip","user_agent","device","browser","browser_version","platform","platform_version","referer","accept_language","PROLIFIC_PID","STUDY_ID","SESSION_ID","prolific_id","realtime","view_history","question_order","consent","success","question_id","eventType","responses","item_order","radio_event_ids","radio_event_times","key_event_times","mouse_event_times","straightlining","zigzagging","honeypot","which_type","canvas_config","goals_layout","control_level","trial_number","tutorial_trial_number","trial_start_time","phase1_start_time","phase2_start_time","phase3_start_time","goal_1_value","goal_1_distance","goal_2_value","goal_2_distance","goal_selected","outcome","outcome_total","participant_final_score","participant_initial_score","participant_final_score_prop","goal_choice_rt","allocated_time","allocated_time_remaining","goal_direction","counts","mouse_movements","key_presses","correct","slider_start","sub_question"
"80640","1752052185654","<p style='font-size:40px;line-height:1.25'><strong>Welcome to the experiment!</strong></p><p style='font-size:1.1em;line-height:1.25'>Thank you for your interest in our experiment! Before you begin, it is important that we obtain your informed consent to participate in the study.</p><p style='font-size:1.1em;line-height:1.25'>On the next screen will be an <strong>information sheet</strong> for you to read. To participate in the study we need you to read this information sheet and the following consent form carefully. If you agree with all the statements, please click the <strong>I agree</strong> button.</p><p style='font-size:1.1em;line-height:1.25'>Press <strong>Next</strong> to read the information sheet.</p>","0","custom-html-button-response","0","80644","0.0-0.0","115","1","2025-07-09 09:08:22","7701e855f2ef39aa3fd6c71abdc6918a","41.13.116.167","Mozilla/5.0 (Windows NT 10.0; Win64; x64) AppleWebKit/537.36 (KHTML, like Gecko) Chrome/137.0.0.0 Safari/537.36","WebKit","Chrome","137.0.0.0","Windows","10.0","https://app.prolific.com/","en-US,en;q=0.9","5f60f6b65bd9c0022dcf9ace","686d226cabeef709c732f8e1","686e3138507eb04b5afd7f83","5f60f6b65bd9c0022dcf9ace","2025-07-09T09:09:45.656Z","","","","","","","","","","","","","","","","","","","","","","","","","","","","","","","","","","","","","","","","","","","","",""
"406810","","","","instructions","1","487457","0.0-1.0","115","1","2025-07-09 09:08:22","7701e855f2ef39aa3fd6c71abdc6918a","41.13.116.167","Mozilla/5.0 (Windows NT 10.0; Win64; x64) AppleWebKit/537.36 (KHTML, like Gecko) Chrome/137.0.0.0 Safari/537.36","WebKit","Chrome","137.0.0.0","Windows","10.0","https://app.prolific.com/","en-US,en;q=0.9","5f60f6b65bd9c0022dcf9ace","686d226cabeef709c732f8e1","686e3138507eb04b5afd7f83","5f60f6b65bd9c0022dcf9ace","","[{""page_index"":0,""viewing_time"":72526},{""page_index"":1,""viewing_time"":334283}]","","","","","","","","","","","","","","","","","","","","","","","","","","","","","","","","","","","","","","","","","","","",""
"27911","","","{""Q0"":"""",""Q1"":"""",""Q2"":"""",""Q3"":"""",""Q4"":"""",""Q5"":"""",""Q6"":""I agree""}","survey-multi-choice","2","515373","0.0-2.0","115","1","2025-07-09 09:08:22","7701e855f2ef39aa3fd6c71abdc6918a","41.13.116.167","Mozilla/5.0 (Windows NT 10.0; Win64; x64) AppleWebKit/537.36 (KHTML, like Gecko) Chrome/137.0.0.0 Safari/537.36","WebKit","Chrome","137.0.0.0","Windows","10.0","https://app.prolific.com/","en-US,en;q=0.9","5f60f6b65bd9c0022dcf9ace","686d226cabeef709c732f8e1","686e3138507eb04b5afd7f83","5f60f6b65bd9c0022dcf9ace","","","[0,1,2,3,4,5,6]","true","","","","","","","","","","","","","","","","","","","","","","","","","","","","","","","","","","","","","","","","","",""
"11507","","","","fullscreen","3","527910","0.0-4.0","115","1","2025-07-09 09:08:22","7701e855f2ef39aa3fd6c71abdc6918a","41.13.116.167","Mozilla/5.0 (Windows NT 10.0; Win64; x64) AppleWebKit/537.36 (KHTML, like Gecko) Chrome/137.0.0.0 Safari/537.36","WebKit","Chrome","137.0.0.0","Windows","10.0","https://app.prolific.com/","en-US,en;q=0.9","5f60f6b65bd9c0022dcf9ace","686d226cabeef709c732f8e1","686e3138507eb04b5afd7f83","5f60f6b65bd9c0022dcf9ace","","","","","true","","","","","","","","","","","","","","","","","","","","","","","","","","","","","","","","","","","","","","","","",""
"11582","1752052644504"," <p style='font-size:1.1em;line-height:1.25'>Thank you for completing the consent form and closing all other tabs.</p><p style='font-size:1.1em;line-height:1.25'>We will now invite you to fill in some demographic information and questionnaires, before starting the game.<br>This will take about 5 minutes.<br></p><p style='font-size:1.1em;line-height:1.25'>Press the <strong>Next</strong> button to continue.</p>","0","custom-html-button-response","4","539494","0.0-5.0","115","1","2025-07-09 09:08:22","7701e855f2ef39aa3fd6c71abdc6918a","41.13.116.167","Mozilla/5.0 (Windows NT 10.0; Win64; x64) AppleWebKit/537.36 (KHTML, like Gecko) Chrome/137.0.0.0 Safari/537.36","WebKit","Chrome","137.0.0.0","Windows","10.0","https://app.prolific.com/","en-US,en;q=0.9","5f60f6b65bd9c0022dcf9ace","686d226cabeef709c732f8e1","686e3138507eb04b5afd7f83","5f60f6b65bd9c0022dcf9ace","2025-07-09T09:17:24.505Z","","","","","","","","","","","","","","","","","","","","","","","","","","","","","","","","","","","","","","","","","","","","",""
"8996","","","{""age"":""27""}","survey-text","5","548497","0.0-6.0-0.0","115","1","2025-07-09 09:08:22","7701e855f2ef39aa3fd6c71abdc6918a","41.13.116.167","Mozilla/5.0 (Windows NT 10.0; Win64; x64) AppleWebKit/537.36 (KHTML, like Gecko) Chrome/137.0.0.0 Safari/537.36","WebKit","Chrome","137.0.0.0","Windows","10.0","https://app.prolific.com/","en-US,en;q=0.9","5f60f6b65bd9c0022dcf9ace","686d226cabeef709c732f8e1","686e3138507eb04b5afd7f83","5f60f6b65bd9c0022dcf9ace","","","","","","0","demographics","","","","","","","","","","","","","","","","","","","","","","","","","","","","","","","","","","","","","","",""
"4089","","","{""gender_identity"":""female/woman""}","survey-multi-choice","6","552589","0.0-6.0-1.0","115","1","2025-07-09 09:08:22","7701e855f2ef39aa3fd6c71abdc6918a","41.13.116.167","Mozilla/5.0 (Windows NT 10.0; Win64; x64) AppleWebKit/537.36 (KHTML, like Gecko) Chrome/137.0.0.0 Safari/537.36","WebKit","Chrome","137.0.0.0","Windows","10.0","https://app.prolific.com/","en-US,en;q=0.9","5f60f6b65bd9c0022dcf9ace","686d226cabeef709c732f8e1","686e3138507eb04b5afd7f83","5f60f6b65bd9c0022dcf9ace","","","[0]","","","1","demographics","","","","","","","","","","","","","","","","","","","","","","","","","","","","","","","","","","","","","","",""
"4866","","","{""assigned_sex"":""female""}","survey-multi-choice","7","557458","0.0-6.0-2.0","115","1","2025-07-09 09:08:22","7701e855f2ef39aa3fd6c71abdc6918a","41.13.116.167","Mozilla/5.0 (Windows NT 10.0; Win64; x64) AppleWebKit/537.36 (KHTML, like Gecko) Chrome/137.0.0.0 Safari/537.36","WebKit","Chrome","137.0.0.0","Windows","10.0","https://app.prolific.com/","en-US,en;q=0.9","5f60f6b65bd9c0022dcf9ace","686d226cabeef709c732f8e1","686e3138507eb04b5afd7f83","5f60f6b65bd9c0022dcf9ace","","","[0]","","","2","demographics","","","","","","","","","","","","","","","","","","","","","","","","","","","","","","","","","","","","","","",""
"10773","","","{""menstrual_cycle"":""Yes""}","survey-multi-choice","8","568233","0.0-6.0-3.0","115","1","2025-07-09 09:08:22","7701e855f2ef39aa3fd6c71abdc6918a","41.13.116.167","Mozilla/5.0 (Windows NT 10.0; Win64; x64) AppleWebKit/537.36 (KHTML, like Gecko) Chrome/137.0.0.0 Safari/537.36","WebKit","Chrome","137.0.0.0","Windows","10.0","https://app.prolific.com/","en-US,en;q=0.9","5f60f6b65bd9c0022dcf9ace","686d226cabeef709c732f8e1","686e3138507eb04b5afd7f83","5f60f6b65bd9c0022dcf9ace","","","[0]","","","4","demographics","","","","","","","","","","","","","","","","","","","","","","","","","","","","","","","","","","","","","","",""
"21217","","","{""education"":""Bachelor's Degree (e.g., BA)""}","survey-multi-choice","9","589452","0.0-6.0-4.0","115","1","2025-07-09 09:08:22","7701e855f2ef39aa3fd6c71abdc6918a","41.13.116.167","Mozilla/5.0 (Windows NT 10.0; Win64; x64) AppleWebKit/537.36 (KHTML, like Gecko) Chrome/137.0.0.0 Safari/537.36","WebKit","Chrome","137.0.0.0","Windows","10.0","https://app.prolific.com/","en-US,en;q=0.9","5f60f6b65bd9c0022dcf9ace","686d226cabeef709c732f8e1","686e3138507eb04b5afd7f83","5f60f6b65bd9c0022dcf9ace","","","[0]","","","5","demographics","","","","","","","","","","","","","","","","","","","","","","","","","","","","","","","","","","","","","","",""
"8461","","","{""education"":""Bachelor's Degree (e.g., BA)""}","survey-multi-choice","10","597916","0.0-6.0-5.0","115","1","2025-07-09 09:08:22","7701e855f2ef39aa3fd6c71abdc6918a","41.13.116.167","Mozilla/5.0 (Windows NT 10.0; Win64; x64) AppleWebKit/537.36 (KHTML, like Gecko) Chrome/137.0.0.0 Safari/537.36","WebKit","Chrome","137.0.0.0","Windows","10.0","https://app.prolific.com/","en-US,en;q=0.9","5f60f6b65bd9c0022dcf9ace","686d226cabeef709c732f8e1","686e3138507eb04b5afd7f83","5f60f6b65bd9c0022dcf9ace","2025-07-09T09:18:22.927Z","","[0]","","","6","demographics","","","","","","","","","","","","","","","","","","","","","","","","","","","","","","","","","","","","","","",""
"20211","","","{""mental_health_condition"":""NO"",""mental_health_treatment"":""NO"",""psychiatric_medication"":""NONE""}","survey-text","11","618130","0.0-7.0-0.0","115","1","2025-07-09 09:08:22","7701e855f2ef39aa3fd6c71abdc6918a","41.13.116.167","Mozilla/5.0 (Windows NT 10.0; Win64; x64) AppleWebKit/537.36 (KHTML, like Gecko) Chrome/137.0.0.0 Safari/537.36","WebKit","Chrome","137.0.0.0","Windows","10.0","https://app.prolific.com/","en-US,en;q=0.9","5f60f6b65bd9c0022dcf9ace","686d226cabeef709c732f8e1","686e3138507eb04b5afd7f83","5f60f6b65bd9c0022dcf9ace","2025-07-09T09:18:43.141Z","","","","","1","mental_health","","","","","","","","","","","","","","","","","","","","","","","","","","","","","","","","","","","","","","",""
"27664","","","{""depression_history"":[""No""]}","survey-multi-select","12","645799","0.0-7.0-1.0","115","1","2025-07-09 09:08:22","7701e855f2ef39aa3fd6c71abdc6918a","41.13.116.167","Mozilla/5.0 (Windows NT 10.0; Win64; x64) AppleWebKit/537.36 (KHTML, like Gecko) Chrome/137.0.0.0 Safari/537.36","WebKit","Chrome","137.0.0.0","Windows","10.0","https://app.prolific.com/","en-US,en;q=0.9","5f60f6b65bd9c0022dcf9ace","686d226cabeef709c732f8e1","686e3138507eb04b5afd7f83","5f60f6b65bd9c0022dcf9ace","","","[0]","","","","mental_health","","","","","","","","","","","","","","","","","","","","","","","","","","","","","","","","","","","","","","",""
"161036.70000004768","","","","survey-template","13","806884","0.0-7.0-3.0","115","1","2025-07-09 09:08:22","7701e855f2ef39aa3fd6c71abdc6918a","41.13.116.167","Mozilla/5.0 (Windows NT 10.0; Win64; x64) AppleWebKit/537.36 (KHTML, like Gecko) Chrome/137.0.0.0 Safari/537.36","WebKit","Chrome","137.0.0.0","Windows","10.0","https://app.prolific.com/","en-US,en;q=0.9","5f60f6b65bd9c0022dcf9ace","686d226cabeef709c732f8e1","686e3138507eb04b5afd7f83","5f60f6b65bd9c0022dcf9ace","2025-07-09T09:21:51.895Z","","","","","","ius","{""Q01"":""1"",""Q02"":""1"",""Q03"":""0"",""Q04"":""4"",""Q05"":""1"",""Q06"":""0"",""Q07"":""2"",""Q08"":""0"",""Q09"":""3"",""Q10"":""1"",""Q11"":""2"",""Q12"":""3"",""Q13"":""3""}","[0,1,2,3,4,5,6,7,8,9,10,11,12]","[""Q01"",""Q02"",""Q03"",""Q04"",""Q05"",""Q06"",""Q07"",""Q07"",""Q08"",""Q09"",""Q10"",""Q11"",""Q12"",""Q13""]","[72319.10000014305,95136.40000009537,102355.5,108044.90000009537,113505.10000014305,119163.30000019073,125600.40000009537,128154.20000004768,131520.90000009537,140943.70000004768,145267.20000004768,150114.60000014305,154127,158498.80000019073]","[]","[72319.10000014305,93136.80000019073,95136.40000009537,102355.5,108044.90000009537,113505.10000014305,119163.30000019073,125600.40000009537,128154.20000004768,131520.90000009537,140943.70000004768,145267.20000004768,150114.60000014305,154127,158498.80000019073,161030.10000014305]","0.3076923076923077","0.4166666666666667","0","","","","","","","","","","","","","","","","","","","","","","","","","","","","","",""
"6718","1752052918615","<p style='font-size:1.1em;line-height:1.25'>In the following, we will ask you a few questions relating to your experiences over the past month.<br></p><p style='font-size:1.1em;line-height:1.25'>Press the <strong>Next</strong> button to continue.</p>","0","custom-html-button-response","14","813605","0.0-7.0-4.0","115","1","2025-07-09 09:08:22","7701e855f2ef39aa3fd6c71abdc6918a","41.13.116.167","Mozilla/5.0 (Windows NT 10.0; Win64; x64) AppleWebKit/537.36 (KHTML, like Gecko) Chrome/137.0.0.0 Safari/537.36","WebKit","Chrome","137.0.0.0","Windows","10.0","https://app.prolific.com/","en-US,en;q=0.9","5f60f6b65bd9c0022dcf9ace","686d226cabeef709c732f8e1","686e3138507eb04b5afd7f83","5f60f6b65bd9c0022dcf9ace","2025-07-09T09:21:58.617Z","","","","","","","","","","","","","","","","","","","","","","","","","","","","","","","","","","","","","","","","","","","","",""
"113849.70000004768","","","","survey-template","15","927459","0.0-7.0-5.0","115","1","2025-07-09 09:08:22","7701e855f2ef39aa3fd6c71abdc6918a","41.13.116.167","Mozilla/5.0 (Windows NT 10.0; Win64; x64) AppleWebKit/537.36 (KHTML, like Gecko) Chrome/137.0.0.0 Safari/537.36","WebKit","Chrome","137.0.0.0","Windows","10.0","https://app.prolific.com/","en-US,en;q=0.9","5f60f6b65bd9c0022dcf9ace","686d226cabeef709c732f8e1","686e3138507eb04b5afd7f83","5f60f6b65bd9c0022dcf9ace","2025-07-09T09:23:52.470Z","","","","","","pss","{""Q01"":""2"",""Q02"":""2"",""Q03"":""1"",""Q04"":""0"",""Q05"":""1"",""Q06"":""0"",""Q07"":""1"",""Q08"":""1"",""Q09"":""2"",""Q10"":""1""}","[0,1,2,3,4,5,6,7,8,9]","[""Q01"",""Q02"",""Q03"",""Q04"",""Q05"",""Q06"",""Q06"",""Q07"",""Q08"",""Q09"",""Q10""]","[42769.700000047684,48818.59999990463,53885.90000009537,62481.799999952316,67642.29999995232,72981,75530.79999995232,83553.5,89119.20000004768,99754.09999990463,111551.09999990463]","[]","[0,42769.700000047684,48818.59999990463,53885.90000009537,62481.799999952316,67642.29999995232,72981,75530.79999995232,83553.5,89119.20000004768,99754.09999990463,111551.09999990463,113844]","0.3","0.4444444444444444","0","","","","","","","","","","","","","","","","","","","","","","","","","","","","","",""
"7011","1752053039482","<p style='font-size:1.1em;line-height:1.25'>Thank you for your answers! Now we will ask you a few more questions relating to your feelings in the last 24 hours.<br></p><p style='font-size:1.1em;line-height:1.25'>Press the <strong>Next</strong> button to continue.</p>","0","custom-html-button-response","16","934472","0.0-7.0-6.0","115","1","2025-07-09 09:08:22","7701e855f2ef39aa3fd6c71abdc6918a","41.13.116.167","Mozilla/5.0 (Windows NT 10.0; Win64; x64) AppleWebKit/537.36 (KHTML, like Gecko) Chrome/137.0.0.0 Safari/537.36","WebKit","Chrome","137.0.0.0","Windows","10.0","https://app.prolific.com/","en-US,en;q=0.9","5f60f6b65bd9c0022dcf9ace","686d226cabeef709c732f8e1","686e3138507eb04b5afd7f83","5f60f6b65bd9c0022dcf9ace","2025-07-09T09:23:59.483Z","","","","","","","","","","","","","","","","","","","","","","","","","","","","","","","","","","","","","","","","","","","","",""
"95056.70000004768","","","","survey-template","17","1029534","0.0-7.0-7.0","115","1","2025-07-09 09:08:22","7701e855f2ef39aa3fd6c71abdc6918a","41.13.116.167","Mozilla/5.0 (Windows NT 10.0; Win64; x64) AppleWebKit/537.36 (KHTML, like Gecko) Chrome/137.0.0.0 Safari/537.36","WebKit","Chrome","137.0.0.0","Windows","10.0","https://app.prolific.com/","en-US,en;q=0.9","5f60f6b65bd9c0022dcf9ace","686d226cabeef709c732f8e1","686e3138507eb04b5afd7f83","5f60f6b65bd9c0022dcf9ace","2025-07-09T09:25:34.545Z","","","","","","drsp","{""Q01"":""0"",""Q02"":""1"",""Q03"":""0"",""Q04"":""0"",""Q05"":""0"",""Q06"":""0"",""Q07"":""1"",""Q08"":""1"",""Q09"":""1"",""Q10"":""0"",""Q11"":""2"",""Q12"":""3"",""Q13"":""2"",""Q14"":""0"",""Q15"":""0"",""Q16"":""1"",""Q17"":""0"",""Q18"":""0"",""Q19"":""0"",""Q20"":""1"",""Q21"":""1""}","[0,1,2,3,4,5,6,7,8,9,10,11,12,13,14,15,16,17,18,19,20]","[""Q01"",""Q02"",""Q03"",""Q04"",""Q05"",""Q06"",""Q07"",""Q08"",""Q09"",""Q09"",""Q10"",""Q11"",""Q12"",""Q13"",""Q14"",""Q15"",""Q16"",""Q17"",""Q18"",""Q19"",""Q20"",""Q21""]","[5643.400000095367,8979.600000143051,10629.700000047684,14464.5,17618.400000095367,21651.60000014305,25785.400000095367,28729.799999952316,30849.900000095367,31351.799999952316,39302.700000047684,42409.700000047684,46417.799999952316,50428.200000047684,56868.700000047684,59423.10000014305,62544.799999952316,64247.60000014305,69610.60000014305,81528.29999995232,86818,92118.5]","[]","[0,5643.400000095367,7612.799999952316,8979.600000143051,10629.700000047684,14464.5,17618.400000095367,21651.60000014305,25785.400000095367,28729.799999952316,30849.900000095367,31351.799999952316,39302.700000047684,42409.700000047684,46417.799999952316,50428.200000047684,54880.10000014305,56868.700000047684,59423.10000014305,62544.799999952316,64247.60000014305,69610.60000014305,81528.29999995232,86818,90775.60000014305,92118.5,95048.10000014305]","0.5238095238095238","0.45","0","","","","","","","","","","","","","","","","","","","","","","","","","","","","","",""
"21652.799999952316","","","","survey-template","18","1051190","0.0-7.0-8.0","115","1","2025-07-09 09:08:22","7701e855f2ef39aa3fd6c71abdc6918a","41.13.116.167","Mozilla/5.0 (Windows NT 10.0; Win64; x64) AppleWebKit/537.36 (KHTML, like Gecko) Chrome/137.0.0.0 Safari/537.36","WebKit","Chrome","137.0.0.0","Windows","10.0","https://app.prolific.com/","en-US,en;q=0.9","5f60f6b65bd9c0022dcf9ace","686d226cabeef709c732f8e1","686e3138507eb04b5afd7f83","5f60f6b65bd9c0022dcf9ace","2025-07-09T09:25:56.201Z","","","","","","stress","{""Q01"":""1"",""Q02"":""1"",""Q03"":""0""}","[0,1,2]","[""Q02"",""Q01"",""Q03""]","[12452,14601.399999856949,19322.799999952316]","[]","[6514.5,11134.5,12452,14601.399999856949,19322.799999952316,21649.699999809265]","0.3333333333333333","0","0","","","","","","","","","","","","","","","","","","","","","","","","","","","","","",""
"181026","","","","instructions","19","1232218","0.0-8.0-0.0","115","1","2025-07-09 09:08:22","7701e855f2ef39aa3fd6c71abdc6918a","41.13.116.167","Mozilla/5.0 (Windows NT 10.0; Win64; x64) AppleWebKit/537.36 (KHTML, like Gecko) Chrome/137.0.0.0 Safari/537.36","WebKit","Chrome","137.0.0.0","Windows","10.0","https://app.prolific.com/","en-US,en;q=0.9","5f60f6b65bd9c0022dcf9ace","686d226cabeef709c732f8e1","686e3138507eb04b5afd7f83","5f60f6b65bd9c0022dcf9ace","","[{""page_index"":0,""viewing_time"":48645},{""page_index"":1,""viewing_time"":58165},{""page_index"":2,""viewing_time"":45664},{""page_index"":3,""viewing_time"":28551}]","","","","","","","","","","","","","","","","","","","","","","","","","","","","","","","","","","","","","","","","","","","",""
"","","","","ctl-task-cpt","20","1265642","0.0-8.0-1.0","115","1","2025-07-09 09:08:22","7701e855f2ef39aa3fd6c71abdc6918a","41.13.116.167","Mozilla/5.0 (Windows NT 10.0; Win64; x64) AppleWebKit/537.36 (KHTML, like Gecko) Chrome/137.0.0.0 Safari/537.36","WebKit","Chrome","137.0.0.0","Windows","10.0","https://app.prolific.com/","en-US,en;q=0.9","5f60f6b65bd9c0022dcf9ace","686d226cabeef709c732f8e1","686e3138507eb04b5afd7f83","5f60f6b65bd9c0022dcf9ace","","","","","","","","","","","","","","","","","win-only","3","g1:SW,g2:NE","1","0","1","1235533.6","9019.4","13021.5","30357.2","2","4","4","6","2","-4","-7","0","0","0","3140.4","4000","-2295","[""up"",""right""]","{""num_key_presses"":8,""num_perfect"":3,""num_errors"":3,""num_randdir"":0,""num_randdir_good_moves"":0,""num_whilered"":2,""num_whileblue"":0,""num_blue"":0,""num_good_moves"":3}","[424.0714133126395,422.82142761775424,37.5,424.0714133126395,422.82142761775424,101.7,424.0714133126395,422.82142761775424,202.5,424.0714133126395,422.82142761775424,308.5,424.0714133126395,422.82142761775424,409.7,424.0714133126395,422.82142761775424,512.5,424.0714133126395,422.82142761775424,617.4,424.0714133126395,422.82142761775424,728.2,476.5714133126395,356.57142761775424,833,666.5714133126395,246.57142761775424,935.9,745.3214133126395,200.32142761775424,1038.3,785.3214133126395,144.07142761775424,1147,784.0714133126395,120.32142761775425,1255.3,747.8214133126395,120.32142761775425,1356,696.5714133126395,115.32142761775425,1458.4,661.5714133126395,95.32142761775425,1562.6,661.5714133126395,91.57142761775425,1664.1,661.5714133126395,91.57142761775425,1766.2,661.5714133126395,91.57142761775425,1867.8,661.5714133126395,91.57142761775425,1971.7,661.5714133126395,91.57142761775425,2087.9,661.5714133126395,91.57142761775425,2192.8,661.5714133126395,91.57142761775425,2293.6,661.5714133126395,91.57142761775425,2399.2,661.5714133126395,91.57142761775425,2505.3,661.5714133126395,91.57142761775425,2607,661.5714133126395,91.57142761775425,2707,769.0714133126395,77.82142761775425,2810.7,770.3214133126395,77.82142761775425,2916.3,769.0714133126395,77.82142761775425,3023.2,769.0714133126395,77.82142761775425,3126.9,769.0714133126395,77.82142761775425,3229.1,769.0714133126395,77.82142761775425,3330,769.0714133126395,77.82142761775425,3430.4,769.0714133126395,77.82142761775425,3536.5,769.0714133126395,77.82142761775425,3639.3,769.0714133126395,77.82142761775425,3749.5,769.0714133126395,77.82142761775425,3854.8,769.0714133126395,77.82142761775425,3957]","[3599.6,3599.4,1000,0.4,2599.2,""smooth"",""right"",""right"",""good_move"",4283.8,682.8,2727.2,3601.3,-2044.6,""error"",""-"",""-"",""no_move"",4583.9,299.5,2727.2,3601.3,-1744.5,""while_red"",""-"",""-"",""no_move"",5239.5,955.2,2727.2,3601.3,-1088.9,""while_red"",""-"",""-"",""no_move"",5805.2,1520.8,2737.5,5290,-2222.3,""error"",""-"",""-"",""no_move"",10304.8,4499.2,2527.3,6813.8,963.7,""smooth"",""right"",""right"",""good_move"",10690,384.9,2922.1,10305.2,-2537.3,""error"",""-"",""-"",""no_move"",14444.9,3754.5,1652.6,11691,1101.3,""smooth"",""right"",""right"",""good_move""]","","",""
"21935","","","","instructions","21","1287577","0.0-8.0-2.0","115","1","2025-07-09 09:08:22","7701e855f2ef39aa3fd6c71abdc6918a","41.13.116.167","Mozilla/5.0 (Windows NT 10.0; Win64; x64) AppleWebKit/537.36 (KHTML, like Gecko) Chrome/137.0.0.0 Safari/537.36","WebKit","Chrome","137.0.0.0","Windows","10.0","https://app.prolific.com/","en-US,en;q=0.9","5f60f6b65bd9c0022dcf9ace","686d226cabeef709c732f8e1","686e3138507eb04b5afd7f83","5f60f6b65bd9c0022dcf9ace","","[{""page_index"":0,""viewing_time"":21934}]","","","","","","","","","","","","","","","","","","","","","","","","","","","","","","","","","","","","","","","","","","","",""
"","","","","ctl-task-cpt","22","1348452","0.0-8.0-3.0","115","1","2025-07-09 09:08:22","7701e855f2ef39aa3fd6c71abdc6918a","41.13.116.167","Mozilla/5.0 (Windows NT 10.0; Win64; x64) AppleWebKit/537.36 (KHTML, like Gecko) Chrome/137.0.0.0 Safari/537.36","WebKit","Chrome","137.0.0.0","Windows","10.0","https://app.prolific.com/","en-US,en;q=0.9","5f60f6b65bd9c0022dcf9ace","686d226cabeef709c732f8e1","686e3138507eb04b5afd7f83","5f60f6b65bd9c0022dcf9ace","","","","","","","","","","","","","","","","","win-only","3","g1:SW,g2:NE","0.35","0","3","1290844","4220.1","8225.6","57861.9","2","4","8","6","2","-8","-8","0","0","0","1635.7","4000","-1970","[""up"",""right""]","{""num_key_presses"":12,""num_perfect"":5,""num_errors"":0,""num_randdir"":7,""num_randdir_good_moves"":2,""num_whilered"":0,""num_whileblue"":0,""num_blue"":3,""num_good_moves"":7}","[416.5714133126395,416.57142761775424,1,416.5714133126395,416.57142761775424,104,416.5714133126395,416.57142761775424,215.4,416.5714133126395,416.57142761775424,321.3,416.5714133126395,416.57142761775424,422.6,416.5714133126395,416.57142761775424,533.1,416.5714133126395,416.57142761775424,637.8,416.5714133126395,416.57142761775424,738.1,636.5714133126395,241.57142761775424,838.1,757.8214133126395,144.07142761775424,943.9,807.8214133126395,97.82142761775425,1055.1,811.5714133126395,90.32142761775425,1155.4,811.5714133126395,86.57142761775425,1258.4,809.0714133126395,86.57142761775425,1362.9,807.8214133126395,86.57142761775425,1471.6,807.8214133126395,86.57142761775425,1572.5,807.8214133126395,86.57142761775425,1673.7,807.8214133126395,86.57142761775425,1786.9,807.8214133126395,86.57142761775425,1887.5,807.8214133126395,86.57142761775425,1988.9,807.8214133126395,86.57142761775425,2089.9,807.8214133126395,86.57142761775425,2191.8,807.8214133126395,86.57142761775425,2302.6,807.8214133126395,86.57142761775425,2402.7,807.8214133126395,86.57142761775425,2506,807.8214133126395,86.57142761775425,2614.3,807.8214133126395,86.57142761775425,2719.4,807.8214133126395,86.57142761775425,2823.9,807.8214133126395,86.57142761775425,2934.2,807.8214133126395,86.57142761775425,3042.7,807.8214133126395,86.57142761775425,3153.4,807.8214133126395,86.57142761775425,3258,807.8214133126395,86.57142761775425,3363.9,807.8214133126395,86.57142761775425,3471.6,807.8214133126395,86.57142761775425,3582.3,807.8214133126395,86.57142761775425,3690.8,807.8214133126395,86.57142761775425,3792,807.8214133126395,86.57142761775425,3899.6]","[5140.5,5140.5,2664.9,2009.8,465.8,""oops"",""right"",""right"",""good_move"",8332,3190.6,2639.5,5141.4,551.1,""oops"",""right"",""down"",""bad_move"",12216.8,3883.2,3051.3,8333.6,831.9,""smooth"",""right"",""right"",""good_move"",15107.9,2890.6,2401,12217.3,489.6,""smooth"",""right"",""right"",""good_move"",18555.5,3447.1,3008.6,15108.4,438.5,""smooth"",""up"",""up"",""good_move"",27725.5,9166.5,2612.4,24728.3,384.9,""oops"",""up"",""up"",""good_move"",30621.5,2894.5,2437,27727,457.5,""smooth"",""up"",""up"",""good_move"",34358.5,3735.8,3236.1,30622.7,499.7,""oops"",""up"",""down"",""bad_move"",36982.8,2623.8,2149.4,34359,474.4,""oops"",""up"",""down"",""bad_move"",40610.9,3627.6,3172.1,36983.4,455.5,""oops"",""up"",""down"",""bad_move"",43668.9,3057.4,2511.7,40611.5,545.7,""smooth"",""up"",""up"",""good_move"",47196.6,3526,3118.3,43670.6,407.7,""oops"",""up"",""down"",""bad_move""]","","",""
"33136","","","","instructions","23","1381590","0.0-8.0-4.0","115","1","2025-07-09 09:08:22","7701e855f2ef39aa3fd6c71abdc6918a","41.13.116.167","Mozilla/5.0 (Windows NT 10.0; Win64; x64) AppleWebKit/537.36 (KHTML, like Gecko) Chrome/137.0.0.0 Safari/537.36","WebKit","Chrome","137.0.0.0","Windows","10.0","https://app.prolific.com/","en-US,en;q=0.9","5f60f6b65bd9c0022dcf9ace","686d226cabeef709c732f8e1","686e3138507eb04b5afd7f83","5f60f6b65bd9c0022dcf9ace","","[{""page_index"":0,""viewing_time"":9462},{""page_index"":1,""viewing_time"":23670}]","","","","","","","","","","","","","","","","","","","","","","","","","","","","","","","","","","","","","","","","","","","",""
"18584","","","{""green_ball"":[""Ball always moves in the direction I press""]}","survey-multi-select","24","1400219","0.0-8.0-5.0-0.0","115","1","2025-07-09 09:08:22","7701e855f2ef39aa3fd6c71abdc6918a","41.13.116.167","Mozilla/5.0 (Windows NT 10.0; Win64; x64) AppleWebKit/537.36 (KHTML, like Gecko) Chrome/137.0.0.0 Safari/537.36","WebKit","Chrome","137.0.0.0","Windows","10.0","https://app.prolific.com/","en-US,en;q=0.9","5f60f6b65bd9c0022dcf9ace","686d226cabeef709c732f8e1","686e3138507eb04b5afd7f83","5f60f6b65bd9c0022dcf9ace","","","[0]","","","","quiz","","","","","","","","","","","","","","","","","","","","","","","","","","","","","","","","","","","","","false","",""
"5718","","<p align='center'><b>INCORRECT.</b> Usually the green ball moves in the indicated direction, but sometimes it shakes and moves randomly. </p>","0","html-button-response","25","1405944","0.0-8.0-5.0-1.0","115","1","2025-07-09 09:08:22","7701e855f2ef39aa3fd6c71abdc6918a","41.13.116.167","Mozilla/5.0 (Windows NT 10.0; Win64; x64) AppleWebKit/537.36 (KHTML, like Gecko) Chrome/137.0.0.0 Safari/537.36","WebKit","Chrome","137.0.0.0","Windows","10.0","https://app.prolific.com/","en-US,en;q=0.9","5f60f6b65bd9c0022dcf9ace","686d226cabeef709c732f8e1","686e3138507eb04b5afd7f83","5f60f6b65bd9c0022dcf9ace","","","","","","","","","","","","","","","","","","","","","","","","","","","","","","","","","","","","","","","","","","","","","",""
"30779","","","{""green_ball"":[""Ball sometimes shakes and moves in a random direction""]}","survey-multi-select","26","1436731","0.0-8.0-5.1-0.1","115","1","2025-07-09 09:08:22","7701e855f2ef39aa3fd6c71abdc6918a","41.13.116.167","Mozilla/5.0 (Windows NT 10.0; Win64; x64) AppleWebKit/537.36 (KHTML, like Gecko) Chrome/137.0.0.0 Safari/537.36","WebKit","Chrome","137.0.0.0","Windows","10.0","https://app.prolific.com/","en-US,en;q=0.9","5f60f6b65bd9c0022dcf9ace","686d226cabeef709c732f8e1","686e3138507eb04b5afd7f83","5f60f6b65bd9c0022dcf9ace","","","[0]","","","","quiz","","","","","","","","","","","","","","","","","","","","","","","","","","","","","","","","","","","","","true","",""
"5663","","<p align='center'><b>CORRECT!</b> Indeed, the green ball may sometimes shake and move in a random direction.</p>","0","html-button-response","27","1442398","0.0-8.0-5.1-1.1","115","1","2025-07-09 09:08:22","7701e855f2ef39aa3fd6c71abdc6918a","41.13.116.167","Mozilla/5.0 (Windows NT 10.0; Win64; x64) AppleWebKit/537.36 (KHTML, like Gecko) Chrome/137.0.0.0 Safari/537.36","WebKit","Chrome","137.0.0.0","Windows","10.0","https://app.prolific.com/","en-US,en;q=0.9","5f60f6b65bd9c0022dcf9ace","686d226cabeef709c732f8e1","686e3138507eb04b5afd7f83","5f60f6b65bd9c0022dcf9ace","","","","","","","","","","","","","","","","","","","","","","","","","","","","","","","","","","","","","","","","","","","","","",""
"9995","","","{""yellow_ball"":[""Ball doesn‘t move and I get -1 penalty point""]}","survey-multi-select","28","1452397","0.0-8.0-6.0-0.0","115","1","2025-07-09 09:08:22","7701e855f2ef39aa3fd6c71abdc6918a","41.13.116.167","Mozilla/5.0 (Windows NT 10.0; Win64; x64) AppleWebKit/537.36 (KHTML, like Gecko) Chrome/137.0.0.0 Safari/537.36","WebKit","Chrome","137.0.0.0","Windows","10.0","https://app.prolific.com/","en-US,en;q=0.9","5f60f6b65bd9c0022dcf9ace","686d226cabeef709c732f8e1","686e3138507eb04b5afd7f83","5f60f6b65bd9c0022dcf9ace","","","[0]","","","","quiz","","","","","","","","","","","","","","","","","","","","","","","","","","","","","","","","","","","","","true","",""
"3487","","<p align='center'><b>CORRECT!</b> Indeed, the yellow ball never moves and you receive a penalty.</p>","0","html-button-response","29","1455887","0.0-8.0-6.0-1.0","115","1","2025-07-09 09:08:22","7701e855f2ef39aa3fd6c71abdc6918a","41.13.116.167","Mozilla/5.0 (Windows NT 10.0; Win64; x64) AppleWebKit/537.36 (KHTML, like Gecko) Chrome/137.0.0.0 Safari/537.36","WebKit","Chrome","137.0.0.0","Windows","10.0","https://app.prolific.com/","en-US,en;q=0.9","5f60f6b65bd9c0022dcf9ace","686d226cabeef709c732f8e1","686e3138507eb04b5afd7f83","5f60f6b65bd9c0022dcf9ace","","","","","","","","","","","","","","","","","","","","","","","","","","","","","","","","","","","","","","","","","","","","","",""
"5102","","","{""blue_ball"":[""Ball doesn‘t move and I get -1 penalty point""]}","survey-multi-select","30","1460992","0.0-8.0-7.0-0.0","115","1","2025-07-09 09:08:22","7701e855f2ef39aa3fd6c71abdc6918a","41.13.116.167","Mozilla/5.0 (Windows NT 10.0; Win64; x64) AppleWebKit/537.36 (KHTML, like Gecko) Chrome/137.0.0.0 Safari/537.36","WebKit","Chrome","137.0.0.0","Windows","10.0","https://app.prolific.com/","en-US,en;q=0.9","5f60f6b65bd9c0022dcf9ace","686d226cabeef709c732f8e1","686e3138507eb04b5afd7f83","5f60f6b65bd9c0022dcf9ace","","","[0]","","","","quiz","","","","","","","","","","","","","","","","","","","","","","","","","","","","","","","","","","","","","false","",""
"4606","","<p align='center'><b>INCORRECT.</b> The blue ball always shakes and moves randomly.</p>","0","html-button-response","31","1465600","0.0-8.0-7.0-1.0","115","1","2025-07-09 09:08:22","7701e855f2ef39aa3fd6c71abdc6918a","41.13.116.167","Mozilla/5.0 (Windows NT 10.0; Win64; x64) AppleWebKit/537.36 (KHTML, like Gecko) Chrome/137.0.0.0 Safari/537.36","WebKit","Chrome","137.0.0.0","Windows","10.0","https://app.prolific.com/","en-US,en;q=0.9","5f60f6b65bd9c0022dcf9ace","686d226cabeef709c732f8e1","686e3138507eb04b5afd7f83","5f60f6b65bd9c0022dcf9ace","","","","","","","","","","","","","","","","","","","","","","","","","","","","","","","","","","","","","","","","","","","","","",""
"6328","","","{""blue_ball"":[""Ball always shakes and moves in a random direction""]}","survey-multi-select","32","1471932","0.0-8.0-7.1-0.1","115","1","2025-07-09 09:08:22","7701e855f2ef39aa3fd6c71abdc6918a","41.13.116.167","Mozilla/5.0 (Windows NT 10.0; Win64; x64) AppleWebKit/537.36 (KHTML, like Gecko) Chrome/137.0.0.0 Safari/537.36","WebKit","Chrome","137.0.0.0","Windows","10.0","https://app.prolific.com/","en-US,en;q=0.9","5f60f6b65bd9c0022dcf9ace","686d226cabeef709c732f8e1","686e3138507eb04b5afd7f83","5f60f6b65bd9c0022dcf9ace","","","[0]","","","","quiz","","","","","","","","","","","","","","","","","","","","","","","","","","","","","","","","","","","","","true","",""
"2694","","<p align='center'><b>CORRECT!</b> Indeed, the blue ball always shakes and moves in a random direction. Also there is a penalty of -1 point.</p>","0","html-button-response","33","1474629","0.0-8.0-7.1-1.1","115","1","2025-07-09 09:08:22","7701e855f2ef39aa3fd6c71abdc6918a","41.13.116.167","Mozilla/5.0 (Windows NT 10.0; Win64; x64) AppleWebKit/537.36 (KHTML, like Gecko) Chrome/137.0.0.0 Safari/537.36","WebKit","Chrome","137.0.0.0","Windows","10.0","https://app.prolific.com/","en-US,en;q=0.9","5f60f6b65bd9c0022dcf9ace","686d226cabeef709c732f8e1","686e3138507eb04b5afd7f83","5f60f6b65bd9c0022dcf9ace","","","","","","","","","","","","","","","","","","","","","","","","","","","","","","","","","","","","","","","","","","","","","",""
"6717","","","{""bonus"":[""When I reach 50% of points""]}","survey-multi-select","34","1481350","0.0-8.0-8.0-0.0","115","1","2025-07-09 09:08:22","7701e855f2ef39aa3fd6c71abdc6918a","41.13.116.167","Mozilla/5.0 (Windows NT 10.0; Win64; x64) AppleWebKit/537.36 (KHTML, like Gecko) Chrome/137.0.0.0 Safari/537.36","WebKit","Chrome","137.0.0.0","Windows","10.0","https://app.prolific.com/","en-US,en;q=0.9","5f60f6b65bd9c0022dcf9ace","686d226cabeef709c732f8e1","686e3138507eb04b5afd7f83","5f60f6b65bd9c0022dcf9ace","","","[0]","","","","quiz","","","","","","","","","","","","","","","","","","","","","","","","","","","","","","","","","","","","","true","",""
"4259","","<p align='center'><b>CORRECT!</b> Indeed, you receive 2 pounds extra when you reach 50% of points.</p>","0","html-button-response","35","1485610","0.0-8.0-8.0-1.0","115","1","2025-07-09 09:08:22","7701e855f2ef39aa3fd6c71abdc6918a","41.13.116.167","Mozilla/5.0 (Windows NT 10.0; Win64; x64) AppleWebKit/537.36 (KHTML, like Gecko) Chrome/137.0.0.0 Safari/537.36","WebKit","Chrome","137.0.0.0","Windows","10.0","https://app.prolific.com/","en-US,en;q=0.9","5f60f6b65bd9c0022dcf9ace","686d226cabeef709c732f8e1","686e3138507eb04b5afd7f83","5f60f6b65bd9c0022dcf9ace","","","","","","","","","","","","","","","","","","","","","","","","","","","","","","","","","","","","","","","","","","","","","",""
"7069","","","","instructions","36","1492681","0.0-8.0-9.0","115","1","2025-07-09 09:08:22","7701e855f2ef39aa3fd6c71abdc6918a","41.13.116.167","Mozilla/5.0 (Windows NT 10.0; Win64; x64) AppleWebKit/537.36 (KHTML, like Gecko) Chrome/137.0.0.0 Safari/537.36","WebKit","Chrome","137.0.0.0","Windows","10.0","https://app.prolific.com/","en-US,en;q=0.9","5f60f6b65bd9c0022dcf9ace","686d226cabeef709c732f8e1","686e3138507eb04b5afd7f83","5f60f6b65bd9c0022dcf9ace","","[{""page_index"":0,""viewing_time"":7067}]","","","","","","","","","","","","","","","","","","","","","","","","","","","","","","","","","","","","","","","","","","","",""
"34422","","<p>Before you start with this game please answer the following three questions yourself. </p>
  <p>Through this game, we measure several aspects of your cognitive performance, such as reaction times, multi-tasking capabilities </p>
  <p>and the ability to assess the situation you are in.</p>
  <p></p>
  <p><b>How good do you usually are in such tasks?</b></p>","75","html-slider-response","37","1527148","0.0-9.0-0.0","115","1","2025-07-09 09:08:22","7701e855f2ef39aa3fd6c71abdc6918a","41.13.116.167","Mozilla/5.0 (Windows NT 10.0; Win64; x64) AppleWebKit/537.36 (KHTML, like Gecko) Chrome/137.0.0.0 Safari/537.36","WebKit","Chrome","137.0.0.0","Windows","10.0","https://app.prolific.com/","en-US,en;q=0.9","5f60f6b65bd9c0022dcf9ace","686d226cabeef709c732f8e1","686e3138507eb04b5afd7f83","5f60f6b65bd9c0022dcf9ace","2025-07-09T09:33:52.159Z","","","","","","PreSkillQ","","","","","","","","","","","","","","","","","","","","","","","","","","","","","","","","","","","","","","50",""
"8268","","<div style=""width:500px;"">
  <p>How well do you think you will perform in this task compared to other participants?</p>
  </div>","88","html-slider-response","38","1535418","0.0-9.0-1.0","115","1","2025-07-09 09:08:22","7701e855f2ef39aa3fd6c71abdc6918a","41.13.116.167","Mozilla/5.0 (Windows NT 10.0; Win64; x64) AppleWebKit/537.36 (KHTML, like Gecko) Chrome/137.0.0.0 Safari/537.36","WebKit","Chrome","137.0.0.0","Windows","10.0","https://app.prolific.com/","en-US,en;q=0.9","5f60f6b65bd9c0022dcf9ace","686d226cabeef709c732f8e1","686e3138507eb04b5afd7f83","5f60f6b65bd9c0022dcf9ace","2025-07-09T09:34:00.429Z","","","","","","PrePerfQ","","","","","","","","","","","","","","","","","","","","","","","","","","","","","","","","","","","","","","50",""
"13739","","<div style=""width:500px;"">
  <p>What best describes how you currently feel?</p>
  </div>","100","html-slider-response","39","1549159","0.0-9.0-2.0","115","1","2025-07-09 09:08:22","7701e855f2ef39aa3fd6c71abdc6918a","41.13.116.167","Mozilla/5.0 (Windows NT 10.0; Win64; x64) AppleWebKit/537.36 (KHTML, like Gecko) Chrome/137.0.0.0 Safari/537.36","WebKit","Chrome","137.0.0.0","Windows","10.0","https://app.prolific.com/","en-US,en;q=0.9","5f60f6b65bd9c0022dcf9ace","686d226cabeef709c732f8e1","686e3138507eb04b5afd7f83","5f60f6b65bd9c0022dcf9ace","2025-07-09T09:34:14.171Z","","","","","","PreMotivationQ","","","","","","","","","","","","","","","","","","","","","","","","","","","","","","","","","","","","","","50",""
"","","","","ctl-task-cpt","40","1581541","0.0-10.0-0.0","115","1","2025-07-09 09:08:22","7701e855f2ef39aa3fd6c71abdc6918a","41.13.116.167","Mozilla/5.0 (Windows NT 10.0; Win64; x64) AppleWebKit/537.36 (KHTML, like Gecko) Chrome/137.0.0.0 Safari/537.36","WebKit","Chrome","137.0.0.0","Windows","10.0","https://app.prolific.com/","en-US,en;q=0.9","5f60f6b65bd9c0022dcf9ace","686d226cabeef709c732f8e1","686e3138507eb04b5afd7f83","5f60f6b65bd9c0022dcf9ace","2025-07-09T09:34:46.553Z","","","","","","","","","","","","","","","","win-only","0","g1:NW,g2:SE","1","1","0","1552427.4","3966.4","8967.6","29364.4","1","4","4","6","2","4","4","4","0","0.030303030303030304","3722.8","3000","900","[""down"",""right""]","{""num_key_presses"":6,""num_perfect"":6,""num_errors"":0,""num_randdir"":0,""num_randdir_good_moves"":0,""num_whilered"":0,""num_whileblue"":0,""num_blue"":1,""num_good_moves"":6}","[416.5714133126395,411.57142761775424,1.9,416.5714133126395,411.57142761775424,102,416.5714133126395,411.57142761775424,202,416.5714133126395,411.57142761775424,304.3,416.5714133126395,411.57142761775424,409.4,416.5714133126395,411.57142761775424,509.8,416.5714133126395,411.57142761775424,617.1,425.3214133126395,387.82142761775424,726,520.3214133126395,265.32142761775424,828.2,591.5714133126395,209.07142761775424,934.8,637.8214133126395,174.07142761775424,1046.8,681.5714133126395,137.82142761775424,1147.9,716.5714133126395,116.57142761775425,1252.6,726.5714133126395,110.32142761775425,1358.8,741.5714133126395,101.57142761775425,1469.3,746.5714133126395,100.32142761775425,1581.9,746.5714133126395,100.32142761775425,1686.1,746.5714133126395,100.32142761775425,1801.4,746.5714133126395,100.32142761775425,1907.4,746.5714133126395,100.32142761775425,2015.3,746.5714133126395,100.32142761775425,2124.9,746.5714133126395,100.32142761775425,2226.2,746.5714133126395,100.32142761775425,2329.4,742.8214133126395,100.32142761775425,2430.1,651.5714133126395,119.07142761775425,2540.6,649.0714133126395,121.57142761775425,2642.2,724.0714133126395,359.07142761775424,2744.2,721.5714133126395,596.5714276177542,2844.5,701.5714133126395,736.5714276177542,2946.9,701.5714133126395,736.5714276177542,3047.3,701.5714133126395,736.5714276177542,3147.5,736.5714133126395,774.0714276177542,3249.1,759.0714133126395,790.3214276177542,3352.1,772.8214133126395,795.3214276177542,3465.3,772.8214133126395,795.3214276177542,3567,772.8214133126395,795.3214276177542,3667,772.8214133126395,795.3214276177542,3774.7,772.8214133126395,795.3214276177542,3875.3,772.8214133126395,795.3214276177542,3978.3,772.8214133126395,795.3214276177542,4080.3,772.8214133126395,795.3214276177542,4189.3,772.8214133126395,795.3214276177542,4300.5,772.8214133126395,795.3214276177542,4409.6,772.8214133126395,795.3214276177542,4510.2,772.8214133126395,795.3214276177542,4622.2,772.8214133126395,795.3214276177542,4724,772.8214133126395,795.3214276177542,4825.5,772.8214133126395,795.3214276177542,4936.6]","[1859.5,1859.6,1000,0,859.6,""smooth"",""right"",""right"",""good_move"",5117.8,3255.6,2858.7,1862.2,396.9,""smooth"",""right"",""right"",""good_move"",8078.9,2960.4,2315.2,5118.5,645.2,""smooth"",""right"",""right"",""good_move"",11168.9,3089.4,2708.5,8079.5,380.9,""smooth"",""down"",""down"",""good_move"",17217.1,6047.2,2257.9,14518.9,440.3,""smooth"",""down"",""down"",""good_move"",20272.2,3053.5,2608.5,17218.7,445.1,""smooth"",""down"",""down"",""good_move""]","","",""
"10676","","<div style=""width:500px;"">
  <p>What determined the result of this run?</p>
  </div>","92","html-slider-response","41","1592222","0.0-10.0-1.0","115","1","2025-07-09 09:08:22","7701e855f2ef39aa3fd6c71abdc6918a","41.13.116.167","Mozilla/5.0 (Windows NT 10.0; Win64; x64) AppleWebKit/537.36 (KHTML, like Gecko) Chrome/137.0.0.0 Safari/537.36","WebKit","Chrome","137.0.0.0","Windows","10.0","https://app.prolific.com/","en-US,en;q=0.9","5f60f6b65bd9c0022dcf9ace","686d226cabeef709c732f8e1","686e3138507eb04b5afd7f83","5f60f6b65bd9c0022dcf9ace","2025-07-09T09:34:57.233Z","","","","","","AttribQ","","","","","","","","","","","","","","","","","","","","","","","","","","","","","","","","","","","","","","50",""
"8288","","<div style=""width:500px;"">
  <p>How much control did you have over the ball?</p>
  </div>","100","html-slider-response","42","1600512","0.0-10.0-2.0","115","1","2025-07-09 09:08:22","7701e855f2ef39aa3fd6c71abdc6918a","41.13.116.167","Mozilla/5.0 (Windows NT 10.0; Win64; x64) AppleWebKit/537.36 (KHTML, like Gecko) Chrome/137.0.0.0 Safari/537.36","WebKit","Chrome","137.0.0.0","Windows","10.0","https://app.prolific.com/","en-US,en;q=0.9","5f60f6b65bd9c0022dcf9ace","686d226cabeef709c732f8e1","686e3138507eb04b5afd7f83","5f60f6b65bd9c0022dcf9ace","2025-07-09T09:35:05.523Z","","","","","","ControlQ","","","","","","","","","","","","","","","","","","","","","","","","","","","","","","","","","","","","","","50",""
"8773","","<div style=""width:500px;"">
  <p>How would you describe your current emotional state?</p>
  </div>","0","html-slider-response","43","1609290","0.0-10.0-3.0","115","1","2025-07-09 09:08:22","7701e855f2ef39aa3fd6c71abdc6918a","41.13.116.167","Mozilla/5.0 (Windows NT 10.0; Win64; x64) AppleWebKit/537.36 (KHTML, like Gecko) Chrome/137.0.0.0 Safari/537.36","WebKit","Chrome","137.0.0.0","Windows","10.0","https://app.prolific.com/","en-US,en;q=0.9","5f60f6b65bd9c0022dcf9ace","686d226cabeef709c732f8e1","686e3138507eb04b5afd7f83","5f60f6b65bd9c0022dcf9ace","2025-07-09T09:35:14.301Z","","","","","","StressQ","","","","","","","","","","","","","","","","","","","","","","","","","","","","","","","","","","","","","","50",""
"8113","","<div style=""width:500px;"">
  <p>What best describes how you currently feel?</p>
  </div>","100","html-slider-response","44","1617406","0.0-10.0-4.0","115","1","2025-07-09 09:08:22","7701e855f2ef39aa3fd6c71abdc6918a","41.13.116.167","Mozilla/5.0 (Windows NT 10.0; Win64; x64) AppleWebKit/537.36 (KHTML, like Gecko) Chrome/137.0.0.0 Safari/537.36","WebKit","Chrome","137.0.0.0","Windows","10.0","https://app.prolific.com/","en-US,en;q=0.9","5f60f6b65bd9c0022dcf9ace","686d226cabeef709c732f8e1","686e3138507eb04b5afd7f83","5f60f6b65bd9c0022dcf9ace","2025-07-09T09:35:22.417Z","","","","","","MotivationQ","","","","","","","","","","","","","","","","","","","","","","","","","","","","","","","","","","","","","","50",""
"","","","","ctl-task-cpt","45","1648045","0.0-10.0-0.1","115","1","2025-07-09 09:08:22","7701e855f2ef39aa3fd6c71abdc6918a","41.13.116.167","Mozilla/5.0 (Windows NT 10.0; Win64; x64) AppleWebKit/537.36 (KHTML, like Gecko) Chrome/137.0.0.0 Safari/537.36","WebKit","Chrome","137.0.0.0","Windows","10.0","https://app.prolific.com/","en-US,en;q=0.9","5f60f6b65bd9c0022dcf9ace","686d226cabeef709c732f8e1","686e3138507eb04b5afd7f83","5f60f6b65bd9c0022dcf9ace","2025-07-09T09:35:53.056Z","","","","","","","","","","","","","","","","win-only","1","g1:NE,g2:SW","0.9","2","0","1620673.3","2842.2","7843.4","27620.3","1","4","8","6","2","8","8","12","4","0.09090909090909091","2922.3","3000","650","[""down"",""left""]","{""num_key_presses"":6,""num_perfect"":5,""num_errors"":0,""num_randdir"":1,""num_randdir_good_moves"":1,""num_whilered"":0,""num_whileblue"":0,""num_blue"":1,""num_good_moves"":6}","[415.3214133126395,412.82142761775424,0.5,415.3214133126395,412.82142761775424,105,415.3214133126395,412.82142761775424,209.3,415.3214133126395,412.82142761775424,313,415.3214133126395,412.82142761775424,414.2,415.3214133126395,412.82142761775424,515.1,415.3214133126395,412.82142761775424,615.6,415.3214133126395,412.82142761775424,721.5,415.3214133126395,412.82142761775424,822.9,415.3214133126395,412.82142761775424,931.8,415.3214133126395,412.82142761775424,1036.1,417.8214133126395,394.07142761775424,1156.9,514.0714133126395,311.57142761775424,1257.1,601.5714133126395,240.32142761775424,1361.1,622.8214133126395,231.57142761775424,1465.7,622.8214133126395,231.57142761775424,1566,622.8214133126395,231.57142761775424,1670.1,686.5714133126395,166.57142761775424,1786.5,725.3214133126395,136.57142761775424,1890.2,560.3214133126395,200.32142761775424,1997.3,176.5714133126395,516.5714276177542,2111.1,85.3214133126395,665.3214276177542,2221.6,51.57141331263951,716.5714276177542,2325.8,34.07141331263951,732.8214276177542,2427.9,39.07141331263951,751.5714276177542,2528.6,52.82141331263951,759.0714276177542,2632.5,55.32141331263951,760.3214276177542,2737.9,55.32141331263951,760.3214276177542,2838.7,55.32141331263951,760.3214276177542,2940.1,55.32141331263951,760.3214276177542,3052.4,55.32141331263951,760.3214276177542,3169.3,55.32141331263951,760.3214276177542,3284,55.32141331263951,760.3214276177542,3399.9,55.32141331263951,760.3214276177542,3502.3,55.32141331263951,760.3214276177542,3605.5,55.32141331263951,760.3214276177542,3708.1,55.32141331263951,760.3214276177542,3821.1,55.32141331263951,760.3214276177542,3923.9,55.32141331263951,760.3214276177542,4026.5,55.32141331263951,760.3214276177542,4129.8,55.32141331263951,760.3214276177542,4233.4,55.32141331263951,760.3214276177542,4351.1,55.32141331263951,760.3214276177542,4456.2,55.32141331263951,760.3214276177542,4559.6,55.32141331263951,760.3214276177542,4669.6,55.32141331263951,760.3214276177542,4782.1,55.32141331263951,760.3214276177542,4883.1,55.32141331263951,760.3214276177542,4985.9]","[1743.3,1743.3,1000,0,743.3,""smooth"",""down"",""down"",""good_move"",5146.4,3401.3,2241.8,1745.1,1159.5,""smooth"",""left"",""left"",""good_move"",8078,2930.1,2517.6,5147.9,412.5,""smooth"",""left"",""left"",""good_move"",13869.4,5790.4,2641.8,10802.6,425,""oops"",""left"",""down"",""good_move"",16603.2,2731.4,2074.7,13871.8,656.7,""smooth"",""left"",""left"",""good_move"",19652.4,3048.7,2604.2,16603.7,444.5,""smooth"",""down"",""down"",""good_move""]","","",""
"8151","","<div style=""width:500px;"">
  <p>What determined the result of this run?</p>
  </div>","100","html-slider-response","46","1656202","0.0-10.0-1.1","115","1","2025-07-09 09:08:22","7701e855f2ef39aa3fd6c71abdc6918a","41.13.116.167","Mozilla/5.0 (Windows NT 10.0; Win64; x64) AppleWebKit/537.36 (KHTML, like Gecko) Chrome/137.0.0.0 Safari/537.36","WebKit","Chrome","137.0.0.0","Windows","10.0","https://app.prolific.com/","en-US,en;q=0.9","5f60f6b65bd9c0022dcf9ace","686d226cabeef709c732f8e1","686e3138507eb04b5afd7f83","5f60f6b65bd9c0022dcf9ace","2025-07-09T09:36:01.213Z","","","","","","AttribQ","","","","","","","","","","","","","","","","","","","","","","","","","","","","","","","","","","","","","","50",""
"5470","","<div style=""width:500px;"">
  <p>How much control did you have over the ball?</p>
  </div>","95","html-slider-response","47","1661677","0.0-10.0-2.1","115","1","2025-07-09 09:08:22","7701e855f2ef39aa3fd6c71abdc6918a","41.13.116.167","Mozilla/5.0 (Windows NT 10.0; Win64; x64) AppleWebKit/537.36 (KHTML, like Gecko) Chrome/137.0.0.0 Safari/537.36","WebKit","Chrome","137.0.0.0","Windows","10.0","https://app.prolific.com/","en-US,en;q=0.9","5f60f6b65bd9c0022dcf9ace","686d226cabeef709c732f8e1","686e3138507eb04b5afd7f83","5f60f6b65bd9c0022dcf9ace","2025-07-09T09:36:06.689Z","","","","","","ControlQ","","","","","","","","","","","","","","","","","","","","","","","","","","","","","","","","","","","","","","50",""
"5835","","<div style=""width:500px;"">
  <p>How would you describe your current emotional state?</p>
  </div>","0","html-slider-response","48","1667514","0.0-10.0-3.1","115","1","2025-07-09 09:08:22","7701e855f2ef39aa3fd6c71abdc6918a","41.13.116.167","Mozilla/5.0 (Windows NT 10.0; Win64; x64) AppleWebKit/537.36 (KHTML, like Gecko) Chrome/137.0.0.0 Safari/537.36","WebKit","Chrome","137.0.0.0","Windows","10.0","https://app.prolific.com/","en-US,en;q=0.9","5f60f6b65bd9c0022dcf9ace","686d226cabeef709c732f8e1","686e3138507eb04b5afd7f83","5f60f6b65bd9c0022dcf9ace","2025-07-09T09:36:12.526Z","","","","","","StressQ","","","","","","","","","","","","","","","","","","","","","","","","","","","","","","","","","","","","","","50",""
"9502","","<div style=""width:500px;"">
  <p>What best describes how you currently feel?</p>
  </div>","100","html-slider-response","49","1677019","0.0-10.0-4.1","115","1","2025-07-09 09:08:22","7701e855f2ef39aa3fd6c71abdc6918a","41.13.116.167","Mozilla/5.0 (Windows NT 10.0; Win64; x64) AppleWebKit/537.36 (KHTML, like Gecko) Chrome/137.0.0.0 Safari/537.36","WebKit","Chrome","137.0.0.0","Windows","10.0","https://app.prolific.com/","en-US,en;q=0.9","5f60f6b65bd9c0022dcf9ace","686d226cabeef709c732f8e1","686e3138507eb04b5afd7f83","5f60f6b65bd9c0022dcf9ace","2025-07-09T09:36:22.031Z","","","","","","MotivationQ","","","","","","","","","","","","","","","","","","","","","","","","","","","","","","","","","","","","","","50",""
"","","","","ctl-task-cpt","50","1723159","0.0-10.0-0.2","115","1","2025-07-09 09:08:22","7701e855f2ef39aa3fd6c71abdc6918a","41.13.116.167","Mozilla/5.0 (Windows NT 10.0; Win64; x64) AppleWebKit/537.36 (KHTML, like Gecko) Chrome/137.0.0.0 Safari/537.36","WebKit","Chrome","137.0.0.0","Windows","10.0","https://app.prolific.com/","en-US,en;q=0.9","5f60f6b65bd9c0022dcf9ace","686d226cabeef709c732f8e1","686e3138507eb04b5afd7f83","5f60f6b65bd9c0022dcf9ace","2025-07-09T09:37:08.170Z","","","","","","","","","","","","","","","","win-only","2","g1:SE,g2:NW","0.8","3","0","1680295.7","2806.9","7813.6","43113.2","1","4","8","6","2","8","8","20","12","0.15151515151515152","2272.4","3000","275","[""left"",""up""]","{""num_key_presses"":10,""num_perfect"":8,""num_errors"":0,""num_randdir"":2,""num_randdir_good_moves"":0,""num_whilered"":0,""num_whileblue"":0,""num_blue"":2,""num_good_moves"":8}","[419.0714133126395,416.57142761775424,0.5,419.0714133126395,416.57142761775424,103.1,419.0714133126395,416.57142761775424,206.2,419.0714133126395,416.57142761775424,314,419.0714133126395,416.57142761775424,418.4,419.0714133126395,416.57142761775424,519.4,419.0714133126395,416.57142761775424,635.9,419.0714133126395,416.57142761775424,736,419.0714133126395,416.57142761775424,839.8,400.3214133126395,409.07142761775424,955.1,332.8214133126395,344.07142761775424,1062.7,270.3214133126395,326.57142761775424,1169.7,270.3214133126395,326.57142761775424,1288.8,270.3214133126395,326.57142761775424,1391.5,214.0714133126395,176.57142761775424,1503.6,190.3214133126395,127.82142761775425,1608,189.0714133126395,126.57142761775425,1712,189.0714133126395,126.57142761775425,1833,115.3214133126395,99.07142761775425,1942.5,104.0714133126395,86.57142761775425,2046.5,104.0714133126395,86.57142761775425,2150.9,104.0714133126395,86.57142761775425,2254.4,104.0714133126395,86.57142761775425,2362.6,104.0714133126395,86.57142761775425,2463.8,104.0714133126395,86.57142761775425,2574.7,104.0714133126395,86.57142761775425,2682.2,104.0714133126395,86.57142761775425,2794.1,104.0714133126395,86.57142761775425,2906.5,104.0714133126395,86.57142761775425,3013.1,104.0714133126395,86.57142761775425,3119.1,104.0714133126395,86.57142761775425,3236.3,104.0714133126395,86.57142761775425,3338.7,104.0714133126395,86.57142761775425,3441.1,104.0714133126395,86.57142761775425,3549,104.0714133126395,86.57142761775425,3654.4,104.0714133126395,86.57142761775425,3760.9,104.0714133126395,86.57142761775425,3863.9,104.0714133126395,86.57142761775425,3973.2,104.0714133126395,86.57142761775425,4080,104.0714133126395,86.57142761775425,4185.6,104.0714133126395,86.57142761775425,4288.3,104.0714133126395,86.57142761775425,4392.6,104.0714133126395,86.57142761775425,4509.9,104.0714133126395,86.57142761775425,4611.3,104.0714133126395,86.57142761775425,4720.4,104.0714133126395,86.57142761775425,4833.8,104.0714133126395,86.57142761775425,4940.4]","[1722.2,1722.2,1000,0,722.2,""smooth"",""up"",""up"",""good_move"",7639.2,5916.3,2259.3,4926,453.9,""smooth"",""up"",""up"",""good_move"",11104.8,3465.3,2928.8,7639.6,536.4,""smooth"",""up"",""up"",""good_move"",14583.7,3473.3,3014.7,11110.4,458.6,""oops"",""left"",""right"",""bad_move"",17098.5,2513.4,2064.7,14585.1,448.8,""smooth"",""left"",""left"",""good_move"",24372.3,7272.8,3150.8,20811.7,409.8,""smooth"",""left"",""left"",""good_move"",26679.8,2306.7,1719.1,24373.1,587.6,""smooth"",""left"",""left"",""good_move"",29251.9,2571.5,2132.1,26680.4,439.4,""oops"",""left"",""down"",""bad_move"",32180.1,2927.3,2435.7,29252.8,491.6,""smooth"",""left"",""left"",""good_move"",35134.8,2953.1,2594.1,32181.7,359,""smooth"",""up"",""up"",""good_move""]","","",""
"8098","","<div style=""width:500px;"">
  <p>What determined the result of this run?</p>
  </div>","91","html-slider-response","51","1731262","0.0-10.0-1.2","115","1","2025-07-09 09:08:22","7701e855f2ef39aa3fd6c71abdc6918a","41.13.116.167","Mozilla/5.0 (Windows NT 10.0; Win64; x64) AppleWebKit/537.36 (KHTML, like Gecko) Chrome/137.0.0.0 Safari/537.36","WebKit","Chrome","137.0.0.0","Windows","10.0","https://app.prolific.com/","en-US,en;q=0.9","5f60f6b65bd9c0022dcf9ace","686d226cabeef709c732f8e1","686e3138507eb04b5afd7f83","5f60f6b65bd9c0022dcf9ace","2025-07-09T09:37:16.274Z","","","","","","AttribQ","","","","","","","","","","","","","","","","","","","","","","","","","","","","","","","","","","","","","","50",""
"11297","","<div style=""width:500px;"">
  <p>How much control did you have over the ball?</p>
  </div>","95","html-slider-response","52","1742568","0.0-10.0-2.2","115","1","2025-07-09 09:08:22","7701e855f2ef39aa3fd6c71abdc6918a","41.13.116.167","Mozilla/5.0 (Windows NT 10.0; Win64; x64) AppleWebKit/537.36 (KHTML, like Gecko) Chrome/137.0.0.0 Safari/537.36","WebKit","Chrome","137.0.0.0","Windows","10.0","https://app.prolific.com/","en-US,en;q=0.9","5f60f6b65bd9c0022dcf9ace","686d226cabeef709c732f8e1","686e3138507eb04b5afd7f83","5f60f6b65bd9c0022dcf9ace","2025-07-09T09:37:27.580Z","","","","","","ControlQ","","","","","","","","","","","","","","","","","","","","","","","","","","","","","","","","","","","","","","50",""
"12894","","<div style=""width:500px;"">
  <p>How would you describe your current emotional state?</p>
  </div>","7","html-slider-response","53","1755469","0.0-10.0-3.2","115","1","2025-07-09 09:08:22","7701e855f2ef39aa3fd6c71abdc6918a","41.13.116.167","Mozilla/5.0 (Windows NT 10.0; Win64; x64) AppleWebKit/537.36 (KHTML, like Gecko) Chrome/137.0.0.0 Safari/537.36","WebKit","Chrome","137.0.0.0","Windows","10.0","https://app.prolific.com/","en-US,en;q=0.9","5f60f6b65bd9c0022dcf9ace","686d226cabeef709c732f8e1","686e3138507eb04b5afd7f83","5f60f6b65bd9c0022dcf9ace","2025-07-09T09:37:40.480Z","","","","","","StressQ","","","","","","","","","","","","","","","","","","","","","","","","","","","","","","","","","","","","","","50",""
"3315","","<div style=""width:500px;"">
  <p>What best describes how you currently feel?</p>
  </div>","97","html-slider-response","54","1758787","0.0-10.0-4.2","115","1","2025-07-09 09:08:22","7701e855f2ef39aa3fd6c71abdc6918a","41.13.116.167","Mozilla/5.0 (Windows NT 10.0; Win64; x64) AppleWebKit/537.36 (KHTML, like Gecko) Chrome/137.0.0.0 Safari/537.36","WebKit","Chrome","137.0.0.0","Windows","10.0","https://app.prolific.com/","en-US,en;q=0.9","5f60f6b65bd9c0022dcf9ace","686d226cabeef709c732f8e1","686e3138507eb04b5afd7f83","5f60f6b65bd9c0022dcf9ace","2025-07-09T09:37:43.798Z","","","","","","MotivationQ","","","","","","","","","","","","","","","","","","","","","","","","","","","","","","","","","","","","","","50",""
"","","","","ctl-task-cpt","55","1790110","0.0-10.0-0.3","115","1","2025-07-09 09:08:22","7701e855f2ef39aa3fd6c71abdc6918a","41.13.116.167","Mozilla/5.0 (Windows NT 10.0; Win64; x64) AppleWebKit/537.36 (KHTML, like Gecko) Chrome/137.0.0.0 Safari/537.36","WebKit","Chrome","137.0.0.0","Windows","10.0","https://app.prolific.com/","en-US,en;q=0.9","5f60f6b65bd9c0022dcf9ace","686d226cabeef709c732f8e1","686e3138507eb04b5afd7f83","5f60f6b65bd9c0022dcf9ace","2025-07-09T09:38:15.121Z","","","","","","","","","","","","","","","","win-only","0","g1:NW,g2:SE","0.7","4","0","1762054","1820.4","6821.6","28302.6","1","4","4","6","2","4","4","24","20","0.18181818181818182","2056.5","3000","1900","[""down"",""right""]","{""num_key_presses"":8,""num_perfect"":6,""num_errors"":0,""num_randdir"":2,""num_randdir_good_moves"":1,""num_whilered"":0,""num_whileblue"":0,""num_blue"":0,""num_good_moves"":7}","[411.5714133126395,414.07142761775424,0.4,411.5714133126395,414.07142761775424,100,411.5714133126395,414.07142761775424,210.3,411.5714133126395,414.07142761775424,320.6,411.5714133126395,414.07142761775424,430,411.5714133126395,414.07142761775424,531.4,411.5714133126395,414.07142761775424,634.4,411.5714133126395,414.07142761775424,735.2,411.5714133126395,414.07142761775424,840.2,411.5714133126395,414.07142761775424,950.3,444.0714133126395,430.32142761775424,1069.5,504.0714133126395,492.82142761775424,1171.7,582.8214133126395,580.3214276177542,1291.1,626.5714133126395,615.3214276177542,1408.3,662.8214133126395,641.5714276177542,1517.6,722.8214133126395,681.5714276177542,1633.4,746.5714133126395,724.0714276177542,1740.7,746.5714133126395,724.0714276177542,1858.1,746.5714133126395,724.0714276177542,1961.6,746.5714133126395,724.0714276177542,2065.4,746.5714133126395,724.0714276177542,2176.4,746.5714133126395,724.0714276177542,2285.6,746.5714133126395,724.0714276177542,2402.7,746.5714133126395,724.0714276177542,2514.7,746.5714133126395,724.0714276177542,2625.3,746.5714133126395,724.0714276177542,2744.4,746.5714133126395,724.0714276177542,2852.5,746.5714133126395,724.0714276177542,2953.4,746.5714133126395,724.0714276177542,3057.3,746.5714133126395,724.0714276177542,3162.9,746.5714133126395,724.0714276177542,3278.9,746.5714133126395,724.0714276177542,3388,746.5714133126395,724.0714276177542,3503.1,746.5714133126395,724.0714276177542,3612.7,746.5714133126395,724.0714276177542,3716.8,746.5714133126395,724.0714276177542,3821,746.5714133126395,724.0714276177542,3932.6,746.5714133126395,724.0714276177542,4035.7,746.5714133126395,724.0714276177542,4139.2,746.5714133126395,724.0714276177542,4255.3,746.5714133126395,724.0714276177542,4355.8,746.5714133126395,724.0714276177542,4467.3,746.5714133126395,724.0714276177542,4572.4,746.5714133126395,724.0714276177542,4675.6,746.5714133126395,724.0714276177542,4792.9,746.5714133126395,724.0714276177542,4899]","[1373,1373,1000,0,373,""smooth"",""right"",""right"",""good_move"",4222,2847.4,2465.4,1374.7,382,""smooth"",""right"",""right"",""good_move"",6951.2,2728.7,2329.8,4222.5,398.9,""oops"",""right"",""up"",""bad_move"",9783.3,2831.2,2196.5,6952.1,634.7,""smooth"",""right"",""right"",""good_move"",13092.8,3309.2,2939.9,9783.6,369.3,""smooth"",""down"",""down"",""good_move"",15591.7,2495.3,2013.9,13096.4,481.4,""smooth"",""down"",""down"",""good_move"",18655.3,3063.2,2662,15592.1,401.2,""smooth"",""down"",""down"",""good_move"",21206,2550.2,2154,18655.8,396.2,""oops"",""down"",""down"",""good_move""]","","",""
"4489","","<div style=""width:500px;"">
  <p>What determined the result of this run?</p>
  </div>","99","html-slider-response","56","1794602","0.0-10.0-1.3","115","1","2025-07-09 09:08:22","7701e855f2ef39aa3fd6c71abdc6918a","41.13.116.167","Mozilla/5.0 (Windows NT 10.0; Win64; x64) AppleWebKit/537.36 (KHTML, like Gecko) Chrome/137.0.0.0 Safari/537.36","WebKit","Chrome","137.0.0.0","Windows","10.0","https://app.prolific.com/","en-US,en;q=0.9","5f60f6b65bd9c0022dcf9ace","686d226cabeef709c732f8e1","686e3138507eb04b5afd7f83","5f60f6b65bd9c0022dcf9ace","2025-07-09T09:38:19.613Z","","","","","","AttribQ","","","","","","","","","","","","","","","","","","","","","","","","","","","","","","","","","","","","","","50",""
"5081","","<div style=""width:500px;"">
  <p>How much control did you have over the ball?</p>
  </div>","91","html-slider-response","57","1799685","0.0-10.0-2.3","115","1","2025-07-09 09:08:22","7701e855f2ef39aa3fd6c71abdc6918a","41.13.116.167","Mozilla/5.0 (Windows NT 10.0; Win64; x64) AppleWebKit/537.36 (KHTML, like Gecko) Chrome/137.0.0.0 Safari/537.36","WebKit","Chrome","137.0.0.0","Windows","10.0","https://app.prolific.com/","en-US,en;q=0.9","5f60f6b65bd9c0022dcf9ace","686d226cabeef709c732f8e1","686e3138507eb04b5afd7f83","5f60f6b65bd9c0022dcf9ace","2025-07-09T09:38:24.696Z","","","","","","ControlQ","","","","","","","","","","","","","","","","","","","","","","","","","","","","","","","","","","","","","","50",""
"5587","","<div style=""width:500px;"">
  <p>How would you describe your current emotional state?</p>
  </div>","1","html-slider-response","58","1805273","0.0-10.0-3.3","115","1","2025-07-09 09:08:22","7701e855f2ef39aa3fd6c71abdc6918a","41.13.116.167","Mozilla/5.0 (Windows NT 10.0; Win64; x64) AppleWebKit/537.36 (KHTML, like Gecko) Chrome/137.0.0.0 Safari/537.36","WebKit","Chrome","137.0.0.0","Windows","10.0","https://app.prolific.com/","en-US,en;q=0.9","5f60f6b65bd9c0022dcf9ace","686d226cabeef709c732f8e1","686e3138507eb04b5afd7f83","5f60f6b65bd9c0022dcf9ace","2025-07-09T09:38:30.285Z","","","","","","StressQ","","","","","","","","","","","","","","","","","","","","","","","","","","","","","","","","","","","","","","50",""
"6449","","<div style=""width:500px;"">
  <p>What best describes how you currently feel?</p>
  </div>","96","html-slider-response","59","1811724","0.0-10.0-4.3","115","1","2025-07-09 09:08:22","7701e855f2ef39aa3fd6c71abdc6918a","41.13.116.167","Mozilla/5.0 (Windows NT 10.0; Win64; x64) AppleWebKit/537.36 (KHTML, like Gecko) Chrome/137.0.0.0 Safari/537.36","WebKit","Chrome","137.0.0.0","Windows","10.0","https://app.prolific.com/","en-US,en;q=0.9","5f60f6b65bd9c0022dcf9ace","686d226cabeef709c732f8e1","686e3138507eb04b5afd7f83","5f60f6b65bd9c0022dcf9ace","2025-07-09T09:38:36.735Z","","","","","","MotivationQ","","","","","","","","","","","","","","","","","","","","","","","","","","","","","","","","","","","","","","50",""
"","","","","ctl-task-cpt","60","1840229","0.0-10.0-0.4","115","1","2025-07-09 09:08:22","7701e855f2ef39aa3fd6c71abdc6918a","41.13.116.167","Mozilla/5.0 (Windows NT 10.0; Win64; x64) AppleWebKit/537.36 (KHTML, like Gecko) Chrome/137.0.0.0 Safari/537.36","WebKit","Chrome","137.0.0.0","Windows","10.0","https://app.prolific.com/","en-US,en;q=0.9","5f60f6b65bd9c0022dcf9ace","686d226cabeef709c732f8e1","686e3138507eb04b5afd7f83","5f60f6b65bd9c0022dcf9ace","2025-07-09T09:39:05.240Z","","","","","","","","","","","","","","","","win-only","0","g1:NW,g2:SE","0.6","5","0","1814990.3","2309.2","7327.6","25474.4","1","4","4","6","1","1","1","25","24","0.1893939393939394","2815.3","3000","2570","[""left"",""up""]","{""num_key_presses"":4,""num_perfect"":4,""num_errors"":0,""num_randdir"":0,""num_randdir_good_moves"":0,""num_whilered"":0,""num_whileblue"":0,""num_blue"":0,""num_good_moves"":4}","[416.5714133126395,419.07142761775424,1.2,416.5714133126395,419.07142761775424,120.5,416.5714133126395,419.07142761775424,234.7,416.5714133126395,419.07142761775424,340.5,416.5714133126395,419.07142761775424,452.7,416.5714133126395,419.07142761775424,574.7,416.5714133126395,419.07142761775424,688.7,416.5714133126395,419.07142761775424,789,416.5714133126395,419.07142761775424,889.8,416.5714133126395,419.07142761775424,1000.5,416.5714133126395,419.07142761775424,1105.4,416.5714133126395,419.07142761775424,1209.1,416.5714133126395,419.07142761775424,1330.6,406.5714133126395,405.32142761775424,1456.9,354.0714133126395,350.32142761775424,1563,354.0714133126395,350.32142761775424,1680,354.0714133126395,350.32142761775424,1802.1,286.5714133126395,264.07142761775424,1912.2,254.0714133126395,244.07142761775424,2015,254.0714133126395,244.07142761775424,2129.2,215.3214133126395,204.07142761775424,2255.5,126.5714133126395,137.82142761775424,2366,117.8214133126395,131.57142761775424,2468,116.5714133126395,131.57142761775424,2581.5,116.5714133126395,131.57142761775424,2693.8,116.5714133126395,131.57142761775424,2794.2,116.5714133126395,131.57142761775424,2910.4,116.5714133126395,131.57142761775424,3030.5,116.5714133126395,131.57142761775424,3140.8,116.5714133126395,131.57142761775424,3257,116.5714133126395,131.57142761775424,3369.6,116.5714133126395,131.57142761775424,3487.3,116.5714133126395,131.57142761775424,3591.2,116.5714133126395,131.57142761775424,3710.2,116.5714133126395,131.57142761775424,3812,116.5714133126395,131.57142761775424,3924.4,116.5714133126395,131.57142761775424,4046.8,116.5714133126395,131.57142761775424,4168.2,116.5714133126395,131.57142761775424,4282.6,116.5714133126395,131.57142761775424,4389,116.5714133126395,131.57142761775424,4496.1,116.5714133126395,131.57142761775424,4601.8,116.5714133126395,131.57142761775424,4701.9,116.5714133126395,131.57142761775424,4818.1,116.5714133126395,131.57142761775424,4924.5]","[2061.3,2061.3,1000,0,1061.3,""smooth"",""up"",""up"",""good_move"",7172.2,5110.3,1790.3,2061.9,3320,""smooth"",""up"",""up"",""good_move"",12392.4,5219.7,2792.9,7172.7,2426.8,""smooth"",""left"",""left"",""good_move"",17613.8,5220.6,2117,12393.2,3103.6,""smooth"",""left"",""left"",""good_move""]","","",""
"4638","","<div style=""width:500px;"">
  <p>What determined the result of this run?</p>
  </div>","89","html-slider-response","61","1844870","0.0-10.0-1.4","115","1","2025-07-09 09:08:22","7701e855f2ef39aa3fd6c71abdc6918a","41.13.116.167","Mozilla/5.0 (Windows NT 10.0; Win64; x64) AppleWebKit/537.36 (KHTML, like Gecko) Chrome/137.0.0.0 Safari/537.36","WebKit","Chrome","137.0.0.0","Windows","10.0","https://app.prolific.com/","en-US,en;q=0.9","5f60f6b65bd9c0022dcf9ace","686d226cabeef709c732f8e1","686e3138507eb04b5afd7f83","5f60f6b65bd9c0022dcf9ace","2025-07-09T09:39:09.882Z","","","","","","AttribQ","","","","","","","","","","","","","","","","","","","","","","","","","","","","","","","","","","","","","","50",""
"3797","","<div style=""width:500px;"">
  <p>How much control did you have over the ball?</p>
  </div>","92","html-slider-response","62","1848670","0.0-10.0-2.4","115","1","2025-07-09 09:08:22","7701e855f2ef39aa3fd6c71abdc6918a","41.13.116.167","Mozilla/5.0 (Windows NT 10.0; Win64; x64) AppleWebKit/537.36 (KHTML, like Gecko) Chrome/137.0.0.0 Safari/537.36","WebKit","Chrome","137.0.0.0","Windows","10.0","https://app.prolific.com/","en-US,en;q=0.9","5f60f6b65bd9c0022dcf9ace","686d226cabeef709c732f8e1","686e3138507eb04b5afd7f83","5f60f6b65bd9c0022dcf9ace","2025-07-09T09:39:13.681Z","","","","","","ControlQ","","","","","","","","","","","","","","","","","","","","","","","","","","","","","","","","","","","","","","50",""
"4416","","<div style=""width:500px;"">
  <p>How would you describe your current emotional state?</p>
  </div>","2","html-slider-response","63","1853088","0.0-10.0-3.4","115","1","2025-07-09 09:08:22","7701e855f2ef39aa3fd6c71abdc6918a","41.13.116.167","Mozilla/5.0 (Windows NT 10.0; Win64; x64) AppleWebKit/537.36 (KHTML, like Gecko) Chrome/137.0.0.0 Safari/537.36","WebKit","Chrome","137.0.0.0","Windows","10.0","https://app.prolific.com/","en-US,en;q=0.9","5f60f6b65bd9c0022dcf9ace","686d226cabeef709c732f8e1","686e3138507eb04b5afd7f83","5f60f6b65bd9c0022dcf9ace","2025-07-09T09:39:18.099Z","","","","","","StressQ","","","","","","","","","","","","","","","","","","","","","","","","","","","","","","","","","","","","","","50",""
"4863","","<div style=""width:500px;"">
  <p>What best describes how you currently feel?</p>
  </div>","99","html-slider-response","64","1857953","0.0-10.0-4.4","115","1","2025-07-09 09:08:22","7701e855f2ef39aa3fd6c71abdc6918a","41.13.116.167","Mozilla/5.0 (Windows NT 10.0; Win64; x64) AppleWebKit/537.36 (KHTML, like Gecko) Chrome/137.0.0.0 Safari/537.36","WebKit","Chrome","137.0.0.0","Windows","10.0","https://app.prolific.com/","en-US,en;q=0.9","5f60f6b65bd9c0022dcf9ace","686d226cabeef709c732f8e1","686e3138507eb04b5afd7f83","5f60f6b65bd9c0022dcf9ace","2025-07-09T09:39:22.964Z","","","","","","MotivationQ","","","","","","","","","","","","","","","","","","","","","","","","","","","","","","","","","","","","","","50",""
"","","","","ctl-task-cpt","65","1897826","0.0-10.0-0.5","115","1","2025-07-09 09:08:22","7701e855f2ef39aa3fd6c71abdc6918a","41.13.116.167","Mozilla/5.0 (Windows NT 10.0; Win64; x64) AppleWebKit/537.36 (KHTML, like Gecko) Chrome/137.0.0.0 Safari/537.36","WebKit","Chrome","137.0.0.0","Windows","10.0","https://app.prolific.com/","en-US,en;q=0.9","5f60f6b65bd9c0022dcf9ace","686d226cabeef709c732f8e1","686e3138507eb04b5afd7f83","5f60f6b65bd9c0022dcf9ace","2025-07-09T09:40:02.837Z","","","","","","","","","","","","","","","","win-only","1","g1:NE,g2:SW","0.5","6","0","1861219.3","2260.1","7264.3","36845.9","1","4","8","6","2","8","8","33","25","0.25","2361.2","3000","2390","[""down"",""left""]","{""num_key_presses"":6,""num_perfect"":3,""num_errors"":0,""num_randdir"":3,""num_randdir_good_moves"":3,""num_whilered"":0,""num_whileblue"":0,""num_blue"":2,""num_good_moves"":6}","[416.5714133126395,415.32142761775424,0.9,416.5714133126395,415.32142761775424,124.4,416.5714133126395,415.32142761775424,226.6,416.5714133126395,415.32142761775424,334.3,416.5714133126395,415.32142761775424,439.5,416.5714133126395,415.32142761775424,561.9,416.5714133126395,415.32142761775424,670,416.5714133126395,415.32142761775424,788.8,416.5714133126395,415.32142761775424,889,416.5714133126395,415.32142761775424,998.8,416.5714133126395,415.32142761775424,1107.1,415.3214133126395,415.32142761775424,1224.1,362.8214133126395,446.57142761775424,1341.2,109.0714133126395,681.5714276177542,1468.2,25.321413312639507,786.5714276177542,1588.9,-7.178586687360493,826.5714276177542,1701.9,-23.428586687360493,836.5714276177542,1816.7,12.821413312639507,790.3214276177542,1938,42.82141331263951,769.0714276177542,2063.5,50.32141331263951,767.8214276177542,2173.7,50.32141331263951,767.8214276177542,2296.9,50.32141331263951,767.8214276177542,2411.6,50.32141331263951,767.8214276177542,2515,50.32141331263951,767.8214276177542,2624.7,50.32141331263951,767.8214276177542,2749.7,50.32141331263951,767.8214276177542,2859.1,50.32141331263951,767.8214276177542,2982.8,50.32141331263951,767.8214276177542,3094.4,50.32141331263951,767.8214276177542,3215.5,50.32141331263951,767.8214276177542,3332.4,50.32141331263951,767.8214276177542,3435.1,50.32141331263951,767.8214276177542,3541.7,50.32141331263951,767.8214276177542,3648.7,50.32141331263951,767.8214276177542,3752.8,50.32141331263951,767.8214276177542,3875.9,50.32141331263951,767.8214276177542,4000.8,50.32141331263951,767.8214276177542,4109.1,50.32141331263951,767.8214276177542,4214.1,50.32141331263951,767.8214276177542,4316.6,50.32141331263951,767.8214276177542,4422.3,50.32141331263951,767.8214276177542,4529.5,50.32141331263951,767.8214276177542,4631.5,50.32141331263951,767.8214276177542,4742.1,50.32141331263951,767.8214276177542,4848.1,50.32141331263951,767.8214276177542,4948.7]","[1468.6,1468.6,1000,0,468.6,""smooth"",""down"",""down"",""good_move"",4877.7,3408.3,2944.5,1469.4,463.8,""smooth"",""left"",""left"",""good_move"",9767.1,4888.6,2380.6,4878.5,2508,""oops"",""left"",""left"",""good_move"",17942.6,8175,3053.9,14397.7,491,""oops"",""left"",""left"",""good_move"",21617.3,3674.2,3208.4,17943.1,465.8,""smooth"",""down"",""down"",""good_move"",29191.7,7573.3,2885.3,25894.8,411.6,""oops"",""down"",""down"",""good_move""]","","",""
"4301","","<div style=""width:500px;"">
  <p>What determined the result of this run?</p>
  </div>","96","html-slider-response","66","1902129","0.0-10.0-1.5","115","1","2025-07-09 09:08:22","7701e855f2ef39aa3fd6c71abdc6918a","41.13.116.167","Mozilla/5.0 (Windows NT 10.0; Win64; x64) AppleWebKit/537.36 (KHTML, like Gecko) Chrome/137.0.0.0 Safari/537.36","WebKit","Chrome","137.0.0.0","Windows","10.0","https://app.prolific.com/","en-US,en;q=0.9","5f60f6b65bd9c0022dcf9ace","686d226cabeef709c732f8e1","686e3138507eb04b5afd7f83","5f60f6b65bd9c0022dcf9ace","2025-07-09T09:40:07.140Z","","","","","","AttribQ","","","","","","","","","","","","","","","","","","","","","","","","","","","","","","","","","","","","","","50",""
"3903","","<div style=""width:500px;"">
  <p>How much control did you have over the ball?</p>
  </div>","94","html-slider-response","67","1906034","0.0-10.0-2.5","115","1","2025-07-09 09:08:22","7701e855f2ef39aa3fd6c71abdc6918a","41.13.116.167","Mozilla/5.0 (Windows NT 10.0; Win64; x64) AppleWebKit/537.36 (KHTML, like Gecko) Chrome/137.0.0.0 Safari/537.36","WebKit","Chrome","137.0.0.0","Windows","10.0","https://app.prolific.com/","en-US,en;q=0.9","5f60f6b65bd9c0022dcf9ace","686d226cabeef709c732f8e1","686e3138507eb04b5afd7f83","5f60f6b65bd9c0022dcf9ace","2025-07-09T09:40:11.045Z","","","","","","ControlQ","","","","","","","","","","","","","","","","","","","","","","","","","","","","","","","","","","","","","","50",""
"4484","","<div style=""width:500px;"">
  <p>How would you describe your current emotional state?</p>
  </div>","6","html-slider-response","68","1910520","0.0-10.0-3.5","115","1","2025-07-09 09:08:22","7701e855f2ef39aa3fd6c71abdc6918a","41.13.116.167","Mozilla/5.0 (Windows NT 10.0; Win64; x64) AppleWebKit/537.36 (KHTML, like Gecko) Chrome/137.0.0.0 Safari/537.36","WebKit","Chrome","137.0.0.0","Windows","10.0","https://app.prolific.com/","en-US,en;q=0.9","5f60f6b65bd9c0022dcf9ace","686d226cabeef709c732f8e1","686e3138507eb04b5afd7f83","5f60f6b65bd9c0022dcf9ace","2025-07-09T09:40:15.531Z","","","","","","StressQ","","","","","","","","","","","","","","","","","","","","","","","","","","","","","","","","","","","","","","50",""
"4217","","<div style=""width:500px;"">
  <p>What best describes how you currently feel?</p>
  </div>","95","html-slider-response","69","1914739","0.0-10.0-4.5","115","1","2025-07-09 09:08:22","7701e855f2ef39aa3fd6c71abdc6918a","41.13.116.167","Mozilla/5.0 (Windows NT 10.0; Win64; x64) AppleWebKit/537.36 (KHTML, like Gecko) Chrome/137.0.0.0 Safari/537.36","WebKit","Chrome","137.0.0.0","Windows","10.0","https://app.prolific.com/","en-US,en;q=0.9","5f60f6b65bd9c0022dcf9ace","686d226cabeef709c732f8e1","686e3138507eb04b5afd7f83","5f60f6b65bd9c0022dcf9ace","2025-07-09T09:40:19.750Z","","","","","","MotivationQ","","","","","","","","","","","","","","","","","","","","","","","","","","","","","","","","","","","","","","50",""
"","","","","ctl-task-cpt","70","1945623","0.0-10.0-0.6","115","1","2025-07-09 09:08:22","7701e855f2ef39aa3fd6c71abdc6918a","41.13.116.167","Mozilla/5.0 (Windows NT 10.0; Win64; x64) AppleWebKit/537.36 (KHTML, like Gecko) Chrome/137.0.0.0 Safari/537.36","WebKit","Chrome","137.0.0.0","Windows","10.0","https://app.prolific.com/","en-US,en;q=0.9","5f60f6b65bd9c0022dcf9ace","686d226cabeef709c732f8e1","686e3138507eb04b5afd7f83","5f60f6b65bd9c0022dcf9ace","2025-07-09T09:40:50.634Z","","","","","","","","","","","","","","","","win-only","0","g1:NW,g2:SE","0.4","7","0","1918004.9","1790.5","6796.4","27840.7","1","4","4","6","2","4","4","37","33","0.2803030303030303","2494.4","3000","2380","[""down"",""right""]","{""num_key_presses"":6,""num_perfect"":2,""num_errors"":0,""num_randdir"":4,""num_randdir_good_moves"":4,""num_whilered"":0,""num_whileblue"":0,""num_blue"":1,""num_good_moves"":6}","[411.5714133126395,414.07142761775424,0.3,411.5714133126395,414.07142761775424,114,411.5714133126395,414.07142761775424,226.5,411.5714133126395,414.07142761775424,344.8,411.5714133126395,414.07142761775424,457.4,411.5714133126395,414.07142761775424,569.8,411.5714133126395,414.07142761775424,674.5,411.5714133126395,414.07142761775424,787.2,411.5714133126395,414.07142761775424,906.5,411.5714133126395,414.07142761775424,1020.9,411.5714133126395,414.07142761775424,1142.3,416.5714133126395,416.57142761775424,1269.8,420.3214133126395,416.57142761775424,1386.8,531.5714133126395,452.82142761775424,1520.2,896.5714133126395,699.0714276177542,1658.2,901.5714133126395,701.5714276177542,1766.7,901.5714133126395,701.5714276177542,1874.5,870.3214133126395,727.8214276177542,2006.2,839.0714133126395,737.8214276177542,2106.5,780.3214133126395,747.8214276177542,2241,771.5714133126395,751.5714276177542,2355.9,771.5714133126395,751.5714276177542,2472.4,771.5714133126395,751.5714276177542,2590.5,771.5714133126395,751.5714276177542,2695.9,771.5714133126395,751.5714276177542,2821.2,771.5714133126395,751.5714276177542,2930.2,771.5714133126395,751.5714276177542,3031.6,771.5714133126395,751.5714276177542,3135.6,771.5714133126395,751.5714276177542,3246.9,771.5714133126395,751.5714276177542,3362.3,771.5714133126395,751.5714276177542,3478.4,771.5714133126395,751.5714276177542,3593.6,716.5714133126395,734.0714276177542,3718.8,535.3214133126395,601.5714276177542,3850.3,526.5714133126395,585.3214276177542,3967.7,526.5714133126395,585.3214276177542,4073.3,526.5714133126395,585.3214276177542,4181.3,519.0714133126395,577.8214276177542,4282,440.3214133126395,412.82142761775424,4412.2,441.5714133126395,399.07142761775424,4541.1,366.5714133126395,397.82142761775424,4672.8,347.8214133126395,391.57142761775424,4802.3,346.5714133126395,389.07142761775424,4921.1]","[2000.9,2001,1000,0,1001,""smooth"",""right"",""right"",""good_move"",4348,2346,1746.7,2002,599.3,""smooth"",""right"",""right"",""good_move"",7460.2,3111.3,2551.8,4348.9,559.5,""oops"",""right"",""right"",""good_move"",13940.4,6479.8,2841.3,10642.1,457,""oops"",""down"",""down"",""good_move"",17429.6,3488.6,2857,13941,631.6,""oops"",""down"",""down"",""good_move"",20309.8,2879.6,2057.7,17430.3,821.8,""oops"",""down"",""down"",""good_move""]","","",""
"5812","","<div style=""width:500px;"">
  <p>What determined the result of this run?</p>
  </div>","96","html-slider-response","71","1951439","0.0-10.0-1.6","115","1","2025-07-09 09:08:22","7701e855f2ef39aa3fd6c71abdc6918a","41.13.116.167","Mozilla/5.0 (Windows NT 10.0; Win64; x64) AppleWebKit/537.36 (KHTML, like Gecko) Chrome/137.0.0.0 Safari/537.36","WebKit","Chrome","137.0.0.0","Windows","10.0","https://app.prolific.com/","en-US,en;q=0.9","5f60f6b65bd9c0022dcf9ace","686d226cabeef709c732f8e1","686e3138507eb04b5afd7f83","5f60f6b65bd9c0022dcf9ace","2025-07-09T09:40:56.450Z","","","","","","AttribQ","","","","","","","","","","","","","","","","","","","","","","","","","","","","","","","","","","","","","","50",""
"3363","","<div style=""width:500px;"">
  <p>How much control did you have over the ball?</p>
  </div>","97","html-slider-response","72","1954805","0.0-10.0-2.6","115","1","2025-07-09 09:08:22","7701e855f2ef39aa3fd6c71abdc6918a","41.13.116.167","Mozilla/5.0 (Windows NT 10.0; Win64; x64) AppleWebKit/537.36 (KHTML, like Gecko) Chrome/137.0.0.0 Safari/537.36","WebKit","Chrome","137.0.0.0","Windows","10.0","https://app.prolific.com/","en-US,en;q=0.9","5f60f6b65bd9c0022dcf9ace","686d226cabeef709c732f8e1","686e3138507eb04b5afd7f83","5f60f6b65bd9c0022dcf9ace","2025-07-09T09:40:59.816Z","","","","","","ControlQ","","","","","","","","","","","","","","","","","","","","","","","","","","","","","","","","","","","","","","50",""
"4413","","<div style=""width:500px;"">
  <p>How would you describe your current emotional state?</p>
  </div>","9","html-slider-response","73","1959222","0.0-10.0-3.6","115","1","2025-07-09 09:08:22","7701e855f2ef39aa3fd6c71abdc6918a","41.13.116.167","Mozilla/5.0 (Windows NT 10.0; Win64; x64) AppleWebKit/537.36 (KHTML, like Gecko) Chrome/137.0.0.0 Safari/537.36","WebKit","Chrome","137.0.0.0","Windows","10.0","https://app.prolific.com/","en-US,en;q=0.9","5f60f6b65bd9c0022dcf9ace","686d226cabeef709c732f8e1","686e3138507eb04b5afd7f83","5f60f6b65bd9c0022dcf9ace","2025-07-09T09:41:04.233Z","","","","","","StressQ","","","","","","","","","","","","","","","","","","","","","","","","","","","","","","","","","","","","","","50",""
"3538","","<div style=""width:500px;"">
  <p>What best describes how you currently feel?</p>
  </div>","99","html-slider-response","74","1962764","0.0-10.0-4.6","115","1","2025-07-09 09:08:22","7701e855f2ef39aa3fd6c71abdc6918a","41.13.116.167","Mozilla/5.0 (Windows NT 10.0; Win64; x64) AppleWebKit/537.36 (KHTML, like Gecko) Chrome/137.0.0.0 Safari/537.36","WebKit","Chrome","137.0.0.0","Windows","10.0","https://app.prolific.com/","en-US,en;q=0.9","5f60f6b65bd9c0022dcf9ace","686d226cabeef709c732f8e1","686e3138507eb04b5afd7f83","5f60f6b65bd9c0022dcf9ace","2025-07-09T09:41:07.775Z","","","","","","MotivationQ","","","","","","","","","","","","","","","","","","","","","","","","","","","","","","","","","","","","","","50",""
"","","","","ctl-task-cpt","75","2113463","0.0-10.0-0.7","115","1","2025-07-09 09:08:22","7701e855f2ef39aa3fd6c71abdc6918a","41.13.116.167","Mozilla/5.0 (Windows NT 10.0; Win64; x64) AppleWebKit/537.36 (KHTML, like Gecko) Chrome/137.0.0.0 Safari/537.36","WebKit","Chrome","137.0.0.0","Windows","10.0","https://app.prolific.com/","en-US,en;q=0.9","5f60f6b65bd9c0022dcf9ace","686d226cabeef709c732f8e1","686e3138507eb04b5afd7f83","5f60f6b65bd9c0022dcf9ace","2025-07-09T09:43:38.474Z","","","","","","","","","","","","","","","","win-only","2","g1:SE,g2:NW","0.3","8","0","1966030.4","1933.3","6966.3","147667","1","4","8","6","2","8","8","45","37","0.3409090909090909","2036.5","3000","1355","[""left"",""up""]","{""num_key_presses"":20,""num_perfect"":6,""num_errors"":0,""num_randdir"":14,""num_randdir_good_moves"":7,""num_whilered"":0,""num_whileblue"":0,""num_blue"":5,""num_good_moves"":13}","[412.8214133126395,407.82142761775424,0.9,412.8214133126395,407.82142761775424,105.8,412.8214133126395,407.82142761775424,233,412.8214133126395,407.82142761775424,371.1,412.8214133126395,407.82142761775424,516.3,412.8214133126395,407.82142761775424,646.9,412.8214133126395,407.82142761775424,835.2,397.8214133126395,405.32142761775424,978.1,191.5714133126395,301.57142761775424,1088,157.8214133126395,272.82142761775424,1228.3,157.8214133126395,272.82142761775424,1352.4,122.8214133126395,226.57142761775424,1502,82.8214133126395,120.32142761775425,1604.7,86.5714133126395,107.82142761775425,1707,86.5714133126395,105.32142761775425,1833,87.8214133126395,106.57142761775425,1964.3,87.8214133126395,106.57142761775425,2071.5,87.8214133126395,106.57142761775425,2206.3,87.8214133126395,106.57142761775425,2347.5,87.8214133126395,106.57142761775425,2452.2,87.8214133126395,106.57142761775425,2581.4,87.8214133126395,106.57142761775425,2718.6,87.8214133126395,106.57142761775425,2845.3,91.5714133126395,111.57142761775425,2982.4,220.3214133126395,221.57142761775424,3084.7,296.5714133126395,296.57142761775424,3188.3,327.8214133126395,337.82142761775424,3323.5,327.8214133126395,337.82142761775424,3466.7,450.3214133126395,374.07142761775424,3576.7,470.3214133126395,392.82142761775424,3709.7,475.3214133126395,402.82142761775424,3858.9,476.5714133126395,451.57142761775424,4007.8,476.5714133126395,461.57142761775424,4153.1,476.5714133126395,461.57142761775424,4280,476.5714133126395,461.57142761775424,4409.4,476.5714133126395,461.57142761775424,4542.5,476.5714133126395,461.57142761775424,4677.6,476.5714133126395,461.57142761775424,4815.4,476.5714133126395,461.57142761775424,4942.4]","[1530.1,1530.1,1000,0,530.1,""oops"",""up"",""up"",""good_move"",9413.5,7882.7,2954.6,1530.8,4928.1,""smooth"",""left"",""left"",""good_move"",20301.2,10887.1,1911.6,17925.7,463.9,""oops"",""left"",""left"",""good_move"",28262.5,7960.9,2905.6,20301.6,5055.3,""smooth"",""left"",""left"",""good_move"",40538.7,12275.9,2403.5,37595.1,540.1,""oops"",""up"",""down"",""bad_move"",48275.3,7736.1,3197.9,44527.2,550.2,""smooth"",""up"",""up"",""good_move"",58978.7,10702.7,3152.6,48276,7550.1,""oops"",""up"",""down"",""bad_move"",62331.5,3352.1,2167.7,58979.4,1184.4,""oops"",""up"",""right"",""bad_move"",67392,5059.9,2489.8,62332.1,2570.1,""oops"",""up"",""down"",""bad_move"",70604.5,3212.1,2382.3,67392.4,829.8,""oops"",""up"",""left"",""good_move"",81735.8,11130.9,2288.8,70604.9,8842.1,""oops"",""up"",""up"",""good_move"",92659,10922.8,2427,81736.2,8495.8,""oops"",""up"",""right"",""bad_move"",95503.2,2843.2,1917.5,92660.1,925.6,""smooth"",""up"",""up"",""good_move"",106667.6,11163.9,2665.6,95503.7,8498.3,""smooth"",""up"",""up"",""good_move"",111375.8,4707.5,2011.1,106668.4,2696.3,""oops"",""up"",""left"",""good_move"",115262.3,3885.6,2322.4,111376.7,1563.2,""oops"",""up"",""down"",""bad_move"",125564.4,10301.3,3274.6,121752.5,537.3,""smooth"",""up"",""up"",""good_move"",130527.6,4962.6,2488.2,125565,2474.4,""oops"",""up"",""right"",""bad_move"",134842.8,4314,3195.7,130528.9,1118.3,""oops"",""up"",""up"",""good_move"",140384,5538.9,2586.6,134845.2,2952.3,""oops"",""left"",""left"",""good_move""]","","",""
"4316","","<div style=""width:500px;"">
  <p>What determined the result of this run?</p>
  </div>","92","html-slider-response","76","2117780","0.0-10.0-1.7","115","1","2025-07-09 09:08:22","7701e855f2ef39aa3fd6c71abdc6918a","41.13.116.167","Mozilla/5.0 (Windows NT 10.0; Win64; x64) AppleWebKit/537.36 (KHTML, like Gecko) Chrome/137.0.0.0 Safari/537.36","WebKit","Chrome","137.0.0.0","Windows","10.0","https://app.prolific.com/","en-US,en;q=0.9","5f60f6b65bd9c0022dcf9ace","686d226cabeef709c732f8e1","686e3138507eb04b5afd7f83","5f60f6b65bd9c0022dcf9ace","2025-07-09T09:43:42.792Z","","","","","","AttribQ","","","","","","","","","","","","","","","","","","","","","","","","","","","","","","","","","","","","","","50",""
"5587","","<div style=""width:500px;"">
  <p>How much control did you have over the ball?</p>
  </div>","93","html-slider-response","77","2123406","0.0-10.0-2.7","115","1","2025-07-09 09:08:22","7701e855f2ef39aa3fd6c71abdc6918a","41.13.116.167","Mozilla/5.0 (Windows NT 10.0; Win64; x64) AppleWebKit/537.36 (KHTML, like Gecko) Chrome/137.0.0.0 Safari/537.36","WebKit","Chrome","137.0.0.0","Windows","10.0","https://app.prolific.com/","en-US,en;q=0.9","5f60f6b65bd9c0022dcf9ace","686d226cabeef709c732f8e1","686e3138507eb04b5afd7f83","5f60f6b65bd9c0022dcf9ace","2025-07-09T09:43:48.417Z","","","","","","ControlQ","","","","","","","","","","","","","","","","","","","","","","","","","","","","","","","","","","","","","","50",""
"5340","","<div style=""width:500px;"">
  <p>How would you describe your current emotional state?</p>
  </div>","26","html-slider-response","78","2128748","0.0-10.0-3.7","115","1","2025-07-09 09:08:22","7701e855f2ef39aa3fd6c71abdc6918a","41.13.116.167","Mozilla/5.0 (Windows NT 10.0; Win64; x64) AppleWebKit/537.36 (KHTML, like Gecko) Chrome/137.0.0.0 Safari/537.36","WebKit","Chrome","137.0.0.0","Windows","10.0","https://app.prolific.com/","en-US,en;q=0.9","5f60f6b65bd9c0022dcf9ace","686d226cabeef709c732f8e1","686e3138507eb04b5afd7f83","5f60f6b65bd9c0022dcf9ace","2025-07-09T09:43:53.759Z","","","","","","StressQ","","","","","","","","","","","","","","","","","","","","","","","","","","","","","","","","","","","","","","50",""
"3858","","<div style=""width:500px;"">
  <p>What best describes how you currently feel?</p>
  </div>","90","html-slider-response","79","2132608","0.0-10.0-4.7","115","1","2025-07-09 09:08:22","7701e855f2ef39aa3fd6c71abdc6918a","41.13.116.167","Mozilla/5.0 (Windows NT 10.0; Win64; x64) AppleWebKit/537.36 (KHTML, like Gecko) Chrome/137.0.0.0 Safari/537.36","WebKit","Chrome","137.0.0.0","Windows","10.0","https://app.prolific.com/","en-US,en;q=0.9","5f60f6b65bd9c0022dcf9ace","686d226cabeef709c732f8e1","686e3138507eb04b5afd7f83","5f60f6b65bd9c0022dcf9ace","2025-07-09T09:43:57.620Z","","","","","","MotivationQ","","","","","","","","","","","","","","","","","","","","","","","","","","","","","","","","","","","","","","50",""
"","","","","ctl-task-cpt","80","2202513","0.0-10.0-0.8","115","1","2025-07-09 09:08:22","7701e855f2ef39aa3fd6c71abdc6918a","41.13.116.167","Mozilla/5.0 (Windows NT 10.0; Win64; x64) AppleWebKit/537.36 (KHTML, like Gecko) Chrome/137.0.0.0 Safari/537.36","WebKit","Chrome","137.0.0.0","Windows","10.0","https://app.prolific.com/","en-US,en;q=0.9","5f60f6b65bd9c0022dcf9ace","686d226cabeef709c732f8e1","686e3138507eb04b5afd7f83","5f60f6b65bd9c0022dcf9ace","2025-07-09T09:45:07.524Z","","","","","","","","","","","","","","","","win-only","3","g1:SW,g2:NE","0.2","9","0","2135875.6","1587.7","6603","66875.1","1","4","8","6","2","8","8","53","45","0.4015151515151515","1909.4","3000","1705","[""up"",""right""]","{""num_key_presses"":14,""num_perfect"":4,""num_errors"":0,""num_randdir"":10,""num_randdir_good_moves"":6,""num_whilered"":0,""num_whileblue"":0,""num_blue"":1,""num_good_moves"":10}","[412.8214133126395,420.32142761775424,0.5,412.8214133126395,420.32142761775424,119.1,412.8214133126395,420.32142761775424,225,412.8214133126395,420.32142761775424,361.2,412.8214133126395,420.32142761775424,487.6,412.8214133126395,420.32142761775424,612.3,412.8214133126395,420.32142761775424,737.1,412.8214133126395,420.32142761775424,849.8,520.3214133126395,332.82142761775424,968.5,704.0714133126395,239.07142761775424,1092.5,731.5714133126395,231.57142761775424,1203.8,731.5714133126395,231.57142761775424,1320.7,754.0714133126395,146.57142761775424,1445.2,769.0714133126395,102.82142761775425,1560.6,769.0714133126395,101.57142761775425,1681.8,766.5714133126395,101.57142761775425,1799.2,766.5714133126395,101.57142761775425,1900.6,766.5714133126395,101.57142761775425,2014.3,766.5714133126395,101.57142761775425,2123.3,766.5714133126395,101.57142761775425,2243,766.5714133126395,101.57142761775425,2364,766.5714133126395,101.57142761775425,2464.8,766.5714133126395,101.57142761775425,2583,766.5714133126395,101.57142761775425,2707.4,766.5714133126395,101.57142761775425,2807.9,604.0714133126395,207.82142761775424,2907.9,526.5714133126395,314.07142761775424,3026.1,487.8214133126395,437.82142761775424,3143.6,460.3214133126395,484.07142761775424,3247,445.3214133126395,501.57142761775424,3360.4,437.8214133126395,506.57142761775424,3482.1,436.5714133126395,506.57142761775424,3599.7,436.5714133126395,506.57142761775424,3714.5,436.5714133126395,506.57142761775424,3835.3,392.8214133126395,492.82142761775424,3943.4,381.5714133126395,487.82142761775424,4057.5,381.5714133126395,487.82142761775424,4163.4,381.5714133126395,487.82142761775424,4264.5,381.5714133126395,487.82142761775424,4391.5,381.5714133126395,487.82142761775424,4496.1,381.5714133126395,487.82142761775424,4607.9,381.5714133126395,487.82142761775424,4717.1,381.5714133126395,487.82142761775424,4832.9,381.5714133126395,487.82142761775424,4936.6]","[1502.8,1502.8,1000,0,502.8,""oops"",""right"",""up"",""good_move"",7090.5,5586.9,1899.9,1503.6,3687,""oops"",""up"",""right"",""good_move"",10401.7,3310.2,2669.3,7091.5,640.9,""oops"",""right"",""up"",""good_move"",20305.4,9903.1,2864.7,16974.9,465.8,""oops"",""up"",""left"",""bad_move"",26300.9,5993.3,2820.2,20307.6,3173.1,""oops"",""right"",""left"",""bad_move"",31252.6,4951.3,3178.6,26301.3,1772.7,""oops"",""right"",""left"",""bad_move"",36558,5304.9,2581.7,31253.1,2723.2,""smooth"",""right"",""right"",""good_move"",39241.4,2682.3,2008.9,36559.2,673.3,""oops"",""right"",""right"",""good_move"",41791.6,2549.8,1667.7,39241.8,882.1,""smooth"",""right"",""right"",""good_move"",44903,3110.1,2558.3,41792.9,551.8,""oops"",""right"",""down"",""bad_move"",48329.5,3425.6,2580.5,44903.9,845.1,""oops"",""right"",""right"",""good_move"",51182.4,2852,1801.3,48330.4,1050.7,""smooth"",""right"",""right"",""good_move"",54851.4,3668.5,3181.8,51182.9,486.7,""oops"",""up"",""up"",""good_move"",59775.9,4923.8,3131.7,54852.1,1792.2,""smooth"",""up"",""up"",""good_move""]","","",""
"4443","","<div style=""width:500px;"">
  <p>What determined the result of this run?</p>
  </div>","90","html-slider-response","81","2206958","0.0-10.0-1.8","115","1","2025-07-09 09:08:22","7701e855f2ef39aa3fd6c71abdc6918a","41.13.116.167","Mozilla/5.0 (Windows NT 10.0; Win64; x64) AppleWebKit/537.36 (KHTML, like Gecko) Chrome/137.0.0.0 Safari/537.36","WebKit","Chrome","137.0.0.0","Windows","10.0","https://app.prolific.com/","en-US,en;q=0.9","5f60f6b65bd9c0022dcf9ace","686d226cabeef709c732f8e1","686e3138507eb04b5afd7f83","5f60f6b65bd9c0022dcf9ace","2025-07-09T09:45:11.969Z","","","","","","AttribQ","","","","","","","","","","","","","","","","","","","","","","","","","","","","","","","","","","","","","","50",""
"4615","","<div style=""width:500px;"">
  <p>How much control did you have over the ball?</p>
  </div>","89","html-slider-response","82","2211575","0.0-10.0-2.8","115","1","2025-07-09 09:08:22","7701e855f2ef39aa3fd6c71abdc6918a","41.13.116.167","Mozilla/5.0 (Windows NT 10.0; Win64; x64) AppleWebKit/537.36 (KHTML, like Gecko) Chrome/137.0.0.0 Safari/537.36","WebKit","Chrome","137.0.0.0","Windows","10.0","https://app.prolific.com/","en-US,en;q=0.9","5f60f6b65bd9c0022dcf9ace","686d226cabeef709c732f8e1","686e3138507eb04b5afd7f83","5f60f6b65bd9c0022dcf9ace","2025-07-09T09:45:16.586Z","","","","","","ControlQ","","","","","","","","","","","","","","","","","","","","","","","","","","","","","","","","","","","","","","50",""
"4599","","<div style=""width:500px;"">
  <p>How would you describe your current emotional state?</p>
  </div>","10","html-slider-response","83","2216175","0.0-10.0-3.8","115","1","2025-07-09 09:08:22","7701e855f2ef39aa3fd6c71abdc6918a","41.13.116.167","Mozilla/5.0 (Windows NT 10.0; Win64; x64) AppleWebKit/537.36 (KHTML, like Gecko) Chrome/137.0.0.0 Safari/537.36","WebKit","Chrome","137.0.0.0","Windows","10.0","https://app.prolific.com/","en-US,en;q=0.9","5f60f6b65bd9c0022dcf9ace","686d226cabeef709c732f8e1","686e3138507eb04b5afd7f83","5f60f6b65bd9c0022dcf9ace","2025-07-09T09:45:21.186Z","","","","","","StressQ","","","","","","","","","","","","","","","","","","","","","","","","","","","","","","","","","","","","","","50",""
"3160","","<div style=""width:500px;"">
  <p>What best describes how you currently feel?</p>
  </div>","92","html-slider-response","84","2219336","0.0-10.0-4.8","115","1","2025-07-09 09:08:22","7701e855f2ef39aa3fd6c71abdc6918a","41.13.116.167","Mozilla/5.0 (Windows NT 10.0; Win64; x64) AppleWebKit/537.36 (KHTML, like Gecko) Chrome/137.0.0.0 Safari/537.36","WebKit","Chrome","137.0.0.0","Windows","10.0","https://app.prolific.com/","en-US,en;q=0.9","5f60f6b65bd9c0022dcf9ace","686d226cabeef709c732f8e1","686e3138507eb04b5afd7f83","5f60f6b65bd9c0022dcf9ace","2025-07-09T09:45:24.348Z","","","","","","MotivationQ","","","","","","","","","","","","","","","","","","","","","","","","","","","","","","","","","","","","","","50",""
